* Sea-Bird SBE19plus  Data File:
* FileName = C:\DATA\061019_fcr_0002.hex
* Software version 2.8.0.119
* Temperature SN = 7809
* Conductivity SN = 7809
* System UpLoad Time = Jun 10 2019 13:28:20
* <ApplicationData>
* <Seaterm232>
* <SoftwareVersion>2.8.0.119</SoftwareVersion>
* <BuildDate>07-Nov-2018</BuildDate>
* </Seaterm232>
* </ApplicationData>
* <InstrumentState>
* <HardwareData DeviceType='SBE19plus' SerialNumber='01907809'>
*
*    <Manufacturer>Sea-Bird Electronics, Inc.</Manufacturer>
*
*    <FirmwareVersion>3.1.8</FirmwareVersion>
*
*    <FirmwareDate>Mar  9 2016 16:22:29</FirmwareDate>
*
*    <CommandSetVersion>1.4</CommandSetVersion>
*
*    <PCBAssembly PCBSerialNum='120721' AssemblyNum='41054J'/>
*
*    <PCBAssembly PCBSerialNum='120715' AssemblyNum='41967A'/>
*
*    <PCBAssembly PCBSerialNum='116699' AssemblyNum='41606'/>
*
*    <PCBAssembly PCBSerialNum='120719' AssemblyNum='41059D'/>
*
*    <MfgDate>28-Apr-2017</MfgDate>
*
*    <InternalSensors>
*
*       <Sensor id='Main Temperature'>
*
*          <type>temperature0</type>
*
*          <SerialNumber>01907809</SerialNumber>
*
*       </Sensor>
*
*       <Sensor id='Main Conductivity'>
*
*          <type>conductivity-0</type>
*
*          <SerialNumber>01907809</SerialNumber>
*
*       </Sensor>
*
*       <Sensor id='Main Pressure'>
*
*          <type>strain-0</type>
*
*          <SerialNumber>10586018</SerialNumber>
*
*       </Sensor>
*
*    </InternalSensors>
*
*    <ExternalSensors>
*
*       <Sensor id='volt 0'>
*
*          <type>pH</type>
*
*          <SerialNumber>27-0363</SerialNumber>
*
*       </Sensor>
*
*       <Sensor id='volt 1'>
*
*          <type>ORP</type>
*
*          <SerialNumber>27-0363</SerialNumber>
*
*       </Sensor>
*
*       <Sensor id='volt 2'>
*
*          <type>OXY</type>
*
*          <SerialNumber>43-0434</SerialNumber>
*
*       </Sensor>
*
*       <Sensor id='volt 3'>
*
*          <type>PAR</type>
*
*          <SerialNumber>1122</SerialNumber>
*
*       </Sensor>
*
*       <Sensor id='volt 4'>
*
*          <type>ECO AFL/FL</type>
*
*          <SerialNumber>FLNTURT-2496</SerialNumber>
*
*       </Sensor>
*
*       <Sensor id='volt 5'>
*
*          <type>ECO-NTU</type>
*
*          <SerialNumber>FLNTURT-2496</SerialNumber>
*
*       </Sensor>
*
*       <Sensor id='serial'>
*
*          <type>not assigned</type>
*
*          <SerialNumber>not assigned</SerialNumber>
*
*       </Sensor>
*
*    </ExternalSensors>
*
* </HardwareData>
* <StatusData DeviceType='SBE19plus' SerialNumber='01907809'>
*
*    <DateTime>2019-06-10T13:27:22</DateTime>
*
*    <LoggingState>not logging</LoggingState>
*
*    <EventSummary numEvents='0'/>
*
*    <Power>
*
*       <vMain>13.5</vMain>
*
*       <vLith>8.6</vLith>
*
*       <iMain>63.1</iMain>
*
*       <iPump>148.4</iPump>
*
*       <iExt01>19.7</iExt01>
*
*       <iExt2345>35.3</iExt2345>
*
*    </Power>
*
*    <MemorySummary>
*
*       <Bytes>109940</Bytes>
*
*       <Samples>4780</Samples>
*
*       <SamplesFree>2856008</SamplesFree>
*
*       <SampleLength>23</SampleLength>
*
*       <Profiles>6</Profiles>
*
*    </MemorySummary>
*
* </StatusData>
* <ConfigurationData DeviceType='SBE19plus' SerialNumber='01907809'>
*
*    <ProfileMode>
*
*       <ScansToAverage>1</ScansToAverage>
*
*       <MinimumCondFreq>5</MinimumCondFreq>
*
*       <PumpDelay>45</PumpDelay>
*
*       <AutoRun>no</AutoRun>
*
*       <IgnoreSwitch>no</IgnoreSwitch>
*
*    </ProfileMode>
*
*    <Battery>
*
*       <Type>alkaline</Type>
*
*       <CutOff>7.5</CutOff>
*
*    </Battery>
*
*    <DataChannels>
*
*       <ExtVolt0>yes</ExtVolt0>
*
*       <ExtVolt1>yes</ExtVolt1>
*
*       <ExtVolt2>yes</ExtVolt2>
*
*       <ExtVolt3>yes</ExtVolt3>
*
*       <ExtVolt4>yes</ExtVolt4>
*
*       <ExtVolt5>yes</ExtVolt5>
*
*       <SBE38>no</SBE38>
*
*       <WETLABS>no</WETLABS>
*
*       <OPTODE>no</OPTODE>
*
*       <SBE63>no</SBE63>
*
*       <SeaFET>no</SeaFET>
*
*       <GTD>no</GTD>
*
*    </DataChannels>
*
*    <EchoCharacters>yes</EchoCharacters>
*
*    <OutputExecutedTag>yes</OutputExecutedTag>
*
*    <OutputFormat>raw HEX</OutputFormat>
*
* </ConfigurationData>
* <CalibrationCoefficients DeviceType='SBE19plus' SerialNumber='01907809'>
*
*    <Calibration format='TEMP1' id='Main Temperature'>
*
*       <SerialNum>01907809</SerialNum>
*
*       <CalDate>24-Mar-19</CalDate>
*
*       <TA0>1.217923e-03</TA0>
*
*       <TA1>2.816693e-04</TA1>
*
*       <TA2>-1.603333e-06</TA2>
*
*       <TA3>1.984146e-07</TA3>
*
*       <TOFFSET>0.000000e+00</TOFFSET>
*
*    </Calibration>
*
*    <Calibration format='WBCOND0' id='Main Conductivity'>
*
*       <SerialNum>01907809</SerialNum>
*
*       <CalDate>24-Mar-19</CalDate>
*
*       <G>-1.005893e+00</G>
*
*       <H>1.268163e-01</H>
*
*       <I>-1.515604e-04</I>
*
*       <J>2.671373e-05</J>
*
*       <CPCOR>-9.570000e-08</CPCOR>
*
*       <CTCOR>3.250000e-06</CTCOR>
*
*       <CSLOPE>1.000000e+00</CSLOPE>
*
*    </Calibration>
*
*    <Calibration format='STRAIN0' id='Main Pressure'>
*
*       <SerialNum>10586018</SerialNum>
*
*       <CalDate>11-Mar-19</CalDate>
*
*       <PA0>4.565618e-02</PA0>
*
*       <PA1>4.850951e-04</PA1>
*
*       <PA2>-2.883271e-12</PA2>
*
*       <PTCA0>5.252467e+05</PTCA0>
*
*       <PTCA1>1.223042e+01</PTCA1>
*
*       <PTCA2>-3.567450e-01</PTCA2>
*
*       <PTCB0>2.516687e+01</PTCB0>
*
*       <PTCB1>3.750000e-04</PTCB1>
*
*       <PTCB2>0.000000e+00</PTCB2>
*
*       <PTEMPA0>-5.487846e+01</PTEMPA0>
*
*       <PTEMPA1>5.537568e+01</PTEMPA1>
*
*       <PTEMPA2>-5.867271e-01</PTEMPA2>
*
*       <POFFSET>7.140000e-01</POFFSET>
*
*       <PRANGE>1.600000e+02</PRANGE>
*
*    </Calibration>
*
*    <Calibration format='VOLT0' id='Volt 0'>
*
*       <OFFSET>-4.920000e-02</OFFSET>
*
*       <SLOPE>1.248122e+00</SLOPE>
*
*    </Calibration>
*
*    <Calibration format='VOLT0' id='Volt 1'>
*
*       <OFFSET>-4.784000e-02</OFFSET>
*
*       <SLOPE>1.248871e+00</SLOPE>
*
*    </Calibration>
*
*    <Calibration format='VOLT0' id='Volt 2'>
*
*       <OFFSET>-4.864632e-02</OFFSET>
*
*       <SLOPE>1.248714e+00</SLOPE>
*
*    </Calibration>
*
*    <Calibration format='VOLT0' id='Volt 3'>
*
*       <OFFSET>-4.743790e-02</OFFSET>
*
*       <SLOPE>1.248571e+00</SLOPE>
*
*    </Calibration>
*
*    <Calibration format='VOLT0' id='Volt 4'>
*
*       <OFFSET>-4.671263e-02</OFFSET>
*
*       <SLOPE>1.248951e+00</SLOPE>
*
*    </Calibration>
*
*    <Calibration format='VOLT0' id='Volt 5'>
*
*       <OFFSET>-4.871053e-02</OFFSET>
*
*       <SLOPE>1.249136e+00</SLOPE>
*
*    </Calibration>
*
*    <Calibration format='FREQ0' id='external frequency channel'>
*
*       <EXTFREQSF>1.000014e+00</EXTFREQSF>
*
*    </Calibration>
*
* </CalibrationCoefficients>
* <EventCounters DeviceType='SBE19plus' SerialNumber='01907809'>
*
*    <EventSummary numEvents='0'/>
*
* </EventCounters></InstrumentState>
* <Headers>
*
* cast   2 10 Jun 2019 12:06:24 samples 1232 to 1662, avg = 1, stop = mag switch
*
# nquan = 18
# nvalues = 398                         
# units = specified
# name 0 = depFM: Depth [fresh water, m]
# name 1 = tv290C: Temperature [ITS-90, deg C]
# name 2 = sbeox0Mg/L: Oxygen, SBE 43 [mg/l]
# name 3 = sbeox0PS: Oxygen, SBE 43 [% saturation]
# name 4 = c0uS/cm: Conductivity [uS/cm]
# name 5 = specc: Specific Conductance [uS/cm]
# name 6 = ph: pH
# name 7 = orp: Oxidation Reduction Potential [mV]
# name 8 = flECO-AFL: Fluorescence, WET Labs ECO-AFL/FL [mg/m^3]
# name 9 = turbWETntu0: Turbidity, WET Labs ECO [NTU]
# name 10 = sal00: Salinity, Practical [PSU]
# name 11 = dz/dtM: Descent Rate [m/s]
# name 12 = prdM: Pressure, Strain Gauge [db]
# name 13 = prdE: Pressure, Strain Gauge [psi]
# name 14 = scan: Scan Count
# name 15 = par/sat/log: PAR/Logarithmic, Satlantic
# name 16 = density00: Density [density, kg/m^3]
# name 17 = flag:  0.000e+00
# span 0 =     -0.595,      2.678       
# span 1 =    18.8116,    21.6992       
# span 2 =    -1.0177,    10.0700       
# span 3 =    -10.939,    114.299       
# span 4 =   0.150132,  60.447383       
# span 5 =      0.536,     69.363       
# span 6 =      7.659,     10.704       
# span 7 =     8.6952,   371.3677       
# span 8 =    -0.1522,     3.1400       
# span 9 =    -0.3114,     7.9655       
# span 10 =     0.0102,     0.0366      
# span 11 =     -0.178,      0.319      
# span 12 =     -0.584,      2.625      
# span 13 =     -0.846,      3.808      
# span 14 =          1,        398      
# span 15 = 2.0473e+01, 4.5860e+02      
# span 16 =   997.8553,   998.4820      
# span 17 = 0.0000e+00, 0.0000e+00      
# interval = seconds: 0.25
# start_time = Jun 10 2019 12:06:24 [Instrument's time stamp, header]
# bad_flag = -9.990e-29
# <Sensors count="9" >
#   <sensor Channel="1" >
#     <!-- Count, Temperature -->
#     <TemperatureSensor SensorID="58" >
#       <SerialNumber>7809</SerialNumber>
#       <CalibrationDate>24-Mar-19</CalibrationDate>
#       <A0>1.21792325e-003</A0>
#       <A1>2.81669265e-004</A1>
#       <A2>-1.60333336e-006</A2>
#       <A3>1.98414625e-007</A3>
#       <Slope>1.00000000</Slope>
#       <Offset>0.0000</Offset>
#     </TemperatureSensor>
#   </sensor>
#   <sensor Channel="2" >
#     <!-- Frequency 0, Conductivity -->
#     <ConductivitySensor SensorID="3" >
#       <SerialNumber>7809</SerialNumber>
#       <CalibrationDate>24-Mar-19</CalibrationDate>
#       <UseG_J>1</UseG_J>
#       <!-- Cell const and series R are applicable only for wide range sensors. -->
#       <SeriesR>0.0000</SeriesR>
#       <CellConst>2000.0000</CellConst>
#       <ConductivityType>0</ConductivityType>
#       <Coefficients equation="0" >
#         <A>0.00000000e+000</A>
#         <B>0.00000000e+000</B>
#         <C>0.00000000e+000</C>
#         <D>0.00000000e+000</D>
#         <M>0.0</M>
#         <CPcor>-9.57000000e-008</CPcor>
#       </Coefficients>
#       <Coefficients equation="1" >
#         <G>-1.00589325e+000</G>
#         <H>1.26816302e-001</H>
#         <I>-1.51560448e-004</I>
#         <J>2.67137274e-005</J>
#         <CPcor>-9.57000000e-008</CPcor>
#         <CTcor>3.2500e-006</CTcor>
#         <!-- WBOTC not applicable unless ConductivityType = 1. -->
#         <WBOTC>0.00000000e+000</WBOTC>
#       </Coefficients>
#       <Slope>1.00000000</Slope>
#       <Offset>0.00000</Offset>
#     </ConductivitySensor>
#   </sensor>
#   <sensor Channel="3" >
#     <!-- Count, Pressure, Strain Gauge -->
#     <PressureSensor SensorID="46" >
#       <SerialNumber>7809</SerialNumber>
#       <CalibrationDate>11-Mar-19</CalibrationDate>
#       <PA0>4.56561833e-002</PA0>
#       <PA1>4.85095118e-004</PA1>
#       <PA2>-2.88327090e-012</PA2>
#       <PTEMPA0>-5.48784562e+001</PTEMPA0>
#       <PTEMPA1>5.53756816e+001</PTEMPA1>
#       <PTEMPA2>-5.86727098e-001</PTEMPA2>
#       <PTCA0>5.25246745e+005</PTCA0>
#       <PTCA1>1.22304214e+001</PTCA1>
#       <PTCA2>-3.56745036e-001</PTCA2>
#       <PTCB0>2.51668750e+001</PTCB0>
#       <PTCB1>3.75000000e-004</PTCB1>
#       <PTCB2>0.00000000e+000</PTCB2>
#       <Offset>0.000000</Offset>
#     </PressureSensor>
#   </sensor>
#   <sensor Channel="4" >
#     <!-- A/D voltage 0, Oxygen, SBE 43 -->
#     <OxygenSensor SensorID="38" >
#       <SerialNumber>0434</SerialNumber>
#       <CalibrationDate>13-Apr-19</CalibrationDate>
#       <Use2007Equation>1</Use2007Equation>
#       <CalibrationCoefficients equation="0" >
#         <!-- Coefficients for Owens-Millard equation. -->
#         <Boc>0.0000</Boc>
#         <Soc>0.0000e+000</Soc>
#         <offset>0.0000</offset>
#         <Pcor>0.00e+000</Pcor>
#         <Tcor>0.0000</Tcor>
#         <Tau>0.0</Tau>
#       </CalibrationCoefficients>
#       <CalibrationCoefficients equation="1" >
#         <!-- Coefficients for Sea-Bird equation - SBE calibration in 2007 and later. -->
#         <Soc>4.2007e-001</Soc>
#         <offset>-0.6109</offset>
#         <A>-4.3656e-003</A>
#         <B> 1.7017e-004</B>
#         <C>-2.5341e-006</C>
#         <D0> 2.5826e+000</D0>
#         <D1> 1.92634e-004</D1>
#         <D2>-4.64803e-002</D2>
#         <E> 3.6000e-002</E>
#         <Tau20> 1.1800</Tau20>
#         <H1>-3.3000e-002</H1>
#         <H2> 5.0000e+003</H2>
#         <H3> 1.4500e+003</H3>
#       </CalibrationCoefficients>
#     </OxygenSensor>
#   </sensor>
#   <sensor Channel="5" >
#     <!-- A/D voltage 1, PAR/Logarithmic, Satlantic -->
#     <PARLog_SatlanticSensor SensorID="76" >
#       <SerialNumber>1122</SerialNumber>
#       <CalibrationDate>08-May-2019</CalibrationDate>
#       <a0>9.7456e-001</a0>
#       <a1>8.1640e-001</a1>
#       <Im>1.3589e+000</Im>
#       <Multiplier>1.0000e+000</Multiplier>
#     </PARLog_SatlanticSensor>
#   </sensor>
#   <sensor Channel="6" >
#     <!-- A/D voltage 2, pH -->
#     <pH_Sensor SensorID="43" >
#       <SerialNumber>0363</SerialNumber>
#       <CalibrationDate>15-Apr-19</CalibrationDate>
#       <Slope>4.5952</Slope>
#       <Offset>2.5370</Offset>
#     </pH_Sensor>
#   </sensor>
#   <sensor Channel="7" >
#     <!-- A/D voltage 3, Oxidation Reduction Potential -->
#     <OxidationReductionPotentialSensor SensorID="41" >
#       <SerialNumber>0363</SerialNumber>
#       <CalibrationDate>15-Apr-19</CalibrationDate>
#       <B>2.499480</B>
#       <M>-0.496195</M>
#       <Offset>0.0</Offset>
#     </OxidationReductionPotentialSensor>
#   </sensor>
#   <sensor Channel="8" >
#     <!-- A/D voltage 4, Fluorometer, WET Labs ECO-AFL/FL -->
#     <FluoroWetlabECO_AFL_FL_Sensor SensorID="20" >
#       <SerialNumber>FLNTURT-2496</SerialNumber>
#       <CalibrationDate>08-May-2019</CalibrationDate>
#       <ScaleFactor>5.00000000e+001</ScaleFactor>
#       <!-- Dark output -->
#       <Vblank>0.0550</Vblank>
#     </FluoroWetlabECO_AFL_FL_Sensor>
#   </sensor>
#   <sensor Channel="9" >
#     <!-- A/D voltage 5, Turbidity Meter, WET Labs, ECO-NTU -->
#     <TurbidityMeter SensorID="67" >
#       <SerialNumber>FLNTURT-2496</SerialNumber>
#       <CalibrationDate>08-May-2019</CalibrationDate>
#       <ScaleFactor>189.000000</ScaleFactor>
#       <!-- Dark output -->
#       <DarkVoltage>0.071000</DarkVoltage>
#     </TurbidityMeter>
#   </sensor>
# </Sensors>
# datcnv_date = Jun 10 2019 13:33:09, 7.26.7.129 [datcnv_vars = 17]
# datcnv_in = C:\DATA\061019_fcr10.hex C:\DATA\SBE19plusV2_7809.xmlcon
# datcnv_skipover = 0
# datcnv_ox_hysteresis_correction = yes
# datcnv_ox_tau_correction = yes
# filter_date = Jun 10 2019 13:33:32, 7.26.7.129
# filter_in = C:\DATA\061019_fcr10.cnv
# filter_low_pass_tc_A = 0.030
# filter_low_pass_tc_B = 0.150
# filter_low_pass_A_vars = tv290C c0uS/cm par/sat/log density00
# filter_low_pass_B_vars = prdM prdE
# alignctd_date = Jun 10 2019 13:33:49, 7.26.7.129
# alignctd_in = C:\DATA\061019_fcr10.cnv
# alignctd_adv = tv290C 0.500, sbeox0Mg/L 3.000, sbeox0PS 3.000                                                                                                                                                                      
# file_type = ascii
*END*
     -0.595    20.7920     8.6439     96.929   0.609029      0.658      7.825     8.6952    -0.1254    -0.2682     0.0103 -2.105e-16     -0.584     -0.846          1 1.7299e+02   998.0431 0.0000e+00
     -0.595    20.7909     8.6236     97.084   0.532503      0.597      7.741    98.1140    -0.1254    -0.3114     0.0103     -0.000     -0.584     -0.846          2 1.3395e+02   998.0435 0.0000e+00
     -0.595    20.7886     8.6119     97.230   0.516130      0.536      7.685   157.2471    -0.1064    -0.2970     0.0103      0.000     -0.583     -0.846          3 1.1927e+02   998.0438 0.0000e+00
     -0.594    20.7866     8.6013     97.324   0.511076      0.597      7.659   182.1571    -0.1407    -0.1961     0.0103      0.000     -0.583     -0.845          4 1.1624e+02   998.0440 0.0000e+00
     -0.594    20.7809     8.6058     97.518   0.538793      0.536      7.672   222.6644    -0.1522    -0.2682     0.0103      0.000     -0.583     -0.845          5 1.1937e+02   998.0445 0.0000e+00
     -0.594    20.7761     8.6332     97.906   0.422474      0.536      7.685   328.7783    -0.1102    -0.2970     0.0103      0.000     -0.583     -0.845          6 1.5142e+02   998.0450 0.0000e+00
     -0.595    20.7675     8.6761     98.418   0.596669      0.536      7.701   358.0798    -0.0911    -0.1961     0.0103      0.000     -0.583     -0.845          7 1.9098e+02   998.0462 0.0000e+00
     -0.594    20.7644     8.7293     99.023   0.322010      0.536      7.711   363.9477    -0.1254    -0.1816     0.0103      0.000     -0.583     -0.845          8 2.1862e+02   998.0472 0.0000e+00
     -0.594    20.7506     8.7890     99.701   0.823446      0.597      7.723   367.6198    -0.1293    -0.1095     0.0103      0.000     -0.583     -0.844          9 2.6651e+02   998.0490 0.0000e+00
     -0.594    20.7870     8.8444    100.316   0.150132      0.658      7.726   371.3677    -0.1331    -0.0230     0.0103      0.000     -0.578     -0.838         10 3.3314e+02   998.0496 0.0000e+00
     -0.583    20.9735     8.9065    101.002   1.485341      0.811      7.729   287.3246    -0.1522    -0.0086     0.0102      0.003     -0.555     -0.804         11 3.7950e+02   998.0529 0.0000e+00
     -0.518    21.1798     8.9399    101.363  16.711035     18.506      7.869   273.8474    -0.1331     0.0779     0.0158      0.022     -0.496     -0.719         12 4.1506e+02   998.0495 0.0000e+00
     -0.417    21.3249     8.9543    101.515  30.191101     33.236      8.420   287.1732    -0.1522    -0.0230     0.0218      0.063     -0.408     -0.592         13 4.3583e+02   998.0141 0.0000e+00
     -0.315    21.4390     8.9483    101.444  30.690703     32.970      9.075   292.5868    -0.1178     0.0058     0.0217      0.119     -0.313     -0.455         14 4.5482e+02   997.9699 0.0000e+00
     -0.228    21.5139     8.9349    101.296  30.364147     32.926      9.580   272.0681    -0.1216    -0.0230     0.0218      0.179     -0.226     -0.329         15 4.5247e+02   997.9383 0.0000e+00
     -0.150    21.5553     8.9062    100.974  30.597430     32.846     10.001   240.1545    -0.1254     0.0635     0.0218      0.235     -0.148     -0.216         16 4.5860e+02   997.9136 0.0000e+00
     -0.074    21.5684     8.8764    100.637  30.459592     32.792     10.319   233.8702     1.8506     3.8992     0.0218      0.283     -0.077     -0.111         17 4.2003e+02   997.8973 0.0000e+00
     -0.009    21.5699     8.8591    100.443  30.535652     32.764     10.499   232.4694     1.8468     3.7550     0.0218      0.313     -0.014     -0.020         18 2.9659e+02   997.8884 0.0000e+00
      0.043    21.5695     8.8722    100.601  30.443506     32.694     10.593   230.9173     1.8697     3.8703     0.0217      0.319      0.033      0.049         19 2.6247e+02   997.8857 0.0000e+00
      0.069    21.5636     8.8522    100.386  30.455757     32.694     10.630   229.4409     1.8773     3.7982     0.0217      0.294      0.058      0.084         20 2.7161e+02   997.8855 0.0000e+00
      0.065    21.5534     8.7770     99.542  30.401902     32.634     10.652   229.1380     2.3808     7.8646     0.0217      0.246      0.060      0.086         21 2.9093e+02   997.8854 0.0000e+00
      0.051    21.5446     8.6693     98.323  30.451275     32.698     10.670   228.6837     2.3351     7.7781     0.0217      0.190      0.048      0.069         22 2.5759e+02   997.8868 0.0000e+00
      0.030    21.5387     8.5181     96.614  30.453565     32.705     10.687   228.2294     2.3427     7.9655     0.0217      0.130      0.031      0.046         23 2.2946e+02   997.8889 0.0000e+00
      0.015    21.5377     8.3423     94.619  30.399055     32.651     10.699   228.2294     2.3618     7.9223     0.0217      0.073      0.018      0.027         24 2.4433e+02   997.8908 0.0000e+00
      0.012    21.5398     8.1581     92.516  30.400613     32.656     10.704   228.1916     2.2397     4.8941     0.0217      0.024      0.013      0.019         25 2.4435e+02   997.8921 0.0000e+00
      0.014    21.5411     7.9910     90.608  30.392378     32.656     10.695   228.0401     2.2321     4.8364     0.0217     -0.009      0.011      0.016         26 2.9716e+02   997.8924 0.0000e+00
      0.009    21.5416     7.8739     89.274  30.409304     32.655     10.682   227.9644     2.2206     4.8509     0.0217     -0.029      0.006      0.009         27 2.8986e+02   997.8919 0.0000e+00
     -0.003    21.5431     7.8460     88.954  30.438800     32.714     10.663   230.2737     2.2206     4.9518     0.0217     -0.036     -0.001     -0.001         28 2.8731e+02   997.8915 0.0000e+00
     -0.009    21.5474     7.8865     89.411  30.533425     32.773     10.643   227.5101     2.2588     4.9085     0.0218     -0.033     -0.003     -0.004         29 3.0395e+02   997.8914 0.0000e+00
      0.003    21.5536     7.9603     90.247  30.884068     33.192     10.632   245.3788     2.2359     1.3324     0.0219     -0.023      0.009      0.014         30 2.6586e+02   997.8912 0.0000e+00
      0.034    21.5580     8.0266     90.998  31.157860     33.459     10.618   227.1694     2.2397     1.3180     0.0221     -0.005      0.039      0.056         31 2.4961e+02   997.8905 0.0000e+00
      0.083    21.5599     8.0642     91.424  31.199999     33.515     10.615   226.0716     2.2244     1.3180     0.0221      0.020      0.080      0.115         32 2.3566e+02   997.8894 0.0000e+00
      0.126    21.5624     8.0680     91.469  31.157523     33.451     10.604   224.8980     2.2397     1.4910     0.0221      0.047      0.116      0.168         33 2.1546e+02   997.8886 0.0000e+00
      0.143    21.5617     8.0265     90.999  31.151466     33.450     10.587   225.0873     2.4457     1.3036     0.0221      0.071      0.137      0.198         34 2.1146e+02   997.8883 0.0000e+00
      0.151    21.5544     7.9483     90.109  31.148280     33.448     10.574   227.2073     2.4114     1.3036     0.0221      0.089      0.146      0.212         35 2.0523e+02   997.8877 0.0000e+00
      0.155    21.5470     7.8274     88.734  30.983726     33.269     10.555   225.7308     2.3961     1.3901     0.0220      0.097      0.149      0.217         36 2.0139e+02   997.8879 0.0000e+00
      0.151    21.5431     7.6926     87.202  30.822969     33.094     10.542   224.0273     2.4037     1.3901     0.0219      0.091      0.147      0.214         37 1.9724e+02   997.8894 0.0000e+00
      0.144    21.5410     7.5596     85.692  30.726181     33.010     10.525   223.7623     2.3732     1.3324     0.0219      0.071      0.142      0.207         38 2.1640e+02   997.8909 0.0000e+00
      0.142    21.5401     7.4447     84.386  30.748661     33.012     10.503   223.4973     2.3618     1.3757     0.0219      0.044      0.139      0.202         39 2.2086e+02   997.8918 0.0000e+00
      0.140    21.5395     7.3738     83.580  30.794996     33.104     10.478   223.3837     2.3541     1.3613     0.0219      0.018      0.139      0.201         40 2.2884e+02   997.8923 0.0000e+00
      0.141    21.5387     7.3609     83.430  30.757400     33.015     10.458   223.0808     2.3503     1.3757     0.0219      0.001      0.139      0.201         41 2.1837e+02   997.8925 0.0000e+00
      0.143    21.5389     7.4149     84.040  30.765822     33.075     10.441   223.1566     2.2511     2.7744     0.0219     -0.005      0.141      0.205         42 1.9770e+02   997.8927 0.0000e+00
      0.150    21.5400     7.5206     85.238  30.754888     33.015     10.425   222.8915     2.2359     2.8321     0.0219     -0.004      0.146      0.213         43 2.0983e+02   997.8929 0.0000e+00
      0.155    21.5405     7.6525     86.732  30.800634     33.105     10.405   223.1944     2.2359     2.8898     0.0219     -0.001      0.151      0.219         44 1.9800e+02   997.8928 0.0000e+00
      0.157    21.5387     7.7786     88.160  30.886651     33.164     10.384   223.3837     2.2359     2.8177     0.0219      0.005      0.155      0.225         45 1.9638e+02   997.8926 0.0000e+00
      0.163    21.5358     7.8920     89.445  30.914480     33.224     10.365   223.3837     2.4266     2.2697     0.0220      0.010      0.159      0.231         46 1.9258e+02   997.8926 0.0000e+00
      0.166    21.5337     7.9774     90.411  30.884507     33.165     10.345   223.2701     2.4266     2.3851     0.0219      0.014      0.161      0.234         47 1.7345e+02   997.8930 0.0000e+00
      0.163    21.5319     8.0286     90.986  30.894325     33.197     10.340   222.8537     2.4114     2.2697     0.0219      0.014      0.159      0.231         48 1.9285e+02   997.8936 0.0000e+00
      0.159    21.5297     8.0400     91.111  30.872635     33.169     10.324   222.7023     2.4190     2.2841     0.0219      0.011      0.157      0.227         49 1.9862e+02   997.8941 0.0000e+00
      0.158    21.5279     8.0153     90.827  30.822621     33.110     10.307   222.8915     2.3923     2.2120     0.0219      0.007      0.156      0.225         50 1.8888e+02   997.8944 0.0000e+00
      0.160    21.5262     7.9747     90.365  30.808436     33.112     10.289   222.8915     2.3694     2.0102     0.0219      0.003      0.157      0.227         51 1.9708e+02   997.8949 0.0000e+00
      0.162    21.5249     7.9352     89.915  30.831038     33.113     10.266   223.1566     2.3694     2.1544     0.0219      0.001      0.159      0.230         52 1.9049e+02   997.8953 0.0000e+00
      0.164    21.5247     7.8937     89.443  30.794493     33.114     10.246   223.3837     2.3236     2.0102     0.0219      0.000      0.161      0.233         53 1.8048e+02   997.8957 0.0000e+00
      0.167    21.5244     7.8590     89.047  30.705783     32.965     10.231   223.4216     2.3541     2.0390     0.0218      0.001      0.164      0.237         54 1.7544e+02   997.8960 0.0000e+00
      0.170    21.5239     7.8280     88.694  30.763679     33.085     10.215   224.0273     2.2931     2.0534     0.0219      0.003      0.166      0.241         55 1.7533e+02   997.8961 0.0000e+00
      0.173    21.5236     7.8158     88.553  30.752069     33.026     10.198   223.5351     2.3122     2.0678     0.0219      0.006      0.169      0.246         56 1.7003e+02   997.8961 0.0000e+00
      0.177    21.5223     7.8118     88.506  30.720231     33.026     10.183   223.9894     2.2893     2.0823     0.0219      0.009      0.174      0.252         57 1.6434e+02   997.8962 0.0000e+00
      0.182    21.5195     7.8108     88.490  30.744049     33.026     10.162   223.8380     2.2817     1.9813     0.0219      0.012      0.178      0.258         58 1.6466e+02   997.8964 0.0000e+00
      0.184    21.5166     7.8140     88.520  30.722429     33.027     10.143   223.9516     2.3084     2.1111     0.0219      0.012      0.180      0.260         59 1.6705e+02   997.8966 0.0000e+00
      0.183    21.5148     7.8217     88.609  30.687884     32.969     10.130   223.7244     2.3122     2.1976     0.0218      0.012      0.179      0.259         60 1.7071e+02   997.8973 0.0000e+00
      0.180    21.5137     7.8359     88.772  30.668535     32.971     10.112   223.8758     2.2931     2.0823     0.0218      0.010      0.177      0.257         61 1.6532e+02   997.8979 0.0000e+00
      0.179    21.5123     7.8499     88.931  30.687258     32.972     10.101   224.3680     2.3122     2.0823     0.0218      0.007      0.175      0.254         62 1.6175e+02   997.8983 0.0000e+00
      0.177    21.5108     7.8553     88.991  30.664585     32.973     10.087   224.1030     2.3580     2.0678     0.0218      0.003      0.173      0.250         63 1.7287e+02   997.8985 0.0000e+00
      0.172    21.5095     7.8281     88.686  30.637499     32.914     10.069   224.3680     2.3694     2.1111     0.0218     -0.001      0.169      0.245         64 1.6548e+02   997.8988 0.0000e+00
      0.168    21.5083     7.7869     88.222  30.661712     32.975     10.055   224.9358     2.3580     2.1399     0.0218     -0.006      0.166      0.241         65 1.7448e+02   997.8991 0.0000e+00
      0.168    21.5072     7.7324     87.607  30.634452     32.916     10.044   224.9358     2.3694     2.1111     0.0218     -0.008      0.166      0.241         66 1.7242e+02   997.8994 0.0000e+00
      0.173    21.5059     7.6685     86.886  30.612174     32.917     10.035   225.3901     2.2893     2.0246     0.0218     -0.008      0.171      0.247         67 1.6094e+02   997.8997 0.0000e+00
      0.181    21.5031     7.6094     86.219  30.630186     32.918     10.027   225.6551     2.2626     1.9957     0.0218     -0.004      0.176      0.256         68 1.7040e+02   997.8999 0.0000e+00
      0.185    21.5003     7.5477     85.524  30.612036     32.919     10.014   225.9201     2.3007     2.1111     0.0218      0.001      0.180      0.261         69 1.6149e+02   997.9002 0.0000e+00
      0.184    21.5006     7.4893     84.866  30.575509     32.861     10.009   226.1094     2.3122     2.0678     0.0218      0.004      0.181      0.262         70 1.6423e+02   997.9008 0.0000e+00
      0.185    21.5018     7.4395     84.307  30.557140     32.863      9.997   226.2230     2.2740     1.9669     0.0218      0.008      0.183      0.266         71 1.6423e+02   997.9015 0.0000e+00
      0.192    21.5017     7.4049     83.917  30.575645     32.862      9.995   226.6394     2.2817     2.0534     0.0218      0.011      0.188      0.272         72 1.6633e+02   997.9014 0.0000e+00
      0.195    21.5018     7.3753     83.582  30.611731     32.922      9.987   226.6394     2.2855     2.0823     0.0218      0.014      0.190      0.275         73 1.6536e+02   997.9012 0.0000e+00
      0.193    21.5031     7.3359     83.138  30.630735     32.922      9.976   226.7908     2.2855     2.1255     0.0218      0.012      0.188      0.273         74 1.6369e+02   997.9012 0.0000e+00
      0.188    21.5050     7.3198     82.957  30.611247     32.922      9.971   227.1316     2.3160     2.0534     0.0218      0.008      0.185      0.268         75 1.7153e+02   997.9012 0.0000e+00
      0.185    21.5065     7.3043     82.783  30.576731     32.861      9.969   226.9801     2.2969     2.0534     0.0218      0.003      0.182      0.264         76 1.6505e+02   997.9009 0.0000e+00
      0.184    21.5080     7.2828     82.537  30.614438     32.919      9.957   227.3587     2.3160     1.9957     0.0218      0.001      0.182      0.263         77 1.6700e+02   997.9004 0.0000e+00
      0.185    21.5098     7.2623     82.301  30.623574     32.918      9.952   227.6994     2.2969     2.0390     0.0218     -0.001      0.182      0.264         78 1.7059e+02   997.9001 0.0000e+00
      0.186    21.5120     7.2312     81.945  30.624613     32.917      9.948   227.8508     2.3046     2.1111     0.0218     -0.003      0.183      0.265         79 1.6428e+02   997.8997 0.0000e+00
      0.187    21.5146     7.1801     81.362  30.613144     32.916      9.943   227.9644     2.2817     2.0823     0.0218     -0.004      0.184      0.267         80 1.6898e+02   997.8994 0.0000e+00
      0.189    21.5172     7.1239     80.724  30.578594     32.854      9.936   228.1916     2.3007     2.0967     0.0218     -0.003      0.185      0.269         81 1.6559e+02   997.8989 0.0000e+00
      0.191    21.5188     7.0625     80.026  30.608357     32.912      9.929   228.0401     2.3389     2.1111     0.0218      0.000      0.186      0.270         82 1.6354e+02   997.8983 0.0000e+00
      0.190    21.5196     7.0049     79.373  30.576104     32.851      9.920   228.4187     2.3198     2.0823     0.0218      0.002      0.186      0.270         83 1.6715e+02   997.8977 0.0000e+00
      0.188    21.5204     6.9549     78.805  30.559479     32.850      9.909   228.0780     2.3694     2.0246     0.0218      0.003      0.185      0.268         84 1.6274e+02   997.8974 0.0000e+00
      0.187    21.5220     6.9202     78.409  30.629044     32.909      9.900   228.5701     2.3808     1.9525     0.0218      0.002      0.184      0.267         85 1.7088e+02   997.8972 0.0000e+00
      0.188    21.5230     6.8868     78.030  30.608036     32.908      9.892   228.2294     2.3351     2.0102     0.0218      0.001      0.185      0.268         86 1.6667e+02   997.8971 0.0000e+00
      0.190    21.5216     6.8670     77.807  30.526372     32.787      9.886   228.8351     2.3465     2.1399     0.0218      0.001      0.186      0.269         87 1.6715e+02   997.8966 0.0000e+00
      0.188    21.5190     6.8473     77.584  30.552915     32.847      9.876   228.9487     2.3084     2.1399     0.0218     -0.000      0.184      0.267         88 1.6601e+02   997.8964 0.0000e+00
      0.184    21.5165     6.8245     77.325  30.575001     32.848      9.867   229.6680     2.3198     2.0390     0.0218     -0.002      0.181      0.262         89 1.6295e+02   997.8967 0.0000e+00
      0.180    21.5147     6.8084     77.140  30.558137     32.849      9.861   230.1601     2.3122     2.0102     0.0218     -0.004      0.176      0.255         90 1.7938e+02   997.8973 0.0000e+00
      0.173    21.5133     6.7797     76.812  30.573904     32.851      9.856   230.1980     2.3046     2.0967     0.0218     -0.006      0.171      0.248         91 1.5961e+02   997.8978 0.0000e+00
      0.168    21.5119     6.7387     76.347  30.614635     32.913      9.847   229.9709     2.3541     2.1399     0.0218     -0.010      0.168      0.243         92 1.6391e+02   997.8982 0.0000e+00
      0.172    21.5116     6.6837     75.724  30.566701     32.853      9.843   229.8573     2.3694     2.0967     0.0218     -0.010      0.170      0.247         93 1.7376e+02   997.8985 0.0000e+00
      0.180    21.5108     6.6299     75.106  30.515054     32.794      9.839   230.3873     2.3541     2.0823     0.0218     -0.009      0.175      0.254         94 1.6056e+02   997.8988 0.0000e+00
      0.182    21.5092     6.5748     74.470  30.560406     32.855      9.833   230.3116     2.3503     2.0534     0.0218     -0.006      0.178      0.258         95 1.7941e+02   997.8990 0.0000e+00
      0.182    21.5089     6.5357     74.007  30.569513     32.855      9.818   230.3494     2.3694     2.1399     0.0218     -0.002      0.180      0.260         96 1.6737e+02   997.8991 0.0000e+00
      0.185    21.5092     6.4819     73.383  30.622225     32.916      9.804   230.6144     2.4991     2.2409     0.0218      0.003      0.182      0.264         97 1.7100e+02   997.8994 0.0000e+00
      0.190    21.5095     6.4378     72.872  30.613313     32.917      9.802   230.7280     2.4762     2.3707     0.0218      0.007      0.186      0.270         98 1.6710e+02   997.8996 0.0000e+00
      0.194    21.5091     6.4051     72.497  30.521352     32.796      9.801   230.6523     2.4877     2.2120     0.0218      0.011      0.190      0.276         99 1.5897e+02   997.8995 0.0000e+00
      0.199    21.5073     6.3837     72.248  30.558910     32.856      9.800   230.6901     2.4762     2.2553     0.0218      0.014      0.194      0.281        100 1.6353e+02   997.8995 0.0000e+00
      0.200    21.5057     6.3673     72.059  30.566570     32.856      9.787   231.1066     2.3541     2.2841     0.0218      0.013      0.194      0.282        101 1.5331e+02   997.8996 0.0000e+00
      0.195    21.5058     6.3605     71.986  30.511819     32.798      9.769   231.2201     2.3618     2.2697     0.0218      0.010      0.191      0.277        102 1.6473e+02   997.9000 0.0000e+00
      0.189    21.5047     6.3672     72.069  30.508543     32.799      9.761   231.4094     2.3389     2.2409     0.0218      0.007      0.186      0.270        103 1.6144e+02   997.9003 0.0000e+00
      0.186    21.4998     6.3805     72.222  30.511395     32.799      9.758   231.3337     2.3618     2.3418     0.0218      0.003      0.184      0.267        104 1.6393e+02   997.9003 0.0000e+00
      0.189    21.4908     6.4039     72.487  30.508271     32.799      9.757   231.6366     2.5601     2.1111     0.0218     -0.001      0.183      0.266        105 1.6799e+02   997.9005 0.0000e+00
      0.184    21.4782     6.4274     72.752  30.571685     32.863      9.756   231.5987     2.5411     2.0534     0.0218     -0.005      0.180      0.261        106 1.7295e+02   997.9016 0.0000e+00
      0.177    21.4667     6.4432     72.933  30.610237     32.929      9.752   231.5230     2.5258     2.0534     0.0218     -0.009      0.175      0.254        107 1.7772e+02   997.9036 0.0000e+00
      0.175    21.4594     6.4535     73.052  30.578802     32.878      9.745   231.6744     2.5449     2.0102     0.0218     -0.012      0.172      0.250        108 1.7361e+02   997.9063 0.0000e+00
      0.176    21.4551     6.4561     73.082  30.551556     32.886      9.738   231.6744     2.5373     2.3562     0.0218     -0.012      0.172      0.250        109 1.7275e+02   997.9089 0.0000e+00
      0.177    21.4508     6.4481     72.993  30.525643     32.832      9.732   231.9773     2.5601     2.1976     0.0218     -0.010      0.172      0.249        110 1.7141e+02   997.9105 0.0000e+00
      0.171    21.4486     6.4242     72.726  30.551804     32.894      9.725   231.8259     2.5411     2.3274     0.0218     -0.009      0.168      0.244        111 1.7057e+02   997.9115 0.0000e+00
      0.167    21.4513     6.4017     72.476  30.519003     32.838      9.715   232.2044     2.5220     2.2265     0.0218     -0.009      0.165      0.240        112 1.7085e+02   997.9123 0.0000e+00
      0.168    21.4557     6.3817     72.253  30.507211     32.839      9.709   232.3937     2.4953     2.0967     0.0218     -0.009      0.166      0.241        113 1.6373e+02   997.9128 0.0000e+00
      0.174    21.4582     6.3543     71.949  30.566479     32.897      9.698   231.9773     2.4762     2.1399     0.0218     -0.006      0.169      0.246        114 1.6712e+02   997.9123 0.0000e+00
      0.175    21.4581     6.3352     71.735  30.504497     32.834      9.687   232.5451     2.4762     2.0102     0.0218     -0.002      0.171      0.248        115 1.7061e+02   997.9113 0.0000e+00
      0.174    21.4577     6.3221     71.587  30.525092     32.832      9.672   232.7344     2.4800     2.0534     0.0218     -0.001      0.171      0.248        116 1.6887e+02   997.9107 0.0000e+00
      0.173    21.4588     6.3051     71.394  30.540847     32.892      9.656   232.8859     2.4724     1.9957     0.0218     -0.000      0.171      0.249        117 1.7158e+02   997.9108 0.0000e+00
      0.177    21.4603     6.2838     71.153  30.484890     32.773      9.648   233.1509     2.4037     2.0823     0.0217      0.002      0.173      0.251        118 1.6627e+02   997.9109 0.0000e+00
      0.179    21.4613     6.2536     70.810  30.535478     32.892      9.637   233.3402     2.4037     2.0967     0.0218      0.005      0.175      0.254        119 1.7088e+02   997.9106 0.0000e+00
      0.179    21.4624     6.2201     70.427  30.537144     32.831      9.631   233.5294     2.4381     1.9957     0.0218      0.006      0.176      0.255        120 1.6701e+02   997.9103 0.0000e+00
      0.181    21.4644     6.1812     69.979  30.542068     32.890      9.625   233.7566     2.4037     2.0246     0.0218      0.005      0.178      0.258        121 1.6983e+02   997.9101 0.0000e+00
      0.184    21.4674     6.1486     69.602  30.529350     32.829      9.617   233.7944     2.4381     2.2697     0.0218      0.005      0.181      0.262        122 1.6684e+02   997.9099 0.0000e+00
      0.188    21.4709     6.1123     69.185  30.493720     32.828      9.611   234.0216     2.4266     2.2841     0.0218      0.006      0.185      0.268        123 1.5979e+02   997.9094 0.0000e+00
      0.193    21.4744     6.0641     68.635  30.527155     32.826      9.602   234.1730     2.4457     2.2697     0.0218      0.009      0.190      0.275        124 1.6660e+02   997.9088 0.0000e+00
      0.199    21.4765     6.0425     68.385  30.546990     32.883      9.594   233.8323     2.4190     2.2409     0.0218      0.011      0.194      0.281        125 1.6081e+02   997.9081 0.0000e+00
      0.202    21.4763     6.0158     68.079  30.528288     32.821      9.585   234.2866     2.4114     1.9957     0.0218      0.013      0.196      0.285        126 1.6337e+02   997.9073 0.0000e+00
      0.200    21.4759     5.9969     67.864  30.550431     32.879      9.567   234.2487     2.4381     2.1688     0.0218      0.013      0.195      0.283        127 1.6205e+02   997.9068 0.0000e+00
      0.194    21.4762     5.9725     67.588  30.519431     32.819      9.555   234.5137     2.4114     2.0823     0.0218      0.011      0.191      0.276        128 1.5425e+02   997.9068 0.0000e+00
      0.189    21.4759     5.9574     67.417  30.507611     32.820      9.541   234.8166     2.4419     2.0967     0.0218      0.006      0.186      0.270        129 1.6619e+02   997.9069 0.0000e+00
      0.186    21.4729     5.9385     67.201  30.565142     32.880      9.528   234.7409     2.4075     2.0246     0.0218      0.001      0.183      0.265        130 1.6325e+02   997.9068 0.0000e+00
      0.184    21.4669     5.9243     67.038  30.507089     32.820      9.513   235.0059     2.4152     2.0823     0.0218     -0.004      0.181      0.262        131 1.6520e+02   997.9069 0.0000e+00
      0.184    21.4609     5.9033     66.798  30.461353     32.762      9.497   234.8544     2.4419     2.0534     0.0217     -0.008      0.180      0.261        132 1.6550e+02   997.9075 0.0000e+00
      0.183    21.4568     5.8806     66.539  30.503556     32.826      9.482   235.0059     2.4190     2.0102     0.0218     -0.010      0.180      0.261        133 1.5701e+02   997.9089 0.0000e+00
      0.184    21.4533     5.8579     66.283  30.513822     32.830      9.477   235.1573     2.4266     1.9525     0.0218     -0.010      0.180      0.261        134 1.7133e+02   997.9102 0.0000e+00
      0.182    21.4497     5.8461     66.149  30.507831     32.833      9.472   235.3087     2.3694     2.1111     0.0218     -0.008      0.178      0.259        135 1.6516e+02   997.9111 0.0000e+00
      0.178    21.4469     5.8248     65.908  30.511013     32.836      9.471   235.3844     2.3961     2.1688     0.0218     -0.006      0.176      0.255        136 1.6500e+02   997.9118 0.0000e+00
      0.178    21.4457     5.8150     65.799  30.509864     32.838      9.467   235.2330     2.3618     2.1688     0.0218     -0.005      0.175      0.255        137 1.6147e+02   997.9126 0.0000e+00
      0.181    21.4456     5.8065     65.702  30.509262     32.840      9.468   235.6494     2.3465     2.0678     0.0218     -0.003      0.177      0.258        138 1.6174e+02   997.9133 0.0000e+00
      0.185    21.4454     5.7953     65.574  30.511762     32.841      9.472   235.6873     2.4075     2.1399     0.0218     -0.001      0.181      0.263        139 1.6509e+02   997.9136 0.0000e+00
      0.189    21.4443     5.7912     65.526  30.506753     32.841      9.470   236.0280     2.4381     2.0678     0.0218      0.001      0.184      0.268        140 1.5337e+02   997.9136 0.0000e+00
      0.190    21.4423     5.7761     65.353  30.456244     32.781      9.468   235.9523     2.4419     2.0246     0.0217      0.003      0.185      0.269        141 1.6332e+02   997.9136 0.0000e+00
      0.189    21.4402     5.7578     65.144  30.456116     32.782      9.463   235.6494     2.4457     2.1255     0.0217      0.004      0.185      0.269        142 1.6322e+02   997.9139 0.0000e+00
      0.190    21.4392     5.7410     64.947  30.506913     32.844      9.454   235.7252     2.5449     1.9957     0.0218      0.006      0.186      0.271        143 1.6437e+02   997.9143 0.0000e+00
      0.193    21.4391     5.7314     64.818  30.511534     32.845      9.447   235.9144     2.5373     2.0102     0.0218      0.008      0.189      0.274        144 1.6533e+02   997.9148 0.0000e+00
      0.195    21.4389     5.7250     64.723  30.509617     32.846      9.443   236.3309     2.5334     2.1111     0.0218      0.007      0.191      0.277        145 1.5846e+02   997.9151 0.0000e+00
      0.196    21.4394     5.7272     64.731  30.509298     32.846      9.440   236.1794     2.5754     1.9381     0.0218      0.006      0.192      0.280        146 1.6433e+02   997.9151 0.0000e+00
      0.199    21.4400     5.7319     64.779  30.511932     32.846      9.440   236.4444     2.6555     2.0102     0.0218      0.006      0.195      0.283        147 1.6119e+02   997.9151 0.0000e+00
      0.202    21.4396     5.7394     64.866  30.506339     32.846      9.437   236.1794     2.6555     2.0678     0.0218      0.007      0.199      0.287        148 1.6260e+02   997.9150 0.0000e+00
      0.205    21.4386     5.7521     65.013  30.457007     32.785      9.428   236.7473     2.6708     1.9813     0.0217      0.008      0.201      0.291        149 1.5706e+02   997.9149 0.0000e+00
      0.207    21.4375     5.7501     64.990  30.454822     32.785      9.423   236.9366     2.6631     2.1976     0.0217      0.009      0.203      0.294        150 1.5681e+02   997.9150 0.0000e+00
      0.209    21.4357     5.7476     64.960  30.509058     32.846      9.419   236.8987     3.0408     1.9525     0.0218      0.009      0.205      0.297        151 1.5873e+02   997.9152 0.0000e+00
      0.212    21.4341     5.7407     64.883  30.508014     32.847      9.420   237.5423     3.0255     1.9813     0.0218      0.009      0.206      0.300        152 1.5264e+02   997.9155 0.0000e+00
      0.211    21.4283     5.7337     64.804  30.515373     32.848      9.412   237.7694     2.9950     2.0534     0.0218      0.009      0.206      0.298        153 1.5933e+02   997.9159 0.0000e+00
      0.206    21.4126     5.7208     64.659  30.559154     32.910      9.400   237.2394     3.0255     2.0967     0.0218      0.006      0.201      0.291        154 1.6771e+02   997.9162 0.0000e+00
      0.197    21.3943     5.7056     64.487  30.512784     32.853      9.387   236.9744     2.8768     2.0534     0.0218      0.001      0.193      0.280        155 1.6890e+02   997.9175 0.0000e+00
      0.190    21.3817     5.6930     64.345  30.513831     32.865      9.383   237.5044     2.8424     2.0390     0.0218     -0.005      0.186      0.270        156 1.7500e+02   997.9209 0.0000e+00
      0.184    21.3773     5.6857     64.262  30.557858     32.938      9.377   237.3909     2.8424     1.9813     0.0218     -0.011      0.181      0.263        157 1.7657e+02   997.9249 0.0000e+00
      0.182    21.3791     5.6714     64.102  30.517253     32.887      9.373   237.2016     2.8157     2.0534     0.0218     -0.015      0.179      0.261        158 1.7614e+02   997.9277 0.0000e+00
      0.183    21.3818     5.6653     64.034  30.505115     32.890      9.364   237.3530     2.8272     2.1111     0.0218     -0.017      0.180      0.261        159 1.7961e+02   997.9287 0.0000e+00
      0.185    21.3817     5.6640     64.019  30.513711     32.888      9.357   237.6559     2.4228     2.0534     0.0218     -0.016      0.182      0.264        160 1.7981e+02   997.9283 0.0000e+00
      0.187    21.3803     5.6586     63.955  30.565808     32.947      9.352   237.9209     2.3999     2.1111     0.0218     -0.013      0.183      0.266        161 1.7701e+02   997.9278 0.0000e+00
      0.188    21.3804     5.6575     63.941  30.558786     32.947      9.343   238.2237     2.4343     2.0534     0.0218     -0.007      0.187      0.270        162 1.7228e+02   997.9277 0.0000e+00
      0.196    21.3810     5.6517     63.873  30.522449     32.887      9.339   238.2237     2.4152     2.1111     0.0218      0.000      0.192      0.278        163 1.8025e+02   997.9280 0.0000e+00
      0.202    21.3815     5.6514     63.868  30.551777     32.948      9.332   238.2995     2.6441     2.0534     0.0218      0.007      0.198      0.287        164 1.8101e+02   997.9281 0.0000e+00
      0.208    21.3817     5.6461     63.808  30.522287     32.887      9.318   238.4887     2.5945     2.0102     0.0218      0.012      0.203      0.294        165 1.7698e+02   997.9279 0.0000e+00
      0.211    21.3816     5.6441     63.784  30.499896     32.887      9.296   238.3373     2.6174     2.0823     0.0218      0.015      0.206      0.299        166 1.7996e+02   997.9279 0.0000e+00
      0.212    21.3819     5.6367     63.700  30.520390     32.886      9.280   238.4130     2.5907     2.0823     0.0218      0.016      0.208      0.302        167 1.7724e+02   997.9278 0.0000e+00
      0.214    21.3830     5.6277     63.600  30.496783     32.887      9.283   238.4130     2.6670     2.0246     0.0218      0.016      0.210      0.305        168 1.6543e+02   997.9279 0.0000e+00
      0.217    21.3835     5.6269     63.592  30.470024     32.826      9.278   238.5645     2.6822     2.1976     0.0217      0.016      0.211      0.307        169 1.7778e+02   997.9278 0.0000e+00
      0.215    21.3828     5.6178     63.491  30.494439     32.886      9.274   238.6402     2.6708     2.0534     0.0218      0.013      0.210      0.304        170 1.7617e+02   997.9275 0.0000e+00
      0.210    21.3815     5.6225     63.585  30.466398     32.825      9.269   238.6023     2.6670     1.9669     0.0217      0.008      0.206      0.299        171 1.7914e+02   997.9274 0.0000e+00
      0.206    21.3798     5.7870     65.537  30.504921     32.886      9.262   238.8673     2.8882     2.0534     0.0218      0.002      0.202      0.294        172 1.7902e+02   997.9276 0.0000e+00
      0.203    21.3778     6.2765     71.154  30.565001     32.947      9.258   239.1323     2.8920     2.0390     0.0218     -0.002      0.200      0.289        173 1.7611e+02   997.9278 0.0000e+00
      0.202    21.3764     7.0610     80.094  30.510132     32.888      9.255   239.4730     2.8958     2.0823     0.0218     -0.006      0.200      0.289        174 1.7283e+02   997.9282 0.0000e+00
      0.205    21.3757     7.8424     88.983  30.513953     32.889      9.241   239.3595     2.8997     1.9525     0.0218     -0.007      0.201      0.291        175 1.7914e+02   997.9287 0.0000e+00
      0.208    21.3754     8.5793     97.361  30.500996     32.890      9.232   239.5109     3.1400     2.1399     0.0218     -0.006      0.204      0.296        176 1.7507e+02   997.9290 0.0000e+00
      0.211    21.3753     9.2019    104.437  30.467006     32.831      9.222   239.4730     3.0904     1.9957     0.0217     -0.004      0.206      0.300        177 1.7037e+02   997.9291 0.0000e+00
      0.212    21.3759     9.6688    109.742  30.497001     32.891      9.216   239.4730     3.0866     2.0534     0.0218     -0.000      0.209      0.303        178 1.7774e+02   997.9292 0.0000e+00
      0.216    21.3769     9.9580    113.026  30.522919     32.891      9.208   239.4730     3.0828     2.1111     0.0218      0.004      0.212      0.308        179 1.5920e+02   997.9293 0.0000e+00
      0.221    21.3790    10.0700    114.299  30.494004     32.891      9.202   239.6245     3.0828     2.0102     0.0218      0.008      0.216      0.313        180 1.7273e+02   997.9291 0.0000e+00
      0.222    21.4134    10.0089    113.607  30.473734     32.830      9.195   239.8516     2.8043     2.0390     0.0217      0.010      0.217      0.315        181 1.7416e+02   997.9289 0.0000e+00
      0.221    21.4828     9.8767    112.104  30.607397     33.009      9.188   239.9273     2.7967     2.0823     0.0218      0.010      0.217      0.314        182 1.6637e+02   997.9285 0.0000e+00
      0.220    21.5373     9.7333    110.474  30.742425     33.106      9.182   239.9273     2.8081     2.1544     0.0219      0.009      0.217      0.314        183 1.7221e+02   997.9210 0.0000e+00
      0.221    21.5663     9.5956    108.896  30.661193     32.994      9.181   239.9273     2.7661     2.0102     0.0218      0.007      0.217      0.315        184 1.7532e+02   997.9056 0.0000e+00
      0.222    21.5820     9.4807    107.581  30.649212     32.897      9.179   240.1166     2.8005     2.0967     0.0218      0.005      0.217      0.315        185 1.7047e+02   997.8935 0.0000e+00
      0.221    21.5902     9.3804    106.445  30.757313     33.055      9.178   239.9273     2.7852     2.0534     0.0219      0.003      0.216      0.314        186 1.7763e+02   997.8870 0.0000e+00
      0.220    21.5957     9.2993    105.536  30.763660     32.985      9.177   240.1166     2.8119     2.0967     0.0219      0.001      0.215      0.312        187 1.8183e+02   997.8835 0.0000e+00
      0.218    21.5981     9.2272    104.731  30.789438     33.069      9.171   240.1166     2.7967     2.0534     0.0219     -0.001      0.213      0.309        188 1.8055e+02   997.8817 0.0000e+00
      0.213    21.5994     9.1759    104.167  30.754855     32.975      9.156   240.2680     2.4686     2.0534     0.0219     -0.003      0.209      0.304        189 1.7790e+02   997.8804 0.0000e+00
      0.209    21.6004     9.1339    103.718  30.717816     32.973      9.145   240.4573     2.4953     2.1111     0.0219     -0.005      0.207      0.301        190 1.8406e+02   997.8799 0.0000e+00
      0.213    21.6004     9.1320    103.716  30.746651     32.972      9.135   240.6845     2.4877     1.9813     0.0219     -0.006      0.210      0.304        191 1.8059e+02   997.8796 0.0000e+00
      0.220    21.5999     9.1300    103.708  30.778223     33.032      9.127   240.7602     2.4953     2.0390     0.0219     -0.004      0.215      0.311        192 1.7425e+02   997.8794 0.0000e+00
      0.223    21.5981     9.1310    103.729  30.737778     32.972      9.120   240.7602     2.4190     2.0967     0.0219     -0.001      0.220      0.318        193 1.8240e+02   997.8794 0.0000e+00
      0.227    21.5916     9.1324    103.751  30.678478     32.912      9.114   240.9873     2.4190     2.0967     0.0218      0.003      0.225      0.326        194 1.7680e+02   997.8796 0.0000e+00
      0.238    21.5860     9.1296    103.722  30.674264     32.913      9.109   240.9495     2.4533     2.1976     0.0218      0.009      0.230      0.335        195 1.7716e+02   997.8800 0.0000e+00
      0.242    21.5872     9.1199    103.618  30.683773     32.918      9.087   240.9116     2.4266     2.0967     0.0218      0.014      0.228      0.331        196 1.9170e+02   997.8815 0.0000e+00
      0.218    21.5928     9.1025    103.432  30.725899     32.982      9.080   241.1009     2.4114     2.0823     0.0219      0.012      0.206      0.300        197 2.1250e+02   997.8826 0.0000e+00
      0.174    21.5989     9.0974    103.379  30.740345     32.981      9.088   240.8359     2.3122     2.1111     0.0219     -0.004      0.166      0.242        198 2.2446e+02   997.8822 0.0000e+00
      0.119    21.6084     9.0881    103.272  30.784298     33.037      9.091   241.1387     2.3313     2.0823     0.0219     -0.033      0.115      0.167        199 2.6672e+02   997.8807 0.0000e+00
      0.060    21.6216     9.0909    103.301  30.730449     32.973      9.090   241.2523     2.3122     2.1111     0.0219     -0.071      0.062      0.089        200 3.1162e+02   997.8790 0.0000e+00
      0.011    21.6319     9.0950    103.345  30.570347     32.787      9.087   241.0630     2.3122     2.0534     0.0218     -0.108      0.013      0.019        201 3.4098e+02   997.8766 0.0000e+00
     -0.030    21.6390     9.1031    103.433  30.628024     32.837      9.079   241.4795     2.2550     1.9813     0.0218     -0.142     -0.028     -0.041        202 3.5282e+02   997.8735 0.0000e+00
     -0.067    21.6439     9.1127    103.540  30.658666     32.890      9.071   241.4037     2.2817     2.0534     0.0218     -0.168     -0.063     -0.091        203 3.5293e+02   997.8711 0.0000e+00
     -0.094    21.6466     9.1190    103.611  30.591460     32.765      9.066   241.4795     2.2588     2.0823     0.0218     -0.178     -0.088     -0.128        204 3.5499e+02   997.8693 0.0000e+00
     -0.109    21.6480     9.1249    103.679  30.652403     32.881      9.044   243.0695     2.2817     2.0246     0.0218     -0.168     -0.105     -0.153        205 3.4858e+02   997.8682 0.0000e+00
     -0.120    21.6517     9.1270    103.702  30.642072     32.819      9.019   253.9724     2.2054     1.7794     0.0218     -0.147     -0.116     -0.169        206 3.4910e+02   997.8675 0.0000e+00
     -0.126    21.6571     9.1236    103.659  30.604315     32.818      9.006   265.3674     2.2397     1.7939     0.0218     -0.119     -0.125     -0.182        207 3.4813e+02   997.8672 0.0000e+00
     -0.138    21.6596     9.1205    103.618  30.640139     32.816      8.993   265.1402     2.2244     1.8804     0.0218     -0.093     -0.135     -0.197        208 3.6191e+02   997.8664 0.0000e+00
     -0.151    21.6594     9.1224    103.634  30.656741     32.872      8.986   265.4052     2.2855     1.9236     0.0218     -0.073     -0.142     -0.207        209 3.7013e+02   997.8652 0.0000e+00
     -0.146    21.6580     9.1157    103.554  30.642905     32.810      8.984   264.6481     2.2244     1.8660     0.0218     -0.053     -0.142     -0.205        210 3.7209e+02   997.8645 0.0000e+00
     -0.137    21.6561     9.0989    103.359  30.657356     32.870      8.972   264.6481     2.2244     1.7939     0.0218     -0.035     -0.138     -0.200        211 3.7561e+02   997.8647 0.0000e+00
     -0.141    21.6544     9.0885    103.239  30.698009     32.871      8.955   265.0267     2.2702     1.7939     0.0218     -0.023     -0.140     -0.203        212 3.7103e+02   997.8649 0.0000e+00
     -0.150    21.6536     9.0825    103.170  30.710818     32.932      8.946   264.7238     2.2473     1.8083     0.0219     -0.017     -0.145     -0.211        213 3.7285e+02   997.8653 0.0000e+00
     -0.154    21.6534     9.0852    103.201  30.641415     32.814      8.944   264.3074     2.0490     1.8804     0.0218     -0.013     -0.150     -0.218        214 3.7391e+02   997.8657 0.0000e+00
     -0.156    21.6535     9.0763    103.101  30.606623     32.814      8.942   263.4745     2.0490     1.7362     0.0218     -0.011     -0.153     -0.222        215 3.7261e+02   997.8658 0.0000e+00
     -0.158    21.6529     9.0701    103.033  30.635612     32.815      8.945   263.2474     2.0604     1.8371     0.0218     -0.008     -0.154     -0.223        216 3.7014e+02   997.8659 0.0000e+00
     -0.158    21.6508     9.0596    102.916  30.664593     32.874      8.941   263.3231     2.0528     1.8371     0.0218     -0.008     -0.154     -0.223        217 3.6607e+02   997.8659 0.0000e+00
     -0.156    21.6477     9.0475    102.779  30.629809     32.815      8.927   263.0202     2.1939     1.7650     0.0218     -0.010     -0.154     -0.223        218 3.6173e+02   997.8659 0.0000e+00
     -0.158    21.6452     9.0459    102.763  30.619647     32.816      8.917   262.5281     2.1596     1.8660     0.0218     -0.010     -0.153     -0.221        219 3.5436e+02   997.8665 0.0000e+00
     -0.152    21.6434     9.0435    102.736  30.617990     32.818      8.911   262.3388     2.1825     1.7650     0.0218     -0.005     -0.148     -0.215        220 3.5198e+02   997.8672 0.0000e+00
     -0.143    21.6414     9.0488    102.798  30.631873     32.820      8.896   262.1874     2.1939     1.8515     0.0218      0.002     -0.143     -0.208        221 3.5530e+02   997.8677 0.0000e+00
     -0.144    21.6404     9.0578    102.903  30.661621     32.881      8.861   262.0738     2.1787     1.8804     0.0218      0.006     -0.143     -0.208        222 3.5647e+02   997.8681 0.0000e+00
     -0.151    21.6401     9.0763    103.117  30.640222     32.823      8.818   261.2031     2.1672     1.7650     0.0218      0.006     -0.147     -0.213        223 3.5515e+02   997.8685 0.0000e+00
     -0.153    21.6401     9.1011    103.402  30.717758     32.943      8.794   261.6195     2.1710     1.8227     0.0219      0.005     -0.149     -0.216        224 3.5558e+02   997.8688 0.0000e+00
     -0.152    21.6408     9.1126    103.535  30.683635     32.884      8.788   261.4302     2.1901     1.8371     0.0218      0.004     -0.148     -0.215        225 3.5691e+02   997.8689 0.0000e+00
     -0.149    21.6419     9.1219    103.640  30.623435     32.824      8.804   262.1495     2.1748     1.7939     0.0218      0.002     -0.146     -0.212        226 3.5600e+02   997.8689 0.0000e+00
     -0.146    21.6425     9.1154    103.572  30.674171     32.883      8.812   260.9759     2.1176     1.5920     0.0218      0.002     -0.144     -0.208        227 3.5299e+02   997.8688 0.0000e+00
     -0.145    21.6430     9.1132    103.562  30.679747     32.883      8.822   260.7109     2.1443     1.5631     0.0218      0.000     -0.142     -0.206        228 3.5264e+02   997.8686 0.0000e+00
     -0.144    21.6439     9.1108    103.542  30.675748     32.882      8.833   261.0138     2.0909     1.5199     0.0218      0.000     -0.142     -0.206        229 3.5342e+02   997.8684 0.0000e+00
     -0.145    21.6446     9.1006    103.426  30.679148     32.882      8.839   260.5974     2.1024     1.5776     0.0218      0.003     -0.142     -0.206        230 3.5410e+02   997.8683 0.0000e+00
     -0.144    21.6455     9.0942    103.353  30.675514     32.881      8.840   260.4081     2.0680     1.5055     0.0218      0.005     -0.142     -0.205        231 3.5423e+02   997.8681 0.0000e+00
     -0.143    21.6462     9.0857    103.257  30.680270     32.881      8.842   259.6509     2.0604     1.5487     0.0218      0.005     -0.141     -0.204        232 3.5986e+02   997.8679 0.0000e+00
     -0.141    21.6482     9.0771    103.160  30.673231     32.880      8.850   260.4081     2.0528     1.5920     0.0218      0.004     -0.139     -0.201        233 3.6263e+02   997.8677 0.0000e+00
     -0.140    21.6505     9.0707    103.086  30.684275     32.880      8.851   260.1431     2.0146     1.6497     0.0218      0.004     -0.138     -0.200        234 3.5598e+02   997.8676 0.0000e+00
     -0.141    21.6512     9.0742    103.126  30.666525     32.878      8.848   260.1809     1.9994     1.5199     0.0218      0.003     -0.139     -0.201        235 3.5470e+02   997.8671 0.0000e+00
     -0.143    21.6513     9.0803    103.197  30.636066     32.817      8.836   260.2945     2.0146     1.6497     0.0218      0.002     -0.140     -0.202        236 3.6096e+02   997.8666 0.0000e+00
     -0.144    21.6540     9.0905    103.315  30.662926     32.876      8.828   260.2188     1.9956     1.5776     0.0218      0.001     -0.135     -0.195        237 3.5980e+02   997.8664 0.0000e+00
     -0.122    21.6610     9.1013    103.441  30.692350     32.876      8.827   259.9917     1.9879     1.6208     0.0218      0.006     -0.121     -0.175        238 3.5752e+02   997.8665 0.0000e+00
     -0.104    21.6650     9.1046    103.481  30.717954     32.934      8.802   259.7645     1.9956     1.6497     0.0219      0.014     -0.107     -0.154        239 3.5121e+02   997.8660 0.0000e+00
     -0.101    21.6650     9.1102    103.545  30.690314     32.869      8.775   258.8559     2.0032     1.6352     0.0218      0.021     -0.100     -0.144        240 3.5856e+02   997.8645 0.0000e+00
     -0.099    21.6648     9.1191    103.646  30.667491     32.866      8.755   258.7802     1.9879     1.5920     0.0218      0.025     -0.098     -0.142        241 3.3874e+02   997.8635 0.0000e+00
     -0.100    21.6650     9.1209    103.667  30.687103     32.866      8.758   259.4995     1.9803     1.5631     0.0218      0.027     -0.101     -0.146        242 3.5441e+02   997.8635 0.0000e+00
     -0.111    21.6652     9.1262    103.731  30.665909     32.866      8.769   259.5752     2.0108     1.4910     0.0218      0.024     -0.107     -0.156        243 3.2623e+02   997.8636 0.0000e+00
     -0.118    21.6652     9.1219    103.690  30.634614     32.806      8.781   259.1588     2.1710     1.8515     0.0218      0.016     -0.111     -0.161        244 3.7881e+02   997.8634 0.0000e+00
     -0.111    21.6654     9.1216    103.698  30.666795     32.866      8.788   259.4617     2.1863     1.7939     0.0218      0.009     -0.109     -0.158        245 3.3871e+02   997.8634 0.0000e+00
     -0.106    21.6657     9.1251    103.747  30.685112     32.866      8.794   259.4995     2.1748     1.8227     0.0218     -0.000     -0.105     -0.152        246 1.5539e+02   997.8635 0.0000e+00
     -0.103    21.6666     9.1329    103.844  30.611818     32.806      8.795   259.5752     2.1825     1.8660     0.0218     -0.004     -0.102     -0.147        247 3.5629e+02   997.8634 0.0000e+00
     -0.102    21.6685     9.1339    103.859  30.639504     32.806      8.798   259.0831     2.2473     2.1399     0.0218     -0.002     -0.101     -0.145        248 4.4444e+02   997.8633 0.0000e+00
     -0.103    21.6699     9.1384    103.907  30.709911     32.925      8.796   259.4238     2.2359     2.0390     0.0219      0.000     -0.102     -0.147        249 3.9904e+02   997.8632 0.0000e+00
     -0.106    21.6701     9.1311    103.814  30.642702     32.804      8.796   259.5374     2.2473     2.0534     0.0218      0.003     -0.103     -0.149        250 4.2219e+02   997.8627 0.0000e+00
     -0.105    21.6700     9.1180    103.658  30.663890     32.863      8.791   259.4995     2.2550     1.9813     0.0218      0.005     -0.103     -0.149        251 4.0206e+02   997.8624 0.0000e+00
     -0.104    21.6703     9.1050    103.509  30.624289     32.803      8.791   248.6345     2.2435     1.7650     0.0218      0.005     -0.103     -0.148        252 4.1842e+02   997.8624 0.0000e+00
     -0.104    21.6721     9.0926    103.373  30.573482     32.743      8.787   247.8395     2.2473     1.8083     0.0218      0.002     -0.103     -0.150        253 4.1295e+02   997.8624 0.0000e+00
     -0.109    21.6758     9.0873    103.319  30.727120     32.922      8.786   246.9309     2.2321     1.8804     0.0219     -0.001     -0.103     -0.150        254 4.1689e+02   997.8623 0.0000e+00
     -0.103    21.6813     9.0948    103.413  30.729350     32.921      8.787   246.2495     2.2397     1.8660     0.0219     -0.001     -0.097     -0.141        255 4.2103e+02   997.8619 0.0000e+00
     -0.084    21.6863     9.1032    103.515  30.629958     32.799      8.775   245.7195     2.2588     1.7650     0.0218      0.004     -0.085     -0.123        256 4.3291e+02   997.8612 0.0000e+00
     -0.074    21.6904     9.1117    103.618  30.673054     32.855      8.727   245.3030     2.2244     1.8948     0.0218      0.012     -0.080     -0.115        257 4.3074e+02   997.8600 0.0000e+00
     -0.083    21.6926     9.1141    103.649  30.675717     32.851      8.701   245.0002     2.2473     1.8948     0.0218      0.015     -0.091     -0.131        258 4.3175e+02   997.8589 0.0000e+00
     -0.119    21.6903     9.1082    103.576  30.626641     32.789      8.719   245.1516     2.2397     1.7794     0.0218      0.006     -0.120     -0.174        259 4.3411e+02   997.8578 0.0000e+00
     -0.165    21.6857     9.0918    103.381  30.674872     32.847      8.731   245.4545     2.2206     1.5487     0.0218     -0.014     -0.159     -0.231        260 4.3324e+02   997.8571 0.0000e+00
     -0.203    21.6822     9.0701    103.126  30.674946     32.848      8.743   245.2652     1.9994     1.5776     0.0218     -0.039     -0.196     -0.285        261 4.3403e+02   997.8574 0.0000e+00
     -0.234    21.6815     9.0585    102.987  30.626549     32.792      8.753   260.7867     2.0184     1.6497     0.0218     -0.066     -0.225     -0.326        262 4.3412e+02   997.8583 0.0000e+00
     -0.250    21.6841     9.0512    102.893  30.616596     32.794      8.756   245.9088     1.9956     1.5920     0.0218     -0.090     -0.242     -0.352        263 4.3303e+02   997.8590 0.0000e+00
     -0.257    21.6872     9.0546    102.927  30.628080     32.795      8.762   263.0581     1.9956     1.5199     0.0218     -0.105     -0.252     -0.367        264 4.3240e+02   997.8591 0.0000e+00
     -0.267    21.6909     9.0602    102.997  30.671511     32.853      8.759   262.5659     1.9498     1.6064     0.0218     -0.106     -0.262     -0.379        265 4.3085e+02   997.8585 0.0000e+00
     -0.276    21.6947     9.0742    103.168  30.681053     32.851      8.751   263.0202     1.9383     1.6208     0.0218     -0.095     -0.268     -0.387        266 4.3113e+02   997.8578 0.0000e+00
     -0.274    21.6976     9.0821    103.267  30.675456     32.848      8.741   263.6260     1.9460     1.5776     0.0218     -0.072     -0.263     -0.382        267 4.3303e+02   997.8569 0.0000e+00
     -0.255    21.6992     9.0993    103.468  30.678474     32.845      8.721   263.5502     1.9498     1.5199     0.0218     -0.044     -0.248     -0.360        268 4.3202e+02   997.8562 0.0000e+00
     -0.232    21.6968     9.1096    103.586  30.618045     32.784      8.698   263.4745     1.9307     1.7939     0.0218     -0.016     -0.227     -0.330        269 4.3337e+02   997.8557 0.0000e+00
     -0.209    21.6921     9.1173    103.667  30.632154     32.782      8.681   261.4302     1.9269     1.7362     0.0218      0.010     -0.207     -0.300        270 4.3343e+02   997.8553 0.0000e+00
     -0.193    21.6885     9.1261    103.750  30.660915     32.844      8.681   262.5281     1.9765     1.9092     0.0218      0.030     -0.189     -0.275        271 4.3512e+02   997.8560 0.0000e+00
     -0.177    21.6846     9.1249    103.731  30.641505     32.787      8.676   260.5595     1.9383     1.7794     0.0218      0.047     -0.173     -0.251        272 4.3276e+02   997.8571 0.0000e+00
     -0.158    21.6797     9.1294    103.776  30.656311     32.850      8.673   259.8402     1.9116     1.8227     0.0218      0.062     -0.153     -0.222        273 4.3815e+02   997.8580 0.0000e+00
     -0.132    21.6771     9.1334    103.805  30.642491     32.793      8.664   259.5752     1.9383     1.7506     0.0218      0.073     -0.129     -0.187        274 4.2852e+02   997.8590 0.0000e+00
     -0.105    21.6798     9.1422    103.849  30.599454     32.796      8.650   259.4617     1.9116     1.8371     0.0218      0.080     -0.104     -0.151        275 4.3352e+02   997.8602 0.0000e+00
     -0.082    21.6858     9.1475    103.830  30.591368     32.738      8.637   247.9531     1.9193     1.9669     0.0218      0.083     -0.081     -0.118        276 4.1047e+02   997.8609 0.0000e+00
     -0.063    21.6907     9.1368    103.646  30.652555     32.856      8.630   247.4230     1.9879     1.8371     0.0218      0.084     -0.060     -0.087        277 4.3197e+02   997.8604 0.0000e+00
     -0.038    21.6931     9.1077    103.279  30.582559     32.732      8.625   247.3852     1.9917     1.8227     0.0218      0.086     -0.037     -0.054        278 3.7511e+02   997.8592 0.0000e+00
     -0.013    21.6941     9.0712    102.852  30.559970     32.729      8.618   246.7416     2.0032     1.8083     0.0218      0.090     -0.012     -0.018        279 2.0739e+02   997.8582 0.0000e+00
      0.015    21.6899     9.0354    102.452  30.621413     32.787      8.615   245.7195     1.9879     1.7794     0.0218      0.093      0.014      0.020        280 2.4186e+02   997.8578 0.0000e+00
      0.042    21.6823     9.0148    102.206  30.624598     32.786      8.620   244.6595     2.1253     1.7939     0.0218      0.096      0.040      0.059        281 2.6151e+02   997.8577 0.0000e+00
      0.067    21.6787     8.9958    101.970  30.615259     32.789      8.631   243.9402     2.1100     1.7362     0.0218      0.097      0.065      0.095        282 2.4254e+02   997.8587 0.0000e+00
      0.091    21.6764     8.9788    101.764  30.573784     32.735      8.643   243.4480     2.1405     1.8371     0.0218      0.098      0.089      0.129        283 2.4725e+02   997.8605 0.0000e+00
      0.114    21.6674     8.9765    101.764  30.557710     32.737      8.655   243.2209     2.1176     1.7650     0.0218      0.099      0.112      0.162        284 2.2790e+02   997.8614 0.0000e+00
      0.136    21.6404     8.9791    101.820  30.576013     32.739      8.660   242.7666     2.1481     1.8083     0.0218      0.099      0.136      0.196        285 2.3117e+02   997.8620 0.0000e+00
      0.165    21.6010     8.9850    101.895  30.610260     32.804      8.662   242.3880     2.0451     1.5920     0.0218      0.099      0.162      0.235        286 2.2943e+02   997.8641 0.0000e+00
      0.195    21.5701     8.9977    102.040  30.574346     32.764      8.664   242.3502     2.0566     1.5199     0.0218      0.099      0.190      0.276        287 2.2136e+02   997.8703 0.0000e+00
      0.224    21.5513     9.0156    102.240  30.561465     32.792      8.664   242.5395     2.0604     1.6064     0.0218      0.100      0.219      0.317        288 2.1445e+02   997.8793 0.0000e+00
      0.251    21.5453     9.0398    102.508  30.567053     32.814      8.662   242.1230     2.0566     1.6497     0.0218      0.102      0.247      0.357        289 2.0833e+02   997.8862 0.0000e+00
      0.281    21.5471     9.0627    102.757  30.567406     32.827      8.653   242.3123     2.0986     1.5487     0.0218      0.105      0.273      0.397        290 1.9410e+02   997.8905 0.0000e+00
      0.305    21.5420     9.0801    102.944  30.620288     32.891      8.638   242.0473     2.1214     1.5776     0.0218      0.107      0.297      0.432        291 1.9043e+02   997.8920 0.0000e+00
      0.324    21.5305     9.0819    102.959  30.560499     32.829      8.633   242.0852     2.1100     1.5631     0.0218      0.107      0.319      0.464        292 1.8811e+02   997.8917 0.0000e+00
      0.350    21.5256     9.0798    102.914  30.523309     32.774      8.627   242.1609     2.1100     1.6208     0.0218      0.105      0.343      0.499        293 1.7463e+02   997.8930 0.0000e+00
      0.378    21.5375     9.0806    102.859  30.607320     32.901      8.626   242.0852     2.1710     1.5487     0.0218      0.103      0.367      0.532        294 1.6798e+02   997.8956 0.0000e+00
      0.394    21.5508     9.0732    102.724  30.633710     32.905      8.631   242.0473     2.1863     1.6352     0.0218      0.098      0.382      0.555        295 1.6910e+02   997.8968 0.0000e+00
      0.397    21.5551     9.0633    102.569  30.668226     32.956      8.630   242.1987     2.1825     1.5487     0.0218      0.089      0.390      0.567        296 1.6315e+02   997.8942 0.0000e+00
      0.405    21.5555     9.0467    102.350  30.623613     32.887      8.634   242.3123     2.1787     1.6352     0.0218      0.078      0.398      0.579        297 1.5753e+02   997.8913 0.0000e+00
      0.419    21.5539     9.0311    102.163  30.629972     32.884      8.644   242.3880     2.2588     1.5199     0.0218      0.068      0.411      0.597        298 1.4874e+02   997.8903 0.0000e+00
      0.436    21.5504     9.0198    102.043  30.719565     33.003      8.650   242.3502     2.2817     1.6064     0.0219      0.061      0.429      0.623        299 1.4558e+02   997.8904 0.0000e+00
      0.461    21.5456     9.0079    101.932  30.689875     32.945      8.654   242.4259     2.2244     1.4910     0.0218      0.058      0.451      0.655        300 1.4072e+02   997.8909 0.0000e+00
      0.484    21.5404     8.9956    101.820  30.666922     32.947      8.657   242.8802     2.2435     1.5343     0.0218      0.058      0.476      0.690        301 1.3733e+02   997.8918 0.0000e+00
      0.511    21.5379     8.9876    101.748  30.688879     32.951      8.662   242.6909     2.5525     1.5487     0.0218      0.063      0.502      0.728        302 1.3262e+02   997.8929 0.0000e+00
      0.541    21.5260     8.9807    101.662  30.721804     33.014      8.656   242.8802     2.5334     1.5199     0.0219      0.074      0.530      0.768        303 1.2907e+02   997.8942 0.0000e+00
      0.569    21.4956     8.9815    101.630  30.685202     32.956      8.653   242.9938     2.5258     1.6352     0.0218      0.087      0.558      0.808        304 1.2678e+02   997.8949 0.0000e+00
      0.596    21.4683     8.9893    101.632  30.615927     32.904      8.647   243.0695     2.5296     1.5487     0.0218      0.096      0.583      0.846        305 1.2221e+02   997.8977 0.0000e+00
      0.621    21.4478     8.9862    101.480  30.571011     32.867      8.641   243.5995     2.5258     1.6208     0.0218      0.102      0.607      0.879        306 1.1936e+02   997.9045 0.0000e+00
      0.640    21.4323     8.9833    101.344  30.504099     32.825      8.637   243.3723     2.5029     1.5776     0.0218      0.103      0.623      0.903        307 1.1667e+02   997.9106 0.0000e+00
      0.645    21.4270     8.9714    101.126  30.521451     32.840      8.623   243.2209     2.4838     1.4622     0.0218      0.097      0.629      0.913        308 1.1726e+02   997.9151 0.0000e+00
      0.640    21.4312     8.9598    100.922  30.549425     32.911      8.620   243.4480     2.4877     1.7506     0.0218      0.083      0.629      0.913        309 1.1654e+02   997.9186 0.0000e+00
      0.642    21.4430     8.9370    100.595  30.528544     32.855      8.624   243.4480     2.4610     1.6929     0.0218      0.067      0.628      0.911        310 1.1665e+02   997.9197 0.0000e+00
      0.639    21.4567     8.9020    100.127  30.606693     32.972      8.621   243.7130     2.6784     1.6208     0.0218      0.047      0.627      0.910        311 1.1580e+02   997.9187 0.0000e+00
      0.637    21.4656     8.8576     99.559  30.629926     32.963      8.631   243.7888     2.6822     1.6208     0.0218      0.029      0.628      0.912        312 1.1254e+02   997.9163 0.0000e+00
      0.646    21.4617     8.8127     99.009  30.618131     32.954      8.633   244.1295     2.6670     1.6208     0.0218      0.016      0.641      0.931        313 1.0929e+02   997.9132 0.0000e+00
      0.682    21.4406     8.7622     98.398  30.621367     32.947      8.632   244.4702     2.6784     1.6497     0.0218      0.016      0.672      0.975        314 1.0327e+02   997.9113 0.0000e+00
      0.728    21.3969     8.7143     97.809  30.507390     32.830      8.624   244.4323     2.5945     1.8804     0.0218      0.031      0.714      1.035        315 9.9441e+01   997.9124 0.0000e+00
      0.773    21.3387     8.6491     97.033  30.522967     32.845      8.616   244.3188     2.6250     1.8083     0.0218      0.057      0.757      1.098        316 9.5097e+01   997.9173 0.0000e+00
      0.814    21.2859     8.5953     96.395  30.661246     33.056      8.616   244.4323     2.6135     1.7650     0.0218      0.086      0.796      1.155        317 9.1765e+01   997.9272 0.0000e+00
      0.848    21.2434     8.5507     95.867  30.513079     32.917      8.618   245.0380     2.6135     1.8804     0.0218      0.111      0.829      1.203        318 8.8778e+01   997.9402 0.0000e+00
      0.874    21.2061     8.5260     95.571  30.411120     32.834      8.618   245.0380     2.6479     1.9092     0.0217      0.131      0.857      1.243        319 8.5947e+01   997.9518 0.0000e+00
      0.901    21.1704     8.5041     95.311  30.491894     32.985      8.614   245.1516     2.6898     1.7939     0.0218      0.141      0.884      1.282        320 8.3466e+01   997.9613 0.0000e+00
      0.931    21.1323     8.4606     94.814  30.649585     33.132      8.613   245.4166     2.6670     1.8660     0.0218      0.141      0.912      1.322        321 7.9682e+01   997.9697 0.0000e+00
      0.958    21.0974     8.3974     94.103  30.896296     33.490      8.612   245.7573     2.6593     1.7506     0.0220      0.133      0.938      1.359        322 7.8792e+01   997.9778 0.0000e+00
      0.976    21.0733     8.3138     93.166  30.895915     33.458      8.609   245.9845     2.7814     1.6497     0.0219      0.120      0.960      1.391        323 7.7228e+01   997.9862 0.0000e+00
      0.999    21.0511     8.2278     92.192  30.827835     33.453      8.612   246.1738     2.7967     1.5776     0.0219      0.109      0.985      1.428        324 7.5109e+01   997.9938 0.0000e+00
      1.039    21.0245     8.1641     91.452  30.566266     33.167      8.605   246.5902     2.7928     1.6641     0.0218      0.106      1.017      1.476        325 7.2950e+01   997.9991 0.0000e+00
      1.073    21.0008     8.1089     90.802  30.214152     32.789      8.603   246.8173     2.7814     1.5631     0.0216      0.107      1.050      1.523        326 7.1266e+01   998.0040 0.0000e+00
      1.100    20.9826     8.0708     90.358  30.081004     32.687      8.601   247.0066     2.7852     1.5776     0.0216      0.110      1.079      1.565        327 6.9957e+01   998.0098 0.0000e+00
      1.129    20.9680     8.0537     90.162  30.169088     32.764      8.601   247.0066     2.4877     2.0967     0.0216      0.112      1.107      1.607        328 6.8246e+01   998.0151 0.0000e+00
      1.160    20.9576     8.0612     90.218  30.430428     33.111      8.599   247.3095     2.4800     2.1255     0.0217      0.114      1.136      1.648        329 6.6730e+01   998.0193 0.0000e+00
      1.187    20.9500     8.0875     90.463  30.526050     33.183      8.602   247.8395     2.5067     2.0534     0.0218      0.117      1.162      1.685        330 6.5394e+01   998.0226 0.0000e+00
      1.208    20.9450     8.1209     90.793  30.494483     33.190      8.599   247.6502     2.4762     2.0534     0.0218      0.117      1.182      1.715        331 6.4300e+01   998.0250 0.0000e+00
      1.223    20.9435     8.1668     91.249  30.410465     33.074      8.599   248.0666     2.4228     1.6929     0.0217      0.111      1.197      1.737        332 6.3884e+01   998.0267 0.0000e+00
      1.232    20.9430     8.2351     91.904  30.393603     33.078      8.594   247.9531     2.4266     1.7939     0.0217      0.098      1.211      1.757        333 6.2649e+01   998.0278 0.0000e+00
      1.254    20.9373     8.3455     93.010  30.456217     33.139      8.596   248.1423     2.4457     1.8083     0.0217      0.089      1.231      1.785        334 6.1323e+01   998.0282 0.0000e+00
      1.279    20.9230     8.4842     94.452  30.391795     33.079      8.594   248.5588     2.4228     1.7939     0.0217      0.083      1.256      1.821        335 6.0231e+01   998.0284 0.0000e+00
      1.307    20.9051     8.6343     96.041  30.296021     32.962      8.591   248.9373     2.2397     1.6497     0.0217      0.080      1.282      1.858        336 5.9098e+01   998.0298 0.0000e+00
      1.332    20.8956     8.7629     97.399  30.071771     32.759      8.589   249.0888     2.2511     1.8371     0.0216      0.080      1.307      1.895        337 5.8096e+01   998.0329 0.0000e+00
      1.358    20.8923     8.8658     98.439  30.196863     32.833      8.589   249.4673     2.2321     1.7506     0.0216      0.083      1.334      1.935        338 5.6843e+01   998.0369 0.0000e+00
      1.392    20.8767     8.9241     98.987  30.169977     32.961      8.584   249.9216     2.2435     1.7939     0.0217      0.091      1.365      1.980        339 5.5761e+01   998.0391 0.0000e+00
      1.427    20.8494     8.9436     99.156  29.897860     32.446      8.583   250.7166     2.1672     1.9381     0.0214      0.102      1.399      2.030        340 5.4214e+01   998.0398 0.0000e+00
      1.462    20.8246     8.9478     99.167  30.654027     33.492      8.582   251.0195     2.1748     2.1111     0.0219      0.112      1.432      2.077        341 5.3305e+01   998.0436 0.0000e+00
      1.490    20.7915     8.9321     98.949  31.184267     33.969      8.581   250.7166     2.1863     2.1255     0.0221      0.117      1.462      2.121        342 5.2436e+01   998.0498 0.0000e+00
      1.521    20.7325     8.9084     98.610  31.430346     34.292      8.581   251.0573     2.2054     2.1688     0.0222      0.121      1.494      2.167        343 5.1154e+01   998.0554 0.0000e+00
      1.560    20.6643     8.8871     98.266  31.918048     34.865      8.579   251.2088     1.9383     2.1832     0.0224      0.125      1.530      2.220        344 4.9661e+01   998.0629 0.0000e+00
      1.601    20.6075     8.8670     97.951  31.999480     34.971      8.578   251.5116     1.9193     2.1832     0.0224      0.131      1.570      2.276        345 4.8229e+01   998.0757 0.0000e+00
      1.641    20.5647     8.8604     97.812  32.040100     35.085      8.575   251.8523     1.9460     2.3562     0.0225      0.136      1.607      2.330        346 4.7129e+01   998.0904 0.0000e+00
      1.671    20.5262     8.8584     97.744  32.104552     35.189      8.573   251.8902     1.9383     2.3707     0.0225      0.138      1.638      2.376        347 4.6201e+01   998.1027 0.0000e+00
      1.699    20.4733     8.8564     97.690  32.304466     35.437      8.571   252.0416     1.9269     2.1688     0.0226      0.137      1.668      2.418        348 4.5267e+01   998.1120 0.0000e+00
      1.731    20.4231     8.8433     97.529  32.591305     35.804      8.569   252.7609     1.6827     2.5004     0.0227      0.136      1.698      2.462        349 4.4087e+01   998.1204 0.0000e+00
      1.764    20.3976     8.8210     97.263  32.577215     35.815      8.565   253.0259     1.6942     2.4428     0.0227      0.136      1.729      2.507        350 4.3142e+01   998.1318 0.0000e+00
      1.792    20.3805     8.7941     96.979  32.529428     35.794      8.567   253.1395     1.7056     2.6302     0.0227      0.132      1.759      2.551        351 4.2288e+01   998.1425 0.0000e+00
      1.823    20.3575     8.7704     96.733  32.561908     35.875      8.563   253.3666     1.6980     2.5581     0.0227      0.127      1.791      2.597        352 4.1261e+01   998.1481 0.0000e+00
      1.862    20.3179     8.7569     96.592  32.596065     35.889      8.561   253.7452     1.5569     2.2697     0.0227      0.124      1.827      2.650        353 4.0039e+01   998.1518 0.0000e+00
      1.905    20.2632     8.7370     96.382  32.753594     36.122      8.560   253.8966     1.5607     2.2697     0.0228      0.127      1.866      2.706        354 3.8713e+01   998.1569 0.0000e+00
      1.942    20.2147     8.7317     96.340  32.899208     36.277      8.554   253.7831     1.5492     2.2409     0.0228      0.132      1.900      2.756        355 3.7975e+01   998.1654 0.0000e+00
      1.967    20.1812     8.7336     96.338  32.977831     36.445      8.557   253.7452     1.5683     2.2841     0.0229      0.134      1.926      2.794        356 3.7546e+01   998.1770 0.0000e+00
      1.985    20.1565     8.7509     96.446  33.011327     36.483      8.556   254.1616     1.3814     2.8465     0.0229      0.131      1.944      2.820        357 3.7172e+01   998.1872 0.0000e+00
      1.997    20.1411     8.7609     96.466  33.094580     36.634      8.554   254.1238     1.3852     2.8465     0.0229      0.123      1.958      2.839        358 3.7004e+01   998.1943 0.0000e+00
      2.005    20.1306     8.7647     96.435  33.111279     36.654      8.554   254.1616     1.3890     2.9474     0.0229      0.110      1.968      2.853        359 3.6746e+01   998.1995 0.0000e+00
      2.016    20.1224     8.7531     96.251  33.109077     36.667      8.553   254.3509     1.3852     2.8898     0.0229      0.093      1.978      2.868        360 3.6516e+01   998.2027 0.0000e+00
      2.029    20.1274     8.7309     95.956  33.156589     36.736      8.551   254.8431     1.3928     2.9474     0.0230      0.076      1.991      2.886        361 3.6136e+01   998.2050 0.0000e+00
      2.044    20.1361     8.6923     95.496  33.111418     36.683      8.550   254.8809     1.3738     2.8465     0.0229      0.061      2.007      2.910        362 3.5606e+01   998.2068 0.0000e+00
      2.066    20.1399     8.6487     94.932  33.046774     36.615      8.548   254.9566     1.3699     2.8465     0.0229      0.055      2.023      2.934        363 3.5379e+01   998.2058 0.0000e+00
      2.076    20.1458     8.5942     94.176  33.059256     36.609      8.546   254.8052     1.3699     2.9330     0.0229      0.052      2.037      2.955        364 3.5295e+01   998.2040 0.0000e+00
      2.090    20.1536     8.5184     93.210  33.036622     36.605      8.544   255.1459     1.3814     3.1061     0.0229      0.053      2.055      2.981        365 3.4669e+01   998.2033 0.0000e+00
      2.121    20.1407     8.4263     91.990  33.015680     36.539      8.544   255.4109     1.3738     3.0916     0.0229      0.059      2.084      3.022        366 3.3758e+01   998.2022 0.0000e+00
      2.161    20.0986     8.2687     90.078  33.144577     36.718      8.538   255.5245     1.3852     2.9763     0.0230      0.072      2.120      3.074        367 3.2877e+01   998.2007 0.0000e+00
      2.201    20.0513     8.0005     86.983  33.202140     36.759      8.537   255.7516     1.3928     3.1349     0.0230      0.086      2.157      3.129        368 3.2029e+01   998.2037 0.0000e+00
      2.236    20.0135     7.5921     82.306  33.181089     36.794      8.533   256.0166     1.4043     3.0340     0.0230      0.101      2.192      3.180        369 3.1268e+01   998.2126 0.0000e+00
      2.269    19.9839     6.9981     75.706  33.200423     36.833      8.531   256.2816     1.3165     3.5819     0.0230      0.113      2.224      3.225        370 3.0688e+01   998.2226 0.0000e+00
      2.296    19.9574     6.1727     66.650  33.089212     36.771      8.533   256.3195     1.3547     3.5387     0.0230      0.122      2.252      3.266        371 3.0154e+01   998.2305 0.0000e+00
      2.325    19.9386     5.0043     53.940  33.082466     36.732      8.529   256.4331     1.3432     3.5242     0.0229      0.130      2.281      3.309        372 2.9428e+01   998.2366 0.0000e+00
      2.358    19.8912     3.7197     40.075  33.001421     36.754      8.527   256.3574     1.3203     3.5531     0.0229      0.132      2.312      3.354        373 2.8786e+01   998.2423 0.0000e+00
      2.390    19.8121     2.4214     26.080  32.834527     36.459      8.523   256.5845     1.2097     4.0001     0.0228      0.129      2.346      3.402        374 2.8056e+01   998.2463 0.0000e+00
      2.428    19.7335     1.2048     12.960  33.260550     37.086      8.524   256.5088     1.2212     4.0433     0.0230      0.127      2.383      3.456        375 2.6966e+01   998.2563 0.0000e+00
      2.472    19.6222     0.1559      1.676  33.863887     37.748      8.523   257.0009     1.2021     3.9424     0.0233      0.128      2.422      3.513        376 2.6058e+01   998.2729 0.0000e+00
      2.508    19.5160    -0.5222     -5.615  34.098598     38.153      8.520   256.5466     1.1906     3.9712     0.0234      0.132      2.459      3.566        377 2.5359e+01   998.2892 0.0000e+00
      2.541    19.4124    -0.8991     -9.666  34.983437     39.096      8.520   256.7359     1.1411     4.4615     0.0238      0.136      2.491      3.613        378 2.4639e+01   998.3122 0.0000e+00
      2.572    19.2744    -1.0177    -10.939  36.200169     40.789      8.517   256.8116     1.1449     4.6057     0.0245      0.139      2.518      3.652        379 2.4134e+01   998.3344 0.0000e+00
      2.589    19.1647    -0.9252     -9.938  37.355492     41.887      8.518   257.0766     1.1601     4.4759     0.0249      0.136      2.538      3.682        380 2.3874e+01   998.3556 0.0000e+00
      2.606    19.0703    -0.6863     -7.372  39.798960     45.050      8.515   257.4552     1.1487     4.4904     0.0262      0.127      2.555      3.707        381 2.3479e+01   998.3841 0.0000e+00
      2.624    18.9853    -0.3824     -4.112  46.408985     52.211      8.515   257.6445     1.1525     4.8797     0.0292      0.115      2.570      3.728        382 2.3062e+01   998.4085 0.0000e+00
      2.632    18.9616    -0.0627     -0.675  51.779410     59.362      8.515   258.0231     1.1411     4.9806     0.0323      0.099      2.580      3.742        383 2.2955e+01   998.4291 0.0000e+00
      2.636    18.9446     0.2518      2.715  52.566424     59.129      8.510   257.9474     1.1639     5.0239     0.0322      0.080      2.585      3.750        384 2.2877e+01   998.4461 0.0000e+00
      2.641    18.8861     0.5688      6.138  56.402712     64.564      8.512   258.4395     1.1411     5.0095     0.0345      0.063      2.591      3.757        385 2.2655e+01   998.4522 0.0000e+00
      2.648    18.8554     0.9091      9.819  58.988864     66.970      8.512   258.2881     1.2593     4.4759     0.0356      0.049      2.596      3.765        386 2.2454e+01   998.4566 0.0000e+00
      2.653    18.8585 -9.990e-29 -9.990e-29  56.051822     64.072      8.508   258.4017     1.2631     4.4904     0.0343      0.038      2.601      3.773        387 2.2266e+01   998.4669 0.0000e+00
      2.656    18.8550 -9.990e-29 -9.990e-29  54.807189     62.076      8.507   258.2502     1.2593     4.4904     0.0334      0.030      2.605      3.778        388 2.2027e+01   998.4724 0.0000e+00
      2.660    18.8404 -9.990e-29 -9.990e-29  57.363706     65.733      8.503   258.2881     1.2822     4.4183     0.0350      0.024      2.609      3.783        389 2.1782e+01   998.4728 0.0000e+00
      2.663    18.8116 -9.990e-29 -9.990e-29  60.197653     68.323      8.499   258.3259     1.2593     4.4038     0.0362      0.019      2.612      3.788        390 2.1497e+01   998.4746 0.0000e+00
      2.666    18.8182 -9.990e-29 -9.990e-29  60.447383     69.363      8.498   258.4395     1.2479     3.7838     0.0366      0.017      2.614      3.792        391 2.1313e+01   998.4776 0.0000e+00
      2.669    18.8686 -9.990e-29 -9.990e-29  57.349732     65.106      8.495   258.4017     1.2708     3.6829     0.0347      0.016      2.617      3.796        392 2.1129e+01   998.4820 0.0000e+00
      2.670    18.9339 -9.990e-29 -9.990e-29  55.122867     63.085      8.496   258.4395     1.2402     3.8126     0.0339      0.014      2.619      3.798        393 2.1123e+01   998.4798 0.0000e+00
      2.672    18.9889 -9.990e-29 -9.990e-29  53.280884     60.653      8.495   258.1745     1.2669     3.7838     0.0328      0.012      2.620      3.800        394 2.1132e+01   998.4693 0.0000e+00
      2.672    19.0451 -9.990e-29 -9.990e-29  51.158964     58.180      8.494   257.8717     1.2822     3.6829     0.0318      0.010      2.621      3.801        395 2.0989e+01   998.4558 0.0000e+00
      2.674    19.0840 -9.990e-29 -9.990e-29  49.429505     56.293      8.493   258.1367     1.2669     3.7982     0.0310      0.008      2.622      3.803        396 2.0649e+01   998.4445 0.0000e+00
      2.676 -9.990e-29 -9.990e-29 -9.990e-29  49.116353     55.467      8.491   257.3416     1.2479     3.7838     0.0306      0.007      2.624      3.807        397 2.0473e+01   998.4333 0.0000e+00
      2.678 -9.990e-29 -9.990e-29 -9.990e-29  50.273482     57.371      8.489   257.4552     1.2517     3.7550     0.0314      0.007      2.625      3.808        398 2.0618e+01   998.4260 0.0000e+00
