* Sea-Bird SBE19plus  Data File:
* FileName = C:\DATA\072219_fcr50_0005.hex
* Software version 2.8.0.119
* Temperature SN = 7809
* Conductivity SN = 7809
* System UpLoad Time = Jul 23 2019 10:44:24
* <ApplicationData>
* <Seaterm232>
* <SoftwareVersion>2.8.0.119</SoftwareVersion>
* <BuildDate>07-Nov-2018</BuildDate>
* </Seaterm232>
* </ApplicationData>
* <InstrumentState>
* <HardwareData DeviceType='SBE19plus' SerialNumber='01907809'>
*
*    <Manufacturer>Sea-Bird Electronics, Inc.</Manufacturer>
*
*    <FirmwareVersion>3.1.8</FirmwareVersion>
*
*    <FirmwareDate>Mar  9 2016 16:22:29</FirmwareDate>
*
*    <CommandSetVersion>1.4</CommandSetVersion>
*
*    <PCBAssembly PCBSerialNum='120721' AssemblyNum='41054J'/>
*
*    <PCBAssembly PCBSerialNum='120715' AssemblyNum='41967A'/>
*
*    <PCBAssembly PCBSerialNum='116699' AssemblyNum='41606'/>
*
*    <PCBAssembly PCBSerialNum='120719' AssemblyNum='41059D'/>
*
*    <MfgDate>28-Apr-2017</MfgDate>
*
*    <InternalSensors>
*
*       <Sensor id='Main Temperature'>
*
*          <type>temperature0</type>
*
*          <SerialNumber>01907809</SerialNumber>
*
*       </Sensor>
*
*       <Sensor id='Main Conductivity'>
*
*          <type>conductivity-0</type>
*
*          <SerialNumber>01907809</SerialNumber>
*
*       </Sensor>
*
*       <Sensor id='Main Pressure'>
*
*          <type>strain-0</type>
*
*          <SerialNumber>10586018</SerialNumber>
*
*       </Sensor>
*
*    </InternalSensors>
*
*    <ExternalSensors>
*
*       <Sensor id='volt 0'>
*
*          <type>pH</type>
*
*          <SerialNumber>27-0363</SerialNumber>
*
*       </Sensor>
*
*       <Sensor id='volt 1'>
*
*          <type>ORP</type>
*
*          <SerialNumber>27-0363</SerialNumber>
*
*       </Sensor>
*
*       <Sensor id='volt 2'>
*
*          <type>OXY</type>
*
*          <SerialNumber>43-0434</SerialNumber>
*
*       </Sensor>
*
*       <Sensor id='volt 3'>
*
*          <type>PAR</type>
*
*          <SerialNumber>1122</SerialNumber>
*
*       </Sensor>
*
*       <Sensor id='volt 4'>
*
*          <type>ECO AFL/FL</type>
*
*          <SerialNumber>FLNTURT-2496</SerialNumber>
*
*       </Sensor>
*
*       <Sensor id='volt 5'>
*
*          <type>ECO-NTU</type>
*
*          <SerialNumber>FLNTURT-2496</SerialNumber>
*
*       </Sensor>
*
*       <Sensor id='serial'>
*
*          <type>not assigned</type>
*
*          <SerialNumber>not assigned</SerialNumber>
*
*       </Sensor>
*
*    </ExternalSensors>
*
* </HardwareData>
* <StatusData DeviceType='SBE19plus' SerialNumber='01907809'>
*
*    <DateTime>2019-07-23T10:42:27</DateTime>
*
*    <LoggingState>not logging</LoggingState>
*
*    <EventSummary numEvents='0'/>
*
*    <Power>
*
*       <vMain>12.8</vMain>
*
*       <vLith>8.6</vLith>
*
*       <iMain>63.1</iMain>
*
*       <iPump>45.8</iPump>
*
*       <iExt01>20.3</iExt01>
*
*       <iExt2345>36.7</iExt2345>
*
*    </Power>
*
*    <MemorySummary>
*
*       <Bytes>60789</Bytes>
*
*       <Samples>2643</Samples>
*
*       <SamplesFree>2858145</SamplesFree>
*
*       <SampleLength>23</SampleLength>
*
*       <Profiles>5</Profiles>
*
*    </MemorySummary>
*
* </StatusData>
* <ConfigurationData DeviceType='SBE19plus' SerialNumber='01907809'>
*
*    <ProfileMode>
*
*       <ScansToAverage>1</ScansToAverage>
*
*       <MinimumCondFreq>5</MinimumCondFreq>
*
*       <PumpDelay>45</PumpDelay>
*
*       <AutoRun>no</AutoRun>
*
*       <IgnoreSwitch>no</IgnoreSwitch>
*
*    </ProfileMode>
*
*    <Battery>
*
*       <Type>alkaline</Type>
*
*       <CutOff>7.5</CutOff>
*
*    </Battery>
*
*    <DataChannels>
*
*       <ExtVolt0>yes</ExtVolt0>
*
*       <ExtVolt1>yes</ExtVolt1>
*
*       <ExtVolt2>yes</ExtVolt2>
*
*       <ExtVolt3>yes</ExtVolt3>
*
*       <ExtVolt4>yes</ExtVolt4>
*
*       <ExtVolt5>yes</ExtVolt5>
*
*       <SBE38>no</SBE38>
*
*       <WETLABS>no</WETLABS>
*
*       <OPTODE>no</OPTODE>
*
*       <SBE63>no</SBE63>
*
*       <SeaFET>no</SeaFET>
*
*       <GTD>no</GTD>
*
*    </DataChannels>
*
*    <EchoCharacters>yes</EchoCharacters>
*
*    <OutputExecutedTag>yes</OutputExecutedTag>
*
*    <OutputFormat>raw HEX</OutputFormat>
*
* </ConfigurationData>
* <CalibrationCoefficients DeviceType='SBE19plus' SerialNumber='01907809'>
*
*    <Calibration format='TEMP1' id='Main Temperature'>
*
*       <SerialNum>01907809</SerialNum>
*
*       <CalDate>24-Mar-19</CalDate>
*
*       <TA0>1.217923e-03</TA0>
*
*       <TA1>2.816693e-04</TA1>
*
*       <TA2>-1.603333e-06</TA2>
*
*       <TA3>1.984146e-07</TA3>
*
*       <TOFFSET>0.000000e+00</TOFFSET>
*
*    </Calibration>
*
*    <Calibration format='WBCOND0' id='Main Conductivity'>
*
*       <SerialNum>01907809</SerialNum>
*
*       <CalDate>24-Mar-19</CalDate>
*
*       <G>-1.005893e+00</G>
*
*       <H>1.268163e-01</H>
*
*       <I>-1.515604e-04</I>
*
*       <J>2.671373e-05</J>
*
*       <CPCOR>-9.570000e-08</CPCOR>
*
*       <CTCOR>3.250000e-06</CTCOR>
*
*       <CSLOPE>1.000000e+00</CSLOPE>
*
*    </Calibration>
*
*    <Calibration format='STRAIN0' id='Main Pressure'>
*
*       <SerialNum>10586018</SerialNum>
*
*       <CalDate>11-Mar-19</CalDate>
*
*       <PA0>4.565618e-02</PA0>
*
*       <PA1>4.850951e-04</PA1>
*
*       <PA2>-2.883271e-12</PA2>
*
*       <PTCA0>5.252467e+05</PTCA0>
*
*       <PTCA1>1.223042e+01</PTCA1>
*
*       <PTCA2>-3.567450e-01</PTCA2>
*
*       <PTCB0>2.516687e+01</PTCB0>
*
*       <PTCB1>3.750000e-04</PTCB1>
*
*       <PTCB2>0.000000e+00</PTCB2>
*
*       <PTEMPA0>-5.487846e+01</PTEMPA0>
*
*       <PTEMPA1>5.537568e+01</PTEMPA1>
*
*       <PTEMPA2>-5.867271e-01</PTEMPA2>
*
*       <POFFSET>7.140000e-01</POFFSET>
*
*       <PRANGE>1.600000e+02</PRANGE>
*
*    </Calibration>
*
*    <Calibration format='VOLT0' id='Volt 0'>
*
*       <OFFSET>-4.920000e-02</OFFSET>
*
*       <SLOPE>1.248122e+00</SLOPE>
*
*    </Calibration>
*
*    <Calibration format='VOLT0' id='Volt 1'>
*
*       <OFFSET>-4.784000e-02</OFFSET>
*
*       <SLOPE>1.248871e+00</SLOPE>
*
*    </Calibration>
*
*    <Calibration format='VOLT0' id='Volt 2'>
*
*       <OFFSET>-4.864632e-02</OFFSET>
*
*       <SLOPE>1.248714e+00</SLOPE>
*
*    </Calibration>
*
*    <Calibration format='VOLT0' id='Volt 3'>
*
*       <OFFSET>-4.743790e-02</OFFSET>
*
*       <SLOPE>1.248571e+00</SLOPE>
*
*    </Calibration>
*
*    <Calibration format='VOLT0' id='Volt 4'>
*
*       <OFFSET>-4.671263e-02</OFFSET>
*
*       <SLOPE>1.248951e+00</SLOPE>
*
*    </Calibration>
*
*    <Calibration format='VOLT0' id='Volt 5'>
*
*       <OFFSET>-4.871053e-02</OFFSET>
*
*       <SLOPE>1.249136e+00</SLOPE>
*
*    </Calibration>
*
*    <Calibration format='FREQ0' id='external frequency channel'>
*
*       <EXTFREQSF>1.000014e+00</EXTFREQSF>
*
*    </Calibration>
*
* </CalibrationCoefficients>
* <EventCounters DeviceType='SBE19plus' SerialNumber='01907809'>
*
*    <EventSummary numEvents='0'/>
*
* </EventCounters></InstrumentState>
* <Headers>
*
* cast   5 22 Jul 2019 15:52:58 samples 2055 to 2643, avg = 1, stop = mag switch
*
# nquan = 18
# nvalues = 402                         
# units = specified
# name 0 = depFM: Depth [fresh water, m]
# name 1 = tv290C: Temperature [ITS-90, deg C]
# name 2 = sbeox0Mg/L: Oxygen, SBE 43 [mg/l]
# name 3 = sbeox0PS: Oxygen, SBE 43 [% saturation]
# name 4 = c0uS/cm: Conductivity [uS/cm]
# name 5 = specc: Specific Conductance [uS/cm]
# name 6 = ph: pH
# name 7 = orp: Oxidation Reduction Potential [mV]
# name 8 = flECO-AFL: Fluorescence, WET Labs ECO-AFL/FL [mg/m^3]
# name 9 = turbWETntu0: Turbidity, WET Labs ECO [NTU]
# name 10 = sal00: Salinity, Practical [PSU]
# name 11 = dz/dtM: Descent Rate [m/s]
# name 12 = prdM: Pressure, Strain Gauge [db]
# name 13 = prdE: Pressure, Strain Gauge [psi]
# name 14 = scan: Scan Count
# name 15 = par/sat/log: PAR/Logarithmic, Satlantic
# name 16 = density00: Density [density, kg/m^3]
# name 17 = flag:  0.000e+00
# span 0 =     -0.437,      7.223       
# span 1 =    11.1103,    28.0331       
# span 2 =    -0.1291,    13.9882       
# span 3 =     -1.212,    162.092       
# span 4 =  29.987572,  49.021005       
# span 5 =     34.259,     68.933       
# span 6 =      7.733,      8.785       
# span 7 =   142.9749,   290.5425       
# span 8 =    -0.1331,    25.5669       
# span 9 =    -0.0951,    14.2093       
# span 10 =     0.0215,     0.0337      
# span 11 =     -0.004,      0.217      
# span 12 =     -0.414,      7.082      
# span 13 =     -0.600,     10.272      
# span 14 =          1,        402      
# span 15 = 1.2316e-01, 6.4546e+02      
# span 16 =   996.2455,   999.6537      
# span 17 = 0.0000e+00, 0.0000e+00      
# interval = seconds: 0.25
# start_time = Jul 22 2019 15:52:58 [Instrument's time stamp, header]
# bad_flag = -9.990e-29
# <Sensors count="9" >
#   <sensor Channel="1" >
#     <!-- Count, Temperature -->
#     <TemperatureSensor SensorID="58" >
#       <SerialNumber>7809</SerialNumber>
#       <CalibrationDate>24-Mar-19</CalibrationDate>
#       <A0>1.21792325e-003</A0>
#       <A1>2.81669265e-004</A1>
#       <A2>-1.60333336e-006</A2>
#       <A3>1.98414625e-007</A3>
#       <Slope>1.00000000</Slope>
#       <Offset>0.0000</Offset>
#     </TemperatureSensor>
#   </sensor>
#   <sensor Channel="2" >
#     <!-- Frequency 0, Conductivity -->
#     <ConductivitySensor SensorID="3" >
#       <SerialNumber>7809</SerialNumber>
#       <CalibrationDate>24-Mar-19</CalibrationDate>
#       <UseG_J>1</UseG_J>
#       <!-- Cell const and series R are applicable only for wide range sensors. -->
#       <SeriesR>0.0000</SeriesR>
#       <CellConst>2000.0000</CellConst>
#       <ConductivityType>0</ConductivityType>
#       <Coefficients equation="0" >
#         <A>0.00000000e+000</A>
#         <B>0.00000000e+000</B>
#         <C>0.00000000e+000</C>
#         <D>0.00000000e+000</D>
#         <M>0.0</M>
#         <CPcor>-9.57000000e-008</CPcor>
#       </Coefficients>
#       <Coefficients equation="1" >
#         <G>-1.00589325e+000</G>
#         <H>1.26816302e-001</H>
#         <I>-1.51560448e-004</I>
#         <J>2.67137274e-005</J>
#         <CPcor>-9.57000000e-008</CPcor>
#         <CTcor>3.2500e-006</CTcor>
#         <!-- WBOTC not applicable unless ConductivityType = 1. -->
#         <WBOTC>0.00000000e+000</WBOTC>
#       </Coefficients>
#       <Slope>1.00000000</Slope>
#       <Offset>0.00000</Offset>
#     </ConductivitySensor>
#   </sensor>
#   <sensor Channel="3" >
#     <!-- Count, Pressure, Strain Gauge -->
#     <PressureSensor SensorID="46" >
#       <SerialNumber>7809</SerialNumber>
#       <CalibrationDate>11-Mar-19</CalibrationDate>
#       <PA0>4.56561833e-002</PA0>
#       <PA1>4.85095118e-004</PA1>
#       <PA2>-2.88327090e-012</PA2>
#       <PTEMPA0>-5.48784562e+001</PTEMPA0>
#       <PTEMPA1>5.53756816e+001</PTEMPA1>
#       <PTEMPA2>-5.86727098e-001</PTEMPA2>
#       <PTCA0>5.25246745e+005</PTCA0>
#       <PTCA1>1.22304214e+001</PTCA1>
#       <PTCA2>-3.56745036e-001</PTCA2>
#       <PTCB0>2.51668750e+001</PTCB0>
#       <PTCB1>3.75000000e-004</PTCB1>
#       <PTCB2>0.00000000e+000</PTCB2>
#       <Offset>0.000000</Offset>
#     </PressureSensor>
#   </sensor>
#   <sensor Channel="4" >
#     <!-- A/D voltage 0, Oxygen, SBE 43 -->
#     <OxygenSensor SensorID="38" >
#       <SerialNumber>0434</SerialNumber>
#       <CalibrationDate>13-Apr-19</CalibrationDate>
#       <Use2007Equation>1</Use2007Equation>
#       <CalibrationCoefficients equation="0" >
#         <!-- Coefficients for Owens-Millard equation. -->
#         <Boc>0.0000</Boc>
#         <Soc>0.0000e+000</Soc>
#         <offset>0.0000</offset>
#         <Pcor>0.00e+000</Pcor>
#         <Tcor>0.0000</Tcor>
#         <Tau>0.0</Tau>
#       </CalibrationCoefficients>
#       <CalibrationCoefficients equation="1" >
#         <!-- Coefficients for Sea-Bird equation - SBE calibration in 2007 and later. -->
#         <Soc>4.2007e-001</Soc>
#         <offset>-0.6109</offset>
#         <A>-4.3656e-003</A>
#         <B> 1.7017e-004</B>
#         <C>-2.5341e-006</C>
#         <D0> 2.5826e+000</D0>
#         <D1> 1.92634e-004</D1>
#         <D2>-4.64803e-002</D2>
#         <E> 3.6000e-002</E>
#         <Tau20> 1.1800</Tau20>
#         <H1>-3.3000e-002</H1>
#         <H2> 5.0000e+003</H2>
#         <H3> 1.4500e+003</H3>
#       </CalibrationCoefficients>
#     </OxygenSensor>
#   </sensor>
#   <sensor Channel="5" >
#     <!-- A/D voltage 1, PAR/Logarithmic, Satlantic -->
#     <PARLog_SatlanticSensor SensorID="76" >
#       <SerialNumber>1122</SerialNumber>
#       <CalibrationDate>08-May-2019</CalibrationDate>
#       <a0>9.7456e-001</a0>
#       <a1>8.1640e-001</a1>
#       <Im>1.3589e+000</Im>
#       <Multiplier>1.0000e+000</Multiplier>
#     </PARLog_SatlanticSensor>
#   </sensor>
#   <sensor Channel="6" >
#     <!-- A/D voltage 2, pH -->
#     <pH_Sensor SensorID="43" >
#       <SerialNumber>0363</SerialNumber>
#       <CalibrationDate>15-Apr-19</CalibrationDate>
#       <Slope>4.5952</Slope>
#       <Offset>2.5370</Offset>
#     </pH_Sensor>
#   </sensor>
#   <sensor Channel="7" >
#     <!-- A/D voltage 3, Oxidation Reduction Potential -->
#     <OxidationReductionPotentialSensor SensorID="41" >
#       <SerialNumber>0363</SerialNumber>
#       <CalibrationDate>15-Apr-19</CalibrationDate>
#       <B>2.499480</B>
#       <M>-0.496195</M>
#       <Offset>0.0</Offset>
#     </OxidationReductionPotentialSensor>
#   </sensor>
#   <sensor Channel="8" >
#     <!-- A/D voltage 4, Fluorometer, WET Labs ECO-AFL/FL -->
#     <FluoroWetlabECO_AFL_FL_Sensor SensorID="20" >
#       <SerialNumber>FLNTURT-2496</SerialNumber>
#       <CalibrationDate>08-May-2019</CalibrationDate>
#       <ScaleFactor>5.00000000e+001</ScaleFactor>
#       <!-- Dark output -->
#       <Vblank>0.0550</Vblank>
#     </FluoroWetlabECO_AFL_FL_Sensor>
#   </sensor>
#   <sensor Channel="9" >
#     <!-- A/D voltage 5, Turbidity Meter, WET Labs, ECO-NTU -->
#     <TurbidityMeter SensorID="67" >
#       <SerialNumber>FLNTURT-2496</SerialNumber>
#       <CalibrationDate>08-May-2019</CalibrationDate>
#       <ScaleFactor>189.000000</ScaleFactor>
#       <!-- Dark output -->
#       <DarkVoltage>0.071000</DarkVoltage>
#     </TurbidityMeter>
#   </sensor>
# </Sensors>
# datcnv_date = Jul 23 2019 10:50:47, 7.26.7.129 [datcnv_vars = 17]
# datcnv_in = C:\DATA\072219_fcr45.hex C:\DATA\SBE19plusV2_7809.xmlcon
# datcnv_skipover = 0
# datcnv_ox_hysteresis_correction = yes
# datcnv_ox_tau_correction = yes
# filter_date = Jul 23 2019 10:51:03, 7.26.7.129
# filter_in = C:\DATA\072219_fcr45.cnv
# filter_low_pass_tc_A = 0.030
# filter_low_pass_tc_B = 0.150
# filter_low_pass_A_vars = tv290C c0uS/cm par/sat/log density00
# filter_low_pass_B_vars = prdM prdE
# alignctd_date = Jul 23 2019 10:51:16, 7.26.7.129
# alignctd_in = C:\DATA\072219_fcr45.cnv
# alignctd_adv = tv290C 0.500, sbeox0Mg/L 3.000, sbeox0PS 3.000                                                                                                                                                                      
# file_type = ascii
*END*
     -0.437    26.7065     7.5566     96.297  38.087433     37.525      8.298   142.9749    -0.1254    -0.0951     0.0249      0.000     -0.414     -0.600          1 5.5022e+02   996.8630 0.0000e+00
     -0.387    27.0054     7.6122     96.835  38.208323     37.241      8.463   157.8528    -0.1102    -0.0807     0.0249      0.013     -0.379     -0.549          2 5.6809e+02   996.7297 0.0000e+00
     -0.338    27.2841     7.6812     97.449  38.335021     37.072      8.591   169.4371    -0.1331    -0.0374     0.0249      0.036     -0.335     -0.487          3 5.9194e+02   996.6127 0.0000e+00
     -0.301    27.4653     7.7479     98.134  38.403733     36.917      8.672   174.6614     7.6834     3.0051     0.0250      0.062     -0.301     -0.437          4 6.0470e+02   996.5307 0.0000e+00
     -0.284    27.5929     7.8016     98.716  38.359737     36.681      8.726   179.5450     7.6605     3.0051     0.0249      0.083     -0.278     -0.404          5 6.1880e+02   996.4541 0.0000e+00
     -0.265    27.6733     7.8456     99.286  38.359998     36.545      8.757   183.8607     7.7024     3.1205     0.0249      0.100     -0.261     -0.379          6 6.3616e+02   996.4035 0.0000e+00
     -0.250    27.7355     7.8684     99.697  38.344033     36.462      8.775   186.4729     7.7062     2.9330     0.0249      0.108     -0.246     -0.358          7 6.4215e+02   996.3679 0.0000e+00
     -0.240    27.7787     7.8983    100.202  38.379538     36.404      8.785   187.6086     7.6834     3.0628     0.0249      0.108     -0.234     -0.339          8 6.4546e+02   996.3453 0.0000e+00
     -0.227    27.8132     8.0524    102.320  38.226856     36.282      8.784   187.4572    11.2311     1.6641     0.0249      0.098     -0.214     -0.311          9 6.3918e+02   996.3278 0.0000e+00
     -0.191    27.8315     8.1712    103.974  38.178367     36.096      8.771   184.0879    11.2120     1.7794     0.0248      0.083     -0.169     -0.245         10 6.2679e+02   996.3157 0.0000e+00
     -0.092    27.8461     8.2620    105.244  38.321311     36.358      8.767   160.1621    11.2463     1.7362     0.0249      0.095     -0.094     -0.136         11 5.1177e+02   996.3066 0.0000e+00
     -0.006    27.7533     8.3318    106.226  37.960043     35.850      8.764   148.8049    11.2540     1.7939     0.0247      0.126     -0.020     -0.029         12 3.3394e+02   996.3017 0.0000e+00
      0.032    27.6022     8.3454    106.465  37.827761     35.833      8.759   165.1592    13.3559     1.7939     0.0247      0.157      0.031      0.045         13 2.9421e+02   996.2977 0.0000e+00
      0.072    27.5084     8.3004    105.933  37.774661     35.768      8.749   185.5643    13.3635     1.7362     0.0247      0.183      0.073      0.107         14 2.7245e+02   996.3240 0.0000e+00
      0.124    27.4535     8.2479    105.289  37.611261     35.765      8.734   152.8935    13.3864     1.7073     0.0246      0.205      0.118      0.171         15 2.2318e+02   996.3667 0.0000e+00
      0.165    27.4624     8.1336    103.853  37.586634     35.775      8.724   150.6221    13.3597     1.7362     0.0246      0.217      0.153      0.222         16 2.1275e+02   996.3931 0.0000e+00
      0.178    27.5273     7.9913    102.051  37.509001     35.759      8.718   150.6978    15.5150     2.0534     0.0246      0.209      0.170      0.246         17 2.0942e+02   996.4085 0.0000e+00
      0.176    27.6013     7.8743    100.570  37.707901     35.914      8.706   150.4328    15.4807     1.8948     0.0247      0.178      0.175      0.254         18 2.1728e+02   996.4061 0.0000e+00
      0.184    27.6881     7.7990     99.630  38.080008     36.266      8.697   150.5085    15.5074     1.9236     0.0248      0.133      0.181      0.263         19 2.2493e+02   996.3881 0.0000e+00
      0.195    27.7679     7.7216     98.666  38.290618     36.376      8.687   150.1299    15.5112     1.9813     0.0249      0.099      0.189      0.275         20 2.2978e+02   996.3674 0.0000e+00
      0.201    27.8285     7.6487     97.756  38.394132     36.447      8.679   150.2056    15.8889     1.6785     0.0249      0.077      0.194      0.282         21 2.3674e+02   996.3431 0.0000e+00
      0.199    27.8786     7.5869     96.980  38.366059     36.340      8.672   150.3949    15.8889     1.6929     0.0249      0.053      0.194      0.281         22 2.4518e+02   996.3207 0.0000e+00
      0.192    27.9133     7.5222     96.163  38.266239     36.218      8.668   150.5842    15.8546     1.7073     0.0249      0.029      0.189      0.274         23 2.4706e+02   996.3034 0.0000e+00
      0.188    27.9353     7.4509     95.246  38.370137     36.263      8.664   150.9628    15.8736     1.7939     0.0249      0.013      0.185      0.269         24 2.4055e+02   996.2892 0.0000e+00
      0.187    27.9500     7.3989     94.570  38.473829     36.372      8.658   151.6442    15.7325     1.7506     0.0249      0.006      0.184      0.267         25 2.3696e+02   996.2794 0.0000e+00
      0.188    27.9625     7.3424     93.836  38.433549     36.277      8.651   152.1742    15.7363     1.8660     0.0249      0.002      0.185      0.269         26 2.3714e+02   996.2732 0.0000e+00
      0.192    27.9707     7.3043     93.341  38.449891     36.320      8.648   152.1363    15.7516     1.7362     0.0249     -0.002      0.188      0.273         27 2.3357e+02   996.2691 0.0000e+00
      0.195    27.9781     7.2838     93.072  38.364572     36.206      8.643   152.2878    15.7401     1.7650     0.0249     -0.004      0.190      0.277         28 2.2645e+02   996.2655 0.0000e+00
      0.196    27.9902     7.2607     92.776  38.272987     36.121      8.640   153.0449    15.7516     1.7794     0.0249     -0.002      0.192      0.279         29 2.1857e+02   996.2632 0.0000e+00
      0.197    28.0046     7.2483     92.622  38.208218     36.064      8.635   153.3099    15.9270     1.7362     0.0248      0.001      0.193      0.281         30 2.0826e+02   996.2610 0.0000e+00
      0.200    28.0168     7.2678     92.880  38.059893     35.897      8.631   154.1806    15.9003     1.8083     0.0248      0.005      0.196      0.284         31 1.9122e+02   996.2575 0.0000e+00
      0.202    28.0251     7.3180     93.531  38.101928     35.940      8.626   154.4078    15.9537     1.8083     0.0248      0.008      0.198      0.287         32 1.7532e+02   996.2535 0.0000e+00
      0.203    28.0302     7.4067     94.672  38.155899     35.984      8.616   155.1649    15.9232     1.7362     0.0248      0.008      0.199      0.289         33 1.6114e+02   996.2501 0.0000e+00
      0.204    28.0283     7.5168     96.087  38.229815     36.032      8.609   155.6192    15.9614     1.7506     0.0248      0.007      0.200      0.290         34 1.5178e+02   996.2478 0.0000e+00
      0.204    28.0210     7.6539     97.843  38.335941     36.160      8.602   155.9978    15.9919     1.8948     0.0249      0.006      0.200      0.290         35 1.5041e+02   996.2463 0.0000e+00
      0.204    28.0140     7.7742     99.384  38.349831     36.135      8.601   156.5278    15.9919     1.7218     0.0249      0.005      0.200      0.290         36 1.4897e+02   996.2469 0.0000e+00
      0.204    28.0087     7.8731    100.649  38.331079     36.166      8.594   156.6792    16.0110     1.8227     0.0249      0.004      0.200      0.290         37 1.4956e+02   996.2490 0.0000e+00
      0.203    28.0046     7.9527    101.667  38.300007     36.092      8.592   157.0956    15.8584     1.6929     0.0249      0.003      0.199      0.289         38 1.5089e+02   996.2509 0.0000e+00
      0.203    28.0039     8.0123    102.429  38.329228     36.174      8.589   157.1714    15.8775     1.7362     0.0249      0.001      0.199      0.289         39 1.5064e+02   996.2524 0.0000e+00
      0.203    28.0067     8.0618    103.064  38.294716     36.098      8.584   158.0042    15.8965     1.7650     0.0249      0.000      0.199      0.289         40 1.5192e+02   996.2536 0.0000e+00
      0.203    28.0119     8.0907    103.433  38.254048     36.099      8.582   158.3071    15.9080     1.8371     0.0249     -0.000      0.199      0.289         41 1.5244e+02   996.2538 0.0000e+00
      0.203    28.0176     8.0991    103.542  38.231655     36.044      8.575   158.3449    16.3467     1.7218     0.0248     -0.001      0.199      0.289         42 1.5281e+02   996.2529 0.0000e+00
      0.203    28.0223     8.0995    103.546  38.263308     36.093      8.574   158.9507    16.3352     1.7506     0.0249     -0.000      0.200      0.290         43 1.5429e+02   996.2515 0.0000e+00
      0.205    28.0264     8.0904    103.425  38.273926     36.089      8.571   159.4807    16.3085     1.6064     0.0249      0.000      0.201      0.291         44 1.5527e+02   996.2498 0.0000e+00
      0.205    28.0287     8.0872    103.377  38.218439     36.034      8.575   159.7078    16.3276     1.7939     0.0248      0.001      0.201      0.292         45 1.5459e+02   996.2485 0.0000e+00
      0.205    28.0301     8.0777    103.251  38.273086     36.083      8.576   160.2757    16.3963     1.7794     0.0249      0.001      0.202      0.293         46 1.5362e+02   996.2474 0.0000e+00
      0.207    28.0308     8.0767    103.236  38.265191     36.082      8.576   160.6921    16.3810     1.7939     0.0249      0.002      0.203      0.294         47 1.5250e+02   996.2467 0.0000e+00
      0.207    28.0310     8.0776    103.249  38.228262     36.028      8.574   160.7678    16.3886     1.7939     0.0248      0.002      0.203      0.295         48 1.5175e+02   996.2463 0.0000e+00
      0.207    28.0317     8.0806    103.290  38.259768     36.080      8.574   160.9949    16.3810     1.7650     0.0249      0.003      0.203      0.295         49 1.5216e+02   996.2461 0.0000e+00
      0.207    28.0321     8.0852    103.347  38.225982     36.028      8.571   161.1464    16.3200     1.7939     0.0248      0.002      0.203      0.295         50 1.5241e+02   996.2461 0.0000e+00
      0.207    28.0324     8.0808    103.288  38.211035     36.027      8.570   161.6385    16.3429     1.6929     0.0248      0.002      0.203      0.294         51 1.5461e+02   996.2458 0.0000e+00
      0.206    28.0331     8.0657    103.098  38.219094     36.027      8.568   161.6764    16.3123     1.7362     0.0248      0.001      0.202      0.294         52 1.5654e+02   996.2457 0.0000e+00
      0.206    28.0325     8.0593    103.020  38.215952     36.027      8.570   162.0928    16.3238     1.7073     0.0248      0.000      0.202      0.294         53 1.5639e+02   996.2457 0.0000e+00
      0.207    28.0300     8.0490    102.890  38.274221     36.079      8.566   162.6985    16.3085     1.7073     0.0249      0.000      0.203      0.294         54 1.5615e+02   996.2455 0.0000e+00
      0.207    28.0263     8.0278    102.618  38.265127     36.079      8.567   162.9257    16.3467     1.7794     0.0249     -0.000      0.203      0.294         55 1.5551e+02   996.2456 0.0000e+00
      0.207    28.0234     7.9982    102.235  38.227269     36.028      8.569   163.2664    16.3085     1.7073     0.0248     -0.000      0.203      0.294         56 1.5610e+02   996.2463 0.0000e+00
      0.206    28.0224     7.9664    101.821  38.202788     36.031      8.569   163.6071    16.3200     1.7939     0.0248     -0.000      0.202      0.293         57 1.5774e+02   996.2474 0.0000e+00
      0.206    28.0231     7.9371    101.444  38.177047     35.980      8.569   163.9100    16.3161     1.7218     0.0248     -0.000      0.201      0.292         58 1.5765e+02   996.2482 0.0000e+00
      0.204    28.0244     7.9095    101.099  38.200031     36.033      8.567   164.0614    16.1636     1.8371     0.0248     -0.001      0.201      0.292         59 1.5692e+02   996.2485 0.0000e+00
      0.207    28.0236     7.8859    100.803  38.174187     35.980      8.568   164.5157    16.1445     1.7073     0.0248     -0.000      0.202      0.293         60 1.5662e+02   996.2482 0.0000e+00
      0.208    28.0224     7.8593    100.462  38.149936     35.979      8.568   164.8564    16.1521     1.7650     0.0248     -0.000      0.203      0.294         61 1.5662e+02   996.2479 0.0000e+00
      0.206    28.0235     7.8248    100.012  38.170937     35.980      8.565   165.2728    16.1216     1.7650     0.0248     -0.000      0.202      0.293         62 1.5741e+02   996.2481 0.0000e+00
      0.205    28.0256     7.7866     99.487  38.177689     36.007      8.565   165.8407    16.3200     1.7650     0.0248     -0.000      0.201      0.291         63 1.5755e+02   996.2485 0.0000e+00
      0.205    28.0266     7.7301     98.718  38.171169     35.980      8.562   165.8785    16.3352     1.7362     0.0248     -0.001      0.201      0.291         64 1.5703e+02   996.2481 0.0000e+00
      0.205    28.0261     7.6624     97.809  38.208686     36.031      8.564   165.8785    16.3390     1.7939     0.0248     -0.000      0.201      0.292         65 1.5644e+02   996.2475 0.0000e+00
      0.206    28.0234     7.5830     96.763  38.219910     36.031      8.565   166.4085    16.3390     1.6785     0.0248     -0.000      0.202      0.293         66 1.5682e+02   996.2473 0.0000e+00
      0.207    28.0196     7.4973     95.649  38.216474     36.031      8.564   166.5600    16.0758     1.7939     0.0248      0.000      0.202      0.294         67 1.5681e+02   996.2474 0.0000e+00
      0.207    28.0187     7.4235     94.702  38.212963     36.033      8.565   166.7114    16.0873     1.7506     0.0248     -0.000      0.202      0.293         68 1.5755e+02   996.2483 0.0000e+00
      0.205    28.0223     7.3609     93.907  38.165009     35.983      8.564   167.0142    16.0796     1.6208     0.0248     -0.000      0.201      0.292         69 1.5924e+02   996.2493 0.0000e+00
      0.203    28.0249     7.3117     93.284  38.098333     35.931      8.567   167.5442    16.1102     1.7218     0.0248     -0.000      0.200      0.291         70 1.6034e+02   996.2495 0.0000e+00
      0.204    28.0248     7.2764     92.833  38.058845     35.876      8.565   167.6957    16.2093     1.7362     0.0248     -0.000      0.201      0.291         71 1.5956e+02   996.2485 0.0000e+00
      0.206    28.0190     7.2481     92.471  38.095604     35.926      8.565   167.8850    16.2055     1.7939     0.0248     -0.000      0.203      0.294         72 1.5633e+02   996.2477 0.0000e+00
      0.210    27.9990     7.2253     92.164  38.052588     35.874      8.565   168.1878    16.2170     1.7362     0.0248      0.001      0.206      0.298         73 1.5528e+02   996.2477 0.0000e+00
      0.212    27.9718     7.1910     91.703  38.023467     35.851      8.566   168.7935    16.2093     1.7073     0.0248      0.002      0.208      0.302         74 1.5469e+02   996.2495 0.0000e+00
      0.214    27.9470     7.1445     91.101  37.983664     35.839      8.564   169.1343    16.1903     1.7362     0.0248      0.004      0.210      0.304         75 1.5370e+02   996.2550 0.0000e+00
      0.214    27.9275     7.0769     90.233  37.894679     35.752      8.563   169.2100    16.0567     1.7073     0.0247      0.005      0.210      0.305         76 1.5448e+02   996.2628 0.0000e+00
      0.214    27.9157     6.9987     89.218  37.867495     35.768      8.563   169.2478    16.0796     1.7218     0.0247      0.006      0.210      0.305         77 1.5553e+02   996.2699 0.0000e+00
      0.215    27.9122     6.9210     88.202  37.898961     35.782      8.564   169.5128    16.0567     1.6929     0.0247      0.006      0.211      0.306         78 1.5613e+02   996.2754 0.0000e+00
      0.217    27.9145     6.8738     87.571  37.944437     35.869      8.564   170.2700    16.0758     1.6208     0.0247      0.005      0.212      0.308         79 1.5600e+02   996.2787 0.0000e+00
      0.219    27.9170     6.8335     87.051  37.899815     35.792      8.563   170.1943    16.1979     1.7939     0.0247      0.005      0.215      0.311         80 1.5726e+02   996.2797 0.0000e+00
      0.221    27.9172     6.8361     87.111  37.865586     35.790      8.562   170.4971    16.1941     1.8660     0.0247      0.005      0.217      0.316         81 1.5544e+02   996.2791 0.0000e+00
      0.224    27.9160     6.8881     87.799  37.809217     35.709      8.563   170.7243    16.2017     1.7073     0.0247      0.005      0.222      0.322         82 1.5139e+02   996.2784 0.0000e+00
      0.233    27.9065     6.9594     88.706  37.732876     35.657      8.562   170.9514    16.1941     1.7218     0.0247      0.008      0.229      0.331         83 1.5604e+02   996.2783 0.0000e+00
      0.240    27.8920     7.0211     89.541  37.634594     35.552      8.560   171.1407    16.1597     1.7506     0.0246      0.012      0.235      0.340         84 1.6043e+02   996.2787 0.0000e+00
      0.242    27.8860     7.0754     90.287  37.457353     35.400      8.560   171.7085    16.1674     1.7939     0.0246      0.015      0.237      0.344         85 1.6117e+02   996.2814 0.0000e+00
      0.242    27.8819     7.1273     90.972  37.331104     35.278      8.557   171.9357    16.1483     1.7939     0.0245      0.016      0.237      0.344         86 1.6349e+02   996.2854 0.0000e+00
      0.243    27.8716     7.1681     91.501  37.317545     35.282      8.554   172.0871    16.1445     1.6785     0.0245      0.015      0.239      0.346         87 1.6725e+02   996.2871 0.0000e+00
      0.246    27.8549     7.1980     91.865  37.266780     35.231      8.552   172.2385    15.9881     1.6497     0.0245      0.014      0.242      0.351         88 1.7224e+02   996.2882 0.0000e+00
      0.250    27.8367     7.2597     92.625  37.275740     35.238      8.550   172.6550    15.9804     1.8371     0.0245      0.013      0.245      0.356         89 1.8224e+02   996.2912 0.0000e+00
      0.253    27.8318     7.3225     93.429  37.395307     35.381      8.544   172.6550    15.9881     1.7362     0.0245      0.012      0.249      0.361         90 1.9220e+02   996.2960 0.0000e+00
      0.257    27.8495     7.3662     93.980  37.592158     35.553      8.543   172.5035    15.9766     1.7650     0.0246      0.010      0.257      0.372         91 1.9528e+02   996.3011 0.0000e+00
      0.275    27.8632     7.3807     94.169  37.919846     35.899      8.540   173.5636    16.0262     1.7794     0.0247      0.014      0.275      0.398         92 1.9296e+02   996.3028 0.0000e+00
      0.309    27.8659     7.3674     94.035  38.113681     36.046      8.535   174.1693    16.0491     1.7218     0.0248      0.026      0.301      0.437         93 1.8687e+02   996.2979 0.0000e+00
      0.338    27.8939     7.3272     93.561  38.032562     35.982      8.525   175.1157    16.0377     1.7362     0.0248      0.042      0.325      0.471         94 1.8818e+02   996.2941 0.0000e+00
      0.346    27.9279     7.2748     92.893  37.635519     35.587      8.517   174.9643    16.0148     1.7650     0.0246      0.054      0.337      0.489         95 1.9114e+02   996.2934 0.0000e+00
      0.349    27.9420     7.2198     92.088  37.481614     35.408      8.515   175.6078    16.0300     1.7362     0.0246      0.060      0.344      0.499         96 1.8667e+02   996.2854 0.0000e+00
      0.361    27.9468     7.1696     91.357  37.423910     35.385      8.514   175.7593    16.5031     1.7506     0.0246      0.063      0.354      0.513         97 1.8549e+02   996.2757 0.0000e+00
      0.370    27.9357     7.1429     90.991  37.440594     35.297      8.518   176.2136    16.5183     1.7650     0.0245      0.063      0.370      0.537         98 1.8096e+02   996.2718 0.0000e+00
      0.404    27.9210     7.1552     91.132  37.875747     35.821      8.518   177.5007    16.5450     1.7073     0.0247      0.064      0.403      0.584         99 1.6451e+02   996.2707 0.0000e+00
      0.458    27.9205     7.1771     91.408  38.097445     35.934      8.518   178.1821    16.5221     1.7506     0.0248      0.072      0.449      0.652        100 1.5202e+02   996.2741 0.0000e+00
      0.511    27.9173     7.2094     91.837  38.142693     36.077      8.519   178.6743    16.2933     1.9813     0.0248      0.085      0.498      0.722        101 1.4352e+02   996.2786 0.0000e+00
      0.555    27.9207     7.2428     92.262  38.086172     35.944      8.521   178.4471    16.2551     1.8804     0.0248      0.106      0.538      0.780        102 1.3750e+02   996.2789 0.0000e+00
      0.580    27.9409     7.2719     92.624  37.901059     35.841      8.527   178.4471    16.2666     2.0102     0.0247      0.127      0.565      0.820        103 1.3443e+02   996.2799 0.0000e+00
      0.595    27.9658     7.2898     92.838  37.543249     35.444      8.534   178.5229    16.2589     2.0102     0.0246      0.139      0.581      0.843        104 1.3246e+02   996.2788 0.0000e+00
      0.602    27.9637     7.2727     92.615  37.257110     35.192      8.540   178.8257    15.9309     1.6929     0.0245      0.137      0.591      0.856        105 1.3156e+02   996.2731 0.0000e+00
      0.609    27.9045     7.2355     92.132  37.219893     35.123      8.545   179.0907    15.9003     1.8227     0.0245      0.124      0.598      0.867        106 1.2928e+02   996.2660 0.0000e+00
      0.616    27.8473     7.1699     91.286  37.204295     35.123      8.552   179.3936    15.9194     1.6497     0.0245      0.100      0.607      0.879        107 1.2693e+02   996.2667 0.0000e+00
      0.629    27.8303     7.0951     90.323  37.276527     35.217      8.559   179.6964    15.8927     1.8083     0.0245      0.074      0.620      0.899        108 1.2206e+02   996.2836 0.0000e+00
      0.652    27.8209     7.0164     89.299  37.367108     35.361      8.562   179.5829    16.1521     1.7939     0.0245      0.057      0.639      0.927        109 1.1818e+02   996.2999 0.0000e+00
      0.672    27.8197     6.9326     88.224  37.269406     35.266      8.566   179.5829    16.1559     1.7650     0.0245      0.050      0.658      0.955        110 1.1555e+02   996.3047 0.0000e+00
      0.689    27.8287     6.8537     87.227  37.338858     35.325      8.568   180.4536    16.1102     1.7939     0.0245      0.051      0.677      0.983        111 1.1093e+02   996.3075 0.0000e+00
      0.714    27.8302     6.8123     86.667  37.488132     35.512      8.570   180.5671    16.1292     1.7650     0.0246      0.058      0.700      1.016        112 1.0693e+02   996.3080 0.0000e+00
      0.739    27.8241     6.8031     86.497  37.557808     35.504      8.570   181.2864    16.6213     2.0102     0.0246      0.069      0.725      1.052        113 1.0310e+02   996.3056 0.0000e+00
      0.766    27.8165     6.7909     86.312  37.578136     35.610      8.567   181.5136    16.6595     2.0534     0.0246      0.079      0.747      1.085        114 1.0028e+02   996.3052 0.0000e+00
      0.781    27.8127     6.7748     86.105  37.373926     35.323      8.565   181.7786    16.6099     1.9813     0.0245      0.084      0.766      1.111        115 9.8320e+01   996.3070 0.0000e+00
      0.797    27.8071     6.7486     85.775  37.426682     35.461      8.569   181.8921    16.6442     2.0534     0.0246      0.085      0.782      1.135        116 9.4858e+01   996.3092 0.0000e+00
      0.816    27.8007     6.7193     85.394  37.393942     35.383      8.570   182.3464    16.6518     2.0102     0.0245      0.083      0.799      1.158        117 9.2840e+01   996.3103 0.0000e+00
      0.828    27.7939     6.6932     85.044  37.385038     35.387      8.574   182.2329    16.6442     2.0823     0.0245      0.079      0.814      1.180        118 9.0387e+01   996.3121 0.0000e+00
      0.847    27.7799     6.6803     84.864  37.497038     35.524      8.580   182.7629    16.6480     2.0102     0.0246      0.076      0.831      1.204        119 8.7226e+01   996.3140 0.0000e+00
      0.866    27.7755     6.6787     84.837  37.402742     35.396      8.583   182.9143    16.6175     2.0390     0.0245      0.071      0.849      1.231        120 8.5370e+01   996.3159 0.0000e+00
      0.883    27.7781     6.6628     84.623  37.502392     35.538      8.583   183.0279    16.6290     1.9092     0.0246      0.068      0.871      1.264        121 8.2239e+01   996.3200 0.0000e+00
      0.919    27.7579     6.6668     84.656  37.758297     35.753      8.591   183.5200    16.5794     1.9525     0.0247      0.071      0.901      1.308        122 7.8550e+01   996.3214 0.0000e+00
      0.955    27.7235     6.7033     85.101  37.884445     35.909      8.590   183.9364    16.5603     2.0967     0.0247      0.081      0.933      1.353        123 7.5914e+01   996.3209 0.0000e+00
      0.979    27.7038     6.7541     85.728  37.819582     35.817      8.590   184.1257    16.6099     1.9957     0.0247      0.089      0.958      1.390        124 7.4173e+01   996.3267 0.0000e+00
      0.998    27.7017     6.8167     86.499  37.779756     35.841      8.592   184.4286    16.5756     1.9525     0.0247      0.095      0.977      1.417        125 7.2985e+01   996.3365 0.0000e+00
      1.011    27.7039     6.8600     87.027  37.637662     35.695      8.593   185.2614    16.2208     1.9092     0.0246      0.097      0.992      1.439        126 7.1866e+01   996.3421 0.0000e+00
      1.024    27.6982     6.8864     87.345  37.581521     35.644      8.596   184.9207    16.2170     2.0823     0.0246      0.094      1.007      1.460        127 7.0527e+01   996.3427 0.0000e+00
      1.045    27.6856     6.8992     87.480  37.731081     35.801      8.598   185.3372    16.2055     1.9236     0.0247      0.089      1.025      1.487        128 6.8725e+01   996.3422 0.0000e+00
      1.068    27.6757     6.9039     87.515  37.807171     35.858      8.599   185.5643    16.2284     1.9813     0.0247      0.084      1.045      1.515        129 6.7324e+01   996.3439 0.0000e+00
      1.083    27.6709     6.8926     87.337  37.664648     35.760      8.600   185.8293    15.9919     2.0246     0.0246      0.075      1.060      1.538        130 6.6690e+01   996.3475 0.0000e+00
      1.092    27.6634     6.8580     86.879  37.552821     35.608      8.599   186.1700    15.9690     1.9957     0.0246      0.068      1.073      1.556        131 6.5816e+01   996.3502 0.0000e+00
      1.108    27.6514     6.8137     86.304  37.649982     35.770      8.606   186.2836    15.9919     1.9669     0.0246      0.064      1.089      1.580        132 6.4452e+01   996.3517 0.0000e+00
      1.131    27.6388     6.7553     85.551  37.721552     35.775      8.605   186.5486    15.9995     1.9957     0.0246      0.065      1.110      1.611        133 6.2734e+01   996.3540 0.0000e+00
      1.158    27.6270     6.7013     84.846  37.878664     35.996      8.603   187.1543    16.1483     2.2697     0.0247      0.069      1.135      1.647        134 6.0862e+01   996.3575 0.0000e+00
      1.184    27.6117     6.6631     84.337  37.899008     35.978      8.599   187.4572    16.1636     2.2265     0.0247      0.074      1.158      1.680        135 5.9705e+01   996.3611 0.0000e+00
      1.201    27.5984     6.6466     84.106  37.785149     35.906      8.594   187.7600    16.1254     2.1832     0.0247      0.076      1.177      1.708        136 5.8935e+01   996.3645 0.0000e+00
      1.218    27.5866     6.6581     84.222  37.812913     35.917      8.590   187.9872    16.1559     2.2697     0.0247      0.078      1.196      1.736        137 5.7668e+01   996.3689 0.0000e+00
      1.242    27.5704     6.6798     84.467  37.864463     36.006      8.588   188.2900    16.1407     2.1832     0.0247      0.082      1.218      1.766        138 5.6375e+01   996.3727 0.0000e+00
      1.264    27.5528     6.7081     84.809  37.898819     36.013      8.583   188.7065    17.5865     2.5004     0.0247      0.085      1.241      1.799        139 5.4988e+01   996.3761 0.0000e+00
      1.290    27.5326     6.7281     85.043  37.888710     36.052      8.578   189.2743    17.5941     2.4428     0.0247      0.087      1.263      1.832        140 5.3774e+01   996.3808 0.0000e+00
      1.311    27.5185     6.7497     85.289  37.758508     35.903      8.578   189.6150    17.5826     2.4572     0.0247      0.086      1.283      1.861        141 5.2999e+01   996.3859 0.0000e+00
      1.324    27.5103     6.7662     85.472  37.734865     35.918      8.577   190.7886    17.6208     2.5870     0.0247      0.083      1.299      1.884        142 5.2141e+01   996.3915 0.0000e+00
      1.339    27.5009     6.7583     85.362  37.740327     35.927      8.573   191.5079    17.4339     2.3851     0.0247      0.080      1.314      1.906        143 5.1514e+01   996.3955 0.0000e+00
      1.356    27.4869     6.7253     84.943  37.751719     35.933      8.569   191.6215    17.4415     2.4572     0.0247      0.078      1.332      1.932        144 5.0332e+01   996.3979 0.0000e+00
      1.382    27.4703     6.6855     84.430  37.898510     36.099      8.562   191.3565    17.4148     2.4283     0.0247      0.077      1.356      1.967        145 4.8787e+01   996.4006 0.0000e+00
      1.412    27.4551     6.6542     84.011  37.942923     36.135      8.557   192.1893    17.3957     2.3707     0.0247      0.078      1.384      2.007        146 4.7630e+01   996.4047 0.0000e+00
      1.438    27.4355     6.6424     83.837  37.933543     36.147      8.550   192.9086    17.7886     2.4860     0.0247      0.081      1.409      2.043        147 4.6581e+01   996.4095 0.0000e+00
      1.460    27.4165     6.6380     83.769  37.880556     36.104      8.543   193.1357    17.8001     2.5004     0.0247      0.084      1.430      2.073        148 4.6011e+01   996.4139 0.0000e+00
      1.475    27.4052     6.6527     83.941  37.801422     36.037      8.538   193.5143    17.7658     2.4283     0.0247      0.086      1.448      2.099        149 4.5411e+01   996.4194 0.0000e+00
      1.493    27.3936     6.6712     84.161  37.883853     36.131      8.537   193.7036    17.7734     2.3274     0.0247      0.088      1.467      2.127        150 4.4416e+01   996.4247 0.0000e+00
      1.519    27.3756     6.7015     84.534  37.955799     36.218      8.529   194.4986    18.4867     2.3562     0.0248      0.089      1.490      2.160        151 4.3405e+01   996.4281 0.0000e+00
      1.545    27.3591     6.7195     84.754  37.889710     36.146      8.521   195.2936    18.5211     2.6014     0.0247      0.089      1.512      2.192        152 4.2526e+01   996.4314 0.0000e+00
      1.561    27.3525     6.7554     85.187  37.788288     36.079      8.516   196.2779    18.5058     2.4572     0.0247      0.086      1.528      2.217        153 4.2139e+01   996.4364 0.0000e+00
      1.570    27.3506     6.7938     85.628  37.637482     35.930      8.508   197.0350    18.5020     2.4716     0.0246      0.079      1.539      2.233        154 4.2047e+01   996.4410 0.0000e+00
      1.578    27.3436     6.8275     86.005  37.632851     35.935      8.502   197.8300    19.2802     2.2265     0.0246      0.073      1.552      2.251        155 4.1367e+01   996.4429 0.0000e+00
      1.598    27.3278     6.8327     86.049  37.794056     36.096      8.496   198.0950    19.2611     2.2265     0.0247      0.069      1.570      2.277        156 4.0130e+01   996.4435 0.0000e+00
      1.626    27.3116     6.8082     85.739  37.733228     36.047      8.488   198.8901    19.2802     2.2265     0.0247      0.069      1.591      2.308        157 3.9455e+01   996.4457 0.0000e+00
      1.641    27.3027     6.7583     85.099  37.649283     35.951      8.476   199.4579    19.3107     2.2697     0.0246      0.068      1.610      2.335        158 3.8779e+01   996.4501 0.0000e+00
      1.660    27.2937     6.7089     84.450  37.779988     36.123      8.469   200.7451    19.2993     2.1399     0.0247      0.066      1.630      2.363        159 3.7676e+01   996.4547 0.0000e+00
      1.685    27.2847     6.6640     83.862  37.748393     36.075      8.460   200.8586    19.4557     2.4283     0.0247      0.069      1.650      2.393        160 3.7107e+01   996.4572 0.0000e+00
      1.700    27.2793     6.6275     83.390  37.688608     36.028      8.450   201.3129    19.4710     2.3562     0.0247      0.072      1.669      2.420        161 3.6441e+01   996.4597 0.0000e+00
      1.722    27.2743     6.6150     83.224  37.735850     36.088      8.443   204.0386    19.5167     2.4572     0.0247      0.077      1.691      2.453        162 3.5309e+01   996.4624 0.0000e+00
      1.752    27.2612     6.6282     83.383  37.748878     36.092      8.432   206.1208    19.4900     2.4860     0.0247      0.082      1.718      2.493        163 3.4250e+01   996.4640 0.0000e+00
      1.783    27.2330     6.6536     83.694  37.790941     36.149      8.422   206.8779    20.1652     2.3851     0.0247      0.086      1.746      2.534        164 3.3267e+01   996.4655 0.0000e+00
      1.809    27.2020     6.7003     84.247  37.742779     36.104      8.412   207.1429    20.1652     2.4860     0.0247      0.090      1.771      2.569        165 3.2513e+01   996.4693 0.0000e+00
      1.827    27.1878     6.7833     85.216  37.690279     36.070      8.405   207.7486    20.1881     2.4572     0.0247      0.094      1.791      2.598        166 3.2062e+01   996.4772 0.0000e+00
      1.842    27.1867     6.8651     86.166  37.619201     36.039      8.400   207.9758    20.2034     2.4139     0.0246      0.094      1.806      2.620        167 3.1674e+01   996.4859 0.0000e+00
      1.854    27.1790     6.9313     86.920  37.534889     35.941      8.397   208.9601    22.5876     2.6302     0.0246      0.090      1.820      2.641        168 3.1134e+01   996.4898 0.0000e+00
      1.874    27.1617     6.9712     87.348  37.617397     36.049      8.395   209.1115    22.5609     2.5149     0.0246      0.086      1.840      2.668        169 3.0281e+01   996.4902 0.0000e+00
      1.901    27.1468     6.9856     87.438  37.635068     36.054      8.392   209.3765    22.5800     2.5149     0.0246      0.082      1.862      2.700        170 2.9574e+01   996.4924 0.0000e+00
      1.919    27.1380     7.1103     88.103  37.631446     36.066      8.390   210.6258    22.6105     2.6302     0.0246      0.077      1.884      2.732        171 2.8976e+01   996.4973 0.0000e+00
      1.944    27.1315     7.4529     90.599  37.681184     36.130      8.386   211.1937    22.4617     2.8321     0.0247      0.075      1.906      2.764        172 2.8138e+01   996.5016 0.0000e+00
      1.967    27.1268     8.0067     96.037  37.573178     36.029      8.383   211.2694    22.4617     2.8898     0.0246      0.077      1.926      2.793        173 2.7693e+01   996.5040 0.0000e+00
      1.979    27.1210     8.7895    104.553  37.528777     35.980      8.382   210.8151    22.4045     2.8465     0.0246      0.079      1.943      2.817        174 2.7348e+01   996.5058 0.0000e+00
      1.997    27.0984     9.7485    115.348  37.617901     36.090      8.380   210.9665    22.4350     2.8465     0.0246      0.080      1.963      2.847        175 2.6453e+01   996.5073 0.0000e+00
      2.030    27.0491    10.7906    127.187  37.640082     36.094      8.376   211.1558    23.0416     3.1061     0.0246      0.084      1.991      2.887        176 2.5470e+01   996.5091 0.0000e+00
      2.063    27.0009    11.8241    138.832  37.560449     36.056      8.372   211.8751    23.0339     3.1061     0.0246      0.087      2.021      2.930        177 2.4718e+01   996.5154 0.0000e+00
      2.087    26.9483    12.6447    147.997  37.539200     36.037      8.368   212.3672    23.0530     3.1061     0.0246      0.090      2.047      2.969        178 2.3963e+01   996.5291 0.0000e+00
      2.114    26.9082    13.2511    154.740  37.488733     36.071      8.363   213.2001    23.0416     2.9186     0.0246      0.095      2.072      3.005        179 2.3185e+01   996.5424 0.0000e+00
      2.138    26.8397    13.6379    159.043  37.564007     36.105      8.360   213.4272    23.7702     3.5819     0.0246      0.098      2.096      3.040        180 2.2701e+01   996.5571 0.0000e+00
      2.159    26.2678    13.8707    161.366  37.445548     36.137      8.356   213.5787    25.5631     3.5098     0.0246      0.100      2.120      3.075        181 2.1920e+01   996.5681 0.0000e+00
      2.191    25.2554    13.9882    162.092  36.184075     34.858      8.355   214.0330    25.5288     3.5098     0.0241      0.104      2.147      3.115        182 2.1010e+01   996.5869 0.0000e+00
      2.219    24.5077    13.9792    161.732  35.162974     34.259      8.352   214.2980    25.5669     3.5387     0.0237      0.105      2.174      3.154        183 2.0407e+01   996.7413 0.0000e+00
      2.242    24.0704    13.8998    160.659  35.071607     34.919      8.355   214.6765    25.5669     3.5242     0.0237      0.102      2.197      3.187        184 1.9855e+01   997.0083 0.0000e+00
      2.261    23.7803    13.8491    159.674  35.023973     35.347      8.353   214.7522    23.8045     2.8898     0.0237      0.099      2.217      3.216        185 1.9536e+01   997.1995 0.0000e+00
      2.279    23.5758    13.8076    158.720  34.985551     35.669      8.353   216.1908    23.7969     2.8465     0.0237      0.096      2.238      3.246        186 1.8857e+01   997.3085 0.0000e+00
      2.308    23.3720    13.7403    157.454  34.852959     35.704      8.347   216.8722    23.8274     2.8465     0.0236      0.095      2.263      3.283        187 1.8116e+01   997.3802 0.0000e+00
      2.335    23.2034    13.6516    155.959  34.774276     35.797      8.348   217.1372    23.8045     2.7311     0.0236      0.095      2.288      3.319        188 1.7749e+01   997.4301 0.0000e+00
      2.354    23.0836    13.5292    154.281  34.787258     35.949      8.347   217.0615    19.9058     2.3851     0.0236      0.094      2.309      3.350        189 1.7221e+01   997.4795 0.0000e+00
      2.376    23.0115    13.3959    152.807  34.777634     36.075      8.347   217.4780    19.9096     2.3130     0.0236      0.090      2.331      3.381        190 1.6595e+01   997.5200 0.0000e+00
      2.403    22.8789    13.3263    151.733  34.786333     36.165      8.344   218.8408    19.9440     2.5437     0.0236      0.090      2.355      3.415        191 1.6062e+01   997.5487 0.0000e+00
      2.424    22.6823    13.2708    150.500  34.835754     36.277      8.344   219.2573    19.9249     2.4716     0.0236      0.091      2.375      3.445        192 1.5713e+01   997.5660 0.0000e+00
      2.440    22.5929    13.2046    149.021  34.834706     36.373      8.342   219.9765    14.9428     1.8804     0.0236      0.090      2.392      3.469        193 1.5445e+01   997.5973 0.0000e+00
      2.454    22.5409    13.1218    147.501  34.846965     36.531      8.342   220.3930    14.9276     2.0390     0.0236      0.087      2.407      3.491        194 1.5153e+01   997.6436 0.0000e+00
      2.469    22.4132    13.0204    145.881  34.820573     36.595      8.341   220.4308    14.9161     2.0102     0.0237      0.080      2.421      3.511        195 1.4889e+01   997.6646 0.0000e+00
      2.482    22.2549    12.8973    144.247  34.749073     36.516      8.339   220.8094    14.9161     1.9669     0.0236      0.073      2.435      3.532        196 1.4603e+01   997.6766 0.0000e+00
      2.499    22.0952    12.7819    142.734  34.698925     36.617      8.342   221.3773    15.9232     2.2265     0.0236      0.069      2.452      3.556        197 1.4211e+01   997.7063 0.0000e+00
      2.521    21.9329    12.6829    141.148  34.557085     36.532      8.339   221.6044    15.9118     2.1688     0.0235      0.066      2.471      3.583        198 1.3821e+01   997.7429 0.0000e+00
      2.538    21.8477    12.5848    139.642  34.451551     36.598      8.339   221.6044    15.9347     2.1544     0.0235      0.064      2.487      3.607        199 1.3713e+01   997.7794 0.0000e+00
      2.547    21.8496    12.4964    138.468  34.504384     36.722      8.337   221.6801    15.9461     2.3130     0.0235      0.062      2.501      3.627        200 1.3519e+01   997.8163 0.0000e+00
      2.565    21.7628    12.4132    137.559  34.521037     36.885      8.334   222.5887    15.2289     2.1688     0.0236      0.063      2.521      3.657        201 1.3007e+01   997.8357 0.0000e+00
      2.602    21.5520    12.3726    136.812  34.282710     36.545      8.332   223.0808    15.2061     2.1399     0.0234      0.068      2.550      3.699        202 1.2508e+01   997.8353 0.0000e+00
      2.633    21.3081    12.3453    135.848  34.030573     36.411      8.326   223.7244    15.2213     2.1976     0.0233      0.077      2.578      3.739        203 1.2265e+01   997.8549 0.0000e+00
      2.652    21.0991    12.3030    134.666  33.916285     36.392      8.322   224.8980    15.1870     2.2697     0.0233      0.083      2.598      3.769        204 1.2214e+01   997.9021 0.0000e+00
      2.666    20.9355    12.2434    133.354  33.802773     36.529      8.322   225.6551    15.2099     2.1688     0.0232      0.085      2.615      3.793        205 1.2039e+01   997.9561 0.0000e+00
      2.683    20.8446    12.1445    131.674  33.697848     36.509      8.322   225.6551    11.4142     1.7650     0.0232      0.086      2.633      3.820        206 1.1822e+01   998.0020 0.0000e+00
      2.707    20.7590    12.0192    129.835  33.661758     36.672      8.324   226.4501    11.3646     1.7073     0.0232      0.088      2.655      3.851        207 1.1609e+01   998.0376 0.0000e+00
      2.731    20.5941    11.8913    128.030  33.551453     36.561      8.319   226.3744    11.4218     1.8371     0.0231      0.089      2.676      3.881        208 1.1428e+01   998.0573 0.0000e+00
      2.748    20.4392    11.7643    126.241  33.390710     36.503      8.317   226.2987    11.4142     1.8371     0.0231      0.085      2.694      3.907        209 1.1266e+01   998.0756 0.0000e+00
      2.764    20.3747    11.6360    124.494  33.328499     36.519      8.319   226.2987     9.4191     1.7650     0.0230      0.078      2.709      3.929        210 1.1154e+01   998.1109 0.0000e+00
      2.775    20.3700    11.5343    123.032  33.332637     36.701      8.315   226.6016     9.4038     1.8083     0.0231      0.073      2.723      3.948        211 1.1109e+01   998.1438 0.0000e+00
      2.788    20.2631    11.4627    121.801  33.385623     36.758      8.313   227.0180     9.4076     1.6785     0.0231      0.070      2.738      3.970        212 1.0901e+01   998.1574 0.0000e+00
      2.812    20.0196    11.3827    120.458  33.114441     36.539      8.310   227.8887     9.4191     1.6497     0.0230      0.070      2.760      4.003        213 1.0654e+01   998.1584 0.0000e+00
      2.842    19.7542    11.3245    119.395  32.633093     35.980      8.311   228.1916     8.6332     1.9669     0.0227      0.072      2.787      4.042        214 1.0448e+01   998.1808 0.0000e+00
      2.870    19.5060    11.2680    118.429  32.414332     36.052      8.309   228.2294     8.6523     2.0823     0.0227      0.074      2.815      4.084        215 1.0226e+01   998.2315 0.0000e+00
      2.902    19.2802    11.2032    117.409  32.142352     35.861      8.306   229.2894     8.6218     1.9236     0.0225      0.082      2.844      4.125        216 1.0029e+01   998.2860 0.0000e+00
      2.928    19.0950    11.1421    116.471  31.964303     35.935      8.304   229.4787     8.6218     1.9525     0.0224      0.090      2.870      4.163        217 9.8840e+00   998.3363 0.0000e+00
      2.949    18.9312    11.0884    115.650  31.776793     35.867      8.303   230.0087     7.9809     2.0102     0.0223      0.097      2.895      4.198        218 9.6948e+00   998.3816 0.0000e+00
      2.981    18.7674    10.9928    114.388  31.546211     35.764      8.300   230.9173     8.0076     1.9813     0.0222      0.105      2.922      4.238        219 9.4871e+00   998.4183 0.0000e+00
      3.009    18.6209    10.9164    113.342  31.392129     35.738      8.299   230.9173     8.0114     1.9813     0.0222      0.109      2.951      4.280        220 9.3610e+00   998.4504 0.0000e+00
      3.037    18.4700    10.8467    112.398  31.227927     35.649      8.297   232.0909     7.9885     1.9525     0.0221      0.109      2.982      4.326        221 9.1253e+00   998.4823 0.0000e+00
      3.082    18.2840    10.7589    111.284  31.069194     35.641      8.293   233.1130     7.9618     1.8227     0.0220      0.113      3.021      4.381        222 8.8615e+00   998.5107 0.0000e+00
      3.123    18.0843    10.6612    110.077  30.760175     35.346      8.291   234.0973     7.7673     1.7506     0.0219      0.119      3.058      4.435        223 8.6807e+00   998.5396 0.0000e+00
      3.151    17.9033    10.5314    108.541  30.664501     35.435      8.289   235.4602     7.7482     1.6497     0.0218      0.124      3.088      4.479        224 8.5471e+00   998.5748 0.0000e+00
      3.174    17.7501    10.3638    106.605  30.625424     35.534      8.285   235.9523     7.7597     1.7939     0.0218      0.127      3.112      4.514        225 8.4184e+00   998.6123 0.0000e+00
      3.196    17.6112    10.2026    104.843  30.394117     35.424      8.286   235.8766     7.7406     1.7362     0.0217      0.127      3.133      4.544        226 8.3099e+00   998.6459 0.0000e+00
      3.214    17.4879     9.9628    102.299  30.211777     35.322      8.286   235.9523     7.0921     1.5631     0.0216      0.120      3.151      4.570        227 8.2605e+00   998.6739 0.0000e+00
      3.228    17.3789     9.6618     99.039  30.200632     35.437      8.288   236.3309     7.0768     1.5776     0.0216      0.111      3.167      4.593        228 8.1453e+00   998.6991 0.0000e+00
      3.247    17.2680     9.3025     95.140  30.200662     35.540      8.284   237.2773     7.1264     1.4910     0.0216      0.099      3.185      4.619        229 8.0441e+00   998.7214 0.0000e+00
      3.268    17.1613     8.9353     91.247  30.211791     35.631      8.283   237.6937     7.1035     1.4910     0.0216      0.086      3.204      4.646        230 7.9916e+00   998.7409 0.0000e+00
      3.285    17.0677     8.6237     87.870  30.216455     35.758      8.286   238.6402     6.7259     0.9575     0.0216      0.077      3.221      4.671        231 7.9156e+00   998.7607 0.0000e+00
      3.301    16.9786     8.3374     84.693  30.283783     35.882      8.282   239.0566     6.7297     1.0585     0.0216      0.073      3.237      4.696        232 7.8107e+00   998.7797 0.0000e+00
      3.318    16.8947     8.1237     82.301  30.098422     35.829      8.282   239.7380     6.7411     1.1017     0.0216      0.070      3.255      4.721        233 7.7485e+00   998.7961 0.0000e+00
      3.338    16.8057     7.9571     80.474  30.121288     35.771      8.282   240.6087     6.7259     1.0585     0.0215      0.070      3.274      4.749        234 7.6833e+00   998.8118 0.0000e+00
      3.360    16.7162     7.8346     79.110  30.729390     36.777      8.279   240.8359     6.5160     1.0008     0.0219      0.071      3.293      4.777        235 7.6067e+00   998.8266 0.0000e+00
      3.376    16.6663     7.7137     77.732  30.793378     36.753      8.276   241.4795     6.5160     1.1161     0.0219      0.072      3.311      4.802        236 7.5657e+00   998.8420 0.0000e+00
      3.393    16.6300     7.5676     76.091  30.693470     36.835      8.276   241.9337     6.5160     1.0873     0.0219      0.072      3.328      4.827        237 7.4884e+00   998.8574 0.0000e+00
      3.413    16.5467     7.3550     73.811  30.587117     36.676      8.274   242.4637     6.5160     1.0008     0.0218      0.072      3.347      4.854        238 7.4147e+00   998.8660 0.0000e+00
      3.431    16.4441     7.1253     71.359  30.392478     36.507      8.270   242.6152     6.5046     1.0296     0.0217      0.072      3.367      4.883        239 7.3526e+00   998.8721 0.0000e+00
      3.456    16.3673     6.8508     68.417  30.343186     36.512      8.268   243.0316     6.5008     1.0008     0.0217      0.075      3.390      4.917        240 7.2608e+00   998.8863 0.0000e+00
      3.483    16.2642     6.5421     65.128  30.144846     36.370      8.265   243.5238     6.5199     1.0729     0.0216      0.078      3.416      4.954        241 7.1301e+00   998.9037 0.0000e+00
      3.511    16.1196     6.2303     61.833  29.987572     36.231      8.262   243.3345     6.5199     1.1017     0.0215      0.082      3.442      4.992        242 7.0053e+00   998.9165 0.0000e+00
      3.537    15.9947     5.8708     58.106  30.035304     36.391      8.258   243.6373     6.4932     1.0296     0.0215      0.087      3.465      5.025        243 6.9512e+00   998.9338 0.0000e+00
      3.550    15.9116     5.4113     53.446  30.144740     36.655      8.255   243.5995     6.5466     1.0296     0.0216      0.090      3.480      5.048        244 6.9155e+00   998.9577 0.0000e+00
      3.560    15.8373     4.9360     48.626  30.147695     36.768      8.249   245.1895     6.5313     1.0296     0.0216      0.088      3.494      5.069        245 6.8802e+00   998.9782 0.0000e+00
      3.582    15.7423     4.4513     43.725  30.209434     36.909      8.248   245.6059     6.5809     1.0296     0.0216      0.085      3.514      5.097        246 6.7693e+00   998.9918 0.0000e+00
      3.609    15.6395     3.9565     38.775  30.186449     36.977      8.244   245.7952     6.5694     1.0873     0.0216      0.084      3.537      5.130        247 6.6460e+00   999.0038 0.0000e+00
      3.627    15.5487     3.4898     34.133  30.117080     36.926      8.244   246.9688     5.7951     1.0729     0.0216      0.080      3.557      5.159        248 6.6656e+00   999.0191 0.0000e+00
      3.645    15.4520     3.0484     29.749  30.058793     37.020      8.243   247.5745     5.7607     1.0296     0.0216      0.077      3.580      5.192        249 6.5336e+00   999.0355 0.0000e+00
      3.681    15.3212     2.6426     25.723  30.288655     37.274      8.240   247.6880     5.7531     1.0585     0.0216      0.079      3.611      5.238        250 6.3236e+00   999.0501 0.0000e+00
      3.722    15.1745     2.3612     22.930  30.927245     38.294      8.236   247.7259     5.7531     1.0729     0.0220      0.088      3.647      5.288        251 6.2408e+00   999.0658 0.0000e+00
      3.750    15.0304     2.1744     21.074  30.893591     38.281      8.233   247.9909     5.7912     1.0008     0.0220      0.099      3.678      5.333        252 6.1317e+00   999.0862 0.0000e+00
      3.778    14.9059     2.0558     19.878  30.567599     38.039      8.229   248.9373     5.7760     1.1161     0.0218      0.108      3.705      5.373        253 6.0306e+00   999.1088 0.0000e+00
      3.804    14.8064     1.9997     19.294  30.681201     38.315      8.226   248.7859     5.7836     0.9864     0.0219      0.112      3.730      5.410        254 5.9725e+00   999.1308 0.0000e+00
      3.827    14.6887     1.9691     18.966  30.870782     38.681      8.226   249.3159     5.7874     1.0008     0.0220      0.114      3.754      5.444        255 5.8577e+00   999.1498 0.0000e+00
      3.851    14.5570     1.9416     18.675  30.894635     38.810      8.220   249.7702     5.8637     1.5055     0.0220      0.114      3.775      5.476        256 5.7810e+00   999.1648 0.0000e+00
      3.869    14.4507     1.8690     17.946  30.740445     38.715      8.219   249.6566     5.8561     1.5487     0.0219      0.110      3.794      5.503        257 5.7446e+00   999.1822 0.0000e+00
      3.887    14.3589     1.7601     16.863  30.618312     38.704      8.218   249.9973     5.8256     1.4622     0.0219      0.099      3.812      5.529        258 5.6471e+00   999.2015 0.0000e+00
      3.906    14.2551     1.5936     15.235  30.394886     38.525      8.211   250.4895     5.8294     1.4622     0.0218      0.090      3.830      5.556        259 5.5867e+00   999.2169 0.0000e+00
      3.926    14.1390     1.4086     13.444  30.218620     38.366      8.213   250.7545     5.7798     1.4910     0.0217      0.085      3.850      5.584        260 5.5140e+00   999.2301 0.0000e+00
      3.945    14.0346     1.1883     11.315  30.334061     38.645      8.207   250.7545     5.7798     1.5199     0.0217      0.080      3.870      5.613        261 5.4291e+00   999.2451 0.0000e+00
      3.968    13.9399     0.9621      9.134  30.399397     38.831      8.203   251.4359     5.8065     1.4910     0.0218      0.078      3.892      5.644        262 5.3353e+00   999.2617 0.0000e+00
      3.993    13.8358     0.6979      6.605  30.581757     39.151      8.201   252.6473     5.7836     1.4622     0.0219      0.079      3.915      5.679        263 5.1961e+00   999.2765 0.0000e+00
      4.017    13.7371     0.4698      4.435  31.084854     39.925      8.199   252.9124     5.7149     1.7650     0.0222      0.081      3.937      5.711        264 5.0779e+00   999.2900 0.0000e+00
      4.034    13.6599     0.2714      2.560  31.462103     40.501      8.196   253.9724     5.7188     1.7794     0.0224      0.083      3.954      5.736        265 5.0329e+00   999.3046 0.0000e+00
      4.046    13.5952     0.1152      1.087  31.682592     40.892      8.190   254.4645     5.7302     1.7650     0.0225      0.082      3.969      5.756        266 4.9884e+00   999.3182 0.0000e+00
      4.061    13.5193    -0.0022     -0.021  31.817861     41.155      8.188   255.1081     5.7111     1.7362     0.0226      0.079      3.986      5.782        267 4.8352e+00   999.3288 0.0000e+00
      4.089    13.4173    -0.1010     -0.951  32.123400     41.584      8.186   255.3731     5.7455     1.7650     0.0227      0.078      4.011      5.817        268 4.6850e+00   999.3377 0.0000e+00
      4.119    13.3232    -0.1291     -1.212  32.754218     42.537      8.179   255.7516     5.6119     1.9236     0.0231      0.080      4.037      5.856        269 4.5651e+00   999.3483 0.0000e+00
      4.142    13.2455    -0.0958     -0.896  33.106933     43.085      8.174   256.5088     5.6234     2.0823     0.0233      0.082      4.061      5.891        270 4.4269e+00   999.3621 0.0000e+00
      4.164    13.1415     0.0203      0.190  33.314153     43.449      8.170   257.0766     5.6005     1.9525     0.0234      0.083      4.085      5.926        271 4.3138e+00   999.3747 0.0000e+00
      4.192    13.0106     0.2177      2.024  33.948296     44.372      8.165   257.0009     5.6081     1.8948     0.0238      0.088      4.114      5.966        272 4.1912e+00   999.3853 0.0000e+00
      4.229    12.8675     0.5189      4.813  34.332738     45.046      8.160   257.6445     5.0130     3.0628     0.0240      0.097      4.146      6.013        273 4.0086e+00   999.3991 0.0000e+00
      4.261    12.7584     0.9183      8.502  33.961779     44.647      8.154   258.7045     5.0321     3.0051     0.0238      0.106      4.174      6.053        274 3.9087e+00   999.4158 0.0000e+00
      4.277    12.7106     1.4350     13.264  33.580315     44.339      8.146   261.4681     5.0130     3.0340     0.0236      0.108      4.193      6.081        275 3.8604e+00   999.4338 0.0000e+00
      4.289    12.7399     1.9920     18.391  33.533355     44.394      8.140   262.3009     5.0130     2.9763     0.0236      0.103      4.211      6.108        276 3.7232e+00   999.4474 0.0000e+00
      4.319    12.7756     2.5668     23.672  33.279480     44.152      8.132   262.1117     5.3106     3.5098     0.0235      0.100      4.236      6.143        277 3.5848e+00   999.4533 0.0000e+00
      4.349    12.6749     3.1466     29.003  32.592526     43.161      8.127   262.4145     5.3029     3.5387     0.0231      0.100      4.263      6.183        278 3.4614e+00   999.4495 0.0000e+00
      4.373    12.4981     3.6787     33.881  31.988198     42.332      8.119   262.4902     5.2991     3.5675     0.0227      0.099      4.288      6.219        279 3.3557e+00   999.4450 0.0000e+00
      4.395    12.3360     4.1455     38.145  31.542661     41.862      8.110   263.9667     5.3297     3.5387     0.0225      0.096      4.310      6.251        280 3.2340e+00   999.4573 0.0000e+00
      4.417    12.1966     4.5523     41.879  31.102637     41.461      8.107   264.1181     5.7912     4.4038     0.0222      0.092      4.334      6.285        281 3.1239e+00   999.4787 0.0000e+00
      4.444    12.0797     4.8677     44.786  30.876690     41.344      8.104   265.1024     5.7912     4.4327     0.0221      0.093      4.360      6.323        282 2.9637e+00   999.4981 0.0000e+00
      4.475    11.9810     5.0827     46.772  30.727689     41.310      8.102   265.5567     5.7683     4.4327     0.0220      0.098      4.391      6.368        283 2.7299e+00   999.5146 0.0000e+00
      4.513    11.8969     5.2569     48.320  30.577066     41.215      8.098   266.0867     5.7874     4.3750     0.0219      0.105      4.425      6.417        284 2.5814e+00   999.5284 0.0000e+00
      4.547    11.8272     5.3716     49.311  30.501271     41.249      8.096   266.6545     5.7798     4.4327     0.0219      0.108      4.455      6.462        285 2.4851e+00   999.5398 0.0000e+00
      4.568    11.7735     5.4359     49.845  30.466533     41.267      8.090   266.8817     6.1994     6.6966     0.0219      0.111      4.480      6.497        286 2.4112e+00   999.5494 0.0000e+00
      4.590    11.7287     5.4766     50.172  30.442571     41.347      8.087   266.8060     6.1880     6.5956     0.0219      0.112      4.501      6.528        287 2.3154e+00   999.5574 0.0000e+00
      4.613    11.7018     5.4768     50.156  30.412612     41.329      8.087   266.7302     6.1918     6.6966     0.0219      0.112      4.523      6.559        288 2.1963e+00   999.5634 0.0000e+00
      4.632    11.6671     5.4638     50.050  30.444585     41.458      8.085   267.6388     6.1994     6.8119     0.0219      0.108      4.544      6.590        289 2.1207e+00   999.5685 0.0000e+00
      4.656    11.6296     5.4583     49.999  30.343547     41.334      8.081   268.0553     4.5400     8.0520     0.0218      0.102      4.565      6.621        290 2.0189e+00   999.5716 0.0000e+00
      4.677    11.6167     5.4597     49.991  30.271726     41.259      8.079   268.0174     4.5553     8.0232     0.0218      0.095      4.583      6.646        291 1.9845e+00   999.5754 0.0000e+00
      4.685    11.6258     5.4606     49.991  30.385846     41.494      8.076   268.1688     4.5820     8.0665     0.0219      0.085      4.596      6.665        292 1.9378e+00   999.5797 0.0000e+00
      4.698    11.6280     5.4737     50.086  30.408927     41.506      8.074   269.0017     4.5553     8.0809     0.0219      0.077      4.612      6.689        293 1.7931e+00   999.5812 0.0000e+00
      4.727    11.5829     5.4761     50.063  30.391141     41.499      8.071   269.0017     2.2511    10.2727     0.0219      0.075      4.637      6.725        294 1.7157e+00   999.5803 0.0000e+00
      4.757    11.5248     5.4698     49.973  30.348726     41.415      8.070   268.8124     2.2321    10.3160     0.0218      0.077      4.667      6.769        295 1.5973e+00   999.5802 0.0000e+00
      4.795    11.4767     5.4566     49.838  30.343206     41.471      8.066   269.3803     2.2550    10.4169     0.0218      0.083      4.701      6.819        296 1.4534e+00   999.5853 0.0000e+00
      4.831    11.4357     5.4278     49.575  30.338772     41.534      8.062   269.3803     2.2359    10.3304     0.0218      0.093      4.735      6.868        297 1.3615e+00   999.5918 0.0000e+00
      4.859    11.4213     5.3910     49.232  30.265388     41.476      8.061   269.5317     1.9841    10.0708     0.0218      0.102      4.761      6.906        298 1.3089e+00   999.5971 0.0000e+00
      4.874    11.4315     5.3461     48.809  30.286419     41.560      8.059   269.8724     2.0032    10.0708     0.0218      0.108      4.779      6.931        299 1.3091e+00   999.6015 0.0000e+00
      4.886    11.4309     5.2990     48.360  30.342243     41.654      8.053   270.1374     1.9956    10.0708     0.0218      0.109      4.796      6.955        300 1.2349e+00   999.6032 0.0000e+00
      4.911    11.4136     5.2540     47.932  30.344057     41.641      8.052   270.4781     2.0032    10.0997     0.0218      0.107      4.820      6.989        301 1.0992e+00   999.6023 0.0000e+00
      4.944    11.4045     5.2272     47.675  30.343413     41.641      8.049   270.7810     1.4500     9.3931     0.0218      0.102      4.850      7.034        302 1.0140e+00   999.6024 0.0000e+00
      4.980    11.3836     5.2071     47.481  30.343046     41.663      8.047   270.8188     1.4386     9.3787     0.0218      0.100      4.883      7.081        303 9.4073e-01   999.6044 0.0000e+00
      5.012    11.3457     5.1959     47.373  30.403773     41.748      8.045   271.1217     1.4462     9.4363     0.0219      0.100      4.913      7.125        304 8.6320e-01   999.6055 0.0000e+00
      5.036    11.3170     5.2088     47.486  30.504860     41.926      8.041   271.3110     1.4386     9.4796     0.0219      0.101      4.938      7.161        305 8.2219e-01   999.6079 0.0000e+00
      5.057    11.3055     5.2305     47.679  30.513523     41.971      8.040   271.5003     1.3966     8.7298     0.0219      0.104      4.961      7.195        306 7.9683e-01   999.6122 0.0000e+00
      5.083    11.3042     5.2565     47.913  30.452259     41.926      8.034   272.2195     1.4119     8.7586     0.0219      0.109      4.987      7.233        307 7.2538e-01   999.6153 0.0000e+00
      5.116    11.2990     5.2868     48.188  30.403352     41.864      8.033   272.4467     1.3738     8.6865     0.0219      0.112      5.017      7.277        308 6.6531e-01   999.6166 0.0000e+00
      5.149    11.2864     5.3090     48.389  30.337376     41.787      8.029   273.4688     1.3814     8.7298     0.0219      0.112      5.048      7.322        309 6.2941e-01   999.6168 0.0000e+00
      5.180    11.2702     5.3231     48.516  30.267727     41.678      8.026   273.9610     1.3852     8.7586     0.0218      0.111      5.078      7.364        310 5.9606e-01   999.6175 0.0000e+00
      5.205    11.2546     5.3390     48.660  30.253021     41.692      8.021   274.2638     1.2631     8.4991     0.0218      0.110      5.104      7.403        311 5.7841e-01   999.6189 0.0000e+00
      5.232    11.2422     5.3474     48.733  30.237175     41.673      8.022   274.1881     1.2517     8.4846     0.0218      0.111      5.128      7.437        312 5.3125e-01   999.6208 0.0000e+00
      5.249    11.2335     5.3393     48.657  30.198573     41.652      8.016   274.5288     1.2326     8.4702     0.0218      0.110      5.148      7.466        313 5.2248e-01   999.6224 0.0000e+00
      5.267    11.2282     5.3292     48.562  30.212188     41.667      8.012   274.5288     1.2708     8.5423     0.0218      0.107      5.170      7.498        314 4.9876e-01   999.6238 0.0000e+00
      5.300    11.2237     5.3282     48.552  30.249861     41.754      8.010   274.7181     1.0190     8.7298     0.0218      0.103      5.197      7.538        315 4.3510e-01   999.6249 0.0000e+00
      5.333    11.2194     5.3140     48.426  30.210945     41.683      8.010   275.3996     0.9961     8.6865     0.0218      0.101      5.227      7.581        316 4.0865e-01   999.6256 0.0000e+00
      5.355    11.2166     5.3047     48.343  30.201369     41.688      8.004   275.5888     1.0113     8.6577     0.0218      0.099      5.252      7.616        317 3.7358e-01   999.6262 0.0000e+00
      5.376    11.2155     5.2929     48.234  30.232154     41.731      8.001   276.1188     1.0266     8.6433     0.0218      0.097      5.277      7.652        318 3.8073e-01   999.6267 0.0000e+00
      5.412    11.2144     5.2780     48.093  30.202263     41.696      7.999   276.3838     0.9808     8.9893     0.0218      0.100      5.307      7.697        319 3.6559e-01   999.6272 0.0000e+00
      5.446    11.2128     5.2689     48.004  30.208943     41.697      7.992   276.5353     0.9694     8.9172     0.0218      0.106      5.337      7.741        320 3.2031e-01   999.6275 0.0000e+00
      5.466    11.2117     5.2621     47.938  30.253468     41.775      7.992   276.8003     0.9312     8.9028     0.0218      0.109      5.361      7.776        321 3.1204e-01   999.6277 0.0000e+00
      5.489    11.2092     5.2526     47.849  30.206108     41.700      7.989   276.6110     0.9694     8.9749     0.0218      0.109      5.385      7.810        322 2.7598e-01   999.6280 0.0000e+00
      5.518    11.2064     5.2464     47.792  30.208630     41.701      7.989   277.1788     0.9122     9.2489     0.0218      0.107      5.411      7.848        323 2.5735e-01   999.6282 0.0000e+00
      5.544    11.2042     5.2321     47.664  30.220702     41.743      7.985   277.5953     0.8931     9.1912     0.0218      0.106      5.435      7.884        324 2.5062e-01   999.6286 0.0000e+00
      5.566    11.2037     5.2270     47.627  30.161458     41.631      7.980   277.9739     0.9007     9.1768     0.0217      0.105      5.454      7.911        325 2.2076e-01   999.6290 0.0000e+00
      5.576    11.2063     5.2198     47.563  30.193480     41.710      7.977   278.0874     0.8816     9.1768     0.0218      0.099      5.466      7.928        326 2.3495e-01   999.6292 0.0000e+00
      5.579    11.2081     5.2173     47.529  30.210479     41.711      7.978   278.2389     0.8549     9.2056     0.0218      0.086      5.474      7.940        327 2.6984e-01   999.6293 0.0000e+00
      5.590    11.2063     5.2128     47.483  30.199556     41.708      7.975   278.9960     0.8473     9.2489     0.0218      0.074      5.489      7.962        328 2.4122e-01   999.6291 0.0000e+00
      5.624    11.2019     5.2004     47.372  30.207074     41.706      7.971   279.6396     0.8473     9.1335     0.0218      0.071      5.517      8.004        329 2.1399e-01   999.6291 0.0000e+00
      5.664    11.1967     5.1973     47.345  30.201124     41.708      7.970   280.2453     0.8435     9.1768     0.0218      0.073      5.557      8.060        330 1.7705e-01   999.6295 0.0000e+00
      5.713    11.1926     5.1842     47.218  30.177334     41.674      7.965   280.6996     0.8244     9.1912     0.0218      0.083      5.601      8.123        331 1.3854e-01   999.6301 0.0000e+00
      5.755    11.1908     5.1726     47.107  30.147802     41.642      7.961   281.2296     0.8359     8.9172     0.0217      0.098      5.640      8.180        332 1.3222e-01   999.6308 0.0000e+00
      5.784    11.1902     5.1570     46.963  30.148999     41.646      7.960   281.6839     0.8473     9.0759     0.0217      0.115      5.672      8.226        333 1.2316e-01   999.6314 0.0000e+00
      5.813    11.1931     5.1501     46.896  30.205473     41.726      7.952   281.4946     0.8282     9.0182     0.0218      0.130      5.699      8.266        334 1.2360e-01   999.6317 0.0000e+00
      5.837    11.2010     5.1389     46.789  30.196028     41.726      7.955   281.2674     0.8092     8.8884     0.0218      0.138      5.723      8.301        335 1.2356e-01   999.6319 0.0000e+00
      5.858    11.2017     5.1231     46.642  30.160755     41.646      7.951   281.1917     0.8321     9.0326     0.0217      0.136      5.746      8.334        336 1.2369e-01   999.6317 0.0000e+00
      5.883    11.1923     5.1116     46.532  30.219744     41.752      7.949   281.1917     0.8397     9.0038     0.0218      0.126      5.769      8.367        337 1.2342e-01   999.6310 0.0000e+00
      5.907    11.1870     5.0844     46.280  30.211495     41.712      7.949   281.3431     0.8397     9.0470     0.0218      0.114      5.790      8.397        338 1.2375e-01   999.6310 0.0000e+00
      5.919    11.1894     5.0713     46.154  30.200647     41.724      7.945   281.7974     0.8168     8.8740     0.0218      0.099      5.805      8.419        339 1.2360e-01   999.6321 0.0000e+00
      5.933    11.1902     5.0496     45.950  30.203619     41.730      7.943   281.9867     0.7710     8.8884     0.0218      0.088      5.823      8.445        340 1.2351e-01   999.6327 0.0000e+00
      5.963    11.1839     5.0252     45.721  30.207796     41.727      7.940   281.5703     0.7748     8.9461     0.0218      0.084      5.848      8.482        341 1.2345e-01   999.6326 0.0000e+00
      5.994    11.1787     5.0058     45.540  30.254702     41.803      7.936   282.1760     0.7748     8.9749     0.0218      0.084      5.876      8.523        342 1.2366e-01   999.6326 0.0000e+00
      6.018    11.1764     4.9628     45.147  30.293382     41.850      7.931   282.3653     0.7977     9.0470     0.0218      0.086      5.902      8.560        343 1.2359e-01   999.6334 0.0000e+00
      6.045    11.1723     4.9246     44.795  30.337424     41.932      7.933   282.5924     0.7634     8.9749     0.0219      0.090      5.926      8.595        344 1.2343e-01   999.6341 0.0000e+00
      6.066    11.1685     4.8802     44.388  30.348028     41.935      7.927   282.7439     0.8092     9.0182     0.0219      0.092      5.948      8.627        345 1.2367e-01   999.6345 0.0000e+00
      6.085    11.1649     4.8391     44.016  30.339438     41.940      7.926   283.4632     0.7825     8.9461     0.0219      0.094      5.971      8.659        346 1.2368e-01   999.6350 0.0000e+00
      6.116    11.1606     4.7895     43.566  30.348116     41.944      7.926   283.0089     0.7596     8.9461     0.0219      0.098      5.998      8.699        347 1.2355e-01   999.6355 0.0000e+00
      6.147    11.1560     4.7449     43.160  30.396486     42.026      7.920   282.9332     0.7672     8.9461     0.0219      0.101      6.028      8.743        348 1.2349e-01   999.6361 0.0000e+00
      6.178    11.1497     4.6925     42.686  30.457005     42.108      7.919   283.4253     0.7977     8.9749     0.0219      0.102      6.058      8.785        349 1.2359e-01   999.6367 0.0000e+00
      6.204    11.1434     4.6553     42.351  30.509817     42.190      7.918   283.8417     0.7825     8.8884     0.0220      0.103      6.083      8.822        350 1.2351e-01   999.6373 0.0000e+00
      6.225    11.1371     4.6253     42.083  30.567781     42.275      7.913   284.1446     0.7977     8.9749     0.0220      0.104      6.108      8.859        351 1.2358e-01   999.6381 0.0000e+00
      6.258    11.1330     4.6075     41.926  30.562634     42.282      7.911   284.2203     0.7786     8.9461     0.0220      0.107      6.138      8.903        352 1.2361e-01   999.6389 0.0000e+00
      6.295    11.1313     4.5886     41.754  30.575478     42.290      7.911   284.2960     0.7748     8.9317     0.0220      0.112      6.171      8.951        353 1.2347e-01   999.6397 0.0000e+00
      6.327    11.1271     4.5783     41.662  30.611055     42.372      7.905   284.0689     0.7863     9.0182     0.0220      0.116      6.201      8.995        354 1.2355e-01   999.6403 0.0000e+00
      6.351    11.1242     4.5782     41.670  30.636871     42.374      7.903   284.3339     0.7748     9.0470     0.0220      0.115      6.224      9.028        355 1.2349e-01   999.6407 0.0000e+00
      6.363    11.1257     4.5866     41.755  30.661861     42.456      7.899   284.1446     0.7634     8.9028     0.0221      0.111      6.241      9.052        356 1.2353e-01   999.6412 0.0000e+00
      6.378    11.1266     4.6001     41.886  30.639212     42.382      7.897   284.3717     0.7825     9.2056     0.0220      0.104      6.261      9.080        357 1.2347e-01   999.6415 0.0000e+00
      6.414    11.1264     4.6093     41.986  30.665058     42.458      7.896   285.0532     0.7748     9.1479     0.0221      0.102      6.288      9.120        358 1.2353e-01   999.6415 0.0000e+00
      6.443    11.1286     4.6229     42.111  30.688950     42.456      7.892   284.4853     0.7748     9.2056     0.0221      0.101      6.312      9.155        359 1.2370e-01   999.6415 0.0000e+00
      6.452    11.1324     4.6385     42.235  30.668734     42.457      7.889   285.0910     0.7825     9.1912     0.0221      0.093      6.326      9.174        360 1.2358e-01   999.6416 0.0000e+00
      6.457    11.1379     4.6489     42.319  30.690217     42.454      7.882   285.1667     0.8435     9.4363     0.0221      0.082      6.332      9.184        361 1.2350e-01   999.6414 0.0000e+00
      6.463    11.1422     4.6612     42.420  30.721470     42.527      7.880   285.0532     0.8092     9.3787     0.0221      0.072      6.338      9.193        362 1.2353e-01   999.6411 0.0000e+00
      6.471    11.1424     4.6525     42.333  30.689094     42.443      7.879   285.6210     0.8321     9.3642     0.0221      0.064      6.346      9.204        363 1.2355e-01   999.6405 0.0000e+00
      6.480    11.1444     4.6577     42.376  30.671251     42.438      7.877   285.8103     0.8397     9.4508     0.0221      0.056      6.355      9.217        364 1.2346e-01   999.6401 0.0000e+00
      6.489    11.1535     4.6392     42.204  30.684419     42.438      7.874   286.3782     0.7672     9.8689     0.0221      0.046      6.364      9.229        365 1.2359e-01   999.6401 0.0000e+00
      6.497    11.1625     4.6258     42.079  30.672706     42.436      7.872   286.1132     0.7634     9.8113     0.0221      0.035      6.371      9.241        366 1.2357e-01   999.6400 0.0000e+00
      6.505    11.1716     4.6070     41.902  30.685826     42.425      7.872   286.7567     0.7748     9.9122     0.0221      0.030      6.380      9.255        367 1.2344e-01   999.6391 0.0000e+00
      6.517    11.1871     4.5759     41.615  30.727343     42.491      7.868   287.4760     0.7748     9.8978     0.0221      0.032      6.393      9.273        368 1.2355e-01   999.6382 0.0000e+00
      6.536    11.1873     4.5334     41.234  30.739545     42.482      7.865   287.8167     0.6909    10.1718     0.0221      0.037      6.412      9.300        369 1.2355e-01   999.6373 0.0000e+00
      6.560    11.1706     4.4820     40.773  30.729891     42.462      7.864   288.6875     0.6833    10.0708     0.0221      0.044      6.437      9.337        370 1.2346e-01   999.6358 0.0000e+00
      6.597    11.1587     4.4181     40.192  30.739353     42.462      7.858   289.1796     0.6757     9.9843     0.0221      0.056      6.472      9.386        371 1.2348e-01   999.6360 0.0000e+00
      6.641    11.1479     4.3494     39.568  30.816652     42.599      7.858   289.4825     0.6718    10.0708     0.0221      0.073      6.510      9.441        372 1.2359e-01   999.6380 0.0000e+00
      6.675    11.1394     4.2878     39.007  30.929973     42.766      7.853   289.7475     0.6604    10.2150     0.0222      0.092      6.542      9.487        373 1.2349e-01   999.6394 0.0000e+00
      6.695    11.1355     4.2169     38.363  31.042747     42.934      7.849   289.9367     0.7252    10.1862     0.0223      0.105      6.566      9.522        374 1.2345e-01   999.6407 0.0000e+00
      6.717    11.1323     4.1380     37.655  31.150356     43.098      7.848   289.4825     0.7176    10.2439     0.0223      0.114      6.584      9.548        375 1.2351e-01   999.6417 0.0000e+00
      6.725    11.1284     4.0738     37.076  31.299736     43.296      7.845   288.9146     0.7252    10.3160     0.0224      0.113      6.594      9.564        376 1.2365e-01   999.6423 0.0000e+00
      6.730    11.1216     4.0149     36.538  31.449412     43.532      7.842   288.9525     0.7138    10.4601     0.0225      0.103      6.601      9.574        377 1.2364e-01   999.6427 0.0000e+00
      6.736    11.1179     3.9650     36.076  31.527026     43.614      7.837   289.1417     0.8321    10.5467     0.0226      0.086      6.611      9.589        378 1.2352e-01   999.6431 0.0000e+00
      6.758    11.1236     3.9162     35.620  31.440176     43.545      7.835   290.5425     0.8092    10.5755     0.0225      0.070      6.635      9.623        379 1.2368e-01   999.6439 0.0000e+00
      6.804    11.1306     3.8611     35.109  31.438984     43.472      7.829   289.8989     0.8206    10.5034     0.0225      0.065      6.676      9.683        380 1.2366e-01   999.6445 0.0000e+00
      6.861    11.1316     3.7738     34.317  31.617398     43.813      7.827   288.9525     0.8397    10.4169     0.0226      0.076      6.730      9.761        381 1.2344e-01   999.6443 0.0000e+00
      6.926    11.1320     3.6480     33.183  31.662571     43.765      7.823   289.5203     0.7901    12.1473     0.0226      0.100      6.782      9.836        382 1.2345e-01   999.6438 0.0000e+00
      6.954    11.1311     3.4497     31.383  31.649421     43.842      7.821   289.7853     0.7786    12.0752     0.0227      0.123      6.823      9.897        383 1.2359e-01   999.6439 0.0000e+00
      6.999    11.1327     3.1733     28.868  31.811534     43.957      7.818   289.7475     0.7710    12.1328     0.0227      0.147      6.865      9.957        384 1.2354e-01   999.6441 0.0000e+00
      7.051    11.1431     2.8430     25.862  31.934889     44.267      7.815   289.8989     0.7748    12.2626     0.0228      0.169      6.905     10.016        385 1.2346e-01   999.6445 0.0000e+00
      7.071    11.1497     2.5324     23.037  32.058861     44.266      7.815   289.2175     0.8549    14.1372     0.0228      0.177      6.933     10.056        386 1.2348e-01   999.6444 0.0000e+00
      7.088    11.1466     2.2638     20.594  32.338727     44.832      7.811   289.7475     0.8473    14.1949     0.0231      0.169      6.955     10.087        387 1.2356e-01   999.6436 0.0000e+00
      7.117    11.1366     2.0499     18.648  34.105186     46.948      7.806   289.4067     0.8588    14.2093     0.0240      0.152      6.985     10.130        388 1.2364e-01   999.6440 0.0000e+00
      7.163    11.1216     1.8847     17.146  38.039300     52.785      7.798   286.4539     0.8321    14.1516     0.0266      0.139      7.020     10.181        389 1.2363e-01   999.6464 0.0000e+00
      7.191    11.1103     1.8016     16.390  41.934948     57.901      7.792   285.1289     0.7901    11.7002     0.0288      0.128      7.049     10.223        390 1.2365e-01   999.6494 0.0000e+00
      7.210    11.1125 -9.990e-29 -9.990e-29  43.513850     60.477      7.787   284.2960     0.7672    11.7435     0.0299      0.122      7.067     10.250        391 1.2351e-01   999.6517 0.0000e+00
      7.220    11.1240 -9.990e-29 -9.990e-29  41.884294     57.866      7.781   284.2582     0.7786    11.7147     0.0288      0.110      7.077     10.265        392 1.2338e-01   999.6522 0.0000e+00
      7.220    11.1295 -9.990e-29 -9.990e-29  42.954954     59.255      7.775   281.9867     0.7977    11.6714     0.0294      0.094      7.081     10.270        393 1.2353e-01   999.6525 0.0000e+00
      7.220    11.1289 -9.990e-29 -9.990e-29  45.205385     63.025      7.768   280.1696     0.7748    11.7723     0.0311      0.081      7.081     10.270        394 1.2361e-01   999.6523 0.0000e+00
      7.220    11.1281 -9.990e-29 -9.990e-29  47.740729     65.335      7.767   278.5039     0.8435    12.4212     0.0321      0.064      7.081     10.270        395 1.2354e-01   999.6530 0.0000e+00
      7.220    11.1287 -9.990e-29 -9.990e-29  49.021005     68.933      7.759   277.1031     0.8473    12.3636     0.0337      0.043      7.081     10.270        396 1.2361e-01   999.6537 0.0000e+00
      7.220    11.1295 -9.990e-29 -9.990e-29  44.531714     60.621      7.752   275.7403     0.8168    12.3347     0.0300      0.022      7.080     10.269        397 1.2363e-01   999.6517 0.0000e+00
      7.220    11.1307 -9.990e-29 -9.990e-29  42.534968     59.576      7.748   272.9388     0.8359    12.4212     0.0295      0.009      7.080     10.269        398 1.2360e-01   999.6507 0.0000e+00
      7.220    11.1310 -9.990e-29 -9.990e-29  41.247481     56.597      7.742   271.8031     0.8130    13.2576     0.0282      0.002      7.080     10.269        399 1.2357e-01   999.6498 0.0000e+00
      7.220    11.1299 -9.990e-29 -9.990e-29  40.709077     56.519      7.740   270.6295     0.8397    13.2864     0.0282     -0.000      7.080     10.270        400 1.2356e-01   999.6495 0.0000e+00
      7.221 -9.990e-29 -9.990e-29 -9.990e-29  41.752424     57.754      7.737   269.6074     0.8359    13.2576     0.0287      0.000      7.081     10.271        401 1.2358e-01   999.6500 0.0000e+00
      7.223 -9.990e-29 -9.990e-29 -9.990e-29  41.223694     57.024      7.733   269.0017     0.8244    13.3297     0.0284      0.001      7.082     10.272        402 1.2356e-01   999.6498 0.0000e+00
