* Sea-Bird SBE19plus  Data File:
* FileName = C:\DATA\061019_fcr_0005.hex
* Software version 2.8.0.119
* Temperature SN = 7809
* Conductivity SN = 7809
* System UpLoad Time = Jun 10 2019 13:29:17
* <ApplicationData>
* <Seaterm232>
* <SoftwareVersion>2.8.0.119</SoftwareVersion>
* <BuildDate>07-Nov-2018</BuildDate>
* </Seaterm232>
* </ApplicationData>
* <InstrumentState>
* <HardwareData DeviceType='SBE19plus' SerialNumber='01907809'>
*
*    <Manufacturer>Sea-Bird Electronics, Inc.</Manufacturer>
*
*    <FirmwareVersion>3.1.8</FirmwareVersion>
*
*    <FirmwareDate>Mar  9 2016 16:22:29</FirmwareDate>
*
*    <CommandSetVersion>1.4</CommandSetVersion>
*
*    <PCBAssembly PCBSerialNum='120721' AssemblyNum='41054J'/>
*
*    <PCBAssembly PCBSerialNum='120715' AssemblyNum='41967A'/>
*
*    <PCBAssembly PCBSerialNum='116699' AssemblyNum='41606'/>
*
*    <PCBAssembly PCBSerialNum='120719' AssemblyNum='41059D'/>
*
*    <MfgDate>28-Apr-2017</MfgDate>
*
*    <InternalSensors>
*
*       <Sensor id='Main Temperature'>
*
*          <type>temperature0</type>
*
*          <SerialNumber>01907809</SerialNumber>
*
*       </Sensor>
*
*       <Sensor id='Main Conductivity'>
*
*          <type>conductivity-0</type>
*
*          <SerialNumber>01907809</SerialNumber>
*
*       </Sensor>
*
*       <Sensor id='Main Pressure'>
*
*          <type>strain-0</type>
*
*          <SerialNumber>10586018</SerialNumber>
*
*       </Sensor>
*
*    </InternalSensors>
*
*    <ExternalSensors>
*
*       <Sensor id='volt 0'>
*
*          <type>pH</type>
*
*          <SerialNumber>27-0363</SerialNumber>
*
*       </Sensor>
*
*       <Sensor id='volt 1'>
*
*          <type>ORP</type>
*
*          <SerialNumber>27-0363</SerialNumber>
*
*       </Sensor>
*
*       <Sensor id='volt 2'>
*
*          <type>OXY</type>
*
*          <SerialNumber>43-0434</SerialNumber>
*
*       </Sensor>
*
*       <Sensor id='volt 3'>
*
*          <type>PAR</type>
*
*          <SerialNumber>1122</SerialNumber>
*
*       </Sensor>
*
*       <Sensor id='volt 4'>
*
*          <type>ECO AFL/FL</type>
*
*          <SerialNumber>FLNTURT-2496</SerialNumber>
*
*       </Sensor>
*
*       <Sensor id='volt 5'>
*
*          <type>ECO-NTU</type>
*
*          <SerialNumber>FLNTURT-2496</SerialNumber>
*
*       </Sensor>
*
*       <Sensor id='serial'>
*
*          <type>not assigned</type>
*
*          <SerialNumber>not assigned</SerialNumber>
*
*       </Sensor>
*
*    </ExternalSensors>
*
* </HardwareData>
* <StatusData DeviceType='SBE19plus' SerialNumber='01907809'>
*
*    <DateTime>2019-06-10T13:27:22</DateTime>
*
*    <LoggingState>not logging</LoggingState>
*
*    <EventSummary numEvents='0'/>
*
*    <Power>
*
*       <vMain>13.5</vMain>
*
*       <vLith>8.6</vLith>
*
*       <iMain>63.1</iMain>
*
*       <iPump>148.4</iPump>
*
*       <iExt01>19.7</iExt01>
*
*       <iExt2345>35.3</iExt2345>
*
*    </Power>
*
*    <MemorySummary>
*
*       <Bytes>109940</Bytes>
*
*       <Samples>4780</Samples>
*
*       <SamplesFree>2856008</SamplesFree>
*
*       <SampleLength>23</SampleLength>
*
*       <Profiles>6</Profiles>
*
*    </MemorySummary>
*
* </StatusData>
* <ConfigurationData DeviceType='SBE19plus' SerialNumber='01907809'>
*
*    <ProfileMode>
*
*       <ScansToAverage>1</ScansToAverage>
*
*       <MinimumCondFreq>5</MinimumCondFreq>
*
*       <PumpDelay>45</PumpDelay>
*
*       <AutoRun>no</AutoRun>
*
*       <IgnoreSwitch>no</IgnoreSwitch>
*
*    </ProfileMode>
*
*    <Battery>
*
*       <Type>alkaline</Type>
*
*       <CutOff>7.5</CutOff>
*
*    </Battery>
*
*    <DataChannels>
*
*       <ExtVolt0>yes</ExtVolt0>
*
*       <ExtVolt1>yes</ExtVolt1>
*
*       <ExtVolt2>yes</ExtVolt2>
*
*       <ExtVolt3>yes</ExtVolt3>
*
*       <ExtVolt4>yes</ExtVolt4>
*
*       <ExtVolt5>yes</ExtVolt5>
*
*       <SBE38>no</SBE38>
*
*       <WETLABS>no</WETLABS>
*
*       <OPTODE>no</OPTODE>
*
*       <SBE63>no</SBE63>
*
*       <SeaFET>no</SeaFET>
*
*       <GTD>no</GTD>
*
*    </DataChannels>
*
*    <EchoCharacters>yes</EchoCharacters>
*
*    <OutputExecutedTag>yes</OutputExecutedTag>
*
*    <OutputFormat>raw HEX</OutputFormat>
*
* </ConfigurationData>
* <CalibrationCoefficients DeviceType='SBE19plus' SerialNumber='01907809'>
*
*    <Calibration format='TEMP1' id='Main Temperature'>
*
*       <SerialNum>01907809</SerialNum>
*
*       <CalDate>24-Mar-19</CalDate>
*
*       <TA0>1.217923e-03</TA0>
*
*       <TA1>2.816693e-04</TA1>
*
*       <TA2>-1.603333e-06</TA2>
*
*       <TA3>1.984146e-07</TA3>
*
*       <TOFFSET>0.000000e+00</TOFFSET>
*
*    </Calibration>
*
*    <Calibration format='WBCOND0' id='Main Conductivity'>
*
*       <SerialNum>01907809</SerialNum>
*
*       <CalDate>24-Mar-19</CalDate>
*
*       <G>-1.005893e+00</G>
*
*       <H>1.268163e-01</H>
*
*       <I>-1.515604e-04</I>
*
*       <J>2.671373e-05</J>
*
*       <CPCOR>-9.570000e-08</CPCOR>
*
*       <CTCOR>3.250000e-06</CTCOR>
*
*       <CSLOPE>1.000000e+00</CSLOPE>
*
*    </Calibration>
*
*    <Calibration format='STRAIN0' id='Main Pressure'>
*
*       <SerialNum>10586018</SerialNum>
*
*       <CalDate>11-Mar-19</CalDate>
*
*       <PA0>4.565618e-02</PA0>
*
*       <PA1>4.850951e-04</PA1>
*
*       <PA2>-2.883271e-12</PA2>
*
*       <PTCA0>5.252467e+05</PTCA0>
*
*       <PTCA1>1.223042e+01</PTCA1>
*
*       <PTCA2>-3.567450e-01</PTCA2>
*
*       <PTCB0>2.516687e+01</PTCB0>
*
*       <PTCB1>3.750000e-04</PTCB1>
*
*       <PTCB2>0.000000e+00</PTCB2>
*
*       <PTEMPA0>-5.487846e+01</PTEMPA0>
*
*       <PTEMPA1>5.537568e+01</PTEMPA1>
*
*       <PTEMPA2>-5.867271e-01</PTEMPA2>
*
*       <POFFSET>7.140000e-01</POFFSET>
*
*       <PRANGE>1.600000e+02</PRANGE>
*
*    </Calibration>
*
*    <Calibration format='VOLT0' id='Volt 0'>
*
*       <OFFSET>-4.920000e-02</OFFSET>
*
*       <SLOPE>1.248122e+00</SLOPE>
*
*    </Calibration>
*
*    <Calibration format='VOLT0' id='Volt 1'>
*
*       <OFFSET>-4.784000e-02</OFFSET>
*
*       <SLOPE>1.248871e+00</SLOPE>
*
*    </Calibration>
*
*    <Calibration format='VOLT0' id='Volt 2'>
*
*       <OFFSET>-4.864632e-02</OFFSET>
*
*       <SLOPE>1.248714e+00</SLOPE>
*
*    </Calibration>
*
*    <Calibration format='VOLT0' id='Volt 3'>
*
*       <OFFSET>-4.743790e-02</OFFSET>
*
*       <SLOPE>1.248571e+00</SLOPE>
*
*    </Calibration>
*
*    <Calibration format='VOLT0' id='Volt 4'>
*
*       <OFFSET>-4.671263e-02</OFFSET>
*
*       <SLOPE>1.248951e+00</SLOPE>
*
*    </Calibration>
*
*    <Calibration format='VOLT0' id='Volt 5'>
*
*       <OFFSET>-4.871053e-02</OFFSET>
*
*       <SLOPE>1.249136e+00</SLOPE>
*
*    </Calibration>
*
*    <Calibration format='FREQ0' id='external frequency channel'>
*
*       <EXTFREQSF>1.000014e+00</EXTFREQSF>
*
*    </Calibration>
*
* </CalibrationCoefficients>
* <EventCounters DeviceType='SBE19plus' SerialNumber='01907809'>
*
*    <EventSummary numEvents='0'/>
*
* </EventCounters></InstrumentState>
* <Headers>
*
* cast   5 10 Jun 2019 12:25:06 samples 2919 to 3657, avg = 1, stop = mag switch
*
# nquan = 18
# nvalues = 588                         
# units = specified
# name 0 = depFM: Depth [fresh water, m]
# name 1 = tv290C: Temperature [ITS-90, deg C]
# name 2 = sbeox0Mg/L: Oxygen, SBE 43 [mg/l]
# name 3 = sbeox0PS: Oxygen, SBE 43 [% saturation]
# name 4 = c0uS/cm: Conductivity [uS/cm]
# name 5 = specc: Specific Conductance [uS/cm]
# name 6 = ph: pH
# name 7 = orp: Oxidation Reduction Potential [mV]
# name 8 = flECO-AFL: Fluorescence, WET Labs ECO-AFL/FL [mg/m^3]
# name 9 = turbWETntu0: Turbidity, WET Labs ECO [NTU]
# name 10 = sal00: Salinity, Practical [PSU]
# name 11 = dz/dtM: Descent Rate [m/s]
# name 12 = prdM: Pressure, Strain Gauge [db]
# name 13 = prdE: Pressure, Strain Gauge [psi]
# name 14 = scan: Scan Count
# name 15 = par/sat/log: PAR/Logarithmic, Satlantic
# name 16 = density00: Density [density, kg/m^3]
# name 17 = flag:  0.000e+00
# span 0 =     -0.592,      7.440       
# span 1 =     9.5564,    21.8794       
# span 2 =     0.8816,    12.9966       
# span 3 =      7.871,    137.047       
# span 4 =   1.185975, 150.603735       
# span 5 =      1.346,    217.481       
# span 6 =      6.844,      9.890       
# span 7 =  -657.1760,   310.9475       
# span 8 =     0.0538,     4.6659       
# span 9 =     0.5538,    33.6471       
# span 10 =     0.0096,     0.1014      
# span 11 =     -0.120,      0.252      
# span 12 =     -0.580,      7.296      
# span 13 =     -0.841,     10.581      
# span 14 =          1,        588      
# span 15 = 8.0007e-01, 1.1818e+03      
# span 16 =   997.8154,   999.8502      
# span 17 = 0.0000e+00, 0.0000e+00      
# interval = seconds: 0.25
# start_time = Jun 10 2019 12:25:06 [Instrument's time stamp, header]
# bad_flag = -9.990e-29
# <Sensors count="9" >
#   <sensor Channel="1" >
#     <!-- Count, Temperature -->
#     <TemperatureSensor SensorID="58" >
#       <SerialNumber>7809</SerialNumber>
#       <CalibrationDate>24-Mar-19</CalibrationDate>
#       <A0>1.21792325e-003</A0>
#       <A1>2.81669265e-004</A1>
#       <A2>-1.60333336e-006</A2>
#       <A3>1.98414625e-007</A3>
#       <Slope>1.00000000</Slope>
#       <Offset>0.0000</Offset>
#     </TemperatureSensor>
#   </sensor>
#   <sensor Channel="2" >
#     <!-- Frequency 0, Conductivity -->
#     <ConductivitySensor SensorID="3" >
#       <SerialNumber>7809</SerialNumber>
#       <CalibrationDate>24-Mar-19</CalibrationDate>
#       <UseG_J>1</UseG_J>
#       <!-- Cell const and series R are applicable only for wide range sensors. -->
#       <SeriesR>0.0000</SeriesR>
#       <CellConst>2000.0000</CellConst>
#       <ConductivityType>0</ConductivityType>
#       <Coefficients equation="0" >
#         <A>0.00000000e+000</A>
#         <B>0.00000000e+000</B>
#         <C>0.00000000e+000</C>
#         <D>0.00000000e+000</D>
#         <M>0.0</M>
#         <CPcor>-9.57000000e-008</CPcor>
#       </Coefficients>
#       <Coefficients equation="1" >
#         <G>-1.00589325e+000</G>
#         <H>1.26816302e-001</H>
#         <I>-1.51560448e-004</I>
#         <J>2.67137274e-005</J>
#         <CPcor>-9.57000000e-008</CPcor>
#         <CTcor>3.2500e-006</CTcor>
#         <!-- WBOTC not applicable unless ConductivityType = 1. -->
#         <WBOTC>0.00000000e+000</WBOTC>
#       </Coefficients>
#       <Slope>1.00000000</Slope>
#       <Offset>0.00000</Offset>
#     </ConductivitySensor>
#   </sensor>
#   <sensor Channel="3" >
#     <!-- Count, Pressure, Strain Gauge -->
#     <PressureSensor SensorID="46" >
#       <SerialNumber>7809</SerialNumber>
#       <CalibrationDate>11-Mar-19</CalibrationDate>
#       <PA0>4.56561833e-002</PA0>
#       <PA1>4.85095118e-004</PA1>
#       <PA2>-2.88327090e-012</PA2>
#       <PTEMPA0>-5.48784562e+001</PTEMPA0>
#       <PTEMPA1>5.53756816e+001</PTEMPA1>
#       <PTEMPA2>-5.86727098e-001</PTEMPA2>
#       <PTCA0>5.25246745e+005</PTCA0>
#       <PTCA1>1.22304214e+001</PTCA1>
#       <PTCA2>-3.56745036e-001</PTCA2>
#       <PTCB0>2.51668750e+001</PTCB0>
#       <PTCB1>3.75000000e-004</PTCB1>
#       <PTCB2>0.00000000e+000</PTCB2>
#       <Offset>0.000000</Offset>
#     </PressureSensor>
#   </sensor>
#   <sensor Channel="4" >
#     <!-- A/D voltage 0, Oxygen, SBE 43 -->
#     <OxygenSensor SensorID="38" >
#       <SerialNumber>0434</SerialNumber>
#       <CalibrationDate>13-Apr-19</CalibrationDate>
#       <Use2007Equation>1</Use2007Equation>
#       <CalibrationCoefficients equation="0" >
#         <!-- Coefficients for Owens-Millard equation. -->
#         <Boc>0.0000</Boc>
#         <Soc>0.0000e+000</Soc>
#         <offset>0.0000</offset>
#         <Pcor>0.00e+000</Pcor>
#         <Tcor>0.0000</Tcor>
#         <Tau>0.0</Tau>
#       </CalibrationCoefficients>
#       <CalibrationCoefficients equation="1" >
#         <!-- Coefficients for Sea-Bird equation - SBE calibration in 2007 and later. -->
#         <Soc>4.2007e-001</Soc>
#         <offset>-0.6109</offset>
#         <A>-4.3656e-003</A>
#         <B> 1.7017e-004</B>
#         <C>-2.5341e-006</C>
#         <D0> 2.5826e+000</D0>
#         <D1> 1.92634e-004</D1>
#         <D2>-4.64803e-002</D2>
#         <E> 3.6000e-002</E>
#         <Tau20> 1.1800</Tau20>
#         <H1>-3.3000e-002</H1>
#         <H2> 5.0000e+003</H2>
#         <H3> 1.4500e+003</H3>
#       </CalibrationCoefficients>
#     </OxygenSensor>
#   </sensor>
#   <sensor Channel="5" >
#     <!-- A/D voltage 1, PAR/Logarithmic, Satlantic -->
#     <PARLog_SatlanticSensor SensorID="76" >
#       <SerialNumber>1122</SerialNumber>
#       <CalibrationDate>08-May-2019</CalibrationDate>
#       <a0>9.7456e-001</a0>
#       <a1>8.1640e-001</a1>
#       <Im>1.3589e+000</Im>
#       <Multiplier>1.0000e+000</Multiplier>
#     </PARLog_SatlanticSensor>
#   </sensor>
#   <sensor Channel="6" >
#     <!-- A/D voltage 2, pH -->
#     <pH_Sensor SensorID="43" >
#       <SerialNumber>0363</SerialNumber>
#       <CalibrationDate>15-Apr-19</CalibrationDate>
#       <Slope>4.5952</Slope>
#       <Offset>2.5370</Offset>
#     </pH_Sensor>
#   </sensor>
#   <sensor Channel="7" >
#     <!-- A/D voltage 3, Oxidation Reduction Potential -->
#     <OxidationReductionPotentialSensor SensorID="41" >
#       <SerialNumber>0363</SerialNumber>
#       <CalibrationDate>15-Apr-19</CalibrationDate>
#       <B>2.499480</B>
#       <M>-0.496195</M>
#       <Offset>0.0</Offset>
#     </OxidationReductionPotentialSensor>
#   </sensor>
#   <sensor Channel="8" >
#     <!-- A/D voltage 4, Fluorometer, WET Labs ECO-AFL/FL -->
#     <FluoroWetlabECO_AFL_FL_Sensor SensorID="20" >
#       <SerialNumber>FLNTURT-2496</SerialNumber>
#       <CalibrationDate>08-May-2019</CalibrationDate>
#       <ScaleFactor>5.00000000e+001</ScaleFactor>
#       <!-- Dark output -->
#       <Vblank>0.0550</Vblank>
#     </FluoroWetlabECO_AFL_FL_Sensor>
#   </sensor>
#   <sensor Channel="9" >
#     <!-- A/D voltage 5, Turbidity Meter, WET Labs, ECO-NTU -->
#     <TurbidityMeter SensorID="67" >
#       <SerialNumber>FLNTURT-2496</SerialNumber>
#       <CalibrationDate>08-May-2019</CalibrationDate>
#       <ScaleFactor>189.000000</ScaleFactor>
#       <!-- Dark output -->
#       <DarkVoltage>0.071000</DarkVoltage>
#     </TurbidityMeter>
#   </sensor>
# </Sensors>
# datcnv_date = Jun 10 2019 13:33:11, 7.26.7.129 [datcnv_vars = 17]
# datcnv_in = C:\DATA\061019_fcr45.hex C:\DATA\SBE19plusV2_7809.xmlcon
# datcnv_skipover = 0
# datcnv_ox_hysteresis_correction = yes
# datcnv_ox_tau_correction = yes
# filter_date = Jun 10 2019 13:33:32, 7.26.7.129
# filter_in = C:\DATA\061019_fcr45.cnv
# filter_low_pass_tc_A = 0.030
# filter_low_pass_tc_B = 0.150
# filter_low_pass_A_vars = tv290C c0uS/cm par/sat/log density00
# filter_low_pass_B_vars = prdM prdE
# alignctd_date = Jun 10 2019 13:33:50, 7.26.7.129
# alignctd_in = C:\DATA\061019_fcr45.cnv
# alignctd_adv = tv290C 0.500, sbeox0Mg/L 3.000, sbeox0PS 3.000                                                                                                                                                                      
# file_type = ascii
*END*
     -0.590    19.0096     9.0294     97.583   1.801023      2.015      6.851  -615.2680     0.1187     4.5192     0.0097 2.1053e-16     -0.579     -0.840          1 6.6069e+02   998.4098 0.0000e+00
     -0.591    19.0115     9.0301     97.593   2.053650      2.363      6.844  -595.4687     0.1225     4.4038     0.0097     -0.000     -0.580     -0.841          2 6.7210e+02   998.4096 0.0000e+00
     -0.591    19.0174     9.0311     97.602   2.299958      2.585      6.852  -599.2544     0.1149     4.5048     0.0098     -0.000     -0.580     -0.841          3 6.4991e+02   998.4094 0.0000e+00
     -0.592    19.0310     9.0284     97.572   2.470786      2.838      6.854  -556.2107     0.1111    12.4357     0.0099     -0.001     -0.580     -0.841          4 6.7970e+02   998.4090 0.0000e+00
     -0.590    19.0482     9.0328     97.616   2.344000      2.648      6.849  -563.8957     0.1187    12.4933     0.0098     -0.000     -0.580     -0.841          5 7.7702e+02   998.4079 0.0000e+00
     -0.591    19.0643     9.0307     97.592   2.132308      2.425      6.861  -547.7307     0.1301    12.3780     0.0098     -0.000     -0.580     -0.841          6 8.0686e+02   998.4052 0.0000e+00
     -0.591    19.0827     9.0298     97.580   1.905860      2.171      6.860  -566.5079     0.1378    12.4789     0.0097     -0.000     -0.580     -0.841          7 7.9181e+02   998.4017 0.0000e+00
     -0.591    19.1001     9.0335     97.619   1.619944      1.822      6.861  -571.9972     0.1034    12.3636     0.0097     -0.000     -0.580     -0.841          8 8.5899e+02   998.3985 0.0000e+00
     -0.591    19.1116     9.0285     97.567   1.482270      1.695      6.860  -577.9786     0.0538    33.5606     0.0097     -0.000     -0.580     -0.841          9 1.0003e+03   998.3949 0.0000e+00
     -0.591    19.1182     9.0261     97.549   1.396766      1.568      6.867  -599.2544     0.0729    33.6471     0.0096      0.000     -0.580     -0.841         10 1.1159e+03   998.3915 0.0000e+00
     -0.592    19.1217     9.0306     97.610   1.371349      1.567      6.871  -609.0973     0.0691    33.5895     0.0096     -0.000     -0.580     -0.841         11 1.1818e+03   998.3892 0.0000e+00
     -0.591    19.1226     8.9722     97.580   1.277234      1.441      6.869  -620.2273     0.0653    33.5318     0.0096     -0.000     -0.580     -0.841         12 1.0432e+03   998.3879 0.0000e+00
     -0.591    19.1222     8.8427     97.493   1.188475      1.346      6.877  -646.1595     0.1340     4.3029     0.0096     -0.000     -0.580     -0.841         13 8.7346e+02   998.3873 0.0000e+00
     -0.591    19.1211     8.7593     97.527   1.185975      1.346      6.872  -631.0545     0.1378     4.3173     0.0096     -0.000     -0.580     -0.841         14 9.3137e+02   998.3871 0.0000e+00
     -0.592    19.1199     8.6924     97.461   1.191594      1.346      6.862  -608.1887     0.0958     4.1587     0.0096     -0.000     -0.580     -0.841         15 1.0113e+03   998.3872 0.0000e+00
     -0.591    19.1186     8.6402     97.472   1.270232      1.441      6.863  -588.2001     0.1034     4.2741     0.0096     -0.000     -0.580     -0.841         16 9.2803e+02   998.3874 0.0000e+00
     -0.591    19.1181     8.6094     97.550   1.265612      1.441      6.864  -581.0072     0.1225    31.3544     0.0096     -0.000     -0.580     -0.841         17 8.8490e+02   998.3876 0.0000e+00
     -0.591    19.1168     8.6076     97.764   1.345259      1.504      6.866  -598.5730     0.1034    31.4986     0.0096     -0.000     -0.580     -0.841         18 1.0233e+03   998.3879 0.0000e+00
     -0.591    19.1190     8.6248     98.056   1.289445      1.504      6.876  -620.9466     0.0996    31.4553     0.0096      0.000     -0.580     -0.841         19 1.0383e+03   998.3880 0.0000e+00
     -0.591    19.1213     8.6605     98.497   1.512573      1.630      6.874  -625.7166     0.1263    31.3400     0.0097      0.000     -0.580     -0.841         20 9.9473e+02   998.3883 0.0000e+00
     -0.591    19.1304     8.7056     99.023   1.304248      1.630      6.878  -636.1652     0.1416    29.5952     0.0097      0.000     -0.579     -0.840         21 1.0177e+03   998.3879 0.0000e+00
     -0.591    19.4502     8.7647     99.681   1.667034      1.630      6.879  -657.1760     0.1073    29.5087     0.0097      0.000     -0.569     -0.825         22 1.0111e+03   998.3873 0.0000e+00
     -0.558    20.1041     8.8210    100.273   5.380718      6.242      7.041   156.1492     0.1301    29.5664     0.0109      0.009     -0.532     -0.771         23 1.0114e+03   998.3867 0.0000e+00
     -0.476    20.6177     8.8772    100.899  17.190552     18.784      7.394   296.1075     0.0996    29.5375     0.0155      0.037     -0.465     -0.675         24 1.0368e+03   998.3271 0.0000e+00
     -0.392    20.9682     8.9213    101.403  29.686747     33.808      7.986   310.0011     0.1378    27.0429     0.0218      0.079     -0.389     -0.565         25 1.0567e+03   998.1984 0.0000e+00
     -0.323    21.2843     8.9713    101.962  31.017808     33.440      8.510   304.3225     0.1187    27.0429     0.0218      0.126     -0.320     -0.465         26 1.0517e+03   998.0914 0.0000e+00
     -0.265    21.5075     9.0060    102.377  30.253066     33.241      8.892   301.4453     0.1073    26.9996     0.0218      0.171     -0.260     -0.377         27 1.0487e+03   998.0159 0.0000e+00
     -0.204    21.6331     9.0555    102.931  30.756802     33.016      9.188   297.6218     0.0920    27.1150     0.0218      0.211     -0.202     -0.292         28 1.0146e+03   997.9475 0.0000e+00
     -0.147    21.6845     9.1784    104.278  30.450044     32.856      9.435   296.3346     0.0844    27.1006     0.0218      0.240     -0.148     -0.215         29 9.5514e+02   997.8984 0.0000e+00
     -0.103    21.7029     9.2137    104.668  30.634727     32.769      9.585   272.2195     1.3394    11.0369     0.0218      0.252     -0.102     -0.147         30 8.0778e+02   997.8707 0.0000e+00
     -0.059    21.7102     9.1396    103.844  30.408409     32.613      9.696   271.5760     1.2936    11.0946     0.0217      0.244     -0.058     -0.083         31 6.6685e+02   997.8593 0.0000e+00
     -0.013    21.7019     8.9847    102.091  30.435408     32.541      9.769   270.3645     1.3203    11.0802     0.0217      0.223     -0.016     -0.023         32 6.0586e+02   997.8553 0.0000e+00
      0.021    21.6786     8.8144    100.137  30.423362     32.595      9.817   269.3424     1.3203    11.0946     0.0217      0.202      0.024      0.035         33 4.6279e+02   997.8539 0.0000e+00
      0.066    21.6713     8.5942     97.615  30.364148     32.481      9.849   269.2288     1.6332     1.2171     0.0217      0.189      0.069      0.100         34 3.6865e+02   997.8559 0.0000e+00
      0.126    21.6717     8.3873     95.250  30.331349     32.498      9.876   268.5095     1.6103     1.1306     0.0217      0.183      0.122      0.176         35 3.3673e+02   997.8614 0.0000e+00
      0.180    21.6687     8.1945     93.048  30.345683     32.503      9.887   268.6610     1.6332     1.0296     0.0217      0.181      0.172      0.249         36 3.2307e+02   997.8633 0.0000e+00
      0.222    21.6776     8.0491     91.382  30.405564     32.562      9.890   267.6388     1.6179     1.0585     0.0217      0.181      0.208      0.301         37 3.3421e+02   997.8634 0.0000e+00
      0.232    21.6732     7.9760     90.541  30.493835     32.685      9.882   267.6010     1.7629     1.4910     0.0218      0.175      0.224      0.325         38 3.3992e+02   997.8641 0.0000e+00
      0.231    21.6502     7.9527     90.248  30.472837     32.618      9.878   267.3738     1.7743     1.3036     0.0217      0.158      0.231      0.335         39 3.5716e+02   997.8621 0.0000e+00
      0.243    21.6437     7.9431     90.104  30.490946     32.681      9.874   267.5252     1.7514     1.2603     0.0218      0.136      0.248      0.359         40 3.5871e+02   997.8632 0.0000e+00
      0.288    21.6526     7.9235     89.876  30.530554     32.698      9.879   267.0331     1.7476     1.2748     0.0218      0.121      0.278      0.403         41 3.6167e+02   997.8686 0.0000e+00
      0.317    21.6557     7.8988     89.617  30.542056     32.761      9.877   266.7302     1.7400     1.0873     0.0218      0.106      0.305      0.443         42 3.5979e+02   997.8701 0.0000e+00
      0.329    21.6468     7.8593     89.222  30.476635     32.636      9.868   266.6545     1.7323     1.2027     0.0217      0.089      0.320      0.465         43 3.7167e+02   997.8681 0.0000e+00
      0.337    21.6353     7.8097     88.703  30.493464     32.693      9.852   266.3895     1.7323     1.0585     0.0218      0.077      0.325      0.472         44 3.8209e+02   997.8675 0.0000e+00
      0.329    21.6275     7.7479     88.025  30.521113     32.700      9.841   266.3138     1.7285     1.0873     0.0218      0.066      0.320      0.465         45 3.9000e+02   997.8695 0.0000e+00
      0.315    21.6201     7.6713     87.189  30.501482     32.707      9.827   266.7681     1.7285     1.0873     0.0218      0.056      0.311      0.451         46 4.0983e+02   997.8719 0.0000e+00
      0.307    21.6123     7.6125     86.555  30.517898     32.713      9.819   266.6167     1.7362     1.1882     0.0218      0.041      0.306      0.445         47 4.0769e+02   997.8737 0.0000e+00
      0.316    21.6054     7.5589     85.972  30.441434     32.658      9.808   266.9574     1.7629     1.0585     0.0217      0.023      0.310      0.450         48 3.9432e+02   997.8753 0.0000e+00
      0.326    21.5891     7.5204     85.548  30.359636     32.544      9.805   266.8817     1.7552     1.1306     0.0217      0.006      0.313      0.454         49 3.9751e+02   997.8771 0.0000e+00
      0.313    21.5700     7.4886     85.191  30.323439     32.549      9.796   266.6924     1.7323     1.0152     0.0217     -0.006      0.302      0.438         50 4.1926e+02   997.8786 0.0000e+00
      0.284    21.5659     7.4685     84.968  30.279105     32.470      9.793   266.7302     1.6789     1.1161     0.0217     -0.017      0.280      0.406         51 4.2971e+02   997.8821 0.0000e+00
      0.260    21.5786     7.4725     84.989  30.385190     32.634      9.789   266.8817     1.6675     1.1017     0.0217     -0.028      0.261      0.379         52 4.1858e+02   997.8862 0.0000e+00
      0.255    21.6085     7.4895     85.177  30.458056     32.696      9.776   267.1088     1.6827     1.0729     0.0217     -0.033      0.255      0.370         53 4.1982e+02   997.8872 0.0000e+00
      0.263    21.6345     7.5024     85.339  30.455059     32.688      9.760   267.0331     1.6904     1.0585     0.0217     -0.034      0.261      0.379         54 4.2159e+02   997.8844 0.0000e+00
      0.281    21.6489     7.5094     85.397  30.507417     32.726      9.740   267.1467     1.6675     1.1161     0.0218     -0.030      0.275      0.398         55 4.2078e+02   997.8778 0.0000e+00
      0.294    21.6690     7.5221     85.528  30.452138     32.648      9.713   266.9195     1.7056     1.1450     0.0217     -0.023      0.288      0.417         56 4.1823e+02   997.8720 0.0000e+00
      0.305    21.6895     7.5423     85.774  30.464592     32.638      9.686   266.7681     1.6980     1.1738     0.0217     -0.009      0.301      0.436         57 3.9955e+02   997.8689 0.0000e+00
      0.323    21.7052     7.5623     86.010  30.551165     32.744      9.673   266.9574     1.6980     1.0296     0.0218      0.013      0.316      0.458         58 3.9054e+02   997.8646 0.0000e+00
      0.338    21.7134     7.5842     86.260  30.522148     32.670      9.668   266.5410     1.5530     1.0585     0.0218      0.035      0.328      0.476         59 3.8278e+02   997.8601 0.0000e+00
      0.343    21.7170     7.5941     86.393  30.500693     32.659      9.657   267.0331     1.5378     1.0585     0.0218      0.047      0.332      0.482         60 3.8405e+02   997.8565 0.0000e+00
      0.335    21.7188     7.6002     86.459  30.518606     32.652      9.657   267.4495     1.5797     1.2171     0.0218      0.046      0.327      0.474         61 3.9954e+02   997.8546 0.0000e+00
      0.322    21.7061     7.6059     86.499  30.499853     32.651      9.661   266.9574     1.5492     1.0008     0.0218      0.035      0.313      0.453         62 4.1852e+02   997.8537 0.0000e+00
      0.301    21.7028     7.6198     86.643  30.464777     32.589      9.665   267.3738     1.6866     1.1450     0.0217      0.016      0.288      0.418         63 4.3801e+02   997.8533 0.0000e+00
      0.259    21.7098     7.6425     86.894  30.384501     32.539      9.672   267.1845     1.6827     1.0873     0.0217     -0.010      0.248      0.360         64 4.9325e+02   997.8558 0.0000e+00
      0.197    21.6983     7.6518     86.996  30.422003     32.541      9.673   267.0331     1.6751     1.1738     0.0217     -0.047      0.202      0.293         65 5.3064e+02   997.8563 0.0000e+00
      0.164    21.6903     7.6428     86.907  30.595864     32.774      9.665   267.2981     1.7094     1.1738     0.0218     -0.083      0.172      0.250         66 5.1362e+02   997.8547 0.0000e+00
      0.167    21.7002     7.6073     86.516  30.582897     32.724      9.654   267.4495     1.5797     1.1161     0.0218     -0.102      0.167      0.243         67 5.0717e+02   997.8573 0.0000e+00
      0.179    21.7046     7.5683     86.075  30.556645     32.729      9.638   267.3738     1.5530     1.1450     0.0218     -0.104      0.177      0.256         68 4.5898e+02   997.8591 0.0000e+00
      0.195    21.7060     7.5257     85.585  30.628536     32.782      9.622   267.4874     1.5530     1.1017     0.0218     -0.089      0.190      0.275         69 4.3117e+02   997.8569 0.0000e+00
      0.207    21.7166     7.4784     85.054  30.552681     32.719      9.612   267.3738     1.5874     1.1017     0.0218     -0.063      0.196      0.285         70 4.3960e+02   997.8560 0.0000e+00
      0.198    21.7156     7.4337     84.549  30.354784     32.479      9.602   267.1467     1.5607     1.1594     0.0217     -0.036      0.186      0.271         71 4.8566e+02   997.8557 0.0000e+00
      0.165    21.7011     7.3960     84.123  30.400797     32.531      9.594   266.8438     1.7018     1.1161     0.0217     -0.017      0.164      0.239         72 5.5081e+02   997.8531 0.0000e+00
      0.143    21.6927     7.3797     83.944  30.613919     32.771      9.579   266.9952     1.6751     1.0585     0.0218     -0.008      0.147      0.214         73 5.4950e+02   997.8533 0.0000e+00
      0.144    21.6881     7.3980     84.157  30.682080     32.841      9.565   266.9574     1.6522     1.1882     0.0218     -0.011      0.142      0.206         74 5.4620e+02   997.8565 0.0000e+00
      0.147    21.6866     7.4334     84.553  30.671489     32.847      9.549   267.1088     1.6980     1.1306     0.0218     -0.022      0.140      0.202         75 5.7299e+02   997.8584 0.0000e+00
      0.135    21.6934     7.4719     84.980  30.627102     32.790      9.536   267.2981     1.6293     1.0440     0.0218     -0.033      0.132      0.192         76 5.9626e+02   997.8595 0.0000e+00
      0.124    21.7018     7.4876     85.157  30.618816     32.791      9.520   267.2981     1.6065     1.1017     0.0218     -0.041      0.124      0.181         77 5.9209e+02   997.8597 0.0000e+00
      0.122    21.7025     7.4795     85.067  30.681801     32.846      9.502   267.1088     1.6332     1.1161     0.0218     -0.041      0.122      0.177         78 5.6740e+02   997.8581 0.0000e+00
      0.128    21.7005     7.4510     84.735  30.726474     32.900      9.490   267.7145     1.6255     1.1017     0.0219     -0.030      0.124      0.180         79 5.3372e+02   997.8564 0.0000e+00
      0.130    21.7036     7.4197     84.350  30.740977     32.899      9.476   267.4117     1.5836     1.1450     0.0219     -0.017      0.126      0.183         80 5.1391e+02   997.8562 0.0000e+00
      0.128    21.7063     7.3724     83.800  30.723004     32.901      9.462   267.4495     1.5569     1.0585     0.0219     -0.010      0.125      0.181         81 5.0944e+02   997.8567 0.0000e+00
      0.125    21.7081     7.3199     83.195  30.689590     32.839      9.452   267.2224     1.5454     1.2027     0.0218     -0.009      0.121      0.176         82 4.9778e+02   997.8559 0.0000e+00
      0.118    21.7121     7.2637     82.546  30.664055     32.837      9.441   267.1088     1.5569     1.2171     0.0218     -0.008      0.116      0.169         83 5.0087e+02   997.8552 0.0000e+00
      0.115    21.7143     7.2089     81.920  30.695526     32.836      9.429   267.2224     1.6904     1.2171     0.0218     -0.006      0.114      0.166         84 5.1019e+02   997.8549 0.0000e+00
      0.118    21.7101     7.1658     81.431  30.768928     32.953      9.414   267.2981     1.7094     1.1594     0.0219     -0.005      0.115      0.166         85 5.0966e+02   997.8540 0.0000e+00
      0.118    21.7042     7.1321     81.048  30.750464     32.891      9.402   267.6010     1.6675     1.1450     0.0219     -0.006      0.115      0.166         86 5.2236e+02   997.8535 0.0000e+00
      0.115    21.7025     7.0994     80.676  30.718503     32.894      9.394   267.6767     1.6751     1.0729     0.0219     -0.008      0.114      0.165         87 5.3086e+02   997.8544 0.0000e+00
      0.114    21.7045     7.0717     80.356  30.690200     32.839      9.382   267.6010     1.6980     1.1017     0.0218     -0.007      0.113      0.165         88 5.2686e+02   997.8557 0.0000e+00
      0.117    21.6989     7.0498     80.101  30.667184     32.840      9.374   267.6010     1.6713     1.0873     0.0218     -0.005      0.115      0.168         89 5.1943e+02   997.8561 0.0000e+00
      0.123    21.6825     7.0339     79.914  30.687894     32.839      9.367   267.6388     1.6827     1.0296     0.0218     -0.001      0.119      0.172         90 5.0362e+02   997.8557 0.0000e+00
      0.123    21.6738     7.0210     79.761  30.723680     32.902      9.356   267.4495     1.6675     1.0873     0.0219      0.003      0.121      0.176         91 4.9692e+02   997.8570 0.0000e+00
      0.127    21.6690     6.9973     79.490  30.741158     32.914      9.347   267.6767     1.6980     1.0873     0.0219      0.005      0.125      0.182         92 4.8288e+02   997.8608 0.0000e+00
      0.135    21.6623     6.9671     79.151  30.725400     32.920      9.329   267.8660     1.7056     1.1161     0.0219      0.008      0.130      0.188         93 4.6515e+02   997.8627 0.0000e+00
      0.136    21.6602     6.9224     78.644  30.684041     32.863      9.309   267.7903     1.6599     1.0008     0.0218      0.010      0.133      0.192         94 4.5965e+02   997.8636 0.0000e+00
      0.136    21.6606     6.8767     78.118  30.674127     32.868      9.296   267.6388     1.6637     1.0873     0.0218      0.012      0.133      0.193         95 4.5478e+02   997.8652 0.0000e+00
      0.137    21.6610     6.8262     77.533  30.619234     32.810      9.288   268.2445     1.7056     1.1738     0.0218      0.012      0.133      0.193         96 4.6518e+02   997.8657 0.0000e+00
      0.135    21.6605     6.7728     76.914  30.574596     32.750      9.282   268.0174     1.6904     1.1161     0.0218      0.010      0.132      0.192         97 4.6877e+02   997.8655 0.0000e+00
      0.133    21.6577     6.7171     76.271  30.611173     32.809      9.278   268.0553     1.6789     1.2027     0.0218      0.007      0.132      0.192         98 4.6867e+02   997.8655 0.0000e+00
      0.137    21.6535     6.6726     75.755  30.573715     32.750      9.273   267.9038     1.6827     1.0729     0.0218      0.005      0.135      0.196         99 4.6385e+02   997.8656 0.0000e+00
      0.142    21.6495     6.6389     75.364  30.561960     32.752      9.266   268.1688     1.6942     1.0729     0.0218      0.004      0.139      0.202        100 4.5959e+02   997.8662 0.0000e+00
      0.146    21.6450     6.6095     75.023  30.566552     32.755      9.262   268.0931     1.8277     1.1161     0.0218      0.004      0.143      0.207        101 4.5265e+02   997.8672 0.0000e+00
      0.150    21.6434     6.5881     74.773  30.508751     32.698      9.258   268.3203     1.8239     1.1738     0.0218      0.006      0.145      0.210        102 4.3613e+02   997.8681 0.0000e+00
      0.149    21.6462     6.5553     74.393  30.515390     32.701      9.248   268.3581     1.8163     1.0729     0.0218      0.008      0.145      0.210        103 4.3743e+02   997.8691 0.0000e+00
      0.144    21.6468     6.5251     74.043  30.558293     32.762      9.241   268.4717     1.8010     1.0585     0.0218      0.007      0.142      0.205        104 4.3574e+02   997.8695 0.0000e+00
      0.140    21.6426     6.4913     73.651  30.514611     32.700      9.235   268.9260     1.7323     1.1161     0.0218      0.006      0.140      0.202        105 4.3772e+02   997.8688 0.0000e+00
      0.141    21.6350     6.4584     73.272  30.451245     32.640      9.233   268.5853     1.7705     1.1450     0.0217      0.003      0.140      0.202        106 4.4573e+02   997.8686 0.0000e+00
      0.144    21.6266     6.4178     72.811  30.459396     32.643      9.229   268.6610     1.7552     0.9287     0.0217      0.001      0.141      0.205        107 4.4510e+02   997.8695 0.0000e+00
      0.147    21.6193     6.3787     72.368  30.504469     32.708      9.224   268.5853     1.7247     1.1017     0.0218     -0.001      0.143      0.208        108 4.4484e+02   997.8713 0.0000e+00
      0.147    21.6127     6.3381     71.905  30.513657     32.714      9.219   268.1688     1.8086     1.1161     0.0218     -0.001      0.145      0.210        109 4.4646e+02   997.8732 0.0000e+00
      0.149    21.6070     6.3008     71.472  30.507216     32.719      9.214   268.6988     1.7819     1.1450     0.0218      0.000      0.146      0.212        110 4.4736e+02   997.8748 0.0000e+00
      0.151    21.6015     6.2619     71.021  30.512489     32.724      9.212   268.8124     1.7896     1.1306     0.0218      0.003      0.148      0.215        111 4.4069e+02   997.8763 0.0000e+00
      0.152    21.5963     6.2350     70.706  30.507098     32.728      9.205   269.1531     1.8010     1.1161     0.0218      0.006      0.149      0.217        112 4.3749e+02   997.8776 0.0000e+00
      0.153    21.5912     6.2091     70.405  30.513928     32.731      9.197   269.1153     1.7896     1.0729     0.0218      0.006      0.150      0.218        113 4.3544e+02   997.8788 0.0000e+00
      0.155    21.5857     6.1867     70.146  30.444739     32.675      9.192   268.6988     1.8697     1.1017     0.0217      0.006      0.152      0.220        114 4.2867e+02   997.8801 0.0000e+00
      0.156    21.5806     6.1618     69.862  30.415448     32.619      9.186   269.2288     1.8620     1.1161     0.0217      0.006      0.153      0.222        115 4.3178e+02   997.8811 0.0000e+00
      0.157    21.5769     6.1378     69.595  30.491132     32.742      9.179   269.0774     1.8697     1.0873     0.0218      0.005      0.153      0.222        116 4.3685e+02   997.8823 0.0000e+00
      0.157    21.5756     6.1161     69.274  30.469059     32.686      9.176   269.4938     1.8659     1.0873     0.0217      0.005      0.153      0.222        117 4.4039e+02   997.8835 0.0000e+00
      0.154    21.5759     6.1205     69.204  30.442918     32.689      9.174   269.1531     1.8315     1.1882     0.0217      0.003      0.151      0.219        118 4.4734e+02   997.8843 0.0000e+00
      0.151    21.5744     6.1849     69.865  30.405160     32.630      9.167   269.2288     1.8926     1.2171     0.0217      0.001      0.149      0.215        119 4.5206e+02   997.8845 0.0000e+00
      0.150    21.5682     6.3509     71.703  30.397546     32.629      9.166   269.2288     1.8544     1.1450     0.0217     -0.001      0.148      0.215        120 4.5088e+02   997.8844 0.0000e+00
      0.152    21.5606     6.5736     74.194  30.393144     32.630      9.164   269.4938     1.8468     1.1161     0.0217     -0.002      0.149      0.217        121 4.4940e+02   997.8848 0.0000e+00
      0.155    21.5537     6.8136     76.893  30.351388     32.575      9.161   269.1910     1.8506     1.1450     0.0217     -0.002      0.152      0.220        122 4.4498e+02   997.8862 0.0000e+00
      0.157    21.5487     7.0479     79.546  30.390259     32.640      9.154   269.3803     1.8697     1.1161     0.0217     -0.001      0.153      0.222        123 4.3519e+02   997.8879 0.0000e+00
      0.156    21.5430     7.2224     81.552  30.404024     32.645      9.148   269.6453     1.8811     1.0440     0.0217      0.000      0.153      0.222        124 4.3727e+02   997.8894 0.0000e+00
      0.156    21.5445     7.3354     82.904  30.393514     32.649      9.141   269.8724     1.8506     1.1161     0.0217      0.001      0.151      0.220        125 4.3385e+02   997.8906 0.0000e+00
      0.152    21.5454     7.3738     83.414  30.403342     32.652      9.134   269.6453     1.8582     1.0152     0.0217      0.002      0.145      0.210        126 4.7239e+02   997.8917 0.0000e+00
      0.138    21.4901     7.3501     83.187  30.391795     32.652      9.128   269.3045     1.8811     1.0873     0.0217     -0.002      0.126      0.183        127 5.2147e+02   997.8914 0.0000e+00
      0.096    21.4038     7.2796     82.403  30.348630     32.590      9.125   269.6074     1.8582     1.0873     0.0217     -0.017      0.087      0.126        128 6.9820e+02   997.8910 0.0000e+00
      0.030    21.3528     7.1929     81.439  30.397812     32.689      9.125   269.5695     1.8811     1.0296     0.0217     -0.046      0.035      0.051        129 9.1295e+02   997.9030 0.0000e+00
     -0.017    21.3265     7.1225     80.660  30.389861     32.752      9.123   296.8646     1.7896     1.1306     0.0217     -0.079     -0.007     -0.010        130 8.2453e+02   997.9219 0.0000e+00
     -0.033    21.3097     7.0765     80.157  30.358554     32.726      9.116   298.2653     1.7972     1.1161     0.0217     -0.104     -0.028     -0.041        131 7.4616e+02   997.9330 0.0000e+00
     -0.039    21.3037     7.0562     79.963  30.436797     32.866      9.085   297.1296     1.8086     1.1882     0.0217     -0.117     -0.038     -0.055        132 7.8361e+02   997.9388 0.0000e+00
     -0.047    21.3090     7.0549     79.941  30.411006     32.817      9.065   296.9403     1.8124     1.2027     0.0217     -0.120     -0.045     -0.065        133 7.6139e+02   997.9425 0.0000e+00
     -0.052    21.3330     7.0571     79.842  30.390656     32.822      9.055   296.9782     1.8201     0.9864     0.0217     -0.111     -0.048     -0.069        134 7.1512e+02   997.9438 0.0000e+00
     -0.047    21.3791     7.0489     79.649  30.402871     32.817      9.047   297.0539     1.6103     1.0873     0.0217     -0.089     -0.043     -0.062        135 6.5258e+02   997.9427 0.0000e+00
     -0.033    21.4263     7.0754     79.910  30.395801     32.801      9.044   296.9403     1.6179     1.0585     0.0217     -0.054     -0.031     -0.045        136 5.3779e+02   997.9375 0.0000e+00
     -0.015    21.4513     7.1448     80.688  30.458695     32.828      9.046   297.0539     1.6293     1.1161     0.0217     -0.018     -0.016     -0.024        137 4.1453e+02   997.9274 0.0000e+00
     -0.002    21.4610     7.2226     81.575  30.502339     32.855      9.037   296.7132     1.6255     1.1594     0.0218      0.008     -0.004     -0.006        138 3.7921e+02   997.9170 0.0000e+00
      0.005    21.4709     7.3005     82.468  30.519227     32.837      9.026   296.2968     1.7438     1.0152     0.0218      0.022      0.004      0.005        139 3.6875e+02   997.9116 0.0000e+00
      0.009    21.4826     7.3605     83.150  30.496920     32.831      9.012   295.9939     1.7323     1.1450     0.0218      0.031      0.009      0.012        140 3.6165e+02   997.9094 0.0000e+00
      0.013    21.4945     7.3957     83.553  30.470842     32.763      9.001   296.3346     1.7667     1.0729     0.0217      0.036      0.012      0.017        141 3.6226e+02   997.9072 0.0000e+00
      0.015    21.5184     7.4047     83.643  30.492424     32.815      8.991   296.3346     1.7362     1.0873     0.0218      0.036      0.012      0.017        142 3.4696e+02   997.9046 0.0000e+00
      0.009    21.5097     7.3765     83.317  30.410804     32.686      8.990   296.1832     1.8392     1.1882     0.0217      0.029      0.004      0.005        143 3.7539e+02   997.9019 0.0000e+00
     -0.015    21.4349     7.3007     82.456  30.335403     32.610      8.980   295.2746     1.8430     1.0296     0.0217      0.012     -0.016     -0.023        144 4.1662e+02   997.8966 0.0000e+00
     -0.044    21.3684     7.2049     81.367  30.349247     32.614      8.964   294.5553     1.8468     1.1450     0.0217     -0.009     -0.038     -0.056        145 4.5759e+02   997.8984 0.0000e+00
     -0.058    21.3443     7.0949     80.117  30.393582     32.730      8.952   293.7982     1.8582     1.1450     0.0217     -0.028     -0.053     -0.076        146 4.3699e+02   997.9149 0.0000e+00
     -0.059    21.3394     6.9897     78.927  30.398756     32.775      8.953   283.5767     1.6293     1.1882     0.0217     -0.039     -0.056     -0.081        147 4.8399e+02   997.9295 0.0000e+00
     -0.055    21.3456     6.8960     77.855  30.402085     32.793      8.946   276.8003     1.6522     1.0729     0.0217     -0.044     -0.052     -0.075        148 6.0460e+02   997.9348 0.0000e+00
     -0.045    21.3524     6.8144     76.889  30.389452     32.796      8.945   293.5710     1.5912     1.0296     0.0217     -0.041     -0.044     -0.063        149 6.3234e+02   997.9359 0.0000e+00
     -0.030    21.3569     6.7734     76.394  30.355229     32.732      8.935   276.1946     1.6103     1.1161     0.0217     -0.029     -0.034     -0.049        150 7.0979e+02   997.9347 0.0000e+00
     -0.028    21.3588     6.8051     76.739  30.385423     32.786      8.921   275.2481     1.7781     1.1738     0.0217     -0.013     -0.033     -0.049        151 8.6767e+02   997.9332 0.0000e+00
     -0.047    21.3528     6.8942     77.745  30.351875     32.724      8.913   274.7181     1.7857     1.1017     0.0217     -0.001     -0.043     -0.062        152 1.0608e+03   997.9321 0.0000e+00
     -0.053    21.3472     6.9934     78.894  30.337724     32.721      8.905   273.8474     1.8048     1.0873     0.0217      0.005     -0.051     -0.073        153 1.0952e+03   997.9316 0.0000e+00
     -0.055    21.3443     7.0870     79.999  30.343780     32.727      8.896   273.6203     1.7781     1.0873     0.0217      0.004     -0.057     -0.083        154 1.0489e+03   997.9330 0.0000e+00
     -0.070    21.3397     7.1549     80.800  30.344341     32.730      8.885   273.1660     1.8124     1.0729     0.0217     -0.005     -0.065     -0.094        155 1.0791e+03   997.9342 0.0000e+00
     -0.072    21.3355     7.1806     81.105  30.396280     32.793      8.877   272.9010     1.7705     1.1306     0.0217     -0.014     -0.070     -0.101        156 1.0227e+03   997.9347 0.0000e+00
     -0.071    21.3340     7.1673     80.982  30.338394     32.735      8.868   272.2574     1.7171     1.1017     0.0217     -0.021     -0.071     -0.103        157 8.0219e+02   997.9357 0.0000e+00
     -0.073    21.3235     7.1150     80.416  30.268251     32.648      8.855   272.1438     1.7476     1.0873     0.0217     -0.024     -0.079     -0.114        158 8.3456e+02   997.9366 0.0000e+00
     -0.099    21.2953     7.0326     79.507  30.335446     32.740      8.845   292.1325     1.7476     1.2315     0.0217     -0.027     -0.103     -0.149        159 1.0787e+03   997.9368 0.0000e+00
     -0.146    21.2731     6.9311     78.380  30.402903     32.807      8.840   291.2996     1.7781     1.0296     0.0217     -0.037     -0.131     -0.190        160 1.1134e+03   997.9390 0.0000e+00
     -0.151    21.2644     6.8404     77.367  30.391686     32.828      8.830   290.4289     1.7552     1.1161     0.0217     -0.047     -0.144     -0.209        161 1.0884e+03   997.9452 0.0000e+00
     -0.148    21.2658     6.7588     76.447  30.349414     32.783      8.817   290.2017     1.7400     1.1450     0.0217     -0.052     -0.143     -0.208        162 1.1097e+03   997.9501 0.0000e+00
     -0.142    21.2855     6.7090     75.831  30.396267     32.849      8.802   289.9746     1.7514     1.0585     0.0217     -0.049     -0.136     -0.198        163 1.0757e+03   997.9521 0.0000e+00
     -0.129    21.3169     6.6999     75.670  30.392633     32.849      8.795   290.1260     1.6789     1.2315     0.0217     -0.042     -0.124     -0.180        164 1.0905e+03   997.9518 0.0000e+00
     -0.109    21.3383     6.7139     75.788  30.353936     32.774      8.783   274.7181     1.6713     1.1017     0.0217     -0.027     -0.107     -0.156        165 1.0207e+03   997.9475 0.0000e+00
     -0.091    21.3489     6.7460     76.124  30.385166     32.812      8.774   273.7717     1.6751     1.0873     0.0217     -0.004     -0.091     -0.131        166 7.4918e+02   997.9407 0.0000e+00
     -0.078    21.3653     6.7796     76.478  30.353755     32.736      8.763   273.5446     1.6751     1.0296     0.0217      0.023     -0.073     -0.106        167 7.1542e+02   997.9360 0.0000e+00
     -0.053    21.3811     6.8019     76.707  30.333765     32.730      8.754   272.5981     1.7552     1.1738     0.0217      0.048     -0.051     -0.075        168 7.6667e+02   997.9338 0.0000e+00
     -0.026    21.3959     6.8241     76.945  30.350788     32.717      8.749   272.2195     1.7743     1.1738     0.0217      0.062     -0.027     -0.040        169 7.1299e+02   997.9304 0.0000e+00
     -0.005    21.4085     6.8320     77.029  30.332566     32.706      8.739   271.9167     1.7743     1.0440     0.0217      0.072     -0.008     -0.012        170 7.6429e+02   997.9269 0.0000e+00
      0.004    21.4185     6.8325     77.138  30.267557     32.606      8.733   271.2731     1.7514     1.0873     0.0217      0.076      0.002      0.003        171 7.4201e+02   997.9237 0.0000e+00
      0.009    21.4177     6.9107     78.309  30.253929     32.596      8.724   271.0460     1.8010     1.1306     0.0217      0.073      0.006      0.008        172 7.7415e+02   997.9209 0.0000e+00
      0.005    21.3849     7.2118     81.955  30.349522     32.681      8.721   271.0838     1.8048     1.1450     0.0217      0.064     -0.002     -0.002        173 8.7767e+02   997.9187 0.0000e+00
     -0.023    21.3439     7.7066     87.722  30.326346     32.679      8.713   270.7053     1.8010     1.0008     0.0217      0.044     -0.018     -0.026        174 6.9446e+02   997.9188 0.0000e+00
     -0.035    21.3174     8.2082     93.516  30.282772     32.614      8.709   270.6295     1.7972     1.0585     0.0217      0.022     -0.033     -0.048        175 6.9585e+02   997.9260 0.0000e+00
     -0.045    21.2993     8.6737     98.871  30.314881     32.733      8.702   270.6295     1.7857     1.0873     0.0217     -0.002     -0.047     -0.067        176 8.7822e+02   997.9349 0.0000e+00
     -0.064    21.2831     9.0655    103.366  30.286402     32.661      8.697   271.1974     1.8315     1.0585     0.0217     -0.025     -0.063     -0.092        177 9.0565e+02   997.9407 0.0000e+00
     -0.085    21.2674     9.3596    106.738  30.318226     32.764      8.691   290.2017     1.8124     1.1161     0.0217     -0.044     -0.081     -0.118        178 9.5810e+02   997.9447 0.0000e+00
     -0.101    21.2589     9.5394    108.798  30.364161     32.776      8.679   290.2396     1.8124     1.1450     0.0217     -0.057     -0.091     -0.132        179 9.8298e+02   997.9481 0.0000e+00
     -0.090    21.2548     9.6131    109.642  30.318121     32.787      8.666   273.2796     1.7896     1.1594     0.0217     -0.057     -0.087     -0.127        180 1.0054e+03   997.9516 0.0000e+00
     -0.079    21.3296     9.5721    109.168  30.286650     32.702      8.657   272.3710     1.6026     1.2171     0.0217     -0.046     -0.079     -0.116        181 1.0157e+03   997.9535 0.0000e+00
     -0.077    21.5100     9.4794    108.104  30.492208     32.976      8.649   272.0303     1.6217     1.2027     0.0218     -0.031     -0.074     -0.107        182 9.8628e+02   997.9545 0.0000e+00
     -0.067    21.6623     9.3860    107.030  30.625197     33.048      8.637   271.8410     1.6293     1.1306     0.0218     -0.017     -0.069     -0.100        183 9.9405e+02   997.9381 0.0000e+00
     -0.068    21.7448     9.2960    105.998  30.624757     32.913      8.629   271.5003     1.6179     1.0873     0.0218     -0.004     -0.067     -0.097        184 1.0056e+03   997.8982 0.0000e+00
     -0.067    21.7935     9.2233    105.169  30.670450     32.868      8.623   271.0081     1.6446     1.0873     0.0218      0.008     -0.066     -0.096        185 9.9777e+02   997.8643 0.0000e+00
     -0.066    21.8196     9.1539    104.380  30.686776     32.809      8.617   270.8945     1.6217     1.1017     0.0218      0.015     -0.065     -0.093        186 9.8114e+02   997.8458 0.0000e+00
     -0.063    21.8351     9.1050    103.829  30.722906     32.836      8.616   270.6295     1.6255     1.1161     0.0219      0.017     -0.062     -0.089        187 9.6458e+02   997.8350 0.0000e+00
     -0.059    21.8435     9.0642    103.366  30.684720     32.757      8.610   270.1753     1.6293     1.1450     0.0218      0.013     -0.058     -0.084        188 9.6097e+02   997.8290 0.0000e+00
     -0.055    21.8486     9.0395    103.082  30.675033     32.747      8.608   270.5538     1.5988     1.1017     0.0218      0.010     -0.054     -0.079        189 9.5952e+02   997.8255 0.0000e+00
     -0.052    21.8497     9.0227    102.895  30.675700     32.741      8.607   270.3267     1.6408     1.0296     0.0218      0.010     -0.051     -0.074        190 9.6309e+02   997.8237 0.0000e+00
     -0.050    21.8474     9.0180    102.848  30.683886     32.737      8.602   270.0995     1.6332     1.1161     0.0218      0.010     -0.049     -0.070        191 9.6071e+02   997.8226 0.0000e+00
     -0.047    21.8435     9.0222    102.905  30.724096     32.796      8.598   270.4024     1.6255     1.1594     0.0219      0.011     -0.047     -0.068        192 9.5658e+02   997.8223 0.0000e+00
     -0.046    21.8395     9.0289    102.987  30.684910     32.738      8.594   270.5160     1.7133     1.2603     0.0218      0.012     -0.045     -0.065        193 9.5357e+02   997.8229 0.0000e+00
     -0.044    21.8369     9.0389    103.102  30.673401     32.741      8.587   270.1753     1.7133     1.2459     0.0218      0.011     -0.043     -0.061        194 9.5115e+02   997.8237 0.0000e+00
     -0.041    21.8366     9.0470    103.194  30.679168     32.744      8.586   270.0617     1.7400     1.3469     0.0218      0.010     -0.038     -0.055        195 9.4352e+02   997.8246 0.0000e+00
     -0.033    21.8379     9.0512    103.240  30.677735     32.746      8.582   269.8724     1.7667     1.4045     0.0218      0.011     -0.028     -0.040        196 8.7958e+02   997.8252 0.0000e+00
     -0.011    21.8413     9.0436    103.159  30.675187     32.746      8.582   269.5695     1.7285     1.3180     0.0218      0.017     -0.008     -0.011        197 7.8804e+02   997.8254 0.0000e+00
      0.020    21.8425     9.0404    103.132  30.682338     32.745      8.569   269.2288     1.7323     1.0008     0.0218      0.029      0.019      0.027        198 7.3554e+02   997.8253 0.0000e+00
      0.048    21.8414     9.0325    103.053  30.668835     32.743      8.562   269.0017     1.7476     1.0440     0.0218      0.044      0.041      0.060        199 7.2962e+02   997.8246 0.0000e+00
      0.058    21.8434     9.0153    102.873  30.632739     32.682      8.555   268.9638     1.7438     0.9719     0.0218      0.056      0.051      0.074        200 7.4525e+02   997.8244 0.0000e+00
      0.050    21.8472     9.0036    102.749  30.668006     32.743      8.549   269.1531     1.7476     1.1882     0.0218      0.060      0.050      0.073        201 7.1380e+02   997.8246 0.0000e+00
      0.048    21.8515     8.9922    102.618  30.684200     32.741      8.549   269.0774     1.7896     1.0296     0.0218      0.058      0.048      0.071        202 6.7488e+02   997.8242 0.0000e+00
      0.050    21.8543     8.9758    102.429  30.731090     32.798      8.549   269.1531     1.8048     1.1161     0.0219      0.050      0.049      0.072        203 6.5316e+02   997.8233 0.0000e+00
      0.053    21.8548     8.9665    102.316  30.728154     32.795      8.547   269.2288     1.7857     1.1161     0.0219      0.038      0.049      0.072        204 6.8277e+02   997.8224 0.0000e+00
      0.046    21.8541     8.9629    102.268  30.687850     32.733      8.545   269.3424     1.8315     1.1017     0.0218      0.021      0.043      0.063        205 8.0073e+02   997.8217 0.0000e+00
      0.034    21.8536     8.9631    102.266  30.721993     32.793      8.542   269.5695     1.5836     1.0873     0.0219      0.003      0.030      0.044        206 8.1304e+02   997.8215 0.0000e+00
      0.015    21.8563     8.9751    102.399  30.685665     32.734      8.538   269.1531     1.6103     1.1161     0.0218     -0.014      0.008      0.013        207 8.1598e+02   997.8216 0.0000e+00
     -0.023    21.8610     8.9864    102.526  30.673807     32.734      8.533   269.0395     1.6332     1.1594     0.0218     -0.030     -0.023     -0.032        208 9.1444e+02   997.8215 0.0000e+00
     -0.058    21.8670     8.9918    102.587  30.677497     32.732      8.531   269.2667     1.6255     1.2171     0.0218     -0.048     -0.055     -0.080        209 9.5767e+02   997.8208 0.0000e+00
     -0.087    21.8747     9.0024    102.706  30.740324     32.788      8.527   291.1482     1.6980     1.0873     0.0219     -0.069     -0.079     -0.115        210 1.0094e+03   997.8197 0.0000e+00
     -0.097    21.8794     9.0145    102.845  30.773375     32.844      8.520   290.6560     1.6980     1.1450     0.0219     -0.083     -0.089     -0.129        211 1.0493e+03   997.8182 0.0000e+00
     -0.087    21.8793     9.0272    102.986  30.695616     32.719      8.514   290.7696     1.6599     1.0729     0.0218     -0.085     -0.086     -0.125        212 1.0275e+03   997.8165 0.0000e+00
     -0.082    21.8779     9.0315    103.026  30.718585     32.775      8.510   290.9967     1.6751     1.0873     0.0219     -0.076     -0.081     -0.118        213 1.0293e+03   997.8155 0.0000e+00
     -0.081    21.8750     9.0235    102.924  30.744789     32.776      8.505   291.0725     1.5759     1.1017     0.0219     -0.060     -0.079     -0.115        214 1.0501e+03   997.8154 0.0000e+00
     -0.081    21.8715     9.0142    102.808  30.722259     32.776      8.500   290.9967     1.5683     1.0296     0.0219     -0.039     -0.078     -0.113        215 1.0377e+03   997.8159 0.0000e+00
     -0.075    21.8691     9.0158    102.819  30.687370     32.719      8.495   291.0725     1.5607     1.1450     0.0218     -0.016     -0.074     -0.108        216 1.0256e+03   997.8165 0.0000e+00
     -0.071    21.8668     9.0187    102.849  30.728955     32.781      8.491   290.9967     1.5530     1.1450     0.0219      0.001     -0.071     -0.103        217 1.0246e+03   997.8173 0.0000e+00
     -0.071    21.8661     9.0156    102.816  30.729762     32.783      8.488   291.4889     1.5607     1.1161     0.0219      0.011     -0.070     -0.101        218 1.0218e+03   997.8179 0.0000e+00
     -0.072    21.8662     9.0044    102.691  30.686367     32.725      8.482   290.9210     1.5683     1.0152     0.0218      0.011     -0.070     -0.101        219 1.0166e+03   997.8184 0.0000e+00
     -0.072    21.8655     8.9939    102.568  30.723708     32.785      8.480   291.0725     1.5569     1.0008     0.0219      0.008     -0.070     -0.101        220 1.0176e+03   997.8185 0.0000e+00
     -0.070    21.8653     9.0012    102.639  30.683294     32.725      8.477   277.4438     1.5378     1.1017     0.0218      0.006     -0.067     -0.096        221 1.0126e+03   997.8184 0.0000e+00
     -0.060    21.8636     9.0073    102.694  30.677410     32.726      8.479   276.2324     1.5759     1.1161     0.0218      0.008     -0.059     -0.085        222 1.0081e+03   997.8186 0.0000e+00
     -0.051    21.8588     9.0120    102.735  30.731030     32.785      8.477   275.2481     1.5530     1.1161     0.0219      0.011     -0.049     -0.071        223 9.8390e+02   997.8188 0.0000e+00
     -0.040    21.8532     9.0140    102.752  30.675816     32.727      8.468   274.4531     1.5721     1.0585     0.0218      0.015     -0.038     -0.056        224 9.9882e+02   997.8192 0.0000e+00
     -0.026    21.8483     9.0233    102.852  30.686871     32.730      8.459   274.0367     1.5569     1.1017     0.0218      0.021     -0.025     -0.036        225 9.7192e+02   997.8204 0.0000e+00
     -0.010    21.8449     9.0331    102.955  30.717276     32.794      8.449   273.0903     1.5607     1.1450     0.0219      0.030     -0.009     -0.014        226 7.8617e+02   997.8218 0.0000e+00
      0.008    21.8433     9.0468    103.102  30.637981     32.678      8.434   273.1281     1.5187     1.2748     0.0218      0.040      0.006      0.009        227 7.4396e+02   997.8229 0.0000e+00
      0.022    21.8443     9.0611    103.259  30.667049     32.740      8.424   272.6360     1.4996     1.1306     0.0218      0.048      0.020      0.029        228 7.7298e+02   997.8237 0.0000e+00
      0.032    21.8459     9.0609    103.250  30.740355     32.801      8.424   272.2195     1.4882     1.1306     0.0219      0.052      0.031      0.045        229 7.3964e+02   997.8242 0.0000e+00
      0.042    21.8440     9.0575    103.204  30.724511     32.800      8.428   271.9167     1.4958     1.0873     0.0219      0.053      0.041      0.060        230 7.5251e+02   997.8240 0.0000e+00
      0.052    21.8379     9.0565    103.182  30.686765     32.739      8.437   271.2731     1.6141     1.0729     0.0218      0.053      0.052      0.075        231 7.3676e+02   997.8236 0.0000e+00
      0.064    21.8308     9.0556    103.151  30.668824     32.741      8.440   271.0081     1.6141     1.1161     0.0218      0.051      0.063      0.092        232 7.1190e+02   997.8241 0.0000e+00
      0.078    21.8248     9.0426    102.968  30.687589     32.745      8.441   270.8567     1.6179     1.0585     0.0218      0.049      0.077      0.112        233 7.0678e+02   997.8255 0.0000e+00
      0.093    21.8217     9.0454    102.952  30.663414     32.750      8.433   270.7810     1.6026     0.9719     0.0218      0.048      0.092      0.134        234 6.9451e+02   997.8272 0.0000e+00
      0.110    21.8187     9.0435    102.872  30.639658     32.695      8.420   270.0238     1.7400     1.1882     0.0218      0.048      0.109      0.158        235 6.7277e+02   997.8286 0.0000e+00
      0.129    21.8138     9.0400    102.788  30.717157     32.816      8.410   269.9481     1.7400     1.1450     0.0219      0.052      0.125      0.182        236 6.4681e+02   997.8294 0.0000e+00
      0.143    21.8095     9.0356    102.717  30.685476     32.758      8.409   269.8345     1.7743     1.1161     0.0218      0.056      0.140      0.203        237 6.1778e+02   997.8301 0.0000e+00
      0.155    21.8064     9.0262    102.602  30.619832     32.702      8.417   269.7210     1.7400     1.0296     0.0218      0.058      0.152      0.220        238 6.0546e+02   997.8313 0.0000e+00
      0.168    21.8029     9.0256    102.591  30.680346     32.765      8.424   269.8724     1.7552     1.0585     0.0218      0.059      0.164      0.239        239 5.9121e+02   997.8323 0.0000e+00
      0.181    21.7993     9.0364    102.710  30.669422     32.767      8.430   269.6831     1.7552     1.1738     0.0218      0.058      0.178      0.259        240 5.5523e+02   997.8330 0.0000e+00
      0.198    21.7944     9.0492    102.853  30.633429     32.710      8.430   269.8345     1.7552     1.1161     0.0218      0.058      0.195      0.283        241 5.3891e+02   997.8339 0.0000e+00
      0.218    21.7836     9.0571    102.930  30.665888     32.772      8.422   270.2131     1.7476     1.1738     0.0218      0.058      0.213      0.308        242 5.2863e+02   997.8348 0.0000e+00
      0.234    21.7662     9.0712    103.070  30.629028     32.716      8.417   269.5695     1.7476     1.1161     0.0218      0.059      0.232      0.336        243 5.0242e+02   997.8360 0.0000e+00
      0.259    21.7419     9.0789    103.140  30.620051     32.723      8.415   269.8724     1.7514     1.3324     0.0218      0.062      0.256      0.371        244 4.7073e+02   997.8385 0.0000e+00
      0.291    21.7132     9.0833    103.181  30.617814     32.735      8.412   269.5695     1.7857     1.4622     0.0218      0.070      0.283      0.411        245 4.4302e+02   997.8426 0.0000e+00
      0.317    21.6909     9.0948    103.300  30.572568     32.693      8.409   269.2667     1.7323     1.3036     0.0218      0.079      0.308      0.447        246 4.2425e+02   997.8482 0.0000e+00
      0.334    21.6802     9.0957    103.296  30.617116     32.773      8.409   269.4181     1.7438     1.2748     0.0218      0.085      0.326      0.472        247 4.1377e+02   997.8547 0.0000e+00
      0.345    21.6762     9.0835    103.151  30.621638     32.788      8.404   269.2288     1.8086     1.0873     0.0218      0.086      0.338      0.490        248 3.9511e+02   997.8597 0.0000e+00
      0.355    21.6738     9.0665    102.955  30.626202     32.796      8.402   269.7588     1.8010     1.0729     0.0218      0.083      0.347      0.504        249 3.8221e+02   997.8622 0.0000e+00
      0.363    21.6723     9.0462    102.720  30.611442     32.799      8.398   269.4938     1.7896     1.1161     0.0218      0.076      0.356      0.516        250 3.7518e+02   997.8631 0.0000e+00
      0.370    21.6705     9.0258    102.486  30.580757     32.740      8.396   269.3803     1.7934     1.0873     0.0218      0.066      0.364      0.529        251 3.6025e+02   997.8637 0.0000e+00
      0.380    21.6642     8.9984    102.179  30.605138     32.801      8.395   269.4938     1.8773     1.3036     0.0218      0.055      0.377      0.546        252 3.5009e+02   997.8641 0.0000e+00
      0.401    21.6539     8.9780    101.954  30.581100     32.743      8.398   269.6453     1.9002     1.3613     0.0218      0.047      0.397      0.575        253 3.3473e+02   997.8645 0.0000e+00
      0.431    21.6455     8.9658    101.821  30.551421     32.747      8.399   269.8724     1.8811     1.4189     0.0218      0.049      0.422      0.613        254 3.2129e+02   997.8661 0.0000e+00
      0.459    21.6409     8.9557    101.711  30.582825     32.754      8.391   270.1753     1.8392     1.4189     0.0218      0.057      0.450      0.653        255 3.1434e+02   997.8685 0.0000e+00
      0.486    21.6349     8.9600    101.751  30.601276     32.820      8.381   269.9103     1.9765     1.0729     0.0218      0.068      0.476      0.691        256 3.0573e+02   997.8705 0.0000e+00
      0.511    21.6280     8.9608    101.745  30.528462     32.704      8.379   270.2131     2.0032     1.0729     0.0218      0.080      0.498      0.723        257 2.9795e+02   997.8716 0.0000e+00
      0.527    21.6247     8.9623    101.749  30.554937     32.768      8.372   269.9481     1.9956     1.0873     0.0218      0.088      0.516      0.748        258 2.9190e+02   997.8730 0.0000e+00
      0.541    21.6229     8.9653    101.779  30.568331     32.773      8.374   270.2888     1.9765     1.1161     0.0218      0.091      0.528      0.765        259 2.8324e+02   997.8747 0.0000e+00
      0.546    21.6208     8.9571    101.683  30.571048     32.775      8.374   270.0617     2.0108     1.1594     0.0218      0.087      0.533      0.774        260 2.8251e+02   997.8754 0.0000e+00
      0.545    21.6196     8.9422    101.512  30.610808     32.836      8.373   270.4403     1.8926     1.0873     0.0218      0.073      0.533      0.774        261 2.8328e+02   997.8758 0.0000e+00
      0.541    21.6219     8.9235    101.299  30.578103     32.778      8.373   270.1374     1.9383     1.1882     0.0218      0.055      0.531      0.770        262 2.8505e+02   997.8763 0.0000e+00
      0.539    21.6256     8.9087    101.131  30.552498     32.779      8.373   270.5917     1.9421     1.1450     0.0218      0.037      0.531      0.770        263 2.8180e+02   997.8765 0.0000e+00
      0.545    21.6284     8.8889    100.909  30.524170     32.717      8.377   270.5538     1.9116     1.0296     0.0218      0.023      0.536      0.778        264 2.7631e+02   997.8760 0.0000e+00
      0.556    21.6300     8.8735    100.740  30.554105     32.774      8.380   270.7053     1.9994     1.1738     0.0218      0.014      0.549      0.796        265 2.6822e+02   997.8752 0.0000e+00
      0.577    21.6258     8.8572    100.559  30.574496     32.772      8.383   270.9324     1.9765     1.1306     0.0218      0.015      0.569      0.826        266 2.5365e+02   997.8747 0.0000e+00
      0.610    21.6179     8.8393    100.357  30.558044     32.771      8.380   270.7810     1.9956     1.0152     0.0218      0.026      0.595      0.863        267 2.4681e+02   997.8745 0.0000e+00
      0.631    21.6120     8.8350    100.305  30.574579     32.774      8.377   271.0838     1.9956     1.0873     0.0218      0.041      0.616      0.894        268 2.3566e+02   997.8755 0.0000e+00
      0.644    21.6093     8.8425    100.388  30.553921     32.780      8.378   271.3867     1.9917     1.1161     0.0218      0.055      0.629      0.912        269 2.2952e+02   997.8773 0.0000e+00
      0.648    21.6083     8.8593    100.566  30.583754     32.784      8.374   271.5381     1.9803     1.0008     0.0218      0.064      0.636      0.922        270 2.2322e+02   997.8787 0.0000e+00
      0.653    21.6072     8.8741    100.694  30.596706     32.846      8.377   271.7653     2.0108     1.1594     0.0218      0.065      0.642      0.932        271 2.1608e+02   997.8793 0.0000e+00
      0.665    21.6067     8.8897    100.825  30.537805     32.727      8.375   271.8031     1.9765     1.1017     0.0218      0.062      0.652      0.945        272 2.1126e+02   997.8796 0.0000e+00
      0.676    21.6064     8.8922    100.815  30.597804     32.847      8.379   272.0303     2.1176     1.2748     0.0218      0.056      0.662      0.959        273 2.0545e+02   997.8799 0.0000e+00
      0.683    21.6079     8.8973    100.841  30.581290     32.788      8.378   272.2195     2.0909     1.2603     0.0218      0.046      0.668      0.968        274 2.0647e+02   997.8800 0.0000e+00
      0.683    21.6112     8.8929    100.770  30.558356     32.788      8.376   271.9924     2.0986     1.3469     0.0218      0.035      0.670      0.972        275 2.0937e+02   997.8801 0.0000e+00
      0.683    21.6133     8.8977    100.799  30.567093     32.787      8.376   272.5603     2.0947     1.3324     0.0218      0.027      0.672      0.975        276 2.1493e+02   997.8798 0.0000e+00
      0.689    21.6139     8.8974    100.781  30.570419     32.784      8.370   272.2195     2.0108     1.0296     0.0218      0.024      0.676      0.980        277 2.1717e+02   997.8790 0.0000e+00
      0.693    21.6126     8.8992    100.803  30.613470     32.843      8.371   272.3331     1.9879     1.1017     0.0218      0.022      0.683      0.990        278 2.1838e+02   997.8786 0.0000e+00
      0.707    21.6111     8.9005    100.824  30.572767     32.782      8.369   272.6738     1.9803     1.1594     0.0218      0.021      0.696      1.010        279 2.2130e+02   997.8785 0.0000e+00
      0.730    21.6043     8.9012    100.829  30.561820     32.783      8.367   272.5224     1.9689     1.0296     0.0218      0.025      0.718      1.042        280 2.2010e+02   997.8789 0.0000e+00
      0.761    21.5841     8.8816    100.603  30.508590     32.725      8.363   272.7117     1.9841     1.1161     0.0218      0.035      0.746      1.083        281 2.1753e+02   997.8794 0.0000e+00
      0.792    21.5606     8.8611    100.350  30.461255     32.669      8.362   272.8253     2.0909     1.2748     0.0217      0.051      0.774      1.123        282 2.1302e+02   997.8810 0.0000e+00
      0.814    21.5413     8.8447    100.063  30.442973     32.684      8.359   272.7874     2.1024     1.3036     0.0217      0.067      0.796      1.154        283 2.1033e+02   997.8856 0.0000e+00
      0.828    21.5252     8.8241     99.711  30.412845     32.640      8.355   273.1281     2.0947     1.4334     0.0217      0.079      0.813      1.179        284 2.1094e+02   997.8908 0.0000e+00
      0.846    21.5135     8.8005     99.374  30.439508     32.714      8.357   273.4688     2.1138     1.3613     0.0217      0.086      0.833      1.208        285 2.0588e+02   997.8953 0.0000e+00
      0.876    21.5015     8.7764     99.076  30.409801     32.665      8.356   273.2038     2.3122     1.3613     0.0217      0.091      0.854      1.239        286 2.0263e+02   997.8991 0.0000e+00
      0.889    21.4938     8.7533     98.813  30.390570     32.673      8.350   273.3553     2.2817     1.3180     0.0217      0.090      0.869      1.261        287 2.0184e+02   997.9017 0.0000e+00
      0.895    21.4945     8.7295     98.538  30.404195     32.682      8.353   273.5446     2.2778     1.3180     0.0217      0.081      0.877      1.272        288 2.0069e+02   997.9043 0.0000e+00
      0.899    21.4971     8.7203     98.403  30.452101     32.747      8.352   273.6203     2.3007     1.3324     0.0217      0.069      0.881      1.278        289 2.0140e+02   997.9060 0.0000e+00
      0.901    21.4959     8.7073     98.202  30.449457     32.747      8.354   273.7338     2.3046     1.0440     0.0217      0.057      0.885      1.283        290 2.0085e+02   997.9059 0.0000e+00
      0.904    21.4948     8.6976     98.046  30.407484     32.685      8.353   273.8474     2.2931     1.0440     0.0217      0.046      0.890      1.291        291 2.0238e+02   997.9053 0.0000e+00
      0.916    21.4819     8.7260     98.298  30.445084     32.745      8.355   274.0746     2.2969     1.0873     0.0217      0.039      0.905      1.313        292 2.0103e+02   997.9056 0.0000e+00
      0.950    21.4311     8.7434     98.423  30.461919     32.747      8.352   274.2638     2.3046     1.1882     0.0217      0.037      0.934      1.354        293 1.9666e+02   997.9060 0.0000e+00
      0.990    21.3701     8.7627     98.584  30.445788     32.754      8.348   274.4153     2.2321     1.4045     0.0217      0.045      0.967      1.403        294 1.9479e+02   997.9091 0.0000e+00
      1.017    21.3338     8.7839     98.789  30.405914     32.731      8.347   274.5667     2.2397     1.2892     0.0217      0.060      0.993      1.440        295 1.9390e+02   997.9204 0.0000e+00
      1.030    21.3206     8.7771     98.693  30.393055     32.775      8.344   274.4910     2.2168     1.3036     0.0217      0.073      1.009      1.463        296 1.9332e+02   997.9340 0.0000e+00
      1.040    21.3186     8.7756     98.659  30.402562     32.800      8.344   274.3396     2.2244     1.3469     0.0217      0.082      1.020      1.479        297 1.9305e+02   997.9420 0.0000e+00
      1.051    21.3154     8.8116     99.044  30.394099     32.810      8.343   274.3396     2.5907     1.3613     0.0217      0.085      1.032      1.497        298 1.9082e+02   997.9450 0.0000e+00
      1.068    21.2987     8.8356     99.303  30.403592     32.811      8.342   274.8317     2.6135     1.3469     0.0217      0.083      1.046      1.519        299 1.8962e+02   997.9455 0.0000e+00
      1.084    21.2718     8.8388     99.340  30.390750     32.813      8.341   274.9831     2.5868     1.2171     0.0217      0.076      1.061      1.539        300 1.8905e+02   997.9462 0.0000e+00
      1.094    21.2458     8.8421     99.370  30.410085     32.824      8.340   274.9074     2.5907     1.2892     0.0217      0.064      1.072      1.555        301 1.8780e+02   997.9500 0.0000e+00
      1.104    21.2117     8.8548     99.474  30.379536     32.845      8.337   275.3238     2.5907     1.3324     0.0217      0.054      1.084      1.573        302 1.8819e+02   997.9560 0.0000e+00
      1.120    21.1737     8.8666     99.553  30.369526     32.802      8.335   275.8160     2.6860     1.3036     0.0217      0.051      1.103      1.600        303 1.8618e+02   997.9618 0.0000e+00
      1.151    21.1448     8.8691     99.535  30.422556     32.947      8.336   276.2703     2.6746     1.3180     0.0217      0.056      1.130      1.639        304 1.8296e+02   997.9694 0.0000e+00
      1.185    21.1270     8.8541     99.341  30.372807     32.853      8.336   276.3838     2.6517     1.3613     0.0217      0.066      1.160      1.684        305 1.8098e+02   997.9778 0.0000e+00
      1.214    21.1171     8.8286     99.026  30.372200     32.935      8.332   277.0274     2.6479     1.2748     0.0217      0.076      1.188      1.724        306 1.7862e+02   997.9842 0.0000e+00
      1.238    21.1082     8.8232     98.939  30.364073     32.886      8.331   277.1031     2.7127     1.3180     0.0217      0.085      1.213      1.759        307 1.7625e+02   997.9882 0.0000e+00
      1.260    21.0984     8.8085     98.749  30.323679     32.894      8.325   277.4438     2.7127     1.4334     0.0217      0.093      1.233      1.789        308 1.7449e+02   997.9905 0.0000e+00
      1.275    21.0929     8.7908     98.533  30.363222     32.900      8.322   277.1788     2.7127     1.2748     0.0217      0.097      1.248      1.810        309 1.7346e+02   997.9925 0.0000e+00
      1.282    21.0931     8.7642     98.227  30.433369     33.028      8.319   277.1031     2.7204     1.2459     0.0217      0.095      1.259      1.825        310 1.7227e+02   997.9947 0.0000e+00
      1.293    21.0887     8.7390     97.944  30.414142     32.971      8.319   277.5196     2.7242     1.2459     0.0217      0.086      1.272      1.844        311 1.7024e+02   997.9959 0.0000e+00
      1.314    21.0700     8.7266     97.796  30.446403     33.032      8.318   277.6710     2.7394     1.3324     0.0217      0.075      1.292      1.873        312 1.6798e+02   997.9960 0.0000e+00
      1.344    21.0418     8.7209     97.713  30.452473     33.035      8.315   277.7846     2.7127     1.4334     0.0217      0.070      1.318      1.912        313 1.6516e+02   997.9971 0.0000e+00
      1.375    21.0191     8.7176     97.652  30.347340     32.927      8.309   277.8981     2.7051     1.2892     0.0217      0.071      1.346      1.952        314 1.6336e+02   998.0013 0.0000e+00
      1.398    21.0049     8.7167     97.604  30.251363     32.856      8.308   278.2767     2.7356     1.3469     0.0217      0.076      1.369      1.986        315 1.6239e+02   998.0075 0.0000e+00
      1.417    20.9907     8.7385     97.794  30.216417     32.812      8.305   278.1631     2.7280     1.3324     0.0216      0.081      1.388      2.013        316 1.6141e+02   998.0125 0.0000e+00
      1.431    20.9766     8.7482     97.858  30.213085     32.852      8.304   278.4660     2.7051     1.3613     0.0216      0.085      1.403      2.035        317 1.6090e+02   998.0156 0.0000e+00
      1.445    20.9640     8.7488     97.831  30.107387     32.711      8.304   278.3524     2.7280     1.3324     0.0216      0.087      1.418      2.055        318 1.5962e+02   998.0187 0.0000e+00
      1.461    20.9546     8.7421     97.737  30.022081     32.660      8.300   278.5796     2.6898     1.3613     0.0216      0.084      1.430      2.073        319 1.5936e+02   998.0218 0.0000e+00
      1.467    20.9510     8.7222     97.511  29.993372     32.609      8.293   278.7310     2.7280     1.3324     0.0215      0.074      1.437      2.084        320 1.5997e+02   998.0245 0.0000e+00
      1.468    20.9498     8.6990     97.241  30.024618     32.676      8.294   278.9960     2.7165     1.2748     0.0216      0.061      1.441      2.090        321 1.6020e+02   998.0266 0.0000e+00
      1.472    20.9453     8.6685     96.882  30.042451     32.679      8.298   278.7310     2.7051     1.3324     0.0216      0.048      1.446      2.098        322 1.5988e+02   998.0274 0.0000e+00
      1.484    20.9355     8.6425     96.553  29.911930     32.558      8.303   279.6396     2.7051     1.3324     0.0215      0.040      1.460      2.118        323 1.5823e+02   998.0277 0.0000e+00
      1.512    20.9229     8.6152     96.180  29.890795     32.500      8.305   279.7153     2.6402     1.4910     0.0215      0.039      1.485      2.153        324 1.5566e+02   998.0288 0.0000e+00
      1.546    20.9027     8.5884     95.829  30.246510     32.932      8.305   279.9046     2.6746     1.6208     0.0217      0.046      1.516      2.199        325 1.5290e+02   998.0312 0.0000e+00
      1.580    20.8754     8.5688     95.507  30.565403     33.276      8.302   279.8667     2.6746     1.5920     0.0218      0.059      1.547      2.245        326 1.5023e+02   998.0342 0.0000e+00
      1.609    20.8517     8.5507     95.188  30.678977     33.412      8.301   280.0181     2.6670     1.5487     0.0218      0.074      1.577      2.288        327 1.4759e+02   998.0387 0.0000e+00
      1.638    20.8341     8.5262     94.848  30.668074     33.432      8.297   279.8667     2.4648     1.6352     0.0218      0.090      1.605      2.328        328 1.4518e+02   998.0447 0.0000e+00
      1.664    20.8244     8.4993     94.515  30.697488     33.449      8.296   280.0181     2.4953     1.5776     0.0218      0.104      1.630      2.364        329 1.4256e+02   998.0499 0.0000e+00
      1.686    20.8221     8.4701     94.166  30.760887     33.584      8.293   279.9424     2.4953     1.5920     0.0219      0.112      1.650      2.394        330 1.4127e+02   998.0538 0.0000e+00
      1.697    20.8161     8.4635     94.060  30.648435     33.408      8.292   279.9803     2.4838     1.6785     0.0218      0.109      1.664      2.414        331 1.4074e+02   998.0559 0.0000e+00
      1.707    20.8071     8.4774     94.140  30.600426     33.410      8.290   280.1696     2.3961     1.8660     0.0218      0.098      1.678      2.434        332 1.3874e+02   998.0564 0.0000e+00
      1.731    20.7852     8.5170     94.448  30.642878     33.414      8.290   280.5103     2.4037     1.7650     0.0218      0.088      1.699      2.464        333 1.3604e+02   998.0579 0.0000e+00
      1.760    20.7521     8.5630     94.826  30.802993     33.635      8.292   280.9267     2.4114     1.8371     0.0219      0.082      1.724      2.500        334 1.3396e+02   998.0600 0.0000e+00
      1.782    20.7219     8.6139     95.260  30.934447     33.771      8.291   280.9267     2.4343     1.7939     0.0219      0.079      1.748      2.535        335 1.3193e+02   998.0648 0.0000e+00
      1.807    20.6684     8.6791     95.843  31.219961     34.103      8.288   281.3431     2.4190     2.0390     0.0221      0.079      1.772      2.570        336 1.2975e+02   998.0722 0.0000e+00
      1.832    20.6062     8.7536     96.498  31.306870     34.276      8.289   281.7217     2.3923     1.9813     0.0221      0.082      1.796      2.605        337 1.2785e+02   998.0788 0.0000e+00
      1.855    20.5695     8.8129     97.028  30.915191     33.798      8.286   281.9489     2.3923     2.0967     0.0219      0.087      1.817      2.635        338 1.2645e+02   998.0901 0.0000e+00
      1.870    20.5515     8.8438     97.307  30.788985     33.783      8.285   281.7217     2.4266     1.9236     0.0219      0.091      1.831      2.656        339 1.2620e+02   998.1034 0.0000e+00
      1.877    20.5383     8.9377     98.228  30.575151     33.534      8.281   282.0246     2.3885     1.9813     0.0218      0.088      1.841      2.671        340 1.2576e+02   998.1112 0.0000e+00
      1.887    20.5207     9.0943     99.722  30.529541     33.486      8.281   282.1003     2.4266     2.0102     0.0218      0.078      1.856      2.692        341 1.2414e+02   998.1151 0.0000e+00
      1.915    20.4799     9.2916    101.517  30.519864     33.557      8.283   282.7060     2.4114     2.0246     0.0218      0.073      1.883      2.732        342 1.2052e+02   998.1180 0.0000e+00
      1.961    20.4108     9.5276    103.719  30.083561     32.987      8.281   283.0467     2.4190     2.0534     0.0215      0.076      1.922      2.787        343 1.1689e+02   998.1217 0.0000e+00
      2.001    20.3388     9.7977    106.473  30.183747     33.200      8.284   283.1982     2.3961     1.9957     0.0216      0.085      1.962      2.845        344 1.1405e+02   998.1306 0.0000e+00
      2.038    20.2717    10.1750    110.632  30.454451     33.529      8.287   283.8039     2.4075     2.3418     0.0217      0.097      1.999      2.898        345 1.1119e+02   998.1455 0.0000e+00
      2.074    20.1977    10.6748    116.234  30.635477     33.766      8.285   283.9932     2.3923     2.1976     0.0218      0.111      2.034      2.949        346 1.0833e+02   998.1608 0.0000e+00
      2.110    20.1110    11.2133    122.224  30.639893     33.878      8.288   283.5010     2.4190     2.3130     0.0218      0.127      2.067      2.997        347 1.0553e+02   998.1751 0.0000e+00
      2.138    20.0472    11.6548    127.124  30.063850     33.223      8.289   283.8039     2.3961     2.2841     0.0215      0.138      2.094      3.037        348 1.0456e+02   998.1905 0.0000e+00
      2.155    20.0135    11.9699    130.630  29.989593     33.226      8.289   283.3117     2.2054     2.9330     0.0215      0.138      2.119      3.074        349 1.0252e+02   998.2085 0.0000e+00
      2.192    19.9571    12.1123    132.223  30.110193     33.459      8.288   284.5232     2.2130     2.8465     0.0216      0.133      2.154      3.124        350 9.8629e+01   998.2220 0.0000e+00
      2.243    19.8415    12.1228    132.329  30.091544     33.358      8.294   284.4096     2.2321     2.8321     0.0215      0.131      2.199      3.189        351 9.4966e+01   998.2291 0.0000e+00
      2.292    19.6616    12.0223    131.017  29.775817     33.215      8.291   284.3339     2.2397     2.8898     0.0215      0.134      2.243      3.252        352 9.2208e+01   998.2409 0.0000e+00
      2.325    19.4820    11.8067    128.279  28.755282     31.961      8.296   284.1824     2.2397     2.8753     0.0209      0.139      2.274      3.298        353 9.0644e+01   998.2644 0.0000e+00
      2.340    19.3954    11.5573    125.241  28.399196     31.841      8.296   284.5610     2.2206     2.7600     0.0208      0.138      2.293      3.325        354 8.9801e+01   998.3010 0.0000e+00
      2.350    19.4203    11.4115    123.401  28.708193     32.222      8.299   284.5232     2.2473     2.8609     0.0209      0.131      2.304      3.341        355 8.9224e+01   998.3375 0.0000e+00
      2.358    19.4911    11.4508    123.593  29.111395     32.819      8.298   284.9774     2.2397     2.9330     0.0211      0.120      2.313      3.354        356 8.8461e+01   998.3550 0.0000e+00
      2.366    19.5431    11.5909    124.990  29.319394     32.988      8.300   285.0153     2.5525     2.9330     0.0212      0.105      2.320      3.364        357 8.8033e+01   998.3501 0.0000e+00
      2.371    19.5779    11.8118    127.371  29.308436     32.935      8.299   285.2046     2.5411     2.7888     0.0212      0.081      2.325      3.372        358 8.7657e+01   998.3360 0.0000e+00
      2.375    19.6038    12.0928    130.119  29.450877     33.053      8.298   284.9017     2.5296     2.7600     0.0213      0.057      2.329      3.377        359 8.7321e+01   998.3255 0.0000e+00
      2.378    19.6194    12.3821    132.483  29.438353     33.028      8.298   285.2046     2.5487     2.7600     0.0213      0.037      2.333      3.383        360 8.7030e+01   998.3185 0.0000e+00
      2.382    19.6145    12.6082    134.031  29.561006     33.102      8.296   285.4317     2.5029     2.8753     0.0213      0.027      2.341      3.396        361 8.5898e+01   998.3133 0.0000e+00
      2.403    19.5323    12.7542    134.924  29.387102     32.997      8.298   285.6967     2.4686     2.9042     0.0213      0.026      2.359      3.422        362 8.3739e+01   998.3102 0.0000e+00
      2.432    19.3845    12.8220    135.271  28.617925     31.998      8.297   285.5453     2.4724     2.8177     0.0208      0.033      2.383      3.456        363 8.2234e+01   998.3110 0.0000e+00
      2.453    19.2529    12.8222    135.315  28.326066     31.838      8.296   285.6967     2.4533     2.9474     0.0208      0.043      2.404      3.487        364 8.1291e+01   998.3276 0.0000e+00
      2.470    19.1484    12.8270    135.468  28.328408     31.883      8.300   285.4317     2.4724     2.8032     0.0207      0.052      2.421      3.512        365 8.0075e+01   998.3574 0.0000e+00
      2.485    19.0550    12.8579    135.688  28.229963     31.914      8.298   285.6210     2.9264     2.7311     0.0207      0.062      2.436      3.532        366 7.9052e+01   998.3837 0.0000e+00
      2.496    19.0114    12.8949    135.994  28.211647     31.927      8.297   285.9617     2.8958     2.5725     0.0207      0.067      2.447      3.549        367 7.8841e+01   998.4045 0.0000e+00
      2.502    19.0064    12.9221    136.330  28.291998     32.121      8.297   285.6967     2.9187     2.6302     0.0207      0.068      2.463      3.572        368 7.7757e+01   998.4228 0.0000e+00
      2.538    18.8987    12.9479    136.748  28.189245     32.028      8.296   286.3024     2.8997     2.6158     0.0207      0.071      2.496      3.620        369 7.3923e+01   998.4315 0.0000e+00
      2.596    18.6227    12.9765    137.047  27.835952     31.615      8.298   286.6432     3.6473     2.8177     0.0205      0.079      2.542      3.688        370 7.0625e+01   998.4326 0.0000e+00
      2.642    18.3083    12.9966    136.927  27.546778     31.375      8.300   286.6432     3.6512     2.8177     0.0204      0.093      2.585      3.749        371 6.8608e+01   998.4538 0.0000e+00
      2.669    18.0669    12.9847    136.349  27.364275     31.351      8.305   286.6053     3.6245     2.7744     0.0203      0.107      2.614      3.791        372 6.7673e+01   998.5072 0.0000e+00
      2.684    17.9382    12.9529    135.395  27.233754     31.452      8.310   286.1132     3.6397     2.8465     0.0202      0.117      2.636      3.822        373 6.6620e+01   998.5669 0.0000e+00
      2.710    17.9491    12.8771    134.012  27.294614     31.659      8.311   286.6810     3.1858     1.6064     0.0202      0.124      2.661      3.859        374 6.4054e+01   998.6122 0.0000e+00
      2.747    17.9835    12.7896    132.386  27.466354     32.017      8.310   286.7946     3.2201     1.6208     0.0203      0.130      2.692      3.904        375 6.2364e+01   998.6363 0.0000e+00
      2.776    17.9488    12.6433    130.103  27.434777     31.908      8.311   286.6432     3.2315     1.4910     0.0203      0.130      2.719      3.944        376 6.1505e+01   998.6343 0.0000e+00
      2.794    17.9182    12.4595    127.606  27.393162     31.881      8.310   287.0217     3.1972     1.5199     0.0203      0.119      2.738      3.971        377 6.0868e+01   998.6281 0.0000e+00
      2.806    17.9356    12.2378    124.754  27.370031     31.844      8.312   287.0217     3.7503     1.3324     0.0202      0.103      2.752      3.992        378 6.0301e+01   998.6346 0.0000e+00
      2.819    17.9877    12.0026    121.897  27.404326     31.932      8.312   286.9839     3.7618     1.4622     0.0203      0.092      2.767      4.014        379 5.9273e+01   998.6403 0.0000e+00
      2.841    17.9814    11.7571    119.113  27.498598     32.016      8.311   287.4382     3.7542     1.3036     0.0203      0.087      2.787      4.042        380 5.7766e+01   998.6372 0.0000e+00
      2.866    17.8710    11.5292    116.789  27.371193     31.848      8.311   287.4760     3.7618     1.3324     0.0202      0.085      2.810      4.076        381 5.6572e+01   998.6276 0.0000e+00
      2.890    17.7030    11.3341    114.956  27.207407     31.621      8.313   287.7032     4.3035     1.0440     0.0201      0.080      2.834      4.110        382 5.5418e+01   998.6288 0.0000e+00
      2.914    17.4892    11.2096    113.538  27.169244     31.708      8.313   287.8925     4.3111     1.1738     0.0201      0.078      2.857      4.143        383 5.4145e+01   998.6492 0.0000e+00
      2.935    17.2715    11.1367    112.281  27.092887     31.697      8.314   288.2710     4.3111     1.1450     0.0201      0.079      2.879      4.174        384 5.3295e+01   998.6800 0.0000e+00
      2.956    17.0142    11.0898    111.288  27.006279     31.796      8.314   288.1575     4.3187     1.0585     0.0200      0.083      2.902      4.209        385 5.2131e+01   998.7186 0.0000e+00
      2.987    16.7364    11.0604    110.551  26.892026     31.791      8.314   288.3089     4.2920     1.0873     0.0200      0.090      2.930      4.249        386 5.0807e+01   998.7575 0.0000e+00
      3.019    16.5057    11.0318    109.944  26.761219     31.854      8.319   288.4982     4.6659     1.0296     0.0199      0.096      2.960      4.293        387 4.9565e+01   998.8027 0.0000e+00
      3.048    16.2899    11.0131    109.475  26.635981     31.902      8.316   288.4603     4.6392     1.1306     0.0198      0.100      2.987      4.332        388 4.8636e+01   998.8508 0.0000e+00
      3.069    16.1094    10.9907    108.938  26.455561     31.874      8.317   288.9525     4.6392     1.2315     0.0197      0.101      3.008      4.362        389 4.8129e+01   998.8900 0.0000e+00
      3.082    15.9971    10.9390    108.106  26.482283     32.044      8.319   288.7632     4.6392     1.0585     0.0197      0.100      3.023      4.383        390 4.7548e+01   998.9261 0.0000e+00
      3.094    15.9903    10.8886    107.370  26.513941     32.284      8.319   289.1796     4.5667     1.0296     0.0198      0.095      3.036      4.402        391 4.7132e+01   998.9560 0.0000e+00
      3.108    16.0448    10.8242    106.642  26.505088     32.273      8.319   289.4446     4.5934     1.1161     0.0197      0.088      3.051      4.426        392 4.6444e+01   998.9743 0.0000e+00
      3.133    15.9791    10.7517    105.879  26.552580     32.448      8.318   289.5203     4.5972     1.1161     0.0198      0.082      3.075      4.461        393 4.5221e+01   998.9756 0.0000e+00
      3.168    15.7686    10.6873    105.109  26.336364     32.027      8.318   289.7096     4.5705     0.9575     0.0196      0.079      3.106      4.506        394 4.4156e+01   998.9667 0.0000e+00
      3.201    15.5465    10.6261    104.275  26.122510     31.907      8.316   290.2017     4.3721     1.1450     0.0195      0.081      3.138      4.551        395 4.3168e+01   998.9774 0.0000e+00
      3.230    15.3633    10.5377    103.170  25.959753     31.803      8.320   290.9589     4.3607     1.0873     0.0194      0.087      3.165      4.591        396 4.2327e+01   999.0114 0.0000e+00
      3.250    15.2251    10.4815    102.412  25.857714     31.906      8.322   290.9967     4.3683     1.0008     0.0194      0.094      3.188      4.624        397 4.1737e+01   999.0468 0.0000e+00
      3.272    15.1059    10.4449    101.874  25.894131     32.053      8.321   291.6025     4.3569     1.0585     0.0194      0.101      3.213      4.659        398 4.0778e+01   999.0755 0.0000e+00
      3.306    14.9722    10.4066    101.331  25.855259     32.161      8.322   291.8675     3.5749     1.0729     0.0194      0.107      3.243      4.703        399 3.9550e+01   999.0969 0.0000e+00
      3.342    14.8363    10.3850    100.927  25.728423     32.048      8.319   291.6025     3.5901     1.0729     0.0193      0.112      3.273      4.747        400 3.8758e+01   999.1152 0.0000e+00
      3.364    14.7351    10.3577    100.436  25.755824     32.225      8.323   291.8675     3.5634     1.1450     0.0193      0.111      3.296      4.780        401 3.8404e+01   999.1357 0.0000e+00
      3.378    14.6936    10.3188     99.859  25.761966     32.336      8.323   292.1325     3.5901     1.1161     0.0193      0.105      3.313      4.805        402 3.7888e+01   999.1560 0.0000e+00
      3.393    14.6715    10.2777     99.309  25.720824     32.349      8.326   292.3596     3.1629     0.8998     0.0193      0.098      3.328      4.826        403 3.7424e+01   999.1711 0.0000e+00
      3.408    14.6118    10.2123     98.551  25.747819     32.452      8.326   292.4732     3.1629     0.8133     0.0193      0.092      3.344      4.849        404 3.6941e+01   999.1773 0.0000e+00
      3.429    14.5111    10.0934     97.253  25.609913     32.258      8.326   292.9275     3.1476     0.8998     0.0192      0.087      3.364      4.879        405 3.6279e+01   999.1807 0.0000e+00
      3.454    14.4051     9.9354     95.561  25.448166     32.130      8.326   292.7382     3.1819     0.8998     0.0191      0.082      3.388      4.913        406 3.5766e+01   999.1895 0.0000e+00
      3.478    14.3126     9.7397     93.505  25.415980     32.143      8.325   292.8896     3.1552     0.8422     0.0191      0.077      3.413      4.949        407 3.5073e+01   999.2042 0.0000e+00
      3.508    14.2319     9.5035     91.072  25.442665     32.300      8.327   293.0410     2.4686     0.6259     0.0191      0.078      3.439      4.987        408 3.4522e+01   999.2196 0.0000e+00
      3.532    14.1554     9.2366     88.358  25.355755     32.234      8.325   293.5332     2.4686     0.5538     0.0190      0.084      3.465      5.026        409 3.4061e+01   999.2330 0.0000e+00
      3.560    14.0667     8.9075     85.048  25.227979     32.158      8.323   293.7982     2.5105     0.6835     0.0190      0.091      3.494      5.068        410 3.3305e+01   999.2446 0.0000e+00
      3.599    13.9657     8.5901     81.858  25.246279     32.221      8.325   293.5710     2.4991     0.7701     0.0190      0.101      3.526      5.113        411 3.2758e+01   999.2555 0.0000e+00
      3.624    13.8745     8.2894     78.887  25.333009     32.436      8.325   293.8360     2.2893     0.6403     0.0190      0.107      3.551      5.150        412 3.2564e+01   999.2682 0.0000e+00
      3.638    13.8056     8.0241     76.301  25.416270     32.593      8.326   294.2146     2.2893     0.6259     0.0191      0.107      3.568      5.176        413 3.2297e+01   999.2823 0.0000e+00
      3.656    13.7465     7.8058     74.153  25.498128     32.813      8.327   294.2146     2.3084     0.6547     0.0191      0.104      3.586      5.202        414 3.1923e+01   999.2950 0.0000e+00
      3.676    13.6767     7.6207     72.287  25.556980     32.907      8.326   294.0632     2.3160     0.6691     0.0191      0.099      3.606      5.232        415 3.1536e+01   999.3045 0.0000e+00
      3.702    13.5966     7.4567     70.599  25.580010     33.029      8.327   294.4039     2.3618     0.6403     0.0191      0.094      3.631      5.268        416 3.1099e+01   999.3127 0.0000e+00
      3.732    13.5132     7.3082     69.044  25.617588     33.089      8.325   294.4418     2.3389     0.5970     0.0191      0.093      3.661      5.310        417 3.0694e+01   999.3224 0.0000e+00
      3.765    13.4311     7.1872     67.705  25.628718     33.230      8.326   294.8582     2.3580     0.6547     0.0192      0.092      3.691      5.354        418 3.0331e+01   999.3333 0.0000e+00
      3.794    13.3513     7.0497     66.207  25.536569     33.121      8.324   294.8960     2.3503     0.7124     0.0191      0.094      3.719      5.395        419 3.0036e+01   999.3446 0.0000e+00
      3.820    13.2652     6.9221     64.837  25.376862     33.046      8.327   295.0475     2.2893     0.7124     0.0190      0.100      3.746      5.434        420 2.9696e+01   999.3555 0.0000e+00
      3.849    13.1791     6.8374     63.876  25.323969     32.969      8.327   295.3882     2.2855     0.5826     0.0190      0.107      3.774      5.474        421 2.9324e+01   999.3661 0.0000e+00
      3.876    13.1189     6.7830     63.184  25.424707     33.262      8.326   295.5396     2.3084     0.6114     0.0191      0.111      3.799      5.511        422 2.9129e+01   999.3776 0.0000e+00
      3.898    13.0822     6.7643     62.818  25.429242     33.265      8.326   296.0318     2.2817     0.6259     0.0190      0.111      3.821      5.543        423 2.8982e+01   999.3888 0.0000e+00
      3.917    13.0382     6.7641     62.696  25.436829     33.390      8.328   296.3346     2.2397     0.6259     0.0190      0.107      3.844      5.575        424 2.8634e+01   999.3966 0.0000e+00
      3.945    12.9716     6.7428     62.457  25.474525     33.422      8.325   296.6753     2.2244     0.5970     0.0190      0.103      3.870      5.613        425 2.8244e+01   999.4014 0.0000e+00
      3.976    12.8890     6.6894     61.879  25.382347     33.387      8.324   296.8268     2.2244     0.5538     0.0190      0.101      3.899      5.655        426 2.7946e+01   999.4072 0.0000e+00
      4.007    12.7913     6.5476     60.374  25.314606     33.299      8.326   297.3189     2.2435     0.6547     0.0189      0.102      3.930      5.700        427 2.7587e+01   999.4158 0.0000e+00
      4.040    12.6642     6.3086     57.935  25.084942     33.151      8.327   297.6596     2.2397     0.5970     0.0188      0.105      3.961      5.745        428 2.7147e+01   999.4262 0.0000e+00
      4.069    12.5290     6.0013     54.931  24.750001     32.682      8.324   297.9246     2.2473     0.5970     0.0186      0.108      3.988      5.785        429 2.6862e+01   999.4383 0.0000e+00
      4.091    12.4102     5.6134     51.215  24.665196     32.793      8.324   298.4168     2.2283     0.6547     0.0186      0.110      4.013      5.822        430 2.6636e+01   999.4542 0.0000e+00
      4.119    12.2946     5.0855     46.233  24.598151     32.726      8.326   298.9468     2.2321     0.6547     0.0185      0.113      4.042      5.862        431 2.6178e+01   999.4707 0.0000e+00
      4.155    12.1658     4.4904     40.695  24.478061     32.754      8.324   298.9468     2.2626     0.6403     0.0185      0.116      4.075      5.910        432 2.5738e+01   999.4851 0.0000e+00
      4.191    12.0334     3.8451     34.765  24.696215     33.043      8.324   299.2496     2.2321     0.5826     0.0185      0.117      4.106      5.956        433 2.5392e+01   999.4991 0.0000e+00
      4.215    11.9496     3.1848     28.741  25.126406     33.870      8.323   299.4389     2.2244     0.6259     0.0188      0.117      4.131      5.991        434 2.5197e+01   999.5145 0.0000e+00
      4.230    11.9178     2.5646     23.106  25.157104     33.918      8.324   299.3632     2.2321     0.6835     0.0188      0.113      4.150      6.019        435 2.5046e+01   999.5299 0.0000e+00
      4.251    11.8582     2.0126     18.102  25.013475     33.882      8.326   299.4389     2.2321     0.6259     0.0188      0.108      4.172      6.050        436 2.4676e+01   999.5395 0.0000e+00
      4.280    11.7186     1.5447     13.868  25.453276     34.400      8.324   299.3253     2.2321     0.8854     0.0190      0.105      4.199      6.090        437 2.4212e+01   999.5434 0.0000e+00
      4.315    11.5445     1.1570     10.367  26.416610     35.894      8.326   299.3253     2.2664     0.8710     0.0196      0.105      4.230      6.135        438 2.3794e+01   999.5508 0.0000e+00
      4.345    11.3978     0.9501      8.496  26.776674     36.449      8.325   299.6282     2.2092     0.8422     0.0197      0.104      4.259      6.178        439 2.3455e+01   999.5666 0.0000e+00
      4.370    11.2577     0.8816      7.871  26.900955     36.778      8.328   300.4611     2.2359     0.8998     0.0198      0.103      4.286      6.216        440 2.3101e+01   999.5858 0.0000e+00
      4.398    11.1040     0.9548      8.510  27.091405     37.270      8.323   300.9532     2.2397     0.8854     0.0200      0.103      4.311      6.253        441 2.2737e+01   999.6019 0.0000e+00
      4.422    10.9686     1.1471     10.214  26.806313     36.913      8.323   301.3696     2.2244     0.7412     0.0197      0.107      4.334      6.287        442 2.2452e+01   999.6167 0.0000e+00
      4.440    10.8662     1.4374     12.793  26.663368     36.955      8.321   301.8618     2.2244     0.8133     0.0197      0.107      4.354      6.315        443 2.2236e+01   999.6326 0.0000e+00
      4.458    10.7858     1.8249     16.239  26.617676     36.978      8.322   301.9375     2.2244     0.7701     0.0196      0.103      4.372      6.341        444 2.1981e+01   999.6465 0.0000e+00
      4.476    10.7149     2.2580     20.090  26.389282     36.811      8.323   302.0889     2.2511     0.8998     0.0195      0.095      4.391      6.369        445 2.1675e+01   999.6567 0.0000e+00
      4.499    10.6423     2.7099     24.105  25.999768     36.309      8.324   302.0889     2.2206     0.8854     0.0193      0.088      4.414      6.402        446 2.1322e+01   999.6647 0.0000e+00
      4.525    10.5641     3.1137     27.689  25.443699     35.638      8.322   303.0732     2.2206     0.8710     0.0189      0.085      4.439      6.438        447 2.0883e+01   999.6715 0.0000e+00
      4.554    10.4795     3.4819     30.933  25.067162     35.123      8.324   303.6411     2.2244     0.8566     0.0187      0.086      4.467      6.479        448 2.0508e+01   999.6785 0.0000e+00
      4.585    10.3974     3.7921     33.643  24.957787     35.122      8.321   303.8304     2.2359     0.8422     0.0187      0.089      4.498      6.524        449 2.0068e+01   999.6861 0.0000e+00
      4.622    10.3225     4.0538     35.934  24.809742     34.931      8.322   304.0954     2.3961     1.0873     0.0185      0.097      4.532      6.574        450 1.9479e+01   999.6943 0.0000e+00
      4.659    10.2573     4.2682     37.826  24.629435     34.815      8.318   304.3604     2.4381     1.0296     0.0185      0.107      4.566      6.622        451 1.9117e+01   999.7021 0.0000e+00
      4.686    10.2148     4.5010     39.877  24.530596     34.691      8.319   304.2468     2.4152     1.0873     0.0184      0.115      4.591      6.658        452 1.8903e+01   999.7091 0.0000e+00
      4.700    10.1932     4.7736     42.273  24.547732     34.835      8.316   304.3225     2.4037     1.1882     0.0184      0.117      4.607      6.682        453 1.8770e+01   999.7152 0.0000e+00
      4.708    10.1861     5.0541     44.741  24.578511     34.876      8.316   304.2089     2.1901     1.3180     0.0184      0.111      4.618      6.698        454 1.8663e+01   999.7192 0.0000e+00
      4.719    10.1790     5.3481     47.328  24.551542     34.898      8.316   304.1332     2.1710     1.3613     0.0184      0.100      4.631      6.716        455 1.8419e+01   999.7212 0.0000e+00
      4.738    10.1683     5.6257     49.768  24.462830     34.746      8.317   304.2089     2.1405     1.2748     0.0183      0.088      4.649      6.743        456 1.8161e+01   999.7219 0.0000e+00
      4.765    10.1551     5.8735     51.957  24.422351     34.713      8.315   304.6254     2.1520     1.3757     0.0183      0.079      4.673      6.778        457 1.7820e+01   999.7227 0.0000e+00
      4.793    10.1148     6.0630     53.642  24.453828     34.764      8.317   304.3604     1.9193     2.4572     0.0183      0.073      4.700      6.817        458 1.7412e+01   999.7238 0.0000e+00
      4.819    10.0572     6.2053     54.887  24.394042     34.696      8.315   304.4361     1.9498     2.4716     0.0183      0.073      4.725      6.853        459 1.7104e+01   999.7250 0.0000e+00
      4.842    10.0219     6.2979     55.692  24.348670     34.658      8.312   304.2846     1.9193     2.4139     0.0183      0.078      4.748      6.886        460 1.6776e+01   999.7287 0.0000e+00
      4.864    10.0117     6.3327     55.995  24.391834     34.795      8.311   304.2846     1.9269     2.4860     0.0183      0.086      4.770      6.919        461 1.6405e+01   999.7341 0.0000e+00
      4.888     9.9988     6.3341     56.005  24.399576     34.830      8.313   304.2846     1.5530     4.0145     0.0183      0.093      4.794      6.954        462 1.5982e+01   999.7373 0.0000e+00
      4.915     9.9791     6.3180     55.856  24.398282     34.839      8.313   304.3604     1.5607     4.0578     0.0183      0.097      4.821      6.992        463 1.5533e+01   999.7383 0.0000e+00
      4.945     9.9640     6.2810     55.520  24.393451     34.852      8.311   304.5496     1.5416     4.0578     0.0183      0.099      4.850      7.035        464 1.5032e+01   999.7396 0.0000e+00
      4.978     9.9504     6.2426     55.177  24.375977     34.832      8.311   304.6632     1.5645     4.0578     0.0183      0.101      4.880      7.078        465 1.4433e+01   999.7415 0.0000e+00
      5.005     9.9357     6.1891     54.702  24.390418     34.887      8.308   304.7389     1.5302     3.7838     0.0183      0.103      4.907      7.116        466 1.3984e+01   999.7429 0.0000e+00
      5.027     9.9338     6.1555     54.402  24.345867     34.821      8.307   304.8525     1.4882     3.8271     0.0182      0.105      4.931      7.151        467 1.3559e+01   999.7442 0.0000e+00
      5.051     9.9395     6.1141     54.035  24.401805     34.915      8.306   304.9282     1.4958     3.7550     0.0183      0.106      4.955      7.186        468 1.3073e+01   999.7456 0.0000e+00
      5.079     9.9301     6.0812     53.743  24.439280     34.998      8.305   305.2689     1.4958     3.7694     0.0183      0.107      4.982      7.225        469 1.2509e+01   999.7459 0.0000e+00
      5.111     9.9187     6.0528     53.487  24.358469     34.831      8.305   305.1554     1.5187     3.7838     0.0182      0.108      5.011      7.267        470 1.2010e+01   999.7456 0.0000e+00
      5.137     9.9156     6.0280     53.263  24.383901     34.921      8.302   305.2689     1.5035     3.4810     0.0183      0.107      5.036      7.304        471 1.1769e+01   999.7465 0.0000e+00
      5.158     9.9130     6.0073     53.079  24.378014     34.892      8.303   305.6475     1.5263     3.4810     0.0183      0.104      5.061      7.339        472 1.1426e+01   999.7476 0.0000e+00
      5.187     9.9083     5.9804     52.837  24.336181     34.856      8.301   305.7232     1.4958     3.5098     0.0182      0.103      5.087      7.378        473 1.0979e+01   999.7479 0.0000e+00
      5.217     9.9019     5.9565     52.619  24.347108     34.858      8.301   305.7989     1.4996     3.5387     0.0182      0.105      5.114      7.417        474 1.0732e+01   999.7484 0.0000e+00
      5.238     9.8984     5.9257     52.341  24.334797     34.863      8.298   305.9882     1.4882     3.7838     0.0182      0.105      5.137      7.451        475 1.0504e+01   999.7489 0.0000e+00
      5.261     9.8968     5.9036     52.144  24.351503     34.869      8.297   306.0639     1.5035     3.7838     0.0182      0.103      5.161      7.485        476 1.0162e+01   999.7495 0.0000e+00
      5.289     9.8945     5.8771     51.914  24.385556     34.953      8.296   305.8368     1.4996     3.6973     0.0183      0.102      5.187      7.523        477 9.8599e+00   999.7499 0.0000e+00
      5.318     9.8942     5.8488     51.660  24.351657     34.874      8.295   306.1018     1.4958     3.6973     0.0182      0.101      5.217      7.566        478 9.5657e+00   999.7502 0.0000e+00
      5.353     9.8928     5.8211     51.407  24.364073     34.917      8.291   306.1396     1.4386     3.7838     0.0183      0.104      5.250      7.614        479 9.2022e+00   999.7505 0.0000e+00
      5.390     9.8885     5.7964     51.182  24.340487     34.877      8.291   306.3289     1.4615     3.7694     0.0182      0.110      5.283      7.663        480 8.9058e+00   999.7508 0.0000e+00
      5.418     9.8857     5.7663     50.911  24.292156     34.798      8.291   306.1396     1.4386     3.8271     0.0182      0.113      5.312      7.704        481 8.7389e+00   999.7510 0.0000e+00
      5.441     9.8843     5.7501     50.765  24.335367     34.883      8.288   306.2532     1.4577     3.7261     0.0182      0.115      5.338      7.743        482 8.4413e+00   999.7515 0.0000e+00
      5.474     9.8809     5.7345     50.626  24.345948     34.885      8.286   306.4046     1.5759     3.8271     0.0182      0.118      5.367      7.784        483 8.0961e+00   999.7519 0.0000e+00
      5.504     9.8755     5.7166     50.468  24.338225     34.887      8.287   306.4046     1.5607     3.7694     0.0182      0.120      5.394      7.824        484 7.9528e+00   999.7522 0.0000e+00
      5.524     9.8703     5.7027     50.348  24.344980     34.890      8.283   306.4804     1.5530     3.8271     0.0182      0.117      5.418      7.858        485 7.7290e+00   999.7526 0.0000e+00
      5.549     9.8696     5.6904     50.238  24.307926     34.856      8.283   306.3289     1.5607     3.7838     0.0182      0.112      5.442      7.893        486 7.5447e+00   999.7532 0.0000e+00
      5.575     9.8721     5.6860     50.194  24.295486     34.821      8.283   306.4804     1.5607     3.8126     0.0182      0.107      5.468      7.931        487 7.3854e+00   999.7538 0.0000e+00
      5.605     9.8691     5.6778     50.116  24.330845     34.902      8.284   306.6318     1.4729     3.7838     0.0182      0.104      5.497      7.974        488 6.9990e+00   999.7540 0.0000e+00
      5.638     9.8619     5.6655     50.006  24.293542     34.819      8.282   306.1396     1.4653     3.7117     0.0182      0.106      5.527      8.016        489 6.7617e+00   999.7539 0.0000e+00
      5.662     9.8564     5.6579     49.935  24.282673     34.822      8.282   305.9882     1.4424     3.8415     0.0182      0.107      5.553      8.054        490 6.6258e+00   999.7542 0.0000e+00
      5.689     9.8524     5.6511     49.871  24.285136     34.829      8.279   306.4046     1.4462     3.7261     0.0182      0.106      5.582      8.095        491 6.3214e+00   999.7550 0.0000e+00
      5.726     9.8494     5.6398     49.768  24.290479     34.835      8.276   306.3668     1.4577     3.7838     0.0182      0.109      5.613      8.140        492 6.0779e+00   999.7556 0.0000e+00
      5.755     9.8481     5.6377     49.747  24.305644     34.879      8.275   306.8968     1.4386     3.7982     0.0182      0.114      5.640      8.180        493 6.0043e+00   999.7561 0.0000e+00
      5.771     9.8491     5.6268     49.650  24.295882     34.842      8.274   307.1996     1.4615     3.8703     0.0182      0.113      5.659      8.207        494 5.9164e+00   999.7564 0.0000e+00
      5.785     9.8512     5.6188     49.578  24.273010     34.843      8.275   306.7075     1.4500     3.6684     0.0182      0.107      5.674      8.230        495 5.7885e+00   999.7566 0.0000e+00
      5.803     9.8498     5.6072     49.474  24.245255     34.762      8.273   306.8211     1.3966     3.7117     0.0182      0.099      5.693      8.257        496 5.6379e+00   999.7566 0.0000e+00
      5.828     9.8449     5.5975     49.388  24.271187     34.840      8.271   307.1618     1.3776     3.7117     0.0182      0.093      5.718      8.293        497 5.4491e+00   999.7565 0.0000e+00
      5.862     9.8412     5.5763     49.202  24.240738     34.761      8.272   307.2375     1.3814     3.7838     0.0182      0.092      5.749      8.338        498 5.2386e+00   999.7568 0.0000e+00
      5.897     9.8394     5.5640     49.093  24.223913     34.766      8.270   307.1618     1.3814     3.7550     0.0182      0.093      5.782      8.386        499 5.0430e+00   999.7574 0.0000e+00
      5.928     9.8367     5.5597     49.053  24.262509     34.810      8.268   307.0861     1.3623     3.6829     0.0182      0.095      5.813      8.431        500 4.8481e+00   999.7579 0.0000e+00
      5.957     9.8329     5.5515     48.979  24.281562     34.852      8.267   307.0861     1.3890     3.8126     0.0182      0.102      5.842      8.473        501 4.6597e+00   999.7582 0.0000e+00
      5.987     9.8298     5.5448     48.918  24.229821     34.774      8.266   307.3889     1.3776     3.7982     0.0182      0.111      5.872      8.516        502 4.4669e+00   999.7585 0.0000e+00
      6.018     9.8279     5.5386     48.861  24.178812     34.698      8.265   307.7675     1.3585     3.7405     0.0181      0.118      5.901      8.557        503 4.3009e+00   999.7590 0.0000e+00
      6.045     9.8268     5.5480     48.943  24.226573     34.781      8.265   307.4268     1.4539     3.8703     0.0182      0.121      5.927      8.597        504 4.2046e+00   999.7594 0.0000e+00
      6.069     9.8255     5.5474     48.937  24.229621     34.783      8.262   307.5782     1.4462     3.8126     0.0182      0.119      5.952      8.633        505 4.1215e+00   999.7597 0.0000e+00
      6.094     9.8244     5.5382     48.856  24.234254     34.784      8.263   307.3889     1.4386     3.7261     0.0182      0.114      5.977      8.669        506 4.0187e+00   999.7599 0.0000e+00
      6.120     9.8245     5.5301     48.785  24.250424     34.825      8.263   307.8054     1.4615     3.7838     0.0182      0.109      6.003      8.707        507 3.8840e+00   999.7601 0.0000e+00
      6.151     9.8248     5.5187     48.681  24.239114     34.787      8.261   307.9568     1.4157     3.7694     0.0182      0.108      6.032      8.749        508 3.7418e+00   999.7604 0.0000e+00
      6.182     9.8244     5.5066     48.570  24.218711     34.786      8.260   308.2597     1.5836     3.8126     0.0182      0.107      6.061      8.792        509 3.6168e+00   999.7605 0.0000e+00
      6.209     9.8234     5.4775     48.309  24.186964     34.706      8.260   308.1839     1.5721     3.7405     0.0181      0.107      6.090      8.833        510 3.5017e+00   999.7606 0.0000e+00
      6.240     9.8220     5.4548     48.106  24.219388     34.786      8.258   308.2597     1.5454     3.6684     0.0182      0.109      6.119      8.875        511 3.3628e+00   999.7608 0.0000e+00
      6.271     9.8199     5.4185     47.784  24.237597     34.787      8.257   308.5247     1.5607     3.7982     0.0182      0.112      6.147      8.916        512 3.2589e+00   999.7610 0.0000e+00
      6.294     9.8178     5.3946     47.570  24.223541     34.789      8.255   308.7518     1.4462     3.8992     0.0182      0.113      6.170      8.949        513 3.2088e+00   999.7612 0.0000e+00
      6.309     9.8171     5.3668     47.323  24.177643     34.711      8.253   308.4111     1.4500     3.7261     0.0181      0.110      6.187      8.974        514 3.1628e+00   999.7614 0.0000e+00
      6.326     9.8164     5.3370     47.057  24.146625     34.673      8.251   308.7518     1.4424     3.7550     0.0181      0.103      6.204      8.998        515 3.0926e+00   999.7617 0.0000e+00
      6.345     9.8163     5.3124     46.838  24.173290     34.714      8.253   308.6761     1.4081     3.7838     0.0181      0.095      6.225      9.027        516 2.9947e+00   999.7619 0.0000e+00
      6.370     9.8166     5.2957     46.688  24.174079     34.714      8.252   308.8275     1.3585     3.6252     0.0181      0.089      6.251      9.065        517 2.8779e+00   999.7620 0.0000e+00
      6.406     9.8145     5.2970     46.696  24.175263     34.714      8.254   308.6004     1.3738     3.5387     0.0181      0.089      6.284      9.113        518 2.7402e+00   999.7622 0.0000e+00
      6.446     9.8105     5.2963     46.685  24.231054     34.794      8.250   308.8275     1.3776     3.6108     0.0182      0.093      6.320      9.166        519 2.6336e+00   999.7624 0.0000e+00
      6.480     9.8069     5.3067     46.775  24.163884     34.716      8.245   309.1682     1.3814     3.5387     0.0181      0.100      6.352      9.212        520 2.5826e+00   999.7628 0.0000e+00
      6.503     9.8043     5.3117     46.816  24.110765     34.600      8.248   308.9032     1.4272     3.7405     0.0181      0.108      6.378      9.250        521 2.4869e+00   999.7631 0.0000e+00
      6.530     9.8023     5.3179     46.869  24.178690     34.764      8.247   309.2439     1.3928     3.8271     0.0182      0.115      6.405      9.289        522 2.3607e+00   999.7636 0.0000e+00
      6.562     9.8002     5.3139     46.833  24.108972     34.606      8.245   309.1682     1.3928     3.8126     0.0181      0.120      6.432      9.330        523 2.3004e+00   999.7639 0.0000e+00
      6.585     9.7977     5.3004     46.721  24.079057     34.608      8.243   309.3197     1.3852     3.7550     0.0181      0.120      6.457      9.365        524 2.2637e+00   999.7642 0.0000e+00
      6.606     9.7951     5.2839     46.575  24.097448     34.610      8.243   309.1682     1.3585     3.5098     0.0181      0.115      6.478      9.396        525 2.2105e+00   999.7645 0.0000e+00
      6.626     9.7929     5.2679     46.430  24.086085     34.613      8.243   309.3197     1.3814     3.5098     0.0181      0.107      6.499      9.427        526 2.1215e+00   999.7649 0.0000e+00
      6.650     9.7908     5.2354     46.142  24.093200     34.615      8.241   309.1304     1.3738     3.5819     0.0181      0.099      6.524      9.462        527 2.0526e+00   999.7651 0.0000e+00
      6.681     9.7875     5.2146     45.960  24.088597     34.617      8.241   309.3197     1.3890     3.5242     0.0181      0.097      6.554      9.505        528 2.0027e+00   999.7655 0.0000e+00
      6.718     9.7838     5.1927     45.767  24.151050     34.700      8.238   309.5468     1.3623     3.5098     0.0181      0.100      6.588      9.555        529 1.9220e+00   999.7659 0.0000e+00
      6.755     9.7812     5.1805     45.659  24.222802     34.823      8.238   309.2818     1.3089     3.7982     0.0182      0.105      6.623      9.604        530 1.8406e+00   999.7663 0.0000e+00
      6.785     9.7792     5.1671     45.537  24.177010     34.747      8.235   309.2439     1.3280     3.8415     0.0181      0.110      6.653      9.649        531 1.7636e+00   999.7667 0.0000e+00
      6.814     9.7766     5.1710     45.567  24.178420     34.749      8.234   309.5089     1.3394     3.8271     0.0181      0.116      6.681      9.689        532 1.7076e+00   999.7671 0.0000e+00
      6.838     9.7772     5.1648     45.512  24.221049     34.832      8.234   309.5468     1.3127     3.7694     0.0182      0.120      6.706      9.727        533 1.6671e+00   999.7674 0.0000e+00
      6.863     9.7825     5.1768     45.616  24.183198     34.754      8.235   309.6604     1.1906     3.8271     0.0181      0.121      6.731      9.763        534 1.6295e+00   999.7678 0.0000e+00
      6.889     9.7833     5.1861     45.694  24.166291     34.754      8.231   309.5468     1.2250     3.7982     0.0181      0.118      6.755      9.798        535 1.5754e+00   999.7679 0.0000e+00
      6.912     9.7790     5.1909     45.732  24.153235     34.708      8.234   309.9254     1.1678     3.7838     0.0181      0.112      6.778      9.830        536 1.5668e+00   999.7674 0.0000e+00
      6.931     9.7774     5.1993     45.801  24.169826     34.747      8.232   309.6604     1.2021     3.7405     0.0181      0.103      6.798      9.859        537 1.5489e+00   999.7675 0.0000e+00
      6.951     9.7785     5.1941     45.753  24.175262     34.752      8.228   309.8118     1.2021     3.4089     0.0181      0.096      6.820      9.891        538 1.4915e+00   999.7681 0.0000e+00
      6.981     9.7791     5.1898     45.712  24.176089     34.753      8.228   310.0389     1.2135     3.5387     0.0181      0.093      6.848      9.932        539 1.4430e+00   999.7683 0.0000e+00
      7.018     9.7782     5.1553     45.410  24.228033     34.832      8.225   310.4554     1.2173     3.6684     0.0182      0.095      6.881      9.979        540 1.3601e+00   999.7683 0.0000e+00
      7.050     9.7745     5.1189     45.102  24.229091     34.832      8.224   310.3418     1.2021     3.6252     0.0182      0.100      6.911     10.024        541 1.3516e+00   999.7684 0.0000e+00
      7.075     9.7707     5.0814     44.775  24.174773     34.752      8.224   310.1147     1.3165     3.5963     0.0181      0.104      6.938     10.063        542 1.3326e+00   999.7686 0.0000e+00
      7.101     9.7703     5.0351     44.363  24.147541     34.716      8.226   310.4175     1.3165     3.5242     0.0181      0.107      6.966     10.103        543 1.2386e+00   999.7690 0.0000e+00
      7.134     9.7685     4.9887     43.945  24.174128     34.760      8.224   310.4175     1.3165     3.5819     0.0181      0.112      6.996     10.148        544 1.1856e+00   999.7695 0.0000e+00
      7.168     9.7648     4.9485     43.581  24.230541     34.841      8.223   310.5689     1.3394     3.6252     0.0182      0.118      7.028     10.193        545 1.1623e+00   999.7698 0.0000e+00
      7.199     9.7606     4.9186     43.307  24.284662     34.923      8.221   310.9475     1.3203     3.4521     0.0182      0.120      7.058     10.237        546 1.1049e+00   999.7701 0.0000e+00
      7.227     9.7559     4.8924     43.068  24.343721     35.007      8.220   310.6068     1.3432     3.5675     0.0182      0.119      7.084     10.275        547 1.0627e+00   999.7706 0.0000e+00
      7.247     9.7538     4.8782     42.918  24.334753     35.011      8.219   310.3039     1.3242     3.6540     0.0182      0.115      7.104     10.304        548 1.0823e+00   999.7710 0.0000e+00
      7.259     9.7513     4.8660     42.779  24.355058     35.016      8.219   310.5689     1.3470     3.6108     0.0182      0.109      7.119     10.325        549 1.0512e+00   999.7715 0.0000e+00
      7.273     9.7540     4.8206     42.365  24.436925     35.178      8.217   310.4932     1.2822     3.5387     0.0183      0.101      7.133     10.346        550 1.0217e+00   999.7717 0.0000e+00
      7.291     9.7646     4.7241     41.512  24.380964     35.060      8.217   310.6447     1.3318     3.7838     0.0183      0.092      7.148     10.368        551 1.0149e+00   999.7720 0.0000e+00
      7.304     9.7686     4.5378     39.862  24.395084     35.098      8.215   310.6447     1.3127     3.8415     0.0183      0.080      7.162     10.388        552 1.0022e+00   999.7719 0.0000e+00
      7.315     9.7643     4.2077     36.944  24.330497     35.006      8.214   310.2661     1.3318     3.7550     0.0182      0.069      7.174     10.405        553 1.0015e+00   999.7710 0.0000e+00
      7.328     9.7562     3.7940     33.300  24.372485     35.003      8.213   310.0768     1.3203     3.6540     0.0182      0.061      7.186     10.423        554 9.6409e-01   999.7707 0.0000e+00
      7.340     9.7456     3.2764     28.754  24.342830     35.087      8.210   310.3797     1.3623     3.6829     0.0183      0.055      7.200     10.443        555 9.6404e-01   999.7711 0.0000e+00
      7.359     9.7361     2.7557     24.180  24.604348     35.256      8.211   309.8875     1.3776     3.8126     0.0183      0.054      7.217     10.467        556 9.2929e-01   999.7721 0.0000e+00
      7.377     9.7260     2.2588     19.815  24.787496     35.869      8.206   309.2818     1.3966     3.7982     0.0186      0.056      7.233     10.491        557 9.1706e-01   999.7732 0.0000e+00
      7.393     9.7007     1.8035     15.819  25.625472     36.563      8.207   308.9789     1.3776     3.7694     0.0189      0.057      7.247     10.511        558 8.9969e-01   999.7744 0.0000e+00
      7.401     9.6684     1.4453     12.678  30.759835     44.370      8.206   308.6004     1.3738     3.6973     0.0222      0.056      7.257     10.525        559 8.6090e-01   999.7778 0.0000e+00
      7.405     9.6510     1.2192     10.695  38.514906     55.427      8.205   308.6761     1.3814     3.8271     0.0271      0.054      7.262     10.533        560 8.9152e-01   999.7838 0.0000e+00
      7.410     9.6409     1.0927      9.587  42.614274     61.805      8.203   308.4111     1.4081     3.8559     0.0299      0.050      7.267     10.539        561 8.5573e-01   999.7886 0.0000e+00
      7.414     9.6245     1.0440      9.161  60.078934     84.942      8.202   308.2218     1.3738     3.8847     0.0402      0.044      7.272     10.546        562 8.4380e-01   999.7990 0.0000e+00
      7.420     9.6012     1.0469      9.187  89.092249    130.765      8.202   307.6918     1.3394     3.7982     0.0610      0.037      7.278     10.554        563 8.4723e-01   999.8149 0.0000e+00
      7.427     9.5850     1.0771      9.452 105.319391    150.525      8.197   307.5782     1.2898     3.8415     0.0701      0.030      7.284     10.564        564 8.3116e-01   999.8249 0.0000e+00
      7.434     9.5796     1.1131      9.769 116.041955    169.057      8.196   307.2754     1.3051     3.7261     0.0787      0.025      7.290     10.572        565 8.1606e-01   999.8326 0.0000e+00
      7.437     9.5719     1.1604     10.185 122.886803    176.760      8.194   307.1996     1.3013     3.7117     0.0823      0.022      7.293     10.576        566 8.1268e-01   999.8376 0.0000e+00
      7.436     9.5618     1.1771     10.332 126.881815    184.083      8.196   307.2754     1.2593     3.7261     0.0857      0.020      7.293     10.577        567 8.3103e-01   999.8402 0.0000e+00
      7.437     9.5570     1.1901     10.447 130.268162    188.062      8.194   307.1239     1.2555     3.8415     0.0876      0.017      7.293     10.578        568 8.2886e-01   999.8426 0.0000e+00
      7.438     9.5564     1.1928     10.472 132.217757    191.405      8.193   307.1996     1.2631     3.7550     0.0891      0.015      7.294     10.579        569 8.2158e-01   999.8446 0.0000e+00
      7.438     9.5598     1.1807     10.367 136.187149    196.914      8.191   306.5939     1.2517     3.7982     0.0917      0.011      7.294     10.579        570 8.2499e-01   999.8470 0.0000e+00
      7.438     9.5680     1.1660     10.240 139.086588    201.423      8.189   306.7832     1.3661     3.5963     0.0938      0.007      7.294     10.580        571 8.3289e-01   999.8486 0.0000e+00
      7.438     9.5736     1.1491     10.093 140.165209    202.665      8.188   306.5939     1.4043     3.5387     0.0944      0.004      7.295     10.580        572 8.1819e-01   999.8489 0.0000e+00
      7.439     9.5747     1.1176      9.818 140.653042    203.507      8.189   306.8211     1.3547     3.5675     0.0948      0.002      7.295     10.581        573 8.0007e-01   999.8485 0.0000e+00
      7.439     9.5759     1.0786      9.477 141.339145    204.328      8.187   306.5561     1.3699     3.5675     0.0952      0.001      7.295     10.581        574 8.2312e-01   999.8484 0.0000e+00
      7.438     9.5780     1.0474      9.204 142.260514    205.742      8.185   306.9725     1.2479     3.8847     0.0959      0.001      7.295     10.581        575 8.3639e-01   999.8488 0.0000e+00
      7.439     9.5808     1.0111      8.887 143.498371    207.481      8.184   306.6318     1.2593     3.9136     0.0967      0.001      7.295     10.581        576 8.3480e-01   999.8494 0.0000e+00
      7.439     9.5842 -9.990e-29 -9.990e-29 144.624973    209.133      8.181   306.7832     1.2746     3.7982     0.0975      0.001      7.295     10.581        577 8.3820e-01   999.8498 0.0000e+00
      7.438     9.5884 -9.990e-29 -9.990e-29 145.595658    210.496      8.184   306.7075     1.2364     3.7550     0.0981      0.000      7.295     10.581        578 8.3185e-01   999.8501 0.0000e+00
      7.440     9.5937 -9.990e-29 -9.990e-29 146.342496    211.572      8.180   306.7075     1.2479     3.7838     0.0986      0.000      7.295     10.580        579 8.3741e-01   999.8502 0.0000e+00
      7.437     9.5996 -9.990e-29 -9.990e-29 146.853948    212.276      8.180   306.7075     1.3280     3.7982     0.0989     -0.000      7.295     10.580        580 8.1444e-01   999.8501 0.0000e+00
      7.439     9.6060 -9.990e-29 -9.990e-29 147.223747    212.771      8.179   306.8589     1.2975     3.7405     0.0992     -0.000      7.295     10.581        581 8.1951e-01   999.8499 0.0000e+00
      7.439     9.6125 -9.990e-29 -9.990e-29 147.580764    213.263      8.178   306.6696     1.3051     3.7694     0.0994      0.000      7.295     10.581        582 8.3525e-01   999.8496 0.0000e+00
      7.439     9.6193 -9.990e-29 -9.990e-29 147.988964    213.792      8.179   306.5939     1.3127     3.7550     0.0997      0.000      7.295     10.581        583 8.3969e-01   999.8492 0.0000e+00
      7.439     9.6253 -9.990e-29 -9.990e-29 148.473893    214.480      8.176   306.9346     1.3394     3.7550     0.1000      0.000      7.295     10.580        584 8.2355e-01   999.8489 0.0000e+00
      7.439     9.6326 -9.990e-29 -9.990e-29 149.003658    215.170      8.173   306.6318     1.3127     3.8126     0.1003      0.000      7.295     10.580        585 8.0029e-01   999.8486 0.0000e+00
      7.439     9.6379 -9.990e-29 -9.990e-29 149.445509    215.819      8.174   306.6696     1.3165     3.6829     0.1006      0.000      7.295     10.580        586 8.3286e-01   999.8483 0.0000e+00
      7.440 -9.990e-29 -9.990e-29 -9.990e-29 150.099503    216.630      8.172   306.3289     1.3013     3.7550     0.1010      0.000      7.296     10.581        587 8.3605e-01   999.8481 0.0000e+00
      7.440 -9.990e-29 -9.990e-29 -9.990e-29 150.603735    217.481      8.171   306.4804     1.3776     3.7261     0.1014      0.001      7.296     10.581        588 8.1940e-01   999.8479 0.0000e+00
