* Sea-Bird SBE19plus  Data File:
* FileName = C:\DATA\061019_fcr_0004.hex
* Software version 2.8.0.119
* Temperature SN = 7809
* Conductivity SN = 7809
* System UpLoad Time = Jun 10 2019 13:28:56
* <ApplicationData>
* <Seaterm232>
* <SoftwareVersion>2.8.0.119</SoftwareVersion>
* <BuildDate>07-Nov-2018</BuildDate>
* </Seaterm232>
* </ApplicationData>
* <InstrumentState>
* <HardwareData DeviceType='SBE19plus' SerialNumber='01907809'>
*
*    <Manufacturer>Sea-Bird Electronics, Inc.</Manufacturer>
*
*    <FirmwareVersion>3.1.8</FirmwareVersion>
*
*    <FirmwareDate>Mar  9 2016 16:22:29</FirmwareDate>
*
*    <CommandSetVersion>1.4</CommandSetVersion>
*
*    <PCBAssembly PCBSerialNum='120721' AssemblyNum='41054J'/>
*
*    <PCBAssembly PCBSerialNum='120715' AssemblyNum='41967A'/>
*
*    <PCBAssembly PCBSerialNum='116699' AssemblyNum='41606'/>
*
*    <PCBAssembly PCBSerialNum='120719' AssemblyNum='41059D'/>
*
*    <MfgDate>28-Apr-2017</MfgDate>
*
*    <InternalSensors>
*
*       <Sensor id='Main Temperature'>
*
*          <type>temperature0</type>
*
*          <SerialNumber>01907809</SerialNumber>
*
*       </Sensor>
*
*       <Sensor id='Main Conductivity'>
*
*          <type>conductivity-0</type>
*
*          <SerialNumber>01907809</SerialNumber>
*
*       </Sensor>
*
*       <Sensor id='Main Pressure'>
*
*          <type>strain-0</type>
*
*          <SerialNumber>10586018</SerialNumber>
*
*       </Sensor>
*
*    </InternalSensors>
*
*    <ExternalSensors>
*
*       <Sensor id='volt 0'>
*
*          <type>pH</type>
*
*          <SerialNumber>27-0363</SerialNumber>
*
*       </Sensor>
*
*       <Sensor id='volt 1'>
*
*          <type>ORP</type>
*
*          <SerialNumber>27-0363</SerialNumber>
*
*       </Sensor>
*
*       <Sensor id='volt 2'>
*
*          <type>OXY</type>
*
*          <SerialNumber>43-0434</SerialNumber>
*
*       </Sensor>
*
*       <Sensor id='volt 3'>
*
*          <type>PAR</type>
*
*          <SerialNumber>1122</SerialNumber>
*
*       </Sensor>
*
*       <Sensor id='volt 4'>
*
*          <type>ECO AFL/FL</type>
*
*          <SerialNumber>FLNTURT-2496</SerialNumber>
*
*       </Sensor>
*
*       <Sensor id='volt 5'>
*
*          <type>ECO-NTU</type>
*
*          <SerialNumber>FLNTURT-2496</SerialNumber>
*
*       </Sensor>
*
*       <Sensor id='serial'>
*
*          <type>not assigned</type>
*
*          <SerialNumber>not assigned</SerialNumber>
*
*       </Sensor>
*
*    </ExternalSensors>
*
* </HardwareData>
* <StatusData DeviceType='SBE19plus' SerialNumber='01907809'>
*
*    <DateTime>2019-06-10T13:27:22</DateTime>
*
*    <LoggingState>not logging</LoggingState>
*
*    <EventSummary numEvents='0'/>
*
*    <Power>
*
*       <vMain>13.5</vMain>
*
*       <vLith>8.6</vLith>
*
*       <iMain>63.1</iMain>
*
*       <iPump>148.4</iPump>
*
*       <iExt01>19.7</iExt01>
*
*       <iExt2345>35.3</iExt2345>
*
*    </Power>
*
*    <MemorySummary>
*
*       <Bytes>109940</Bytes>
*
*       <Samples>4780</Samples>
*
*       <SamplesFree>2856008</SamplesFree>
*
*       <SampleLength>23</SampleLength>
*
*       <Profiles>6</Profiles>
*
*    </MemorySummary>
*
* </StatusData>
* <ConfigurationData DeviceType='SBE19plus' SerialNumber='01907809'>
*
*    <ProfileMode>
*
*       <ScansToAverage>1</ScansToAverage>
*
*       <MinimumCondFreq>5</MinimumCondFreq>
*
*       <PumpDelay>45</PumpDelay>
*
*       <AutoRun>no</AutoRun>
*
*       <IgnoreSwitch>no</IgnoreSwitch>
*
*    </ProfileMode>
*
*    <Battery>
*
*       <Type>alkaline</Type>
*
*       <CutOff>7.5</CutOff>
*
*    </Battery>
*
*    <DataChannels>
*
*       <ExtVolt0>yes</ExtVolt0>
*
*       <ExtVolt1>yes</ExtVolt1>
*
*       <ExtVolt2>yes</ExtVolt2>
*
*       <ExtVolt3>yes</ExtVolt3>
*
*       <ExtVolt4>yes</ExtVolt4>
*
*       <ExtVolt5>yes</ExtVolt5>
*
*       <SBE38>no</SBE38>
*
*       <WETLABS>no</WETLABS>
*
*       <OPTODE>no</OPTODE>
*
*       <SBE63>no</SBE63>
*
*       <SeaFET>no</SeaFET>
*
*       <GTD>no</GTD>
*
*    </DataChannels>
*
*    <EchoCharacters>yes</EchoCharacters>
*
*    <OutputExecutedTag>yes</OutputExecutedTag>
*
*    <OutputFormat>raw HEX</OutputFormat>
*
* </ConfigurationData>
* <CalibrationCoefficients DeviceType='SBE19plus' SerialNumber='01907809'>
*
*    <Calibration format='TEMP1' id='Main Temperature'>
*
*       <SerialNum>01907809</SerialNum>
*
*       <CalDate>24-Mar-19</CalDate>
*
*       <TA0>1.217923e-03</TA0>
*
*       <TA1>2.816693e-04</TA1>
*
*       <TA2>-1.603333e-06</TA2>
*
*       <TA3>1.984146e-07</TA3>
*
*       <TOFFSET>0.000000e+00</TOFFSET>
*
*    </Calibration>
*
*    <Calibration format='WBCOND0' id='Main Conductivity'>
*
*       <SerialNum>01907809</SerialNum>
*
*       <CalDate>24-Mar-19</CalDate>
*
*       <G>-1.005893e+00</G>
*
*       <H>1.268163e-01</H>
*
*       <I>-1.515604e-04</I>
*
*       <J>2.671373e-05</J>
*
*       <CPCOR>-9.570000e-08</CPCOR>
*
*       <CTCOR>3.250000e-06</CTCOR>
*
*       <CSLOPE>1.000000e+00</CSLOPE>
*
*    </Calibration>
*
*    <Calibration format='STRAIN0' id='Main Pressure'>
*
*       <SerialNum>10586018</SerialNum>
*
*       <CalDate>11-Mar-19</CalDate>
*
*       <PA0>4.565618e-02</PA0>
*
*       <PA1>4.850951e-04</PA1>
*
*       <PA2>-2.883271e-12</PA2>
*
*       <PTCA0>5.252467e+05</PTCA0>
*
*       <PTCA1>1.223042e+01</PTCA1>
*
*       <PTCA2>-3.567450e-01</PTCA2>
*
*       <PTCB0>2.516687e+01</PTCB0>
*
*       <PTCB1>3.750000e-04</PTCB1>
*
*       <PTCB2>0.000000e+00</PTCB2>
*
*       <PTEMPA0>-5.487846e+01</PTEMPA0>
*
*       <PTEMPA1>5.537568e+01</PTEMPA1>
*
*       <PTEMPA2>-5.867271e-01</PTEMPA2>
*
*       <POFFSET>7.140000e-01</POFFSET>
*
*       <PRANGE>1.600000e+02</PRANGE>
*
*    </Calibration>
*
*    <Calibration format='VOLT0' id='Volt 0'>
*
*       <OFFSET>-4.920000e-02</OFFSET>
*
*       <SLOPE>1.248122e+00</SLOPE>
*
*    </Calibration>
*
*    <Calibration format='VOLT0' id='Volt 1'>
*
*       <OFFSET>-4.784000e-02</OFFSET>
*
*       <SLOPE>1.248871e+00</SLOPE>
*
*    </Calibration>
*
*    <Calibration format='VOLT0' id='Volt 2'>
*
*       <OFFSET>-4.864632e-02</OFFSET>
*
*       <SLOPE>1.248714e+00</SLOPE>
*
*    </Calibration>
*
*    <Calibration format='VOLT0' id='Volt 3'>
*
*       <OFFSET>-4.743790e-02</OFFSET>
*
*       <SLOPE>1.248571e+00</SLOPE>
*
*    </Calibration>
*
*    <Calibration format='VOLT0' id='Volt 4'>
*
*       <OFFSET>-4.671263e-02</OFFSET>
*
*       <SLOPE>1.248951e+00</SLOPE>
*
*    </Calibration>
*
*    <Calibration format='VOLT0' id='Volt 5'>
*
*       <OFFSET>-4.871053e-02</OFFSET>
*
*       <SLOPE>1.249136e+00</SLOPE>
*
*    </Calibration>
*
*    <Calibration format='FREQ0' id='external frequency channel'>
*
*       <EXTFREQSF>1.000014e+00</EXTFREQSF>
*
*    </Calibration>
*
* </CalibrationCoefficients>
* <EventCounters DeviceType='SBE19plus' SerialNumber='01907809'>
*
*    <EventSummary numEvents='0'/>
*
* </EventCounters></InstrumentState>
* <Headers>
*
* cast   4 10 Jun 2019 12:19:39 samples 2267 to 2918, avg = 1, stop = mag switch
*
# nquan = 18
# nvalues = 529                         
# units = specified
# name 0 = depFM: Depth [fresh water, m]
# name 1 = tv290C: Temperature [ITS-90, deg C]
# name 2 = sbeox0Mg/L: Oxygen, SBE 43 [mg/l]
# name 3 = sbeox0PS: Oxygen, SBE 43 [% saturation]
# name 4 = c0uS/cm: Conductivity [uS/cm]
# name 5 = specc: Specific Conductance [uS/cm]
# name 6 = ph: pH
# name 7 = orp: Oxidation Reduction Potential [mV]
# name 8 = flECO-AFL: Fluorescence, WET Labs ECO-AFL/FL [mg/m^3]
# name 9 = turbWETntu0: Turbidity, WET Labs ECO [NTU]
# name 10 = sal00: Salinity, Practical [PSU]
# name 11 = dz/dtM: Descent Rate [m/s]
# name 12 = prdM: Pressure, Strain Gauge [db]
# name 13 = prdE: Pressure, Strain Gauge [psi]
# name 14 = scan: Scan Count
# name 15 = par/sat/log: PAR/Logarithmic, Satlantic
# name 16 = density00: Density [density, kg/m^3]
# name 17 = flag:  0.000e+00
# span 0 =     -0.591,      5.378       
# span 1 =     9.8437,    21.8022       
# span 2 =     1.6020,    12.7321       
# span 3 =     14.345,    131.868       
# span 4 =   0.902047,  31.412692       
# span 5 =      0.994,     37.881       
# span 6 =      7.007,     10.103       
# span 7 =  -859.0687,   294.8203       
# span 8 =    -0.1598,     3.7694       
# span 9 =    -0.6287,    15.8676       
# span 10 =     0.0102,     0.0222      
# span 11 =     -0.102,      0.257      
# span 12 =     -0.580,      5.273      
# span 13 =     -0.841,      7.648      
# span 14 =          1,        529      
# span 15 = 6.3179e+00, 1.1650e+03      
# span 16 =   997.8334,   999.7551      
# span 17 = 0.0000e+00, 0.0000e+00      
# interval = seconds: 0.25
# start_time = Jun 10 2019 12:19:39 [Instrument's time stamp, header]
# bad_flag = -9.990e-29
# <Sensors count="9" >
#   <sensor Channel="1" >
#     <!-- Count, Temperature -->
#     <TemperatureSensor SensorID="58" >
#       <SerialNumber>7809</SerialNumber>
#       <CalibrationDate>24-Mar-19</CalibrationDate>
#       <A0>1.21792325e-003</A0>
#       <A1>2.81669265e-004</A1>
#       <A2>-1.60333336e-006</A2>
#       <A3>1.98414625e-007</A3>
#       <Slope>1.00000000</Slope>
#       <Offset>0.0000</Offset>
#     </TemperatureSensor>
#   </sensor>
#   <sensor Channel="2" >
#     <!-- Frequency 0, Conductivity -->
#     <ConductivitySensor SensorID="3" >
#       <SerialNumber>7809</SerialNumber>
#       <CalibrationDate>24-Mar-19</CalibrationDate>
#       <UseG_J>1</UseG_J>
#       <!-- Cell const and series R are applicable only for wide range sensors. -->
#       <SeriesR>0.0000</SeriesR>
#       <CellConst>2000.0000</CellConst>
#       <ConductivityType>0</ConductivityType>
#       <Coefficients equation="0" >
#         <A>0.00000000e+000</A>
#         <B>0.00000000e+000</B>
#         <C>0.00000000e+000</C>
#         <D>0.00000000e+000</D>
#         <M>0.0</M>
#         <CPcor>-9.57000000e-008</CPcor>
#       </Coefficients>
#       <Coefficients equation="1" >
#         <G>-1.00589325e+000</G>
#         <H>1.26816302e-001</H>
#         <I>-1.51560448e-004</I>
#         <J>2.67137274e-005</J>
#         <CPcor>-9.57000000e-008</CPcor>
#         <CTcor>3.2500e-006</CTcor>
#         <!-- WBOTC not applicable unless ConductivityType = 1. -->
#         <WBOTC>0.00000000e+000</WBOTC>
#       </Coefficients>
#       <Slope>1.00000000</Slope>
#       <Offset>0.00000</Offset>
#     </ConductivitySensor>
#   </sensor>
#   <sensor Channel="3" >
#     <!-- Count, Pressure, Strain Gauge -->
#     <PressureSensor SensorID="46" >
#       <SerialNumber>7809</SerialNumber>
#       <CalibrationDate>11-Mar-19</CalibrationDate>
#       <PA0>4.56561833e-002</PA0>
#       <PA1>4.85095118e-004</PA1>
#       <PA2>-2.88327090e-012</PA2>
#       <PTEMPA0>-5.48784562e+001</PTEMPA0>
#       <PTEMPA1>5.53756816e+001</PTEMPA1>
#       <PTEMPA2>-5.86727098e-001</PTEMPA2>
#       <PTCA0>5.25246745e+005</PTCA0>
#       <PTCA1>1.22304214e+001</PTCA1>
#       <PTCA2>-3.56745036e-001</PTCA2>
#       <PTCB0>2.51668750e+001</PTCB0>
#       <PTCB1>3.75000000e-004</PTCB1>
#       <PTCB2>0.00000000e+000</PTCB2>
#       <Offset>0.000000</Offset>
#     </PressureSensor>
#   </sensor>
#   <sensor Channel="4" >
#     <!-- A/D voltage 0, Oxygen, SBE 43 -->
#     <OxygenSensor SensorID="38" >
#       <SerialNumber>0434</SerialNumber>
#       <CalibrationDate>13-Apr-19</CalibrationDate>
#       <Use2007Equation>1</Use2007Equation>
#       <CalibrationCoefficients equation="0" >
#         <!-- Coefficients for Owens-Millard equation. -->
#         <Boc>0.0000</Boc>
#         <Soc>0.0000e+000</Soc>
#         <offset>0.0000</offset>
#         <Pcor>0.00e+000</Pcor>
#         <Tcor>0.0000</Tcor>
#         <Tau>0.0</Tau>
#       </CalibrationCoefficients>
#       <CalibrationCoefficients equation="1" >
#         <!-- Coefficients for Sea-Bird equation - SBE calibration in 2007 and later. -->
#         <Soc>4.2007e-001</Soc>
#         <offset>-0.6109</offset>
#         <A>-4.3656e-003</A>
#         <B> 1.7017e-004</B>
#         <C>-2.5341e-006</C>
#         <D0> 2.5826e+000</D0>
#         <D1> 1.92634e-004</D1>
#         <D2>-4.64803e-002</D2>
#         <E> 3.6000e-002</E>
#         <Tau20> 1.1800</Tau20>
#         <H1>-3.3000e-002</H1>
#         <H2> 5.0000e+003</H2>
#         <H3> 1.4500e+003</H3>
#       </CalibrationCoefficients>
#     </OxygenSensor>
#   </sensor>
#   <sensor Channel="5" >
#     <!-- A/D voltage 1, PAR/Logarithmic, Satlantic -->
#     <PARLog_SatlanticSensor SensorID="76" >
#       <SerialNumber>1122</SerialNumber>
#       <CalibrationDate>08-May-2019</CalibrationDate>
#       <a0>9.7456e-001</a0>
#       <a1>8.1640e-001</a1>
#       <Im>1.3589e+000</Im>
#       <Multiplier>1.0000e+000</Multiplier>
#     </PARLog_SatlanticSensor>
#   </sensor>
#   <sensor Channel="6" >
#     <!-- A/D voltage 2, pH -->
#     <pH_Sensor SensorID="43" >
#       <SerialNumber>0363</SerialNumber>
#       <CalibrationDate>15-Apr-19</CalibrationDate>
#       <Slope>4.5952</Slope>
#       <Offset>2.5370</Offset>
#     </pH_Sensor>
#   </sensor>
#   <sensor Channel="7" >
#     <!-- A/D voltage 3, Oxidation Reduction Potential -->
#     <OxidationReductionPotentialSensor SensorID="41" >
#       <SerialNumber>0363</SerialNumber>
#       <CalibrationDate>15-Apr-19</CalibrationDate>
#       <B>2.499480</B>
#       <M>-0.496195</M>
#       <Offset>0.0</Offset>
#     </OxidationReductionPotentialSensor>
#   </sensor>
#   <sensor Channel="8" >
#     <!-- A/D voltage 4, Fluorometer, WET Labs ECO-AFL/FL -->
#     <FluoroWetlabECO_AFL_FL_Sensor SensorID="20" >
#       <SerialNumber>FLNTURT-2496</SerialNumber>
#       <CalibrationDate>08-May-2019</CalibrationDate>
#       <ScaleFactor>5.00000000e+001</ScaleFactor>
#       <!-- Dark output -->
#       <Vblank>0.0550</Vblank>
#     </FluoroWetlabECO_AFL_FL_Sensor>
#   </sensor>
#   <sensor Channel="9" >
#     <!-- A/D voltage 5, Turbidity Meter, WET Labs, ECO-NTU -->
#     <TurbidityMeter SensorID="67" >
#       <SerialNumber>FLNTURT-2496</SerialNumber>
#       <CalibrationDate>08-May-2019</CalibrationDate>
#       <ScaleFactor>189.000000</ScaleFactor>
#       <!-- Dark output -->
#       <DarkVoltage>0.071000</DarkVoltage>
#     </TurbidityMeter>
#   </sensor>
# </Sensors>
# datcnv_date = Jun 10 2019 13:33:10, 7.26.7.129 [datcnv_vars = 17]
# datcnv_in = C:\DATA\061019_fcr30.hex C:\DATA\SBE19plusV2_7809.xmlcon
# datcnv_skipover = 0
# datcnv_ox_hysteresis_correction = yes
# datcnv_ox_tau_correction = yes
# filter_date = Jun 10 2019 13:33:32, 7.26.7.129
# filter_in = C:\DATA\061019_fcr30.cnv
# filter_low_pass_tc_A = 0.030
# filter_low_pass_tc_B = 0.150
# filter_low_pass_A_vars = tv290C c0uS/cm par/sat/log density00
# filter_low_pass_B_vars = prdM prdE
# alignctd_date = Jun 10 2019 13:33:50, 7.26.7.129
# alignctd_in = C:\DATA\061019_fcr30.cnv
# alignctd_adv = tv290C 0.500, sbeox0Mg/L 3.000, sbeox0PS 3.000                                                                                                                                                                      
# file_type = ascii
*END*
     -0.591    20.7348     8.7538     97.693   0.902047      0.994      7.011  -772.5649    -0.1293     0.0491     0.0102 2.1053e-16     -0.580     -0.841          1 1.1650e+03   998.0562 0.0000e+00
     -0.590    20.7350     8.7505     97.657   1.157254      1.238      7.014  -775.7828    -0.0911    -0.0230     0.0103      0.000     -0.579     -0.840          2 1.1599e+03   998.0561 0.0000e+00
     -0.590    20.7351     8.7539     97.695   1.631219      1.817      7.016  -795.8471    -0.1293    -0.0374     0.0103      0.000     -0.579     -0.840          3 1.1513e+03   998.0561 0.0000e+00
     -0.591    20.7353     8.7542     97.698   1.673032      1.817      7.010  -793.8407    -0.1102    -0.2393     0.0103      0.000     -0.579     -0.840          4 1.1290e+03   998.0561 0.0000e+00
     -0.590    20.7356     8.7557     97.715   1.489798      1.634      7.009  -798.3078    -0.1254    -0.1816     0.0103      0.000     -0.579     -0.840          5 1.0879e+03   998.0560 0.0000e+00
     -0.590    20.7358     8.7601     97.765   1.622582      1.756      7.010  -808.4536    -0.1102    -0.0807     0.0103      0.000     -0.579     -0.840          6 1.0542e+03   998.0560 0.0000e+00
     -0.591    20.7359     8.7592     97.755   1.892374      2.091      7.012  -811.4443    -0.1254    -0.3403     0.0104      0.000     -0.579     -0.840          7 9.9375e+02   998.0560 0.0000e+00
     -0.590    20.7362     8.7502     97.729   1.804888      1.969      7.010  -813.3750    -0.1026    -0.3691     0.0104      0.000     -0.579     -0.840          8 9.2840e+02   998.0559 0.0000e+00
     -0.590    20.7363     8.7100     97.713   1.613121      1.756      7.007  -809.6650    -0.1254    -0.4412     0.0103      0.000     -0.579     -0.840          9 9.0329e+02   998.0559 0.0000e+00
     -0.590    20.7367     8.6700     97.659   1.598517      1.756      7.008  -812.9207    -0.1178    -0.5277     0.0103      0.000     -0.579     -0.839         10 8.9607e+02   998.0558 0.0000e+00
     -0.590    20.7364     8.6462     97.674   1.615976      1.756      7.023  -843.4337    -0.1445    -0.5566     0.0103      0.000     -0.579     -0.839         11 8.6968e+02   998.0558 0.0000e+00
     -0.590    20.7371     8.6255     97.655   1.532226      1.695      7.018  -837.9444    -0.1331    -0.6287     0.0103      0.000     -0.579     -0.839         12 8.3314e+02   998.0557 0.0000e+00
     -0.589    20.7363     8.6092     97.656   1.584408      1.695      7.018  -836.9979    -0.1407    -0.4845     0.0103      0.000     -0.578     -0.838         13 8.2862e+02   998.0558 0.0000e+00
     -0.589    20.7380     8.6051     97.746   1.491870      1.695      7.013  -834.3858    -0.1407    -0.5421     0.0103      0.001     -0.578     -0.838         14 8.5468e+02   998.0556 0.0000e+00
     -0.590    20.7353     8.6172     97.974   1.588221      1.634      7.017  -846.4622    -0.1407    -0.4845     0.0103      0.001     -0.578     -0.838         15 8.6200e+02   998.0558 0.0000e+00
     -0.589    20.7396     8.6523     98.420   1.346168      1.634      7.019  -840.8215    -0.1140    -0.4556     0.0103      0.000     -0.578     -0.838         16 8.5622e+02   998.0553 0.0000e+00
     -0.590    20.7324     8.7051     99.042   1.733935      1.634      7.018  -859.0687    -0.1254    -0.4989     0.0103      0.000     -0.577     -0.837         17 8.7892e+02   998.0560 0.0000e+00
     -0.587    20.7849     8.7692     99.775   1.046484      1.573      7.171   136.1606    -0.1483    -0.5133     0.0103      0.001     -0.567     -0.823         18 9.1209e+02   998.0550 0.0000e+00
     -0.558    20.9946     8.8471    100.638   1.965020      1.451      7.318   186.7757    -0.1483    -0.4412     0.0103      0.009     -0.540     -0.783         19 9.4861e+02   998.0569 0.0000e+00
     -0.508    21.2087     8.9219    101.468  11.095589     12.566      7.371   269.4181    -0.1598    -0.4556     0.0136      0.028     -0.494     -0.717         20 1.0095e+03   998.0482 0.0000e+00
     -0.447    21.3529     8.9892    102.225  22.712881     24.331      7.785   279.0339    -0.1102    -0.4556     0.0182      0.058     -0.437     -0.635         21 1.0521e+03   998.0069 0.0000e+00
     -0.384    21.4702     9.0373    102.757  29.901790     32.890      8.371   276.3081    -0.1331    -0.5566     0.0217      0.095     -0.377     -0.547         22 1.0897e+03   997.9630 0.0000e+00
     -0.321    21.5659     9.0782    103.206  30.756596     32.845      8.909   277.9360    -0.1522    -0.5133     0.0217      0.135     -0.320     -0.463         23 1.1108e+03   997.9318 0.0000e+00
     -0.276    21.6399     9.1095    103.552  30.327732     32.825      9.264   274.2638    -0.1331    -0.5566     0.0218      0.169     -0.267     -0.386         24 1.1135e+03   997.9061 0.0000e+00
     -0.217    21.6863     9.1464    103.964  30.672462     32.815      9.536   270.0995     1.7438    15.8099     0.0218      0.198     -0.207     -0.300         25 1.1104e+03   997.8852 0.0000e+00
     -0.139    21.7118     9.1293    103.760  30.505301     32.764      9.757   249.9595     1.7323    15.7955     0.0218      0.223     -0.135     -0.196         26 1.0898e+03   997.8689 0.0000e+00
     -0.057    21.7227     9.0354    102.700  30.594983     32.731      9.942   247.9152     1.7285    15.7522     0.0218      0.240     -0.058     -0.085         27 8.9862e+02   997.8590 0.0000e+00
      0.020    21.7247     8.8830    100.984  30.501583     32.654     10.044   246.3630     1.7552    15.8676     0.0218      0.253      0.011      0.015         28 6.5293e+02   997.8535 0.0000e+00
      0.069    21.7133     8.6858     98.756  30.562274     32.706     10.088   245.6816     1.7323    15.8099     0.0218      0.257      0.062      0.090         29 6.1471e+02   997.8514 0.0000e+00
      0.102    21.7020     8.4816     96.445  30.460198     32.585     10.103   244.9245     2.2473     1.3324     0.0217      0.253      0.099      0.144         30 5.4345e+02   997.8511 0.0000e+00
      0.135    21.6975     8.2810     94.164  30.450858     32.593     10.095   244.8109     2.2206     1.4334     0.0217      0.241      0.129      0.188         31 4.6568e+02   997.8538 0.0000e+00
      0.159    21.6909     8.1072     92.185  30.514649     32.661     10.086   244.7352     2.2283     1.4334     0.0218      0.222      0.154      0.224         32 4.3110e+02   997.8564 0.0000e+00
      0.180    21.6821     7.9842     90.779  30.558572     32.724     10.076   244.4702     2.2321     1.3324     0.0218      0.193      0.174      0.253         33 3.7081e+02   997.8575 0.0000e+00
      0.194    21.6776     7.9090     89.925  30.514704     32.669     10.061   244.5838     2.4953     1.3324     0.0218      0.156      0.185      0.269         34 3.4396e+02   997.8591 0.0000e+00
      0.191    21.6738     7.8773     89.568  30.450740     32.615     10.052   245.0002     2.4762     1.3324     0.0217      0.117      0.184      0.267         35 3.4526e+02   997.8610 0.0000e+00
      0.177    21.6694     7.8615     89.392  30.460420     32.618     10.048   244.6595     2.4762     1.2748     0.0217      0.080      0.177      0.257         36 3.2971e+02   997.8619 0.0000e+00
      0.176    21.6728     7.8494     89.255  30.502659     32.680     10.039   245.1138     2.4648     1.3324     0.0218      0.052      0.175      0.255         37 3.0473e+02   997.8628 0.0000e+00
      0.184    21.6810     7.8271     89.001  30.516680     32.684     10.022   245.2273     2.4266     1.4189     0.0218      0.033      0.179      0.261         38 3.0634e+02   997.8637 0.0000e+00
      0.190    21.6887     7.7831     88.498  30.502226     32.681     10.005   245.1516     2.4266     1.3757     0.0218      0.018      0.184      0.268         39 2.8395e+02   997.8630 0.0000e+00
      0.191    21.6934     7.7082     87.644  30.520647     32.676      9.993   245.3030     2.4266     1.3036     0.0218      0.008      0.185      0.269         40 2.6595e+02   997.8612 0.0000e+00
      0.185    21.6939     7.6200     86.636  30.553004     32.730      9.985   245.3788     2.4266     1.2748     0.0218      0.001      0.183      0.265         41 2.6860e+02   997.8595 0.0000e+00
      0.185    21.6920     7.5348     85.662  30.580459     32.726      9.976   245.4166     2.4800     1.3901     0.0218     -0.001      0.182      0.263         42 2.5796e+02   997.8584 0.0000e+00
      0.186    21.6887     7.4567     84.768  30.604982     32.786      9.974   245.7952     2.4800     1.3324     0.0218      0.002      0.183      0.265         43 2.4421e+02   997.8583 0.0000e+00
      0.189    21.6889     7.3994     84.114  30.522483     32.668      9.962   245.9845     2.4571     1.3324     0.0218      0.005      0.185      0.268         44 2.4058e+02   997.8588 0.0000e+00
      0.189    21.6910     7.3678     83.752  30.505370     32.670      9.945   245.7952     2.4800     1.2892     0.0218      0.004      0.186      0.269         45 2.4034e+02   997.8595 0.0000e+00
      0.190    21.6924     7.3851     83.948  30.507776     32.670      9.928   245.8709     2.5373     1.2748     0.0218      0.001      0.186      0.269         46 2.4274e+02   997.8594 0.0000e+00
      0.188    21.6935     7.4441     84.618  30.519491     32.669      9.917   245.9466     2.5411     1.4045     0.0218      0.000      0.186      0.270         47 2.4547e+02   997.8590 0.0000e+00
      0.191    21.6932     7.5377     85.682  30.550043     32.727      9.911   245.9466     2.5334     1.4334     0.0218      0.001      0.187      0.272         48 2.5301e+02   997.8587 0.0000e+00
      0.193    21.6917     7.6473     86.926  30.529005     32.667      9.900   246.3630     2.5334     1.2603     0.0218      0.004      0.188      0.273         49 2.5078e+02   997.8584 0.0000e+00
      0.192    21.6894     7.7526     88.121  30.545671     32.727      9.885   246.6280     2.5411     1.3180     0.0218      0.004      0.188      0.273         50 2.5237e+02   997.8585 0.0000e+00
      0.189    21.6865     7.8442     89.161  30.529303     32.668      9.871   246.6659     2.5334     1.3324     0.0218      0.002      0.185      0.269         51 2.6816e+02   997.8588 0.0000e+00
      0.186    21.6833     7.9158     89.976  30.549376     32.729      9.864   246.7416     2.5373     1.3180     0.0218     -0.000      0.184      0.266         52 2.7024e+02   997.8593 0.0000e+00
      0.187    21.6802     7.9668     90.554  30.520691     32.672      9.851   246.8173     2.5716     1.3901     0.0218     -0.001      0.184      0.266         53 2.5281e+02   997.8600 0.0000e+00
      0.189    21.6784     7.9797     90.699  30.505751     32.674      9.842   247.0066     2.5220     1.4045     0.0218     -0.001      0.187      0.270         54 2.6157e+02   997.8607 0.0000e+00
      0.195    21.6771     7.9874     90.784  30.508719     32.676      9.833   247.1202     2.5182     1.3901     0.0218      0.000      0.191      0.276         55 2.6284e+02   997.8614 0.0000e+00
      0.199    21.6763     7.9761     90.653  30.457747     32.618      9.818   247.4230     2.5678     1.3469     0.0217      0.002      0.195      0.282         56 2.5312e+02   997.8618 0.0000e+00
      0.202    21.6760     7.9757     90.646  30.509933     32.678      9.804   247.3473     2.5449     1.3036     0.0218      0.004      0.198      0.286         57 2.6511e+02   997.8621 0.0000e+00
      0.204    21.6753     7.9772     90.657  30.503027     32.679      9.786   247.4609     2.5678     1.3036     0.0218      0.008      0.200      0.290         58 2.5340e+02   997.8623 0.0000e+00
      0.207    21.6746     7.9739     90.616  30.466342     32.619      9.772   247.7638     2.7280     1.3613     0.0217      0.011      0.203      0.294         59 2.5093e+02   997.8624 0.0000e+00
      0.210    21.6738     7.9665     90.530  30.496335     32.680      9.756   247.7259     2.7242     1.3901     0.0218      0.012      0.204      0.296         60 2.5217e+02   997.8626 0.0000e+00
      0.209    21.6735     7.9533     90.378  30.465703     32.620      9.742   247.7259     2.7318     1.2748     0.0217      0.012      0.204      0.296         61 2.5340e+02   997.8627 0.0000e+00
      0.206    21.6733     7.9660     90.522  30.445212     32.621      9.730   247.9531     2.7165     1.3324     0.0217      0.009      0.203      0.294         62 2.7112e+02   997.8629 0.0000e+00
      0.205    21.6728     7.9359     90.180  30.462582     32.621      9.722   248.0666     2.7051     1.2748     0.0217      0.005      0.201      0.291         63 2.6448e+02   997.8629 0.0000e+00
      0.203    21.6719     7.9001     89.774  30.503337     32.681      9.709   248.3695     2.7242     1.2748     0.0218      0.002      0.199      0.289         64 2.5432e+02   997.8630 0.0000e+00
      0.203    21.6705     7.8506     89.212  30.512998     32.681      9.703   248.3695     2.7432     1.3324     0.0218     -0.000      0.199      0.289         65 2.7196e+02   997.8631 0.0000e+00
      0.202    21.6691     7.8056     88.699  30.509811     32.682      9.696   248.2938     2.7585     1.4045     0.0218     -0.002      0.198      0.288         66 2.7201e+02   997.8633 0.0000e+00
      0.202    21.6672     7.7565     88.142  30.507304     32.683      9.689   248.4452     2.5678     1.3469     0.0218     -0.004      0.198      0.288         67 2.6196e+02   997.8637 0.0000e+00
      0.202    21.6643     7.7026     87.530  30.456866     32.624      9.682   248.4452     2.5907     1.4189     0.0217     -0.004      0.198      0.288         68 2.7555e+02   997.8639 0.0000e+00
      0.202    21.6624     7.6573     87.016  30.454075     32.625      9.671   248.7859     2.6097     1.4910     0.0217     -0.003      0.197      0.287         69 2.7295e+02   997.8643 0.0000e+00
      0.200    21.6612     7.6207     86.602  30.510780     32.687      9.657   249.0509     2.6135     1.3324     0.0218     -0.003      0.197      0.286         70 2.6692e+02   997.8650 0.0000e+00
      0.201    21.6601     7.6012     86.382  30.504804     32.689      9.648   248.7859     2.5678     1.2459     0.0218     -0.002      0.198      0.287         71 2.7155e+02   997.8654 0.0000e+00
      0.205    21.6596     7.5885     86.237  30.461512     32.630      9.645   248.6723     2.6097     1.3757     0.0217     -0.000      0.200      0.291         72 2.7226e+02   997.8657 0.0000e+00
      0.206    21.6598     7.5745     86.076  30.505405     32.690      9.638   249.3159     2.5792     1.3901     0.0218      0.001      0.202      0.293         73 2.6969e+02   997.8660 0.0000e+00
      0.208    21.6601     7.5558     85.863  30.509432     32.691      9.630   248.9752     2.6402     1.2892     0.0218      0.003      0.205      0.297         74 2.6801e+02   997.8661 0.0000e+00
      0.214    21.6599     7.5281     85.549  30.456499     32.631      9.627   249.4673     2.6097     1.3324     0.0217      0.005      0.209      0.304         75 2.6212e+02   997.8660 0.0000e+00
      0.219    21.6595     7.4995     85.223  30.452775     32.630      9.623   249.4673     2.6097     1.3469     0.0217      0.008      0.214      0.311         76 2.5777e+02   997.8660 0.0000e+00
      0.223    21.6596     7.4705     84.891  30.454816     32.631      9.616   249.4295     2.5983     1.4334     0.0217      0.011      0.218      0.317         77 2.5780e+02   997.8661 0.0000e+00
      0.225    21.6601     7.4412     84.554  30.453960     32.631      9.612   249.2023     2.6059     1.3613     0.0217      0.014      0.221      0.320         78 2.5408e+02   997.8662 0.0000e+00
      0.226    21.6610     7.4013     84.098  30.453839     32.631      9.601   249.3159     2.6097     1.3757     0.0217      0.014      0.222      0.322         79 2.5585e+02   997.8661 0.0000e+00
      0.228    21.6620     7.3645     83.680  30.454966     32.630      9.585   249.6566     2.6517     1.3036     0.0217      0.013      0.223      0.324         80 2.5890e+02   997.8660 0.0000e+00
      0.230    21.6625     7.3231     83.208  30.452557     32.630      9.567   249.6188     2.6364     1.3757     0.0217      0.012      0.225      0.327         81 2.5077e+02   997.8658 0.0000e+00
      0.232    21.6623     7.2828     82.747  30.456836     32.629      9.558   249.8459     2.6670     1.2892     0.0217      0.011      0.227      0.330         82 2.4840e+02   997.8656 0.0000e+00
      0.234    21.6614     7.2423     82.283  30.449641     32.629      9.548   250.2245     2.6822     1.4478     0.0217      0.009      0.228      0.331         83 2.5789e+02   997.8655 0.0000e+00
      0.232    21.6609     7.1993     81.788  30.461513     32.629      9.538   249.9973     2.6784     1.3613     0.0217      0.007      0.227      0.330         84 2.5440e+02   997.8656 0.0000e+00
      0.230    21.6612     7.1596     81.332  30.442062     32.630      9.524   250.3759     2.6441     1.3180     0.0217      0.004      0.226      0.328         85 2.5768e+02   997.8658 0.0000e+00
      0.231    21.6609     7.1224     80.906  30.414594     32.570      9.508   250.1866     2.6670     1.3324     0.0217      0.003      0.226      0.328         86 2.6471e+02   997.8658 0.0000e+00
      0.231    21.6593     7.0830     80.454  30.436444     32.630      9.501   250.4516     2.6898     1.4045     0.0217      0.002      0.226      0.328         87 2.5923e+02   997.8658 0.0000e+00
      0.231    21.6571     7.0483     80.056  30.414871     32.570      9.494   250.4516     2.5105     1.4478     0.0217      0.001      0.225      0.327         88 2.5951e+02   997.8659 0.0000e+00
      0.229    21.6557     7.0020     79.525  30.441441     32.631      9.484   250.5273     2.5525     1.3324     0.0217     -0.001      0.224      0.326         89 2.5919e+02   997.8662 0.0000e+00
      0.228    21.6551     6.9634     79.083  30.462629     32.633      9.477   250.8302     2.5258     1.3613     0.0217     -0.002      0.223      0.324         90 2.6053e+02   997.8667 0.0000e+00
      0.228    21.6542     6.9170     78.554  30.447756     32.633      9.468   251.3223     2.5296     1.2748     0.0217     -0.003      0.223      0.324         91 2.6223e+02   997.8670 0.0000e+00
      0.229    21.6526     6.8745     78.072  30.400700     32.574      9.466   251.2845     2.5525     1.3613     0.0217     -0.002      0.224      0.325         92 2.5997e+02   997.8671 0.0000e+00
      0.229    21.6498     6.8473     77.767  30.402687     32.575      9.470   250.9059     2.5449     1.3613     0.0217     -0.001      0.224      0.325         93 2.6048e+02   997.8673 0.0000e+00
      0.229    21.6463     6.8283     77.548  30.445285     32.636      9.471   250.9816     2.5449     1.2892     0.0217     -0.001      0.224      0.326         94 2.5413e+02   997.8677 0.0000e+00
      0.230    21.6431     6.8148     77.387  30.406939     32.578      9.476   250.9816     2.5449     1.3469     0.0217     -0.001      0.225      0.327         95 2.5695e+02   997.8683 0.0000e+00
      0.231    21.6407     6.8086     77.313  30.391156     32.580      9.480   251.1709     2.5563     1.3036     0.0217      0.000      0.225      0.327         96 2.5502e+02   997.8691 0.0000e+00
      0.231    21.6380     6.7934     77.142  30.405677     32.582      9.476   251.3981     2.4686     1.3613     0.0217      0.001      0.225      0.327         97 2.5547e+02   997.8698 0.0000e+00
      0.229    21.6350     6.7857     77.057  30.388869     32.584      9.461   251.3981     2.4838     1.3036     0.0217      0.001      0.224      0.326         98 2.6253e+02   997.8703 0.0000e+00
      0.227    21.6325     6.7707     76.886  30.352823     32.526      9.450   251.7766     2.5029     1.3469     0.0217      0.000      0.222      0.323         99 2.6814e+02   997.8709 0.0000e+00
      0.224    21.6301     6.7474     76.618  30.332034     32.528      9.444   251.7009     2.5029     1.3757     0.0217     -0.001      0.219      0.318        100 2.6811e+02   997.8716 0.0000e+00
      0.220    21.6283     6.7104     76.197  30.355490     32.530      9.437   251.8145     2.4877     1.1017     0.0217     -0.004      0.217      0.315        101 2.7174e+02   997.8721 0.0000e+00
      0.220    21.6292     6.6673     75.712  30.382885     32.592      9.428   251.7009     2.4686     1.1017     0.0217     -0.005      0.217      0.315        102 2.8258e+02   997.8727 0.0000e+00
      0.225    21.6314     6.6158     75.093  30.357195     32.533      9.419   251.7009     2.4838     1.0873     0.0217     -0.005      0.221      0.321        103 2.6874e+02   997.8731 0.0000e+00
      0.232    21.6292     6.5742     74.560  30.387462     32.592      9.410   252.0795     2.4648     1.1882     0.0217     -0.002      0.226      0.328        104 2.6455e+02   997.8729 0.0000e+00
      0.234    21.6243     6.5456     74.200  30.404468     32.591      9.398   251.7766     2.3198     1.1450     0.0217      0.001      0.228      0.331        105 2.6045e+02   997.8724 0.0000e+00
      0.232    21.6220     6.5357     74.074  30.395281     32.592      9.386   251.8902     2.2778     1.1306     0.0217      0.004      0.228      0.330        106 2.5584e+02   997.8729 0.0000e+00
      0.231    21.6231     6.5839     74.622  30.398895     32.596      9.376   251.9659     2.2740     1.0585     0.0217      0.005      0.228      0.330        107 2.4265e+02   997.8740 0.0000e+00
      0.235    21.6241     6.6259     75.102  30.399973     32.597      9.370   252.1173     2.2740     1.1161     0.0217      0.007      0.230      0.335        108 2.3185e+02   997.8746 0.0000e+00
      0.240    21.6238     6.6974     75.918  30.393942     32.596      9.367   252.2688     2.5640     1.4045     0.0217      0.009      0.234      0.340        109 2.5103e+02   997.8743 0.0000e+00
      0.242    21.6215     6.7698     76.746  30.406400     32.596      9.363   252.2688     2.6174     1.3757     0.0217      0.009      0.237      0.343        110 2.5029e+02   997.8741 0.0000e+00
      0.243    21.6217     6.8380     77.533  30.384469     32.596      9.359   252.4202     2.6174     1.4478     0.0217      0.008      0.237      0.343        111 2.4760e+02   997.8742 0.0000e+00
      0.241    21.6233     6.8936     78.170  30.273107     32.448      9.351   252.3445     2.5983     1.3324     0.0217      0.006      0.233      0.338        112 2.4825e+02   997.8746 0.0000e+00
      0.230    21.5998     6.9302     78.596  30.248732     32.448      9.353   252.4202     2.6059     1.2171     0.0217      0.003      0.220      0.320        113 2.6598e+02   997.8746 0.0000e+00
      0.204    21.5589     6.9364     78.656  30.266674     32.446      9.345   252.6095     2.4190     1.3469     0.0217     -0.007      0.199      0.289        114 3.0379e+02   997.8740 0.0000e+00
      0.176    21.5334     6.9107     78.335  30.339655     32.552      9.338   252.6473     2.4343     1.3757     0.0217     -0.022      0.175      0.254        115 3.2954e+02   997.8792 0.0000e+00
      0.156    21.5249     6.8685     77.843  30.335671     32.582      9.334   252.8366     2.4266     1.3180     0.0217     -0.039      0.156      0.226        116 3.4641e+02   997.8882 0.0000e+00
      0.145    21.5249     6.8216     77.313  30.271646     32.509      9.325   252.7988     2.4190     1.3613     0.0217     -0.053      0.143      0.208        117 3.4131e+02   997.8938 0.0000e+00
      0.137    21.5285     6.7799     76.845  30.330467     32.606      9.317   253.0259     2.1863     1.3036     0.0217     -0.061      0.134      0.194        118 3.9593e+02   997.8958 0.0000e+00
      0.127    21.5319     6.7620     76.648  30.351353     32.605      9.308   253.1016     2.1939     1.4334     0.0217     -0.065      0.126      0.183        119 4.4033e+02   997.8957 0.0000e+00
      0.121    21.5375     6.7479     76.493  30.334530     32.603      9.298   252.9124     2.1787     1.3324     0.0217     -0.062      0.120      0.174        120 4.3702e+02   997.8949 0.0000e+00
      0.119    21.5452     6.7409     76.415  30.351399     32.600      9.287   252.8366     2.1672     1.3036     0.0217     -0.053      0.119      0.172        121 4.8762e+02   997.8941 0.0000e+00
      0.124    21.5509     6.7273     76.259  30.389609     32.657      9.279   253.1395     2.1672     1.2748     0.0217     -0.038      0.121      0.175        122 4.8661e+02   997.8929 0.0000e+00
      0.126    21.5572     6.7098     76.052  30.346228     32.591      9.257   253.2152     2.1748     1.3180     0.0217     -0.024      0.119      0.173        123 4.9139e+02   997.8911 0.0000e+00
      0.114    21.5506     6.6865     75.750  30.346133     32.588      9.242   253.7452     2.1748     1.3324     0.0217     -0.017      0.109      0.159        124 5.2490e+02   997.8899 0.0000e+00
      0.095    21.5315     6.6698     75.522  30.330474     32.582      9.239   253.3666     2.1443     1.3324     0.0217     -0.018      0.093      0.136        125 5.6486e+02   997.8884 0.0000e+00
      0.077    21.5221     6.6745     75.552  30.276835     32.497      9.237   253.5559     2.3007     1.1738     0.0217     -0.023      0.079      0.115        126 6.3297e+02   997.8897 0.0000e+00
      0.071    21.5232     6.7345     76.221  30.324011     32.601      9.237   253.4424     2.2817     1.1161     0.0217     -0.027      0.072      0.105        127 6.2306e+02   997.8940 0.0000e+00
      0.074    21.5265     6.8688     77.739  30.360649     32.607      9.233   253.4424     2.2893     1.1306     0.0217     -0.030      0.071      0.103        128 6.5510e+02   997.8960 0.0000e+00
      0.073    21.5301     7.0191     79.438  30.320122     32.606      9.222   253.5938     2.3007     1.1450     0.0217     -0.032      0.071      0.103        129 6.7470e+02   997.8958 0.0000e+00
      0.071    21.5336     7.1669     81.111  30.285569     32.514      9.212   253.5559     1.9269     1.3324     0.0217     -0.031      0.069      0.100        130 6.2496e+02   997.8951 0.0000e+00
      0.067    21.5342     7.2743     82.331  30.314769     32.601      9.205   253.7831     1.9307     1.4334     0.0217     -0.027      0.066      0.095        131 6.1449e+02   997.8942 0.0000e+00
      0.064    21.5336     7.3547     83.250  30.283780     32.509      9.199   253.9345     1.9307     1.3180     0.0217     -0.019      0.063      0.091        132 6.1581e+02   997.8935 0.0000e+00
      0.063    21.5268     7.3881     83.653  30.264882     32.538      9.189   254.1616     1.9460     1.3324     0.0217     -0.012      0.060      0.087        133 6.2777e+02   997.8932 0.0000e+00
      0.058    21.5025     7.3680     83.458  30.279037     32.509      9.173   254.3131     1.9154     1.2748     0.0217     -0.008      0.051      0.073        134 6.4551e+02   997.8934 0.0000e+00
      0.034    21.4749     7.3066     82.786  30.325418     32.603      9.166   253.7831     2.0337     1.1161     0.0217     -0.015      0.027      0.039        135 6.4652e+02   997.8949 0.0000e+00
     -0.011    21.4592     7.2173     81.793  30.266417     32.531      9.161   253.9724     2.0833     1.0440     0.0217     -0.032     -0.006     -0.008        136 6.2632e+02   997.9000 0.0000e+00
     -0.036    21.4525     7.1236     80.746  30.204344     32.490      9.153   290.5046     2.0642     1.1882     0.0216     -0.049     -0.032     -0.047        137 6.5706e+02   997.9060 0.0000e+00
     -0.051    21.4512     7.0340     79.745  30.254548     32.561      9.138   289.3310     2.0680     1.1306     0.0217     -0.064     -0.050     -0.073        138 6.7396e+02   997.9095 0.0000e+00
     -0.066    21.4499     6.9585     78.909  30.263196     32.566      9.118   290.1639     1.9193     1.3613     0.0217     -0.075     -0.068     -0.098        139 7.0018e+02   997.9109 0.0000e+00
     -0.093    21.4498     6.8919     78.167  30.223209     32.537      9.103   288.8767     1.9269     1.2748     0.0216     -0.085     -0.088     -0.127        140 7.2840e+02   997.9110 0.0000e+00
     -0.109    21.4528     6.8442     77.630  30.274685     32.568      9.094   276.1567     1.9536     1.4622     0.0217     -0.090     -0.100     -0.145        141 6.7726e+02   997.9112 0.0000e+00
     -0.103    21.4587     6.8079     77.215  30.317638     32.658      9.083   287.8167     1.9193     1.4045     0.0217     -0.083     -0.101     -0.147        142 6.6306e+02   997.9113 0.0000e+00
     -0.101    21.4739     6.7775     76.865  30.288258     32.565      9.078   286.9839     1.9650     1.3180     0.0217     -0.065     -0.096     -0.139        143 6.3583e+02   997.9106 0.0000e+00
     -0.089    21.4932     6.7460     76.496  30.311248     32.652      9.066   286.1132     1.9956     1.3324     0.0217     -0.043     -0.087     -0.127        144 5.8535e+02   997.9094 0.0000e+00
     -0.076    21.5080     6.7158     76.140  30.289024     32.551      9.047   285.3182     2.0070     1.4045     0.0217     -0.023     -0.077     -0.112        145 5.7772e+02   997.9060 0.0000e+00
     -0.070    21.5201     6.6835     75.763  30.315908     32.627      9.027   285.4696     2.0146     1.3036     0.0217     -0.006     -0.070     -0.103        146 5.6515e+02   997.9018 0.0000e+00
     -0.069    21.5302     6.6534     75.414  30.277784     32.527      9.014   285.8860     2.0108     1.3613     0.0217      0.009     -0.067     -0.099        147 5.5252e+02   997.8985 0.0000e+00
     -0.068    21.5400     6.6173     75.002  30.247587     32.519      9.003   285.9239     2.0032     1.2892     0.0217      0.020     -0.065     -0.095        148 5.3858e+02   997.8959 0.0000e+00
     -0.063    21.5517     6.5846     74.634  30.264606     32.511      8.994   285.7724     2.0032     1.4334     0.0217      0.024     -0.060     -0.087        149 5.2494e+02   997.8936 0.0000e+00
     -0.053    21.5610     6.5542     74.292  30.256599     32.505      8.981   285.3939     1.9841     1.3324     0.0217      0.024     -0.053     -0.077        150 5.2224e+02   997.8914 0.0000e+00
     -0.046    21.5636     6.5459     74.193  30.257547     32.496      8.974   285.5832     1.9383     1.3036     0.0217      0.023     -0.048     -0.070        151 5.1388e+02   997.8890 0.0000e+00
     -0.049    21.5617     6.5265     73.964  30.233796     32.460      8.965   285.4696     1.9269     1.3324     0.0216      0.019     -0.049     -0.070        152 5.1156e+02   997.8868 0.0000e+00
     -0.053    21.5579     6.4967     73.618  30.256526     32.488      8.960   285.2424     1.9193     1.2603     0.0217      0.014     -0.051     -0.074        153 5.2182e+02   997.8862 0.0000e+00
     -0.053    21.5507     6.4681     73.287  30.258883     32.490      8.960   284.4096     1.9345     1.3613     0.0217      0.011     -0.051     -0.074        154 5.2526e+02   997.8867 0.0000e+00
     -0.049    21.5416     6.4289     72.833  30.260491     32.492      8.954   284.1067     1.9116     1.2027     0.0217      0.010     -0.048     -0.071        155 5.2518e+02   997.8875 0.0000e+00
     -0.047    21.5340     6.3930     72.414  30.254528     32.497      8.941   284.3339     2.0413     1.3613     0.0217      0.008     -0.046     -0.068        156 5.1042e+02   997.8891 0.0000e+00
     -0.047    21.5286     6.3503     71.908  30.207054     32.444      8.927   284.4853     2.0451     1.2027     0.0216      0.005     -0.045     -0.066        157 4.8114e+02   997.8911 0.0000e+00
     -0.045    21.5263     6.3153     71.485  30.260323     32.509      8.921   284.1824     2.0490     1.3901     0.0217      0.002     -0.042     -0.062        158 4.7181e+02   997.8929 0.0000e+00
     -0.038    21.5283     6.2779     71.041  30.277115     32.543      8.920   283.9932     2.0680     1.3180     0.0217      0.004     -0.036     -0.052        159 4.7228e+02   997.8941 0.0000e+00
     -0.025    21.5298     6.2633     70.862  30.215784     32.454      8.913   283.9932     2.1977     1.3469     0.0216      0.010     -0.027     -0.039        160 4.6023e+02   997.8947 0.0000e+00
     -0.019    21.5262     6.2765     71.004  30.247773     32.513      8.894   283.7660     2.1748     1.2748     0.0217      0.016     -0.022     -0.032        161 4.4788e+02   997.8942 0.0000e+00
     -0.023    21.5199     6.3258     71.562  30.266932     32.512      8.880   284.1824     2.1939     1.3757     0.0217      0.017     -0.024     -0.035        162 4.5683e+02   997.8939 0.0000e+00
     -0.031    21.5147     6.3890     72.275  30.251192     32.514      8.881   284.1446     2.2054     1.3613     0.0217      0.014     -0.027     -0.040        163 4.6152e+02   997.8946 0.0000e+00
     -0.029    21.5094     6.4643     73.127  30.267362     32.519      8.881   283.1982     2.1748     1.3324     0.0217      0.012     -0.024     -0.035        164 4.6553e+02   997.8961 0.0000e+00
     -0.013    21.5024     6.5300     73.872  30.276437     32.552      8.876   263.8910     2.1977     1.2748     0.0217      0.013     -0.012     -0.018        165 4.4363e+02   997.8973 0.0000e+00
      0.003    21.4930     6.5719     74.348  30.210275     32.466      8.868   263.1338     2.1748     1.3324     0.0216      0.016     -0.000     -0.001        166 4.6496e+02   997.8985 0.0000e+00
      0.007    21.4773     6.5974     74.638  30.201573     32.471      8.846   262.3388     2.1634     1.3469     0.0216      0.018      0.005      0.008        167 5.1121e+02   997.9001 0.0000e+00
      0.006    21.4585     6.5895     74.548  30.257644     32.537      8.845   261.9602     1.9307     1.3757     0.0217      0.018      0.006      0.008        168 5.0458e+02   997.9021 0.0000e+00
      0.005    21.4435     6.5666     74.288  30.259002     32.549      8.843   261.3167     1.9460     1.2748     0.0217      0.019      0.006      0.008        169 5.7235e+02   997.9057 0.0000e+00
      0.007    21.4334     6.5412     74.002  30.259142     32.562      8.843   260.8624     1.9193     1.3613     0.0217      0.021      0.008      0.011        170 6.3025e+02   997.9099 0.0000e+00
      0.011    21.4290     6.5221     73.842  30.287104     32.602      8.840   260.7109     1.9383     1.3757     0.0217      0.020      0.012      0.016        171 6.5895e+02   997.9132 0.0000e+00
      0.016    21.4279     6.6450     75.425  30.253834     32.579      8.843   260.1431     1.9269     1.2603     0.0217      0.017      0.017      0.023        172 6.6662e+02   997.9155 0.0000e+00
      0.024    21.4274     7.0274     79.922  30.211672     32.522      8.839   260.1052     1.9193     1.3613     0.0216      0.013      0.022      0.031        173 6.9382e+02   997.9165 0.0000e+00
      0.025    21.4275     7.5900     86.406  30.191449     32.523      8.838   259.5752     1.9460     1.3180     0.0216      0.011      0.024      0.035        174 7.1676e+02   997.9167 0.0000e+00
      0.024    21.4284     8.1828     93.201  30.219752     32.523      8.837   268.5853     1.9269     1.4622     0.0216      0.011      0.026      0.038        175 6.3430e+02   997.9168 0.0000e+00
      0.032    21.4291     8.7344     99.509  30.235701     32.583      8.829   260.2188     1.9383     1.2748     0.0217      0.014      0.028      0.042        176 6.3042e+02   997.9168 0.0000e+00
      0.030    21.4306     9.2050    104.881  30.230851     32.523      8.810   259.8402     2.0566     1.1306     0.0216      0.014      0.028      0.041        177 6.9916e+02   997.9166 0.0000e+00
      0.023    21.4299     9.5659    108.998  30.255413     32.612      8.810   259.6509     2.0719     1.2027     0.0217      0.010      0.028      0.040        178 6.7892e+02   997.9164 0.0000e+00
      0.034    21.4305     9.7653    111.272  30.234759     32.521      8.808   259.1588     2.0337     1.0296     0.0216      0.009      0.034      0.049        179 6.5388e+02   997.9162 0.0000e+00
      0.048    21.4292     9.8021    111.690  30.226928     32.581      8.793   258.8938     2.0261     1.0440     0.0217      0.011      0.044      0.063        180 6.5959e+02   997.9164 0.0000e+00
      0.051    21.4744     9.7307    110.876  30.235533     32.522      8.788   258.5909     2.1787     1.3469     0.0216      0.012      0.051      0.073        181 5.8200e+02   997.9163 0.0000e+00
      0.057    21.5977     9.6145    109.552  30.431430     32.792      8.776   262.9067     2.1939     1.4189     0.0217      0.016      0.055      0.079        182 5.7338e+02   997.9166 0.0000e+00
      0.058    21.7022     9.4952    108.194  30.634902     32.944      8.762   258.3638     2.1520     1.4334     0.0218      0.018      0.056      0.082        183 6.0528e+02   997.9067 0.0000e+00
      0.058    21.7525     9.3951    107.054  30.663692     32.912      8.752   258.2881     2.1634     1.3324     0.0218      0.018      0.056      0.082        184 6.3118e+02   997.8792 0.0000e+00
      0.056    21.7794     9.3137    106.129  30.632569     32.781      8.746   259.6509     2.1024     1.1017     0.0218      0.017      0.056      0.081        185 6.2589e+02   997.8560 0.0000e+00
      0.058    21.7916     9.2552    105.458  30.614341     32.744      8.745   258.5152     2.1253     1.1594     0.0218      0.015      0.058      0.083        186 5.4639e+02   997.8446 0.0000e+00
      0.062    21.7979     9.2255    105.096  30.627101     32.726      8.741   264.4588     2.1214     1.0585     0.0218      0.010      0.059      0.085        187 5.3273e+02   997.8385 0.0000e+00
      0.058    21.8000     9.2020    104.798  30.616678     32.717      8.739   280.5481     2.1024     1.0585     0.0218      0.005      0.057      0.083        188 5.3121e+02   997.8358 0.0000e+00
      0.056    21.8007     9.1749    104.477  30.627306     32.713      8.737   259.9917     1.9383     1.3469     0.0218      0.002      0.056      0.082        189 5.1776e+02   997.8344 0.0000e+00
      0.059    21.8003     9.1440    104.123  30.673124     32.771      8.734   281.3431     1.9231     1.3613     0.0218      0.000      0.057      0.084        190 5.0808e+02   997.8339 0.0000e+00
      0.061    21.8001     9.1163    103.817  30.678162     32.771      8.726   280.5103     1.9421     1.3036     0.0218      0.001      0.059      0.086        191 4.9618e+02   997.8338 0.0000e+00
      0.061    21.8002     9.0903    103.531  30.621036     32.712      8.716   277.9360     1.9269     1.2027     0.0218      0.001      0.060      0.087        192 4.9393e+02   997.8339 0.0000e+00
      0.062    21.8006     9.0796    103.417  30.625712     32.712      8.710   280.7753     1.9193     1.3613     0.0218      0.002      0.060      0.088        193 5.0947e+02   997.8339 0.0000e+00
      0.063    21.8013     9.0760    103.384  30.613090     32.712      8.706   280.2074     1.9383     1.4334     0.0218      0.002      0.060      0.088        194 5.0120e+02   997.8339 0.0000e+00
      0.061    21.8022     9.0716    103.335  30.636742     32.711      8.700   267.4874     1.9383     1.4189     0.0218      0.001      0.057      0.083        195 4.6692e+02   997.8338 0.0000e+00
      0.051    21.7999     9.0762    103.387  30.714781     32.830      8.695   262.8310     1.9536     1.3757     0.0219     -0.000      0.048      0.070        196 5.2411e+02   997.8336 0.0000e+00
      0.037    21.7881     9.0770    103.391  30.634477     32.710      8.694   261.9981     1.9383     1.3036     0.0218     -0.006      0.030      0.044        197 6.2020e+02   997.8334 0.0000e+00
      0.002    21.7738     9.0835    103.452  30.618174     32.712      8.690   260.8624     2.0299     1.0873     0.0218     -0.021      0.000      0.001        198 6.0476e+02   997.8337 0.0000e+00
     -0.037    21.7673     9.0721    103.312  30.616566     32.720      8.693   282.6682     2.0795     1.1882     0.0218     -0.041     -0.030     -0.043        199 5.5860e+02   997.8363 0.0000e+00
     -0.054    21.7666     9.0636    103.215  30.577230     32.671      8.683   283.0467     2.0528     1.0585     0.0218     -0.059     -0.050     -0.072        200 5.6569e+02   997.8394 0.0000e+00
     -0.064    21.7706     9.0560    103.126  30.607880     32.735      8.677   283.3496     2.0604     1.0585     0.0218     -0.072     -0.059     -0.084        201 5.4684e+02   997.8408 0.0000e+00
     -0.060    21.7760     9.0573    103.140  30.578426     32.676      8.665   282.3653     1.9421     1.3180     0.0218     -0.075     -0.056     -0.081        202 5.0419e+02   997.8410 0.0000e+00
     -0.048    21.7801     9.0616    103.189  30.613885     32.732      8.644   282.3653     1.9040     1.3757     0.0218     -0.067     -0.046     -0.066        203 4.6132e+02   997.8401 0.0000e+00
     -0.032    21.7834     9.0772    103.367  30.623003     32.729      8.634   282.3653     1.9269     1.3324     0.0218     -0.048     -0.032     -0.045        204 3.6849e+02   997.8390 0.0000e+00
     -0.014    21.7847     9.0883    103.494  30.626331     32.726      8.629   282.4789     1.9460     1.2459     0.0218     -0.022     -0.020     -0.028        205 3.4872e+02   997.8381 0.0000e+00
     -0.011    21.7844     9.0941    103.560  30.668993     32.783      8.620   263.5881     1.7934     1.4334     0.0218      0.005     -0.020     -0.029        206 4.1777e+02   997.8374 0.0000e+00
     -0.036    21.7816     9.0997    103.625  30.629161     32.723      8.629   283.3496     1.8048     1.3180     0.0218      0.017     -0.042     -0.061        207 5.0807e+02   997.8370 0.0000e+00
     -0.081    21.7752     9.1004    103.633  30.616650     32.723      8.627   282.6303     1.8048     1.3613     0.0218      0.007     -0.079     -0.114        208 5.4773e+02   997.8368 0.0000e+00
     -0.123    21.7706     9.0955    103.576  30.625311     32.725      8.628   281.4189     1.8163     1.3469     0.0218     -0.017     -0.116     -0.168        209 5.1878e+02   997.8373 0.0000e+00
     -0.148    21.7697     9.0881    103.493  30.618383     32.729      8.626   281.4189     1.7400     1.2171     0.0218     -0.046     -0.146     -0.212        210 6.0028e+02   997.8386 0.0000e+00
     -0.180    21.7690     9.0920    103.540  30.625273     32.732      8.618   263.7017     1.7476     1.3180     0.0218     -0.076     -0.171     -0.248        211 6.6717e+02   997.8394 0.0000e+00
     -0.195    21.7684     9.0948    103.573  30.675989     32.793      8.611   282.4031     1.7285     1.3324     0.0218     -0.099     -0.181     -0.263        212 6.4392e+02   997.8396 0.0000e+00
     -0.179    21.7684     9.0979    103.606  30.673771     32.793      8.602   282.3653     1.7476     1.4045     0.0218     -0.102     -0.172     -0.249        213 6.2650e+02   997.8398 0.0000e+00
     -0.154    21.7686     9.0913    103.530  30.628033     32.734      8.601   282.1003     1.6751     1.0008     0.0218     -0.084     -0.152     -0.219        214 6.1331e+02   997.8401 0.0000e+00
     -0.131    21.7689     9.0947    103.568  30.614406     32.734      8.592   281.4946     1.6713     1.0873     0.0218     -0.050     -0.132     -0.192        215 5.8485e+02   997.8402 0.0000e+00
     -0.121    21.7690     9.0923    103.539  30.631478     32.734      8.580   281.3431     1.6827     1.0008     0.0218     -0.013     -0.121     -0.176        216 5.6329e+02   997.8402 0.0000e+00
     -0.119    21.7691     9.0846    103.452  30.666040     32.793      8.573   281.4189     1.6789     1.1882     0.0218      0.015     -0.115     -0.168        217 5.4659e+02   997.8402 0.0000e+00
     -0.113    21.7694     9.0772    103.372  30.630647     32.733      8.573   281.2674     1.6675     1.1161     0.0218      0.034     -0.108     -0.157        218 5.1645e+02   997.8402 0.0000e+00
     -0.099    21.7695     9.0693    103.286  30.616272     32.733      8.576   280.5481     1.7972     1.3324     0.0218      0.047     -0.096     -0.139        219 5.0575e+02   997.8402 0.0000e+00
     -0.081    21.7696     9.0615    103.206  30.624678     32.733      8.571   281.4946     1.7972     1.3036     0.0218      0.052     -0.080     -0.115        220 5.0378e+02   997.8402 0.0000e+00
     -0.064    21.7706     9.0602    103.192  30.620185     32.733      8.566   281.1539     1.7896     1.2748     0.0218      0.049     -0.064     -0.091        221 4.8773e+02   997.8403 0.0000e+00
     -0.048    21.7712     9.0449    103.014  30.621862     32.733      8.558   281.4189     1.8048     1.2748     0.0218      0.047     -0.050     -0.071        222 4.7063e+02   997.8403 0.0000e+00
     -0.039    21.7707     9.0276    102.814  30.622591     32.732      8.554   281.3810     1.7896     1.3324     0.0218      0.048     -0.041     -0.059        223 4.7025e+02   997.8402 0.0000e+00
     -0.039    21.7702     9.0248    102.781  30.619278     32.732      8.551   281.0024     1.8048     1.4189     0.0218      0.048     -0.040     -0.058        224 4.5893e+02   997.8400 0.0000e+00
     -0.044    21.7694     9.0317    102.860  30.625985     32.732      8.548   281.2296     1.8239     1.3324     0.0218      0.044     -0.045     -0.064        225 4.5213e+02   997.8401 0.0000e+00
     -0.053    21.7686     9.0477    103.043  30.614245     32.733      8.548   281.0024     1.8201     1.4334     0.0218      0.034     -0.050     -0.073        226 4.3784e+02   997.8401 0.0000e+00
     -0.056    21.7691     9.0695    103.291  30.633888     32.733      8.545   281.1160     1.8315     1.0585     0.0218      0.020     -0.053     -0.077        227 4.4419e+02   997.8403 0.0000e+00
     -0.053    21.7708     9.0920    103.559  30.660792     32.793      8.539   281.2674     1.8659     1.1161     0.0218      0.008     -0.051     -0.074        228 4.0615e+02   997.8405 0.0000e+00
     -0.048    21.7736     9.1140    103.820  30.580765     32.674      8.537   281.4567     1.8697     1.1161     0.0218      0.000     -0.047     -0.068        229 3.0170e+02   997.8404 0.0000e+00
     -0.042    21.7770     9.1284    103.986  30.555723     32.673      8.534   281.3431     1.8620     1.1161     0.0218     -0.003     -0.042     -0.062        230 2.9715e+02   997.8401 0.0000e+00
     -0.040    21.7778     9.1468    104.192  30.632703     32.730      8.534   281.1917     1.8926     1.4189     0.0218     -0.001     -0.040     -0.058        231 3.0186e+02   997.8395 0.0000e+00
     -0.041    21.7760     9.1460    104.179  30.603469     32.728      8.529   281.1917     1.8620     1.3324     0.0218      0.002     -0.041     -0.059        232 2.9424e+02   997.8387 0.0000e+00
     -0.044    21.7747     9.1448    104.161  30.592103     32.668      8.526   281.1917     1.8620     1.3036     0.0218      0.005     -0.042     -0.061        233 3.4221e+02   997.8385 0.0000e+00
     -0.044    21.7743     9.1384    104.084  30.646848     32.788      8.525   281.1539     1.8468     1.3036     0.0218      0.007     -0.042     -0.061        234 3.5123e+02   997.8389 0.0000e+00
     -0.040    21.7742     9.1317    104.003  30.594592     32.670      8.520   281.1539     1.8315     1.1594     0.0218      0.007     -0.038     -0.056        235 3.4702e+02   997.8392 0.0000e+00
     -0.034    21.7741     9.1269    103.945  30.597883     32.730      8.518   281.0781     1.8163     1.1450     0.0218      0.006     -0.032     -0.047        236 3.5874e+02   997.8393 0.0000e+00
     -0.025    21.7750     9.1265    103.939  30.583501     32.670      8.516   281.1539     1.8086     1.1017     0.0218      0.007     -0.025     -0.037        237 3.4149e+02   997.8394 0.0000e+00
     -0.018    21.7800     9.1380    104.071  30.612490     32.730      8.514   281.4946     1.8048     1.1450     0.0218      0.010     -0.019     -0.027        238 3.4444e+02   997.8394 0.0000e+00
     -0.013    21.7852     9.1201    103.873  30.680311     32.789      8.512   281.3053     1.7857     1.0296     0.0218      0.015     -0.015     -0.022        239 3.6159e+02   997.8392 0.0000e+00
     -0.014    21.7863     9.1139    103.808  30.617603     32.726      8.507   281.4567     1.9879     1.3324     0.0218      0.017     -0.017     -0.024        240 4.4391e+02   997.8381 0.0000e+00
     -0.023    21.7850     9.0922    103.562  30.631275     32.722      8.503   265.7081     2.0108     1.3757     0.0218      0.016     -0.025     -0.036        241 6.0201e+02   997.8369 0.0000e+00
     -0.037    21.7828     9.0706    103.318  30.604041     32.721      8.497   264.8752     1.9879     1.4334     0.0218      0.008     -0.041     -0.059        242 7.6318e+02   997.8366 0.0000e+00
     -0.066    21.7805     9.0507    103.091  30.592240     32.663      8.493   264.4210     1.9803     1.3324     0.0218     -0.007     -0.066     -0.095        243 9.3861e+02   997.8367 0.0000e+00
     -0.099    21.7784     9.0451    103.026  30.645962     32.783      8.489   264.1938     1.9460     1.3036     0.0218     -0.028     -0.094     -0.136        244 9.5020e+02   997.8371 0.0000e+00
     -0.124    21.7764     9.0398    102.964  30.596440     32.666      8.491   263.6638     1.9421     1.1017     0.0218     -0.050     -0.112     -0.163        245 8.8606e+02   997.8376 0.0000e+00
     -0.118    21.7746     9.0527    103.110  30.653870     32.787      8.490   263.7774     1.9307     1.0873     0.0218     -0.062     -0.116     -0.168        246 9.3284e+02   997.8379 0.0000e+00
     -0.115    21.7739     9.0707    103.318  30.633745     32.728      8.488   263.2095     1.9078     1.0729     0.0218     -0.064     -0.116     -0.168        247 9.1946e+02   997.8385 0.0000e+00
     -0.124    21.7746     9.0890    103.528  30.621486     32.730      8.488   263.5124     1.7629     1.4334     0.0218     -0.061     -0.118     -0.172        248 8.9043e+02   997.8389 0.0000e+00
     -0.121    21.7773     9.1028    103.684  30.669126     32.790      8.484   262.3767     1.7400     1.3469     0.0218     -0.050     -0.118     -0.171        249 9.0742e+02   997.8390 0.0000e+00
     -0.118    21.7802     9.1128    103.797  30.633710     32.730      8.480   262.1874     1.7552     1.3757     0.0218     -0.035     -0.115     -0.166        250 9.0306e+02   997.8389 0.0000e+00
     -0.111    21.7812     9.1259    103.943  30.665561     32.787      8.476   262.1874     1.7400     1.3469     0.0218     -0.016     -0.110     -0.160        251 9.0540e+02   997.8383 0.0000e+00
     -0.110    21.7816     9.1308    103.996  30.688739     32.785      8.476   262.1117     2.0566     1.1882     0.0218     -0.001     -0.105     -0.154        252 9.1382e+02   997.8378 0.0000e+00
     -0.103    21.7815     9.1258    103.939  30.664115     32.785      8.473   262.1874     2.0451     1.1161     0.0218      0.008     -0.100     -0.145        253 9.2534e+02   997.8375 0.0000e+00
     -0.094    21.7809     9.1162    103.830  30.636954     32.725      8.472   261.6952     2.0566     1.0296     0.0218      0.011     -0.093     -0.135        254 9.2521e+02   997.8374 0.0000e+00
     -0.088    21.7803     9.1093    103.752  30.663290     32.784      8.467   261.8467     2.0490     1.1450     0.0218      0.016     -0.088     -0.127        255 9.2062e+02   997.8375 0.0000e+00
     -0.088    21.7800     9.0990    103.633  30.631340     32.725      8.465   261.5438     2.2168     1.3324     0.0218      0.020     -0.088     -0.127        256 9.1568e+02   997.8376 0.0000e+00
     -0.093    21.7809     9.0942    103.575  30.617463     32.726      8.463   261.2788     2.1787     1.3469     0.0218      0.017     -0.093     -0.135        257 9.0047e+02   997.8377 0.0000e+00
     -0.106    21.7817     9.0873    103.493  30.680560     32.785      8.459   278.6553     2.1901     1.3324     0.0218      0.011     -0.101     -0.147        258 8.8929e+02   997.8377 0.0000e+00
     -0.110    21.7818     9.0791    103.396  30.671321     32.785      8.458   280.2831     2.1748     1.3757     0.0218      0.003     -0.105     -0.152        259 8.9259e+02   997.8375 0.0000e+00
     -0.103    21.7807     9.0688    103.276  30.628960     32.725      8.456   279.8667     2.1634     1.3613     0.0218     -0.002     -0.101     -0.146        260 8.9387e+02   997.8373 0.0000e+00
     -0.095    21.7790     9.0613    103.190  30.614773     32.725      8.440   279.9803     2.1748     1.2748     0.0218     -0.004     -0.094     -0.137        261 8.8284e+02   997.8374 0.0000e+00
     -0.090    21.7781     9.0652    103.237  30.629725     32.725      8.434   279.7910     2.1901     1.3613     0.0218     -0.004     -0.088     -0.128        262 8.7298e+02   997.8376 0.0000e+00
     -0.084    21.7781     9.0758    103.359  30.610353     32.726      8.435   277.2167     2.1977     1.2892     0.0218      0.001     -0.083     -0.120        263 8.7076e+02   997.8380 0.0000e+00
     -0.079    21.7783     9.0919    103.544  30.638881     32.727      8.431   279.8667     2.1558     1.3324     0.0218      0.007     -0.079     -0.115        264 8.7020e+02   997.8383 0.0000e+00
     -0.079    21.7781     9.0997    103.630  30.653474     32.787      8.413   279.9424     2.0909     1.2892     0.0218      0.013     -0.079     -0.114        265 8.7287e+02   997.8383 0.0000e+00
     -0.082    21.7775     9.1007    103.636  30.592193     32.667      8.413   280.2831     2.1024     1.2748     0.0218      0.016     -0.081     -0.118        266 8.6448e+02   997.8382 0.0000e+00
     -0.087    21.7761     9.1048    103.679  30.655894     32.787      8.417   265.7460     2.1405     1.4045     0.0218      0.013     -0.083     -0.120        267 8.4668e+02   997.8382 0.0000e+00
     -0.084    21.7742     9.0975    103.594  30.633452     32.728      8.425   265.1402     2.1100     1.3180     0.0218      0.008     -0.081     -0.117        268 8.5225e+02   997.8384 0.0000e+00
     -0.076    21.7723     9.0946    103.564  30.620120     32.728      8.428   264.7617     2.1710     1.4189     0.0218      0.005     -0.075     -0.110        269 8.6054e+02   997.8387 0.0000e+00
     -0.071    21.7707     9.0869    103.482  30.672485     32.790      8.433   264.1181     2.1748     1.3469     0.0218      0.005     -0.069     -0.100        270 8.6330e+02   997.8392 0.0000e+00
     -0.063    21.7709     9.0819    103.428  30.627538     32.731      8.429   268.4338     2.1748     1.4045     0.0218      0.007     -0.065     -0.094        271 8.5823e+02   997.8396 0.0000e+00
     -0.067    21.7720     9.0786    103.393  30.616804     32.732      8.424   263.2095     2.1596     1.3901     0.0218      0.009     -0.066     -0.095        272 8.4694e+02   997.8399 0.0000e+00
     -0.072    21.7727     9.0844    103.461  30.626591     32.732      8.428   280.2831     2.2244     1.3036     0.0218      0.009     -0.068     -0.099        273 8.2550e+02   997.8400 0.0000e+00
     -0.069    21.7731     9.0887    103.510  30.615359     32.731      8.424   280.1696     2.2168     1.3036     0.0218      0.010     -0.068     -0.098        274 7.9318e+02   997.8397 0.0000e+00
     -0.067    21.7718     9.0889    103.514  30.571530     32.671      8.426   279.9046     2.2550     1.3180     0.0218      0.009     -0.065     -0.094        275 7.9046e+02   997.8395 0.0000e+00
     -0.062    21.7695     9.0884    103.510  30.621882     32.731      8.426   279.9803     2.2397     1.4189     0.0218      0.007     -0.062     -0.090        276 8.1570e+02   997.8395 0.0000e+00
     -0.061    21.7675     9.0878    103.503  30.671202     32.791      8.427   280.0181     2.1520     1.2892     0.0218      0.005     -0.062     -0.089        277 8.1778e+02   997.8398 0.0000e+00
     -0.065    21.7668     9.0845    103.463  30.628658     32.733      8.421   279.8667     2.1748     1.3613     0.0218      0.003     -0.065     -0.094        278 8.3739e+02   997.8403 0.0000e+00
     -0.072    21.7681     9.0697    103.293  30.615575     32.735      8.422   279.4503     2.1710     1.3757     0.0218     -0.000     -0.068     -0.098        279 8.4548e+02   997.8407 0.0000e+00
     -0.070    21.7705     9.0691    103.284  30.628231     32.735      8.418   279.7910     2.1901     1.3901     0.0218      0.000     -0.068     -0.098        280 8.6287e+02   997.8408 0.0000e+00
     -0.066    21.7726     9.0721    103.318  30.612909     32.734      8.403   279.5260     2.1748     1.3469     0.0218      0.001     -0.066     -0.095        281 8.4258e+02   997.8405 0.0000e+00
     -0.065    21.7738     9.0833    103.447  30.575391     32.673      8.396   279.5639     1.9765     1.3613     0.0218     -0.000     -0.065     -0.093        282 8.3985e+02   997.8400 0.0000e+00
     -0.067    21.7744     9.0927    103.552  30.615668     32.731      8.399   279.7910     1.9956     1.3613     0.0218     -0.001     -0.064     -0.092        283 7.5249e+02   997.8396 0.0000e+00
     -0.063    21.7749     9.0898    103.513  30.681289     32.790      8.404   279.8667     1.9689     1.4334     0.0218     -0.001     -0.060     -0.087        284 7.9839e+02   997.8393 0.0000e+00
     -0.055    21.7758     9.0958    103.574  30.671483     32.789      8.406   279.7910     2.0032     1.3613     0.0218      0.003     -0.054     -0.078        285 3.1994e+02   997.8392 0.0000e+00
     -0.048    21.7762     9.0951    103.563  30.627872     32.729      8.409   267.1467     1.9841     1.3613     0.0218      0.009     -0.048     -0.069        286 2.1491e+02   997.8391 0.0000e+00
     -0.044    21.7761     9.0950    103.560  30.617058     32.729      8.410   266.3138     1.9841     1.3613     0.0218      0.013     -0.044     -0.064        287 6.6307e+02   997.8389 0.0000e+00
     -0.043    21.7752     9.0894    103.494  30.625687     32.728      8.410   266.1245     2.0032     1.4045     0.0218      0.014     -0.043     -0.061        288 2.8358e+02   997.8389 0.0000e+00
     -0.042    21.7742     9.0843    103.434  30.676385     32.788      8.411   265.1781     1.9994     1.4045     0.0218      0.014     -0.042     -0.060        289 7.0521e+02   997.8389 0.0000e+00
     -0.041    21.7736     9.0793    103.374  30.672469     32.789      8.413   264.7995     2.1520     1.2459     0.0218      0.014     -0.042     -0.060        290 1.0120e+03   997.8391 0.0000e+00
     -0.045    21.7734     9.0728    103.298  30.630560     32.730      8.411   264.1938     2.1558     1.2315     0.0218      0.012     -0.045     -0.065        291 8.7096e+02   997.8393 0.0000e+00
     -0.052    21.7736     9.0739    103.309  30.669288     32.790      8.411   264.1181     2.1672     1.3036     0.0218      0.006     -0.047     -0.069        292 9.5457e+02   997.8394 0.0000e+00
     -0.047    21.7726     9.0632    103.187  30.624273     32.730      8.411   263.5881     2.1748     1.3324     0.0218      0.001     -0.045     -0.066        293 9.1134e+02   997.8395 0.0000e+00
     -0.040    21.7699     9.0574    103.121  30.568077     32.671      8.414   263.4745     2.0757     1.2603     0.0218      0.000     -0.040     -0.058        294 9.6854e+02   997.8394 0.0000e+00
     -0.035    21.7666     9.0588    103.137  30.620720     32.731      8.415   263.5502     2.0451     1.3180     0.0218      0.002     -0.035     -0.051        295 9.5322e+02   997.8397 0.0000e+00
     -0.033    21.7646     9.0604    103.156  30.677265     32.793      8.415   263.2095     2.0528     1.2748     0.0218      0.004     -0.029     -0.042        296 9.6618e+02   997.8403 0.0000e+00
     -0.020    21.7637     9.0664    103.224  30.675465     32.795      8.411   263.0581     2.0337     1.3324     0.0218      0.009     -0.018     -0.027        297 9.1681e+02   997.8411 0.0000e+00
     -0.004    21.7626     9.0776    103.353  30.622961     32.737      8.409   263.1338     2.1176     1.3901     0.0218      0.018     -0.003     -0.005        298 7.9809e+02   997.8416 0.0000e+00
      0.013    21.7617     9.0903    103.497  30.624101     32.737      8.403   262.7931     2.1100     1.2748     0.0218      0.029      0.012      0.017        299 6.8208e+02   997.8419 0.0000e+00
      0.027    21.7605     9.0992    103.585  30.614794     32.738      8.394   262.6795     2.0871     1.2748     0.0218      0.038      0.026      0.038        300 6.7186e+02   997.8422 0.0000e+00
      0.039    21.7592     9.1140    103.731  30.575291     32.679      8.384   261.9224     2.1176     1.3324     0.0218      0.044      0.037      0.055        301 6.7870e+02   997.8424 0.0000e+00
      0.049    21.7584     9.1303    103.881  30.614010     32.739      8.377   261.5817     2.0986     1.3613     0.0218      0.048      0.047      0.068        302 6.8114e+02   997.8428 0.0000e+00
      0.055    21.7583     9.1347    103.899  30.625862     32.740      8.378   261.7331     2.3770     1.3469     0.0218      0.049      0.054      0.079        303 6.5228e+02   997.8431 0.0000e+00
      0.063    21.7584     9.1318    103.848  30.619794     32.741      8.377   261.2409     2.3656     1.2603     0.0218      0.048      0.063      0.091        304 6.0625e+02   997.8433 0.0000e+00
      0.074    21.7583     9.1296    103.816  30.621563     32.741      8.380   261.0517     2.3656     1.2603     0.0218      0.045      0.073      0.106        305 6.2579e+02   997.8434 0.0000e+00
      0.086    21.7585     9.1244    103.759  30.623662     32.741      8.375   260.9002     2.3694     1.4045     0.0218      0.041      0.085      0.124        306 6.0742e+02   997.8434 0.0000e+00
      0.102    21.7586     9.1109    103.613  30.617183     32.741      8.371   260.9002     2.3389     1.4045     0.0218      0.040      0.099      0.144        307 5.6356e+02   997.8435 0.0000e+00
      0.114    21.7593     9.0993    103.487  30.629627     32.741      8.361   260.9381     2.2931     1.4045     0.0218      0.041      0.110      0.160        308 5.8426e+02   997.8435 0.0000e+00
      0.120    21.7586     9.0781    103.254  30.667427     32.800      8.351   260.8624     2.2702     1.3036     0.0218      0.042      0.119      0.172        309 5.7887e+02   997.8435 0.0000e+00
      0.130    21.7526     9.0550    103.002  30.629393     32.740      8.356   260.9002     2.2969     1.3036     0.0218      0.042      0.128      0.185        310 5.6237e+02   997.8434 0.0000e+00
      0.139    21.7412     9.0416    102.862  30.617708     32.740      8.360   260.7488     2.4114     1.3324     0.0218      0.043      0.143      0.207        311 5.2693e+02   997.8436 0.0000e+00
      0.169    21.7239     9.0352    102.803  30.622716     32.745      8.361   260.2567     2.4190     1.3469     0.0218      0.047      0.170      0.247        312 4.5199e+02   997.8451 0.0000e+00
      0.214    21.7077     9.0338    102.793  30.563909     32.693      8.361   260.4838     2.4304     1.2315     0.0218      0.059      0.207      0.299        313 4.1993e+02   997.8479 0.0000e+00
      0.248    21.6990     9.0441    102.912  30.572393     32.705      8.358   260.5595     2.3961     1.2892     0.0218      0.073      0.237      0.344        314 3.9422e+02   997.8518 0.0000e+00
      0.264    21.6954     9.0584    103.077  30.612165     32.777      8.355   260.5595     2.4304     1.3469     0.0218      0.083      0.255      0.370        315 3.6965e+02   997.8556 0.0000e+00
      0.268    21.6963     9.0745    103.257  30.573673     32.723      8.360   260.5595     2.4266     1.3757     0.0218      0.089      0.263      0.380        316 3.7665e+02   997.8575 0.0000e+00
      0.270    21.6998     9.0859    103.380  30.561048     32.725      8.366   260.5595     2.4266     1.3036     0.0218      0.088      0.268      0.389        317 3.7411e+02   997.8584 0.0000e+00
      0.284    21.7030     9.1043    103.580  30.568625     32.725      8.372   260.7109     2.4114     1.4045     0.0218      0.082      0.278      0.403        318 3.6288e+02   997.8583 0.0000e+00
      0.296    21.7070     9.1092    103.624  30.564244     32.722      8.372   260.3702     2.4304     1.3324     0.0218      0.073      0.288      0.418        319 3.6249e+02   997.8575 0.0000e+00
      0.300    21.7123     9.1084    103.598  30.566500     32.720      8.375   260.5974     2.4114     1.4622     0.0218      0.056      0.296      0.429        320 3.6025e+02   997.8568 0.0000e+00
      0.309    21.7189     9.0953    103.435  30.565815     32.717      8.379   260.2567     2.4190     1.3469     0.0218      0.040      0.305      0.443        321 3.6479e+02   997.8559 0.0000e+00
      0.322    21.7256     9.0783    103.206  30.565095     32.714      8.380   260.7109     2.4419     1.2748     0.0218      0.034      0.320      0.465        322 3.6064e+02   997.8548 0.0000e+00
      0.352    21.7282     9.0571    102.950  30.567395     32.709      8.380   260.7867     2.4152     1.3324     0.0218      0.040      0.344      0.500        323 3.4839e+02   997.8535 0.0000e+00
      0.379    21.7293     9.0461    102.817  30.562951     32.704      8.379   260.8245     2.4304     1.3757     0.0218      0.051      0.369      0.535        324 3.4578e+02   997.8522 0.0000e+00
      0.396    21.7304     9.0463    102.805  30.570623     32.702      8.378   260.7109     2.4037     1.4045     0.0218      0.060      0.388      0.563        325 3.3516e+02   997.8516 0.0000e+00
      0.413    21.7293     9.0456    102.798  30.557846     32.702      8.378   260.5595     2.4190     1.3324     0.0218      0.066      0.404      0.586        326 3.2624e+02   997.8514 0.0000e+00
      0.427    21.7256     9.0545    102.905  30.578851     32.701      8.378   260.7867     2.4190     1.3613     0.0218      0.071      0.418      0.606        327 3.2031e+02   997.8512 0.0000e+00
      0.437    21.7214     9.0600    103.002  30.603735     32.761      8.379   261.0517     2.4953     1.3469     0.0218      0.074      0.431      0.625        328 3.0810e+02   997.8516 0.0000e+00
      0.454    21.7146     9.0714    103.169  30.586133     32.704      8.381   261.0517     2.4838     1.3613     0.0218      0.073      0.447      0.648        329 2.9713e+02   997.8524 0.0000e+00
      0.476    21.7073     9.0815    103.303  30.600757     32.767      8.376   261.2031     2.4877     1.3324     0.0218      0.070      0.465      0.674        330 2.8987e+02   997.8534 0.0000e+00
      0.490    21.6988     9.0864    103.368  30.585535     32.711      8.371   261.2031     2.4838     1.3180     0.0218      0.064      0.480      0.696        331 2.8542e+02   997.8550 0.0000e+00
      0.502    21.6821     9.0867    103.384  30.545828     32.717      8.368   261.4681     2.5449     1.4334     0.0218      0.060      0.499      0.723        332 2.7812e+02   997.8567 0.0000e+00
      0.537    21.6738     9.0875    103.341  30.531673     32.662      8.364   261.2788     2.5334     1.4045     0.0218      0.065      0.527      0.764        333 2.6817e+02   997.8588 0.0000e+00
      0.572    21.6699     9.0749    103.089  30.603156     32.795      8.360   261.6574     2.5411     1.2748     0.0218      0.074      0.555      0.804        334 2.6593e+02   997.8627 0.0000e+00
      0.585    21.6636     9.0627    102.837  30.575378     32.740      8.357   261.3924     2.5525     1.4478     0.0218      0.080      0.571      0.829        335 2.6600e+02   997.8646 0.0000e+00
      0.591    21.6629     9.0475    102.500  30.566244     32.743      8.353   261.6952     2.5296     1.3613     0.0218      0.081      0.580      0.842        336 2.6643e+02   997.8655 0.0000e+00
      0.600    21.6671     9.0265    102.093  30.614525     32.808      8.353   261.7331     2.5525     1.4334     0.0218      0.078      0.593      0.860        337 2.6167e+02   997.8669 0.0000e+00
      0.626    21.6835     9.0105    101.746  30.574549     32.748      8.352   261.6952     2.5525     1.4189     0.0218      0.075      0.613      0.890        338 2.5387e+02   997.8672 0.0000e+00
      0.649    21.7024     8.9840    101.354  30.615994     32.806      8.352   261.6952     2.5334     1.3613     0.0218      0.075      0.636      0.922        339 2.4815e+02   997.8664 0.0000e+00
      0.668    21.7115     8.9672    101.115  30.622196     32.793      8.353   261.8088     2.5983     1.3757     0.0218      0.073      0.658      0.954        340 2.3764e+02   997.8628 0.0000e+00
      0.698    21.7175     8.9505    100.862  30.566826     32.721      8.354   261.6952     2.6174     1.3469     0.0218      0.071      0.684      0.992        341 2.2784e+02   997.8587 0.0000e+00
      0.726    21.7224     8.9316    100.581  30.625643     32.773      8.347   261.7331     2.6174     1.4045     0.0218      0.076      0.713      1.035        342 2.2260e+02   997.8568 0.0000e+00
      0.759    21.6960     8.9018    100.198  30.608247     32.770      8.344   262.0738     2.5945     1.3613     0.0218      0.087      0.745      1.081        343 2.1342e+02   997.8556 0.0000e+00
      0.797    21.6438     8.8673     99.756  30.469970     32.586      8.343   261.8088     2.6021     1.3324     0.0217      0.101      0.780      1.131        344 2.0468e+02   997.8547 0.0000e+00
      0.831    21.5838     8.8336     99.328  30.501468     32.664      8.345   262.1495     2.8615     1.3901     0.0218      0.112      0.814      1.181        345 2.0049e+02   997.8607 0.0000e+00
      0.862    21.5042     8.8032     98.909  30.509807     32.702      8.345   262.3009     2.8348     1.3036     0.0218      0.118      0.849      1.232        346 1.9425e+02   997.8725 0.0000e+00
      0.906    21.4165     8.7606     98.356  30.518865     32.743      8.347   262.1495     2.8462     1.3757     0.0218      0.127      0.887      1.287        347 1.8735e+02   997.8861 0.0000e+00
      0.947    21.3353     8.7107     97.752  30.608727     32.921      8.353   262.6795     2.8539     1.5487     0.0218      0.137      0.923      1.339        348 1.8365e+02   997.9040 0.0000e+00
      0.971    21.2864     8.6849     97.440  30.635017     32.981      8.351   262.2631     3.0828     1.3324     0.0218      0.138      0.950      1.378        349 1.8154e+02   997.9236 0.0000e+00
      0.989    21.2616     8.6363     96.864  30.604687     33.041      8.354   263.0581     3.0789     1.3901     0.0218      0.135      0.971      1.410        350 1.7838e+02   997.9416 0.0000e+00
      1.015    21.2281     8.6099     96.511  30.468747     32.894      8.355   263.2474     3.0904     1.3757     0.0217      0.128      0.996      1.445        351 1.7531e+02   997.9523 0.0000e+00
      1.042    21.1946     8.5959     96.294  30.389448     32.851      8.356   263.3988     3.0942     1.3469     0.0217      0.121      1.022      1.483        352 1.7235e+02   997.9579 0.0000e+00
      1.071    21.1688     8.5897     96.183  30.407126     32.875      8.356   263.5502     3.0408     1.4910     0.0217      0.115      1.050      1.523        353 1.6912e+02   997.9654 0.0000e+00
      1.099    21.1434     8.5909     96.179  30.446760     32.960      8.356   263.7017     3.0332     1.5920     0.0217      0.110      1.077      1.562        354 1.6638e+02   997.9729 0.0000e+00
      1.123    21.1159     8.5929     96.171  30.517894     33.038      8.359   264.0424     3.0027     1.6785     0.0218      0.103      1.102      1.598        355 1.6396e+02   997.9787 0.0000e+00
      1.148    21.0774     8.5909     96.094  30.614873     33.178      8.358   264.3452     3.0217     1.6497     0.0218      0.100      1.127      1.635        356 1.6099e+02   997.9843 0.0000e+00
      1.178    21.0385     8.5859     95.980  30.681596     33.257      8.356   264.6860     3.0904     1.5199     0.0218      0.103      1.155      1.675        357 1.5793e+02   997.9905 0.0000e+00
      1.207    21.0157     8.5961     96.025  30.612630     33.225      8.354   264.8374     3.0904     1.4478     0.0218      0.106      1.183      1.715        358 1.5524e+02   997.9991 0.0000e+00
      1.233    21.0035     8.6108     96.133  30.582211     33.192      8.355   265.3295     3.0828     1.5199     0.0218      0.106      1.208      1.752        359 1.5315e+02   998.0076 0.0000e+00
      1.256    20.9871     8.6384     96.391  30.541708     33.209      8.355   265.8217     3.0751     1.6641     0.0218      0.105      1.232      1.786        360 1.5126e+02   998.0126 0.0000e+00
      1.278    20.9575     8.6585     96.568  30.277906     32.884      8.353   265.8974     2.8501     1.6785     0.0217      0.103      1.254      1.819        361 1.4949e+02   998.0153 0.0000e+00
      1.302    20.9255     8.6697     96.652  30.080991     32.713      8.354   266.2002     2.8386     1.5343     0.0216      0.101      1.278      1.853        362 1.4748e+02   998.0189 0.0000e+00
      1.328    20.9042     8.6540     96.434  30.046132     32.674      8.353   266.3895     2.8615     1.5487     0.0216      0.100      1.302      1.887        363 1.4606e+02   998.0254 0.0000e+00
      1.349    20.8940     8.6295     96.114  30.084295     32.757      8.353   266.2381     2.8691     1.5776     0.0216      0.098      1.324      1.919        364 1.4483e+02   998.0324 0.0000e+00
      1.371    20.8773     8.6018     95.777  30.033509     32.712      8.349   266.9952     2.7890     2.0823     0.0216      0.094      1.347      1.953        365 1.4273e+02   998.0371 0.0000e+00
      1.400    20.8498     8.5681     95.396  29.783465     32.445      8.348   267.1088     2.7700     1.9813     0.0214      0.093      1.375      1.993        366 1.4077e+02   998.0393 0.0000e+00
      1.433    20.8180     8.5449     95.104  29.743723     32.396      8.348   267.6767     2.7623     2.1111     0.0214      0.096      1.408      2.043        367 1.3788e+02   998.0430 0.0000e+00
      1.478    20.7823     8.5217     94.820  30.023726     32.751      8.344   267.9417     2.7928     2.0102     0.0215      0.104      1.445      2.096        368 1.3535e+02   998.0493 0.0000e+00
      1.509    20.7518     8.5022     94.581  30.205277     32.956      8.347   268.0174     2.7852     2.1255     0.0216      0.112      1.475      2.141        369 1.3395e+02   998.0563 0.0000e+00
      1.529    20.7256     8.4991     94.482  30.347312     33.135      8.350   267.7903     2.5411     2.2265     0.0217      0.115      1.499      2.174        370 1.3278e+02   998.0642 0.0000e+00
      1.551    20.7006     8.5059     94.487  30.380241     33.217      8.347   267.8281     2.5220     2.3707     0.0217      0.116      1.522      2.206        371 1.3118e+02   998.0707 0.0000e+00
      1.576    20.6788     8.5200     94.605  30.312439     33.114      8.348   268.1688     2.5601     2.2553     0.0217      0.116      1.544      2.240        372 1.2961e+02   998.0764 0.0000e+00
      1.597    20.6565     8.5362     94.719  30.490954     33.377      8.346   268.6231     2.5334     2.2409     0.0218      0.112      1.568      2.274        373 1.2785e+02   998.0820 0.0000e+00
      1.625    20.6312     8.5570     94.838  30.632109     33.515      8.345   268.9260     2.3732     2.2697     0.0218      0.107      1.593      2.310        374 1.2584e+02   998.0868 0.0000e+00
      1.650    20.6173     8.5849     95.047  30.729306     33.653      8.346   268.6988     2.3541     2.2697     0.0219      0.100      1.618      2.347        375 1.2416e+02   998.0917 0.0000e+00
      1.676    20.6124     8.6042     95.203  30.725520     33.672      8.345   269.0774     2.3503     2.2265     0.0219      0.095      1.643      2.383        376 1.2254e+02   998.0972 0.0000e+00
      1.702    20.5957     8.6147     95.279  30.636832     33.561      8.341   269.0395     2.3580     2.2553     0.0218      0.096      1.668      2.419        377 1.2109e+02   998.1003 0.0000e+00
      1.725    20.5815     8.6125     95.249  30.721178     33.685      8.340   268.9260     2.2397     2.0534     0.0219      0.098      1.691      2.453        378 1.1962e+02   998.1014 0.0000e+00
      1.745    20.5689     8.6450     95.610  30.739063     33.699      8.338   269.2288     2.2359     2.0534     0.0219      0.097      1.712      2.484        379 1.1889e+02   998.1050 0.0000e+00
      1.769    20.5346     8.7339     96.532  30.733086     33.709      8.337   269.5695     2.2397     2.0102     0.0219      0.096      1.737      2.520        380 1.1658e+02   998.1082 0.0000e+00
      1.802    20.4980     8.8593     97.752  30.669369     33.657      8.335   270.0617     2.2168     2.0102     0.0218      0.098      1.767      2.563        381 1.1437e+02   998.1110 0.0000e+00
      1.833    20.4759     8.9705     98.818  30.699859     33.682      8.337   269.9481     2.0032     2.1399     0.0218      0.099      1.798      2.609        382 1.1285e+02   998.1184 0.0000e+00
      1.867    20.4408     9.0889    100.020  30.635902     33.710      8.335   270.7431     2.0070     2.1399     0.0218      0.104      1.830      2.655        383 1.1035e+02   998.1264 0.0000e+00
      1.900    20.3816     9.2014    101.200  30.274960     33.234      8.333   271.2731     1.9994     2.1688     0.0216      0.109      1.860      2.697        384 1.0838e+02   998.1311 0.0000e+00
      1.923    20.3293     9.2837    102.037  30.112146     33.168      8.331   271.1595     1.9879     2.0823     0.0216      0.112      1.883      2.730        385 1.0757e+02   998.1385 0.0000e+00
      1.936    20.2969     9.2927    102.072  30.009012     33.027      8.335   271.2731     1.9841     2.1399     0.0215      0.111      1.898      2.752        386 1.0758e+02   998.1510 0.0000e+00
      1.946    20.2770     9.2402    101.450  30.018197     33.127      8.333   271.0838     1.9956     2.2986     0.0215      0.105      1.912      2.772        387 1.0637e+02   998.1621 0.0000e+00
      1.967    20.2726     9.1776    100.702  30.041485     33.150      8.335   271.5381     2.0070     2.2409     0.0215      0.097      1.932      2.801        388 1.0429e+02   998.1689 0.0000e+00
      1.996    20.2741     9.1278     99.947  30.098547     33.227      8.336   271.5760     1.9994     2.2409     0.0216      0.090      1.957      2.838        389 1.0332e+02   998.1733 0.0000e+00
      2.019    20.2402     9.0916     99.151  30.154570     33.322      8.333   271.5381     1.9841     2.2120     0.0216      0.084      1.987      2.882        390 1.0071e+02   998.1743 0.0000e+00
      2.066    20.1572     9.0479     98.241  30.179148     33.291      8.331   272.4088     1.9269     2.4716     0.0216      0.087      2.026      2.938        391 9.6308e+01   998.1742 0.0000e+00
      2.111    20.0739     9.0436     97.860  30.482727     33.715      8.332   271.9167     1.9421     2.5149     0.0218      0.097      2.063      2.992        392 9.4983e+01   998.1816 0.0000e+00
      2.132    20.0238     9.0700     97.851  30.635940     33.903      8.332   272.3331     1.9383     2.4428     0.0218      0.108      2.090      3.032        393 9.4122e+01   998.1991 0.0000e+00
      2.154    19.9928     9.1272     98.232  30.669907     34.027      8.335   272.5224     1.9269     2.4572     0.0218      0.117      2.113      3.065        394 9.2131e+01   998.2165 0.0000e+00
      2.180    19.9605     9.1991     98.768  30.677498     34.065      8.337   272.7496     1.8849     2.8898     0.0218      0.122      2.137      3.099        395 9.0835e+01   998.2270 0.0000e+00
      2.201    19.9284     9.2571     99.263  30.567265     33.963      8.334   272.5603     1.8735     3.0051     0.0218      0.119      2.158      3.130        396 8.9779e+01   998.2334 0.0000e+00
      2.220    19.9071     9.3712    100.304  30.510845     33.927      8.333   272.7874     1.8735     2.8609     0.0218      0.112      2.181      3.163        397 8.8415e+01   998.2401 0.0000e+00
      2.249    19.8744     9.5334    101.728  30.569968     34.013      8.336   273.3553     1.8697     2.9186     0.0218      0.105      2.212      3.208        398 8.5553e+01   998.2469 0.0000e+00
      2.299    19.7701     9.7660    103.862  30.612204     34.092      8.333   273.5824     1.8544     2.8465     0.0218      0.102      2.256      3.272        399 8.1698e+01   998.2515 0.0000e+00
      2.352    19.5691    10.0881    106.897  30.843437     34.332      8.333   274.1881     1.8620     2.9186     0.0219      0.111      2.303      3.340        400 7.8808e+01   998.2586 0.0000e+00
      2.393    19.3533    10.5251    111.144  31.319160     35.005      8.335   273.9988     1.8620     2.9186     0.0221      0.126      2.343      3.398        401 7.7038e+01   998.2802 0.0000e+00
      2.422    19.1787    11.0451    116.248  31.412692     35.226      8.333   274.6424     1.8659     2.8609     0.0222      0.137      2.374      3.443        402 7.5643e+01   998.3212 0.0000e+00
      2.449    19.0349    11.5670    121.309  31.319659     35.306      8.333   274.4531     2.0528     3.0772     0.0221      0.143      2.400      3.481        403 7.4274e+01   998.3646 0.0000e+00
      2.470    18.9098    12.0772    126.178  31.138752     35.252      8.335   274.6803     2.0375     3.0484     0.0221      0.144      2.425      3.516        404 7.2524e+01   998.3993 0.0000e+00
      2.499    18.7978    12.4488    129.599  30.630584     34.769      8.333   274.7560     2.0719     3.1637     0.0218      0.140      2.450      3.554        405 7.0764e+01   998.4276 0.0000e+00
      2.527    18.7285    12.6800    131.629  30.411532     34.609      8.338   275.3238     2.0604     3.1061     0.0217      0.131      2.477      3.594        406 6.9163e+01   998.4521 0.0000e+00
      2.553    18.6399    12.7321    131.868  29.989343     34.288      8.336   275.7781     2.0261     2.9763     0.0215      0.118      2.504      3.632        407 6.7581e+01   998.4738 0.0000e+00
      2.579    18.4913    12.6285    130.503  29.082257     33.189      8.336   275.6646     2.2969     2.9619     0.0210      0.108      2.532      3.672        408 6.5795e+01   998.4870 0.0000e+00
      2.614    18.3257    12.3918    127.738  28.577936     32.778      8.338   275.9674     2.2893     3.0628     0.0208      0.106      2.565      3.721        409 6.3230e+01   998.5040 0.0000e+00
      2.655    18.1493    12.0382    123.691  28.217443     32.409      8.337   276.6867     2.2969     3.1205     0.0206      0.111      2.600      3.773        410 6.1176e+01   998.5325 0.0000e+00
      2.687    17.9799    11.6296    119.067  28.020147     32.339      8.343   276.4596     2.3198     3.0772     0.0206      0.117      2.633      3.820        411 5.9907e+01   998.5639 0.0000e+00
      2.715    17.8182    11.1907    114.171  28.082953     32.537      8.345   276.9896     3.3498     3.2503     0.0206      0.121      2.662      3.862        412 5.8192e+01   998.5971 0.0000e+00
      2.744    17.6455    10.7582    109.335  28.080103     32.665      8.346   277.5574     3.3345     3.4089     0.0206      0.123      2.691      3.903        413 5.6677e+01   998.6287 0.0000e+00
      2.774    17.4621    10.3802    105.099  28.023761     32.723      8.349   277.2546     3.3612     3.2935     0.0205      0.125      2.721      3.947        414 5.5263e+01   998.6586 0.0000e+00
      2.806    17.2907    10.1070    102.060  27.975398     32.790      8.350   277.4060     3.3269     3.2791     0.0205      0.126      2.751      3.990        415 5.3672e+01   998.6901 0.0000e+00
      2.834    17.1535     9.9600    100.455  28.021865     32.998      8.355   277.7467     3.7694     3.7117     0.0205      0.124      2.777      4.028        416 5.2757e+01   998.7233 0.0000e+00
      2.853    17.0428     9.9753    100.459  28.143741     33.264      8.353   277.6331     3.7465     3.7405     0.0206      0.117      2.798      4.058        417 5.2012e+01   998.7541 0.0000e+00
      2.871    16.9362    10.0911    101.445  28.238511     33.505      8.356   277.7467     3.7389     3.8126     0.0206      0.109      2.817      4.086        418 5.1084e+01   998.7784 0.0000e+00
      2.892    16.8157    10.2763    103.151  28.200208     33.526      8.356   277.7846     3.7656     3.7550     0.0206      0.103      2.839      4.117        419 4.9842e+01   998.7978 0.0000e+00
      2.921    16.6616    10.4703    104.983  28.072961     33.478      8.358   278.3146     3.6435     3.6540     0.0206      0.099      2.865      4.156        420 4.8363e+01   998.8163 0.0000e+00
      2.952    16.4927    10.6437    106.645  28.041435     33.507      8.358   278.2010     3.6245     3.5819     0.0205      0.097      2.895      4.199        421 4.7010e+01   998.8373 0.0000e+00
      2.984    16.3241    10.7485    107.718  27.735904     33.330      8.359   278.2389     3.6206     3.6108     0.0204      0.097      2.928      4.247        422 4.5302e+01   998.8637 0.0000e+00
      3.023    16.1428    10.7818    108.070  26.972137     32.457      8.357   278.6553     3.6473     3.5675     0.0200      0.102      2.962      4.297        423 4.3700e+01   998.8921 0.0000e+00
      3.055    15.9651    10.7445    107.721  26.533380     32.116      8.356   278.7689     3.5672     2.4860     0.0198      0.110      2.991      4.339        424 4.2613e+01   998.9203 0.0000e+00
      3.073    15.8429    10.6661    106.933  26.475087     32.157      8.361   279.4881     3.5672     2.4428     0.0197      0.115      3.010      4.366        425 4.2402e+01   998.9503 0.0000e+00
      3.079    15.7818    10.5786    105.847  26.541191     32.398      8.357   280.1317     3.5749     2.4572     0.0197      0.112      3.021      4.382        426 4.2027e+01   998.9793 0.0000e+00
      3.092    15.7145    10.5095    104.854  26.540038     32.497      8.360   280.5860     3.6054     2.5004     0.0197      0.104      3.036      4.403        427 4.0728e+01   998.9992 0.0000e+00
      3.117    15.6302    10.4670    104.126  26.476566     32.439      8.359   281.2674     3.5482     2.4283     0.0197      0.095      3.055      4.430        428 3.9694e+01   999.0090 0.0000e+00
      3.135    15.5609    10.4291    103.501  26.501725     32.564      8.357   281.3053     3.4032     2.0534     0.0197      0.085      3.072      4.455        429 3.9038e+01   999.0199 0.0000e+00
      3.144    15.5071    10.4205    103.256  26.479133     32.562      8.360   281.7217     3.3956     1.9381     0.0197      0.073      3.083      4.471        430 3.8627e+01   999.0333 0.0000e+00
      3.153    15.4768    10.4489    103.368  26.534330     32.722      8.361   281.9110     3.3612     1.9525     0.0197      0.062      3.092      4.484        431 3.8058e+01   999.0443 0.0000e+00
      3.162    15.4837    10.4999    103.648  26.610784     32.833      8.359   281.9867     3.4070     1.9525     0.0198      0.055      3.099      4.495        432 3.7731e+01   999.0527 0.0000e+00
      3.167    15.4927    10.5576    104.074  26.591352     32.860      8.360   281.7974     3.4948     2.4572     0.0198      0.050      3.104      4.502        433 3.7787e+01   999.0575 0.0000e+00
      3.167    15.5047    10.6239    104.599  26.558523     32.783      8.356   282.2896     3.5215     2.3995     0.0197      0.045      3.108      4.507        434 3.7410e+01   999.0565 0.0000e+00
      3.174    15.4998    10.6713    104.807  26.533157     32.776      8.359   282.0246     3.4986     2.4716     0.0197      0.036      3.115      4.517        435 3.6878e+01   999.0551 0.0000e+00
      3.186    15.4117    10.6762    104.632  26.415572     32.595      8.356   282.1003     3.5138     2.3851     0.0197      0.029      3.127      4.535        436 3.6284e+01   999.0532 0.0000e+00
      3.204    15.2766    10.6620    104.295  26.230924     32.389      8.359   282.8196     3.4642     2.4428     0.0196      0.029      3.147      4.565        437 3.5090e+01   999.0540 0.0000e+00
      3.240    15.1420    10.6051    103.465  25.992824     32.152      8.357   283.1224     3.4528     2.5870     0.0194      0.039      3.175      4.605        438 3.3894e+01   999.0678 0.0000e+00
      3.268    15.0313    10.5139    102.306  25.823305     32.051      8.357   282.8953     3.4528     2.5149     0.0193      0.052      3.200      4.642        439 3.3547e+01   999.0889 0.0000e+00
      3.282    14.9590    10.3874    100.820  25.819912     32.159      8.355   282.8574     3.4413     2.5149     0.0193      0.063      3.220      4.670        440 3.3197e+01   999.1095 0.0000e+00
      3.301    14.8819    10.2422     99.174  25.819374     32.248      8.355   283.1982     3.1629     1.7362     0.0193      0.073      3.242      4.702        441 3.2149e+01   999.1265 0.0000e+00
      3.336    14.7842    10.0862     97.546  25.764774     32.236      8.352   283.6903     3.1171     1.7650     0.0193      0.086      3.273      4.746        442 3.1090e+01   999.1375 0.0000e+00
      3.374    14.7204     9.9393     95.959  25.710173     32.227      8.353   283.8796     3.1819     1.7939     0.0193      0.097      3.305      4.794        443 3.0426e+01   999.1492 0.0000e+00
      3.400    14.6603     9.7890     94.234  25.650395     32.238      8.356   283.6146     3.1324     1.8660     0.0192      0.104      3.334      4.835        444 2.9847e+01   999.1638 0.0000e+00
      3.426    14.5513     9.5980     92.149  25.602240     32.220      8.356   283.6903     2.9912     1.3613     0.0192      0.107      3.360      4.874        445 2.9250e+01   999.1734 0.0000e+00
      3.454    14.4521     9.3687     89.750  25.592410     32.266      8.358   284.1446     2.9912     1.4045     0.0192      0.107      3.388      4.915        446 2.8686e+01   999.1824 0.0000e+00
      3.487    14.3638     9.0345     86.421  25.603416     32.358      8.356   284.4096     2.9836     1.3757     0.0192      0.112      3.420      4.960        447 2.8057e+01   999.1984 0.0000e+00
      3.521    14.2442     8.5626     81.699  25.499719     32.332      8.356   284.0310     2.9836     1.3036     0.0191      0.118      3.451      5.005        448 2.7552e+01   999.2129 0.0000e+00
      3.549    14.1244     7.9781     75.912  25.425299     32.262      8.357   284.1446     2.9683     1.4334     0.0191      0.119      3.480      5.048        449 2.7055e+01   999.2258 0.0000e+00
      3.579    14.0077     7.3136     69.467  25.429490     32.433      8.356   284.2960     2.7547     1.3324     0.0191      0.117      3.510      5.091        450 2.6501e+01   999.2430 0.0000e+00
      3.611    13.9024     6.6562     63.157  25.376066     32.389      8.358   284.3339     2.7547     1.3036     0.0190      0.118      3.541      5.137        451 2.6057e+01   999.2600 0.0000e+00
      3.644    13.8448     5.9685     56.614  25.373350     32.556      8.358   284.4853     2.7051     1.3613     0.0191      0.120      3.574      5.184        452 2.5497e+01   999.2764 0.0000e+00
      3.680    13.7650     5.3994     51.152  25.492151     32.719      8.359   284.8260     2.7280     1.2459     0.0191      0.124      3.607      5.231        453 2.5069e+01   999.2913 0.0000e+00
      3.709    13.6369     4.9208     46.495  25.909506     33.376      8.358   285.1289     1.9956     0.9287     0.0193      0.125      3.637      5.274        454 2.4720e+01   999.2996 0.0000e+00
      3.736    13.5134     4.5815     43.216  26.364599     33.984      8.357   285.6210     2.0108     0.8133     0.0196      0.123      3.665      5.314        455 2.4351e+01   999.3107 0.0000e+00
      3.765    13.4183     4.3560     41.059  26.525318     34.353      8.360   285.6210     1.9841     0.7845     0.0197      0.122      3.695      5.358        456 2.3954e+01   999.3283 0.0000e+00
      3.800    13.3465     4.2071     39.582  26.538913     34.423      8.361   285.6967     1.9841     0.8277     0.0196      0.123      3.729      5.407        457 2.3448e+01   999.3450 0.0000e+00
      3.840    13.2352     4.0535     38.007  26.584692     34.622      8.359   286.3024     1.8773     0.8710     0.0197      0.125      3.765      5.460        458 2.3033e+01   999.3578 0.0000e+00
      3.876    13.1118     3.9399     36.807  26.557246     34.609      8.357   286.7946     1.8887     0.8710     0.0197      0.127      3.797      5.507        459 2.2746e+01   999.3673 0.0000e+00
      3.901    13.0315     3.8541     35.898  26.543478     34.712      8.359   287.3246     1.8811     0.8422     0.0197      0.127      3.822      5.542        460 2.2676e+01   999.3820 0.0000e+00
      3.913    12.9864     3.7558     34.904  26.601863     34.899      8.358   287.2489     1.8620     0.8854     0.0197      0.122      3.837      5.564        461 2.2608e+01   999.3981 0.0000e+00
      3.923    12.9699     3.6669     34.042  26.603111     34.971      8.358   287.4760     2.0451     0.8422     0.0197      0.114      3.849      5.582        462 2.2459e+01   999.4083 0.0000e+00
      3.939    12.9132     3.5874     33.223  26.660439     35.088      8.356   288.3846     2.0490     0.8710     0.0197      0.103      3.865      5.607        463 2.2220e+01   999.4141 0.0000e+00
      3.965    12.7997     3.5115     32.406  26.797128     35.284      8.358   288.3846     2.0680     0.8710     0.0198      0.093      3.890      5.642        464 2.1858e+01   999.4164 0.0000e+00
      3.996    12.7239     3.4212     31.480  26.936580     35.520      8.358   288.5360     2.0451     0.9287     0.0199      0.085      3.918      5.682        465 2.1568e+01   999.4237 0.0000e+00
      4.022    12.6882     3.3580     30.826  26.931238     35.630      8.357   288.8010     1.8735     0.8422     0.0199      0.081      3.945      5.722        466 2.1334e+01   999.4381 0.0000e+00
      4.051    12.6064     3.2816     30.063  26.892674     35.628      8.356   289.3689     1.9040     0.7412     0.0198      0.083      3.973      5.762        467 2.1003e+01   999.4475 0.0000e+00
      4.081    12.4557     3.1822     29.095  26.806871     35.585      8.354   289.1039     1.8811     0.8854     0.0198      0.091      4.001      5.803        468 2.0729e+01   999.4520 0.0000e+00
      4.107    12.2963     3.0520     27.862  26.623339     35.366      8.352   289.1417     1.8620     0.7989     0.0197      0.100      4.028      5.841        469 2.0566e+01   999.4621 0.0000e+00
      4.132    12.1609     2.8818     26.289  26.439819     35.322      8.352   290.2396     1.8697     0.8710     0.0196      0.107      4.054      5.879        470 2.0318e+01   999.4804 0.0000e+00
      4.161    12.0664     2.6983     24.555  26.324404     35.251      8.350   290.6182     1.9421     1.4334     0.0195      0.109      4.081      5.919        471 2.0082e+01   999.4995 0.0000e+00
      4.189    12.0137     2.4675     22.351  26.381956     35.526      8.351   290.4289     1.9460     1.4622     0.0195      0.109      4.110      5.962        472 1.9835e+01   999.5155 0.0000e+00
      4.223    11.9096     2.2453     20.256  26.368244     35.547      8.348   290.6560     1.9193     1.2892     0.0195      0.110      4.143      6.009        473 1.9453e+01   999.5266 0.0000e+00
      4.262    11.7575     2.0277     18.232  26.459985     35.741      8.351   290.8075     1.9231     1.2748     0.0196      0.114      4.175      6.055        474 1.9157e+01   999.5329 0.0000e+00
      4.286    11.6287     1.8329     16.434  26.534403     35.959      8.348   291.2617     1.8163     1.6208     0.0196      0.116      4.200      6.092        475 1.9027e+01   999.5449 0.0000e+00
      4.302    11.5255     1.6942     15.169  26.749609     36.336      8.349   291.4510     1.8239     1.6929     0.0197      0.114      4.220      6.121        476 1.8846e+01   999.5621 0.0000e+00
      4.322    11.4368     1.6126     14.434  27.347459     37.378      8.349   291.6025     1.8392     1.6064     0.0201      0.111      4.239      6.150        477 1.8672e+01   999.5767 0.0000e+00
      4.344    11.3496     1.6020     14.345  27.626997     37.789      8.351   291.3753     1.8315     1.5487     0.0202      0.106      4.264      6.185        478 1.8425e+01   999.5882 0.0000e+00
      4.377    11.2858     1.6577     14.845  27.586655     37.881      8.350   291.9053     1.6904     1.9525     0.0202      0.102      4.296      6.231        479 1.7934e+01   999.5979 0.0000e+00
      4.421    11.2498     1.7761     15.872  27.427320     37.703      8.348   292.3596     1.6866     2.0823     0.0201      0.104      4.336      6.288        480 1.7458e+01   999.6073 0.0000e+00
      4.463    11.1439     1.9044     16.970  27.351357     37.695      8.347   292.0946     1.6789     2.1399     0.0201      0.109      4.376      6.346        481 1.7035e+01   999.6142 0.0000e+00
      4.502    10.9493     2.0622     18.341  27.118388     37.420      8.344   292.5868     1.6751     1.9669     0.0200      0.117      4.413      6.401        482 1.6633e+01   999.6181 0.0000e+00
      4.534    10.7719     2.2148     19.674  26.621256     36.796      8.348   292.8139     1.5530     2.2986     0.0196      0.127      4.448      6.451        483 1.6148e+01   999.6290 0.0000e+00
      4.571    10.6287     2.3740     21.060  26.192775     36.455      8.347   293.9118     1.5530     2.2841     0.0194      0.138      4.484      6.504        484 1.5519e+01   999.6489 0.0000e+00
      4.614    10.5090     2.5555     22.649  25.785560     36.011      8.347   293.6468     1.5683     2.2841     0.0191      0.147      4.522      6.559        485 1.5044e+01   999.6666 0.0000e+00
      4.647    10.4483     2.7606     24.447  25.587821     35.920      8.346   293.3439     1.5874     2.3274     0.0190      0.150      4.555      6.606        486 1.4667e+01   999.6806 0.0000e+00
      4.672    10.4341     2.9728     26.304  25.609543     36.043      8.345   293.4196     1.4424     2.5725     0.0190      0.146      4.581      6.644        487 1.4292e+01   999.6921 0.0000e+00
      4.696    10.4526     3.2154     28.433  25.699327     36.261      8.345   294.2146     1.4462     2.7023     0.0191      0.137      4.606      6.680        488 1.3917e+01   999.6980 0.0000e+00
      4.722    10.4538     3.4890     30.839  25.890789     36.512      8.346   293.9496     1.4615     2.6302     0.0192      0.129      4.632      6.718        489 1.3573e+01   999.6996 0.0000e+00
      4.751    10.3672     3.8077     33.648  25.726719     36.336      8.344   294.2903     1.4462     2.5581     0.0191      0.122      4.662      6.762        490 1.3086e+01   999.6979 0.0000e+00
      4.790    10.2450     4.1543     36.704  25.044539     35.268      8.343   294.4796     1.4272     2.6735     0.0187      0.120      4.698      6.814        491 1.2459e+01   999.6976 0.0000e+00
      4.829    10.1637     4.5312     40.029  24.814486     35.081      8.343   294.0253     1.3547     4.2452     0.0186      0.119      4.733      6.865        492 1.2075e+01   999.7059 0.0000e+00
      4.860    10.1088     4.9286     43.533  24.917124     35.361      8.342   294.1768     1.4043     4.2885     0.0186      0.119      4.768      6.915        493 1.1690e+01   999.7174 0.0000e+00
      4.897    10.0531     5.2745     46.583  24.650275     35.047      8.346   293.9118     1.4119     4.2452     0.0184      0.124      4.803      6.967        494 1.1123e+01   999.7248 0.0000e+00
      4.937    10.0134     5.5834     49.304  24.406139     34.742      8.342   294.1389     1.3699     4.2596     0.0183      0.132      4.841      7.021        495 1.0667e+01   999.7297 0.0000e+00
      4.973     9.9804     5.8220     51.402  24.391649     34.800      8.341   294.0632     1.3966     4.9085     0.0183      0.138      4.876      7.072        496 1.0290e+01   999.7349 0.0000e+00
      5.005     9.9444     5.9911     52.888  24.342525     34.757      8.341   293.6846     1.4043     4.9951     0.0182      0.141      4.908      7.118        497 9.9911e+00   999.7386 0.0000e+00
      5.034     9.9179     6.0768     53.642  24.259963     34.671      8.340   293.9875     1.3966     4.9518     0.0182      0.140      4.937      7.161        498 9.7219e+00   999.7415 0.0000e+00
      5.064     9.8999     6.0816     53.685  24.287082     34.747      8.340   293.6468     1.3928     4.9951     0.0182      0.136      4.966      7.203        499 9.3544e+00   999.7449 0.0000e+00
      5.094     9.8889     6.0300     53.228  24.279168     34.773      8.340   293.7225     1.2479     4.4327     0.0182      0.132      4.995      7.245        500 9.0590e+00   999.7473 0.0000e+00
      5.122     9.8818     5.9142     52.211  24.240202     34.711      8.340   293.7982     1.2326     4.5625     0.0182      0.128      5.025      7.288        501 8.7538e+00   999.7490 0.0000e+00
      5.156     9.8760     5.7813     51.050  24.276345     34.802      8.339   293.9875     1.2593     4.5769     0.0182      0.124      5.058      7.336        502 8.2529e+00   999.7501 0.0000e+00
      5.194     9.8706     5.6270     49.700  24.234196     34.729      8.336   293.7603     1.2593     4.3894     0.0182      0.122      5.093      7.387        503 7.8465e+00   999.7509 0.0000e+00
      5.229     9.8652     5.4778     48.387  24.233424     34.735      8.336   293.7225     1.2402     4.1587     0.0182      0.124      5.128      7.438        504 7.5361e+00   999.7516 0.0000e+00
      5.265     9.8587     5.3395     47.170  24.247688     34.780      8.336   293.9496     1.2479     4.1299     0.0182      0.127      5.164      7.490        505 7.1339e+00   999.7522 0.0000e+00
      5.305     9.8516     5.2248     46.170  24.186828     34.666      8.333   294.1768     1.2479     4.2164     0.0181      0.133      5.201      7.544        506 6.7532e+00   999.7528 0.0000e+00
      5.341     9.8460     5.1319     45.361  24.161076     34.672      8.335   294.1389     1.2593     4.2164     0.0181      0.137      5.233      7.589        507 6.4934e+00   999.7536 0.0000e+00
      5.362     9.8442     5.0682     44.806  24.102032     34.559      8.332   293.9875     1.3051     3.9424     0.0181      0.137      5.253      7.619        508 6.4797e+00   999.7542 0.0000e+00
      5.367     9.8443     5.0346     44.524  24.171456     34.685      8.330   294.3660     1.3242     3.9424     0.0181      0.129      5.261      7.631        509 6.5018e+00   999.7548 0.0000e+00
      5.368     9.8437     5.0199     44.430  24.222768     34.767      8.330   294.2903     1.3318     3.9712     0.0182      0.112      5.264      7.635        510 6.4674e+00   999.7550 0.0000e+00
      5.369     9.8474     5.0204     44.477  24.186265     34.686      8.331   294.8203     1.3318     4.0433     0.0181      0.090      5.265      7.637        511 6.4916e+00   999.7549 0.0000e+00
      5.370     9.8578     5.0274     44.595  24.246502     34.807      8.328   294.3660     1.3127     3.8847     0.0182      0.067      5.266      7.638        512 6.4880e+00   999.7551 0.0000e+00
      5.372     9.8685     5.0412     44.771  24.236657     34.764      8.327   294.2146     1.3127     3.7261     0.0182      0.045      5.268      7.640        513 6.4837e+00   999.7547 0.0000e+00
      5.373     9.8721     5.0637     44.998  24.228133     34.753      8.325   294.2146     1.3280     3.7550     0.0182      0.025      5.269      7.642        514 6.4732e+00   999.7538 0.0000e+00
      5.373     9.8764     5.0817     45.168  24.227489     34.742      8.324   294.6310     1.3509     3.7550     0.0182      0.011      5.269      7.642        515 6.4375e+00   999.7529 0.0000e+00
      5.374     9.8881     5.0823     45.173  24.237456     34.739      8.324   294.1389     1.3242     3.8126     0.0182      0.005      5.270      7.643        516 6.4323e+00   999.7526 0.0000e+00
      5.375     9.9003     5.0893     45.216  24.274965     34.815      8.324   294.2525     1.2517     3.7838     0.0182      0.004      5.271      7.645        517 6.4370e+00   999.7523 0.0000e+00
      5.376     9.9072 -9.990e-29 -9.990e-29  24.299282     34.803      8.322   294.1389     1.2593     3.8271     0.0182      0.004      5.272      7.646        518 6.4449e+00   999.7513 0.0000e+00
      5.377     9.9226 -9.990e-29 -9.990e-29  24.296045     34.831      8.320   294.2146     1.2936     3.7117     0.0182      0.004      5.272      7.647        519 6.4151e+00   999.7502 0.0000e+00
      5.376     9.9557 -9.990e-29 -9.990e-29  24.249369     34.704      8.321   294.4796     1.2517     3.7838     0.0182      0.003      5.272      7.647        520 6.3934e+00   999.7496 0.0000e+00
      5.377     9.9973 -9.990e-29 -9.990e-29  24.327746     34.849      8.315   294.2903     1.3089     3.8703     0.0182      0.003      5.272      7.647        521 6.3928e+00   999.7483 0.0000e+00
      5.376    10.0497 -9.990e-29 -9.990e-29  24.405827     34.895      8.315   294.4796     1.3203     3.6973     0.0183      0.002      5.272      7.647        522 6.3721e+00   999.7454 0.0000e+00
      5.377    10.1010 -9.990e-29 -9.990e-29  24.389133     34.855      8.316   294.4418     1.3280     3.8271     0.0183      0.002      5.273      7.648        523 6.3623e+00   999.7417 0.0000e+00
      5.377    10.1255 -9.990e-29 -9.990e-29  24.407743     34.801      8.316   294.4796     1.3280     3.7982     0.0183      0.001      5.273      7.648        524 6.3744e+00   999.7372 0.0000e+00
      5.377    10.1374 -9.990e-29 -9.990e-29  24.441887     34.830      8.311   294.5175     1.3242     3.7550     0.0183      0.001      5.273      7.648        525 6.3993e+00   999.7325 0.0000e+00
      5.377    10.1332 -9.990e-29 -9.990e-29  24.465099     34.805      8.312   294.5553     1.3203     3.7982     0.0183      0.000      5.273      7.648        526 6.3619e+00   999.7303 0.0000e+00
      5.377    10.1206 -9.990e-29 -9.990e-29  24.526939     34.914      8.310   294.5553     1.3318     3.8126     0.0184      0.000      5.273      7.648        527 6.3179e+00   999.7293 0.0000e+00
      5.377 -9.990e-29 -9.990e-29 -9.990e-29  24.513018     34.876      8.308   294.5932     1.3242     3.8271     0.0184      0.000      5.273      7.648        528 6.3323e+00   999.7297 0.0000e+00
      5.378 -9.990e-29 -9.990e-29 -9.990e-29  24.452805     34.814      8.307   294.7068     1.4043     3.7838     0.0183      0.000      5.273      7.648        529 6.3439e+00   999.7308 0.0000e+00
