* Sea-Bird SBE19plus  Data File:
* FileName = C:\DATA\070819_fcr50_0002.hex
* Software version 2.8.0.119
* Temperature SN = 7809
* Conductivity SN = 7809
* System UpLoad Time = Jul 08 2019 15:01:15
* <ApplicationData>
* <Seaterm232>
* <SoftwareVersion>2.8.0.119</SoftwareVersion>
* <BuildDate>07-Nov-2018</BuildDate>
* </Seaterm232>
* </ApplicationData>
* <InstrumentState>
* <HardwareData DeviceType='SBE19plus' SerialNumber='01907809'>
*
*    <Manufacturer>Sea-Bird Electronics, Inc.</Manufacturer>
*
*    <FirmwareVersion>3.1.8</FirmwareVersion>
*
*    <FirmwareDate>Mar  9 2016 16:22:29</FirmwareDate>
*
*    <CommandSetVersion>1.4</CommandSetVersion>
*
*    <PCBAssembly PCBSerialNum='120721' AssemblyNum='41054J'/>
*
*    <PCBAssembly PCBSerialNum='120715' AssemblyNum='41967A'/>
*
*    <PCBAssembly PCBSerialNum='116699' AssemblyNum='41606'/>
*
*    <PCBAssembly PCBSerialNum='120719' AssemblyNum='41059D'/>
*
*    <MfgDate>28-Apr-2017</MfgDate>
*
*    <InternalSensors>
*
*       <Sensor id='Main Temperature'>
*
*          <type>temperature0</type>
*
*          <SerialNumber>01907809</SerialNumber>
*
*       </Sensor>
*
*       <Sensor id='Main Conductivity'>
*
*          <type>conductivity-0</type>
*
*          <SerialNumber>01907809</SerialNumber>
*
*       </Sensor>
*
*       <Sensor id='Main Pressure'>
*
*          <type>strain-0</type>
*
*          <SerialNumber>10586018</SerialNumber>
*
*       </Sensor>
*
*    </InternalSensors>
*
*    <ExternalSensors>
*
*       <Sensor id='volt 0'>
*
*          <type>pH</type>
*
*          <SerialNumber>27-0363</SerialNumber>
*
*       </Sensor>
*
*       <Sensor id='volt 1'>
*
*          <type>ORP</type>
*
*          <SerialNumber>27-0363</SerialNumber>
*
*       </Sensor>
*
*       <Sensor id='volt 2'>
*
*          <type>OXY</type>
*
*          <SerialNumber>43-0434</SerialNumber>
*
*       </Sensor>
*
*       <Sensor id='volt 3'>
*
*          <type>PAR</type>
*
*          <SerialNumber>1122</SerialNumber>
*
*       </Sensor>
*
*       <Sensor id='volt 4'>
*
*          <type>ECO AFL/FL</type>
*
*          <SerialNumber>FLNTURT-2496</SerialNumber>
*
*       </Sensor>
*
*       <Sensor id='volt 5'>
*
*          <type>ECO-NTU</type>
*
*          <SerialNumber>FLNTURT-2496</SerialNumber>
*
*       </Sensor>
*
*       <Sensor id='serial'>
*
*          <type>not assigned</type>
*
*          <SerialNumber>not assigned</SerialNumber>
*
*       </Sensor>
*
*    </ExternalSensors>
*
* </HardwareData>
* <StatusData DeviceType='SBE19plus' SerialNumber='01907809'>
*
*    <DateTime>2019-07-08T15:00:04</DateTime>
*
*    <LoggingState>not logging</LoggingState>
*
*    <EventSummary numEvents='0'/>
*
*    <Power>
*
*       <vMain>12.6</vMain>
*
*       <vLith>8.8</vLith>
*
*       <iMain>63.1</iMain>
*
*       <iPump>40.7</iPump>
*
*       <iExt01>19.2</iExt01>
*
*       <iExt2345>35.8</iExt2345>
*
*    </Power>
*
*    <MemorySummary>
*
*       <Bytes>112608</Bytes>
*
*       <Samples>4896</Samples>
*
*       <SamplesFree>2855892</SamplesFree>
*
*       <SampleLength>23</SampleLength>
*
*       <Profiles>6</Profiles>
*
*    </MemorySummary>
*
* </StatusData>
* <ConfigurationData DeviceType='SBE19plus' SerialNumber='01907809'>
*
*    <ProfileMode>
*
*       <ScansToAverage>1</ScansToAverage>
*
*       <MinimumCondFreq>5</MinimumCondFreq>
*
*       <PumpDelay>45</PumpDelay>
*
*       <AutoRun>no</AutoRun>
*
*       <IgnoreSwitch>no</IgnoreSwitch>
*
*    </ProfileMode>
*
*    <Battery>
*
*       <Type>alkaline</Type>
*
*       <CutOff>7.5</CutOff>
*
*    </Battery>
*
*    <DataChannels>
*
*       <ExtVolt0>yes</ExtVolt0>
*
*       <ExtVolt1>yes</ExtVolt1>
*
*       <ExtVolt2>yes</ExtVolt2>
*
*       <ExtVolt3>yes</ExtVolt3>
*
*       <ExtVolt4>yes</ExtVolt4>
*
*       <ExtVolt5>yes</ExtVolt5>
*
*       <SBE38>no</SBE38>
*
*       <WETLABS>no</WETLABS>
*
*       <OPTODE>no</OPTODE>
*
*       <SBE63>no</SBE63>
*
*       <SeaFET>no</SeaFET>
*
*       <GTD>no</GTD>
*
*    </DataChannels>
*
*    <EchoCharacters>yes</EchoCharacters>
*
*    <OutputExecutedTag>yes</OutputExecutedTag>
*
*    <OutputFormat>raw HEX</OutputFormat>
*
* </ConfigurationData>
* <CalibrationCoefficients DeviceType='SBE19plus' SerialNumber='01907809'>
*
*    <Calibration format='TEMP1' id='Main Temperature'>
*
*       <SerialNum>01907809</SerialNum>
*
*       <CalDate>24-Mar-19</CalDate>
*
*       <TA0>1.217923e-03</TA0>
*
*       <TA1>2.816693e-04</TA1>
*
*       <TA2>-1.603333e-06</TA2>
*
*       <TA3>1.984146e-07</TA3>
*
*       <TOFFSET>0.000000e+00</TOFFSET>
*
*    </Calibration>
*
*    <Calibration format='WBCOND0' id='Main Conductivity'>
*
*       <SerialNum>01907809</SerialNum>
*
*       <CalDate>24-Mar-19</CalDate>
*
*       <G>-1.005893e+00</G>
*
*       <H>1.268163e-01</H>
*
*       <I>-1.515604e-04</I>
*
*       <J>2.671373e-05</J>
*
*       <CPCOR>-9.570000e-08</CPCOR>
*
*       <CTCOR>3.250000e-06</CTCOR>
*
*       <CSLOPE>1.000000e+00</CSLOPE>
*
*    </Calibration>
*
*    <Calibration format='STRAIN0' id='Main Pressure'>
*
*       <SerialNum>10586018</SerialNum>
*
*       <CalDate>11-Mar-19</CalDate>
*
*       <PA0>4.565618e-02</PA0>
*
*       <PA1>4.850951e-04</PA1>
*
*       <PA2>-2.883271e-12</PA2>
*
*       <PTCA0>5.252467e+05</PTCA0>
*
*       <PTCA1>1.223042e+01</PTCA1>
*
*       <PTCA2>-3.567450e-01</PTCA2>
*
*       <PTCB0>2.516687e+01</PTCB0>
*
*       <PTCB1>3.750000e-04</PTCB1>
*
*       <PTCB2>0.000000e+00</PTCB2>
*
*       <PTEMPA0>-5.487846e+01</PTEMPA0>
*
*       <PTEMPA1>5.537568e+01</PTEMPA1>
*
*       <PTEMPA2>-5.867271e-01</PTEMPA2>
*
*       <POFFSET>7.140000e-01</POFFSET>
*
*       <PRANGE>1.600000e+02</PRANGE>
*
*    </Calibration>
*
*    <Calibration format='VOLT0' id='Volt 0'>
*
*       <OFFSET>-4.920000e-02</OFFSET>
*
*       <SLOPE>1.248122e+00</SLOPE>
*
*    </Calibration>
*
*    <Calibration format='VOLT0' id='Volt 1'>
*
*       <OFFSET>-4.784000e-02</OFFSET>
*
*       <SLOPE>1.248871e+00</SLOPE>
*
*    </Calibration>
*
*    <Calibration format='VOLT0' id='Volt 2'>
*
*       <OFFSET>-4.864632e-02</OFFSET>
*
*       <SLOPE>1.248714e+00</SLOPE>
*
*    </Calibration>
*
*    <Calibration format='VOLT0' id='Volt 3'>
*
*       <OFFSET>-4.743790e-02</OFFSET>
*
*       <SLOPE>1.248571e+00</SLOPE>
*
*    </Calibration>
*
*    <Calibration format='VOLT0' id='Volt 4'>
*
*       <OFFSET>-4.671263e-02</OFFSET>
*
*       <SLOPE>1.248951e+00</SLOPE>
*
*    </Calibration>
*
*    <Calibration format='VOLT0' id='Volt 5'>
*
*       <OFFSET>-4.871053e-02</OFFSET>
*
*       <SLOPE>1.249136e+00</SLOPE>
*
*    </Calibration>
*
*    <Calibration format='FREQ0' id='external frequency channel'>
*
*       <EXTFREQSF>1.000014e+00</EXTFREQSF>
*
*    </Calibration>
*
* </CalibrationCoefficients>
* <EventCounters DeviceType='SBE19plus' SerialNumber='01907809'>
*
*    <EventSummary numEvents='0'/>
*
* </EventCounters></InstrumentState>
* <Headers>
*
* cast   2 08 Jul 2019 11:14:27 samples 1111 to 1561, avg = 1, stop = mag switch
*
# nquan = 18
# nvalues = 397                         
# units = specified
# name 0 = depFM: Depth [fresh water, m]
# name 1 = tv290C: Temperature [ITS-90, deg C]
# name 2 = sbeox0Mg/L: Oxygen, SBE 43 [mg/l]
# name 3 = sbeox0PS: Oxygen, SBE 43 [% saturation]
# name 4 = c0uS/cm: Conductivity [uS/cm]
# name 5 = specc: Specific Conductance [uS/cm]
# name 6 = ph: pH
# name 7 = orp: Oxidation Reduction Potential [mV]
# name 8 = flECO-AFL: Fluorescence, WET Labs ECO-AFL/FL [mg/m^3]
# name 9 = turbWETntu0: Turbidity, WET Labs ECO [NTU]
# name 10 = sal00: Salinity, Practical [PSU]
# name 11 = dz/dtM: Descent Rate [m/s]
# name 12 = prdM: Pressure, Strain Gauge [db]
# name 13 = prdE: Pressure, Strain Gauge [psi]
# name 14 = scan: Scan Count
# name 15 = par/sat/log: PAR/Logarithmic, Satlantic
# name 16 = density00: Density [density, kg/m^3]
# name 17 = flag:  0.000e+00
# span 0 =     -0.616,      2.415       
# span 1 =    20.5865,    30.3181       
# span 2 =    -0.4987,     9.3420       
# span 3 =     -5.612,    114.494       
# span 4 =   0.680570, 272.760661       
# span 5 =      0.598,    296.207       
# span 6 =      4.660,      8.790       
# span 7 = -1240.7455,   939.9458       
# span 8 =    -0.3658,     4.2844       
# span 9 =    -5.2141,    10.5467       
# span 10 =     0.0135,     0.1425      
# span 11 =     -0.118,      0.222      
# span 12 =     -0.604,      2.367      
# span 13 =     -0.876,      3.434      
# span 14 =          1,        397      
# span 15 = 6.6402e+01, 2.5518e+03      
# span 16 =   995.5599,   998.1823      
# span 17 = 0.0000e+00, 0.0000e+00      
# interval = seconds: 0.25
# start_time = Jul 08 2019 11:14:27 [Instrument's time stamp, header]
# bad_flag = -9.990e-29
# <Sensors count="9" >
#   <sensor Channel="1" >
#     <!-- Count, Temperature -->
#     <TemperatureSensor SensorID="58" >
#       <SerialNumber>7809</SerialNumber>
#       <CalibrationDate>24-Mar-19</CalibrationDate>
#       <A0>1.21792325e-003</A0>
#       <A1>2.81669265e-004</A1>
#       <A2>-1.60333336e-006</A2>
#       <A3>1.98414625e-007</A3>
#       <Slope>1.00000000</Slope>
#       <Offset>0.0000</Offset>
#     </TemperatureSensor>
#   </sensor>
#   <sensor Channel="2" >
#     <!-- Frequency 0, Conductivity -->
#     <ConductivitySensor SensorID="3" >
#       <SerialNumber>7809</SerialNumber>
#       <CalibrationDate>24-Mar-19</CalibrationDate>
#       <UseG_J>1</UseG_J>
#       <!-- Cell const and series R are applicable only for wide range sensors. -->
#       <SeriesR>0.0000</SeriesR>
#       <CellConst>2000.0000</CellConst>
#       <ConductivityType>0</ConductivityType>
#       <Coefficients equation="0" >
#         <A>0.00000000e+000</A>
#         <B>0.00000000e+000</B>
#         <C>0.00000000e+000</C>
#         <D>0.00000000e+000</D>
#         <M>0.0</M>
#         <CPcor>-9.57000000e-008</CPcor>
#       </Coefficients>
#       <Coefficients equation="1" >
#         <G>-1.00589325e+000</G>
#         <H>1.26816302e-001</H>
#         <I>-1.51560448e-004</I>
#         <J>2.67137274e-005</J>
#         <CPcor>-9.57000000e-008</CPcor>
#         <CTcor>3.2500e-006</CTcor>
#         <!-- WBOTC not applicable unless ConductivityType = 1. -->
#         <WBOTC>0.00000000e+000</WBOTC>
#       </Coefficients>
#       <Slope>1.00000000</Slope>
#       <Offset>0.00000</Offset>
#     </ConductivitySensor>
#   </sensor>
#   <sensor Channel="3" >
#     <!-- Count, Pressure, Strain Gauge -->
#     <PressureSensor SensorID="46" >
#       <SerialNumber>7809</SerialNumber>
#       <CalibrationDate>11-Mar-19</CalibrationDate>
#       <PA0>4.56561833e-002</PA0>
#       <PA1>4.85095118e-004</PA1>
#       <PA2>-2.88327090e-012</PA2>
#       <PTEMPA0>-5.48784562e+001</PTEMPA0>
#       <PTEMPA1>5.53756816e+001</PTEMPA1>
#       <PTEMPA2>-5.86727098e-001</PTEMPA2>
#       <PTCA0>5.25246745e+005</PTCA0>
#       <PTCA1>1.22304214e+001</PTCA1>
#       <PTCA2>-3.56745036e-001</PTCA2>
#       <PTCB0>2.51668750e+001</PTCB0>
#       <PTCB1>3.75000000e-004</PTCB1>
#       <PTCB2>0.00000000e+000</PTCB2>
#       <Offset>0.000000</Offset>
#     </PressureSensor>
#   </sensor>
#   <sensor Channel="4" >
#     <!-- A/D voltage 0, Oxygen, SBE 43 -->
#     <OxygenSensor SensorID="38" >
#       <SerialNumber>0434</SerialNumber>
#       <CalibrationDate>13-Apr-19</CalibrationDate>
#       <Use2007Equation>1</Use2007Equation>
#       <CalibrationCoefficients equation="0" >
#         <!-- Coefficients for Owens-Millard equation. -->
#         <Boc>0.0000</Boc>
#         <Soc>0.0000e+000</Soc>
#         <offset>0.0000</offset>
#         <Pcor>0.00e+000</Pcor>
#         <Tcor>0.0000</Tcor>
#         <Tau>0.0</Tau>
#       </CalibrationCoefficients>
#       <CalibrationCoefficients equation="1" >
#         <!-- Coefficients for Sea-Bird equation - SBE calibration in 2007 and later. -->
#         <Soc>4.2007e-001</Soc>
#         <offset>-0.6109</offset>
#         <A>-4.3656e-003</A>
#         <B> 1.7017e-004</B>
#         <C>-2.5341e-006</C>
#         <D0> 2.5826e+000</D0>
#         <D1> 1.92634e-004</D1>
#         <D2>-4.64803e-002</D2>
#         <E> 3.6000e-002</E>
#         <Tau20> 1.1800</Tau20>
#         <H1>-3.3000e-002</H1>
#         <H2> 5.0000e+003</H2>
#         <H3> 1.4500e+003</H3>
#       </CalibrationCoefficients>
#     </OxygenSensor>
#   </sensor>
#   <sensor Channel="5" >
#     <!-- A/D voltage 1, PAR/Logarithmic, Satlantic -->
#     <PARLog_SatlanticSensor SensorID="76" >
#       <SerialNumber>1122</SerialNumber>
#       <CalibrationDate>08-May-2019</CalibrationDate>
#       <a0>9.7456e-001</a0>
#       <a1>8.1640e-001</a1>
#       <Im>1.3589e+000</Im>
#       <Multiplier>1.0000e+000</Multiplier>
#     </PARLog_SatlanticSensor>
#   </sensor>
#   <sensor Channel="6" >
#     <!-- A/D voltage 2, pH -->
#     <pH_Sensor SensorID="43" >
#       <SerialNumber>0363</SerialNumber>
#       <CalibrationDate>15-Apr-19</CalibrationDate>
#       <Slope>4.5952</Slope>
#       <Offset>2.5370</Offset>
#     </pH_Sensor>
#   </sensor>
#   <sensor Channel="7" >
#     <!-- A/D voltage 3, Oxidation Reduction Potential -->
#     <OxidationReductionPotentialSensor SensorID="41" >
#       <SerialNumber>0363</SerialNumber>
#       <CalibrationDate>15-Apr-19</CalibrationDate>
#       <B>2.499480</B>
#       <M>-0.496195</M>
#       <Offset>0.0</Offset>
#     </OxidationReductionPotentialSensor>
#   </sensor>
#   <sensor Channel="8" >
#     <!-- A/D voltage 4, Fluorometer, WET Labs ECO-AFL/FL -->
#     <FluoroWetlabECO_AFL_FL_Sensor SensorID="20" >
#       <SerialNumber>FLNTURT-2496</SerialNumber>
#       <CalibrationDate>08-May-2019</CalibrationDate>
#       <ScaleFactor>5.00000000e+001</ScaleFactor>
#       <!-- Dark output -->
#       <Vblank>0.0550</Vblank>
#     </FluoroWetlabECO_AFL_FL_Sensor>
#   </sensor>
#   <sensor Channel="9" >
#     <!-- A/D voltage 5, Turbidity Meter, WET Labs, ECO-NTU -->
#     <TurbidityMeter SensorID="67" >
#       <SerialNumber>FLNTURT-2496</SerialNumber>
#       <CalibrationDate>08-May-2019</CalibrationDate>
#       <ScaleFactor>189.000000</ScaleFactor>
#       <!-- Dark output -->
#       <DarkVoltage>0.071000</DarkVoltage>
#     </TurbidityMeter>
#   </sensor>
# </Sensors>
# datcnv_date = Jul 09 2019 07:37:34, 7.26.7.129 [datcnv_vars = 17]
# datcnv_in = C:\DATA\070819_fcr10.hex C:\DATA\SBE19plusV2_7809.xmlcon
# datcnv_skipover = 0
# datcnv_ox_hysteresis_correction = yes
# datcnv_ox_tau_correction = yes
# filter_date = Jul 09 2019 07:39:48, 7.26.7.129
# filter_in = C:\DATA\070819_fcr10.cnv
# filter_low_pass_tc_A = 0.030
# filter_low_pass_tc_B = 0.150
# filter_low_pass_A_vars = tv290C c0uS/cm par/sat/log density00
# filter_low_pass_B_vars = prdM prdE
# alignctd_date = Jul 09 2019 07:40:14, 7.26.7.129
# alignctd_in = C:\DATA\070819_fcr10.cnv
# alignctd_adv = tv290C 0.500, sbeox0Mg/L 3.000, sbeox0PS 3.000                                                                                                                                                                      
# file_type = ascii
*END*
     -0.614    30.0339     6.8329     90.759   0.733119      0.673      5.907 -1240.7455    -0.0873    -0.5277     0.0135 2.1053e-16     -0.602     -0.874          1 4.0419e+02   995.6323 0.0000e+00
     -0.615    30.0227     6.8347     90.817   0.755966      0.674      5.864 -1240.7455    -0.1140    -0.5566     0.0135     -0.000     -0.603     -0.874          2 3.9744e+02   995.6391 0.0000e+00
     -0.615    30.0205     6.8345     90.847   0.777853      0.725      5.819 -1240.7455    -0.1293    -0.6287     0.0135     -0.000     -0.603     -0.874          3 3.9638e+02   995.6462 0.0000e+00
     -0.614    30.0292     6.8400     90.951   0.765044      0.674      5.786 -1240.7455    -0.1254     0.0058     0.0135     -0.000     -0.603     -0.874          4 3.8684e+02   995.6496 0.0000e+00
     -0.615    30.0455     6.8467     91.062   0.771905      0.725      5.775 -1240.7455    -0.1254    -0.1240     0.0135     -0.000     -0.603     -0.874          5 3.8845e+02   995.6502 0.0000e+00
     -0.615    30.0659     6.8662     91.198   0.680570      0.598      5.721 -1240.7455    -0.1102    -0.0230     0.0135     -0.000     -0.603     -0.874          6 3.7018e+02   995.6477 0.0000e+00
     -0.615    30.0931     6.9494     91.283   0.730803      0.674      6.017 -1240.7455    -0.1254    -0.0951     0.0135     -0.000     -0.603     -0.875          7 4.0154e+02   995.6426 0.0000e+00
     -0.615    30.1287     7.0375     91.371   0.798137      0.724      6.063 -1240.7455    -0.1636    -0.1816     0.0135     -0.000     -0.603     -0.875          8 3.6876e+02   995.6365 0.0000e+00
     -0.616    30.1703     7.0980     91.407   0.744681      0.673      6.009 -1240.7455    -0.1026     0.3375     0.0135     -0.001     -0.603     -0.875          9 4.2175e+02   995.6284 0.0000e+00
     -0.615    30.2026     7.1352     91.358   0.738162      0.673      5.962 -1240.7455    -0.1102     0.4384     0.0136     -0.000     -0.603     -0.875         10 3.1383e+02   995.6175 0.0000e+00
     -0.616    30.2305     7.1674     91.371   0.747084      0.672      4.660 -1240.7455    -0.0987     0.3519     0.0136     -0.001     -0.604     -0.876         11 5.7188e+02   995.6049 0.0000e+00
     -0.616    30.2470     7.1890     91.366   0.792741      0.722      6.717  -877.2402    -0.1064     0.3951     0.0136     -0.001     -0.604     -0.876         12 1.5572e+03   995.5951 0.0000e+00
     -0.616    30.2760     7.2062     91.386   0.799668      0.722      8.219  -930.0511    -0.3620    -0.5854     0.0136     -0.001     -0.604     -0.876         13 1.8726e+03   995.5866 0.0000e+00
     -0.616    30.2825     7.2284     91.554   0.738462      0.671      8.678  -989.1084    -0.3543    -0.4700     0.0136     -0.001     -0.604     -0.876         14 1.7404e+03   995.5817 0.0000e+00
     -0.616    30.3181     7.2552     91.805   0.809749      0.721      8.790 -1038.2849    -0.3391    -0.5421     0.0136     -0.000     -0.604     -0.876         15 1.9640e+03   995.5728 0.0000e+00
     -0.615    30.1987     7.2944     92.214   0.710955      0.671      8.750 -1077.7322    -0.3658    -0.5421     0.0136     -0.000     -0.600     -0.871         16 1.7792e+03   995.5709 0.0000e+00
     -0.610    29.5924     7.3320     92.615   0.861409      0.721      8.059 -1240.7455    -0.1903     5.7881     0.0136      0.001     -0.578     -0.839         17 9.1841e+02   995.5599 0.0000e+00
     -0.539    28.9093     7.3728     93.059  15.921576     13.723      6.941   939.9458    -0.1979     5.7449     0.0169      0.021     -0.523     -0.758         18 1.2267e+03   995.5995 0.0000e+00
     -0.449    28.4518     7.4024     93.397  36.292038     34.417      6.801   274.5667    -0.1674     5.7881     0.0246      0.059     -0.453     -0.657         19 2.2035e+03   995.7873 0.0000e+00
     -0.401    28.1174     7.4267     93.691  38.645165     35.128      6.795   244.4702    -0.1598     5.8602     0.0247      0.099     -0.403     -0.585         20 2.3267e+03   995.9902 0.0000e+00
     -0.382    27.8757     7.4391     93.838  37.281421     35.304      6.838   277.2546     1.8315    -5.1420     0.0246      0.130     -0.380     -0.551         21 2.4385e+03   996.1226 0.0000e+00
     -0.380    27.6987     7.4411     93.861  38.019079     35.521      6.895   239.7759     1.8124    -5.2141     0.0247      0.146     -0.367     -0.532         22 2.2439e+03   996.2189 0.0000e+00
     -0.359    27.5796     7.4411     93.863  37.579158     35.687      6.924   229.7059     1.8086    -5.1565     0.0247      0.152     -0.345     -0.500         23 1.7695e+03   996.2874 0.0000e+00
     -0.314    27.5061     7.4304     93.731  38.184660     36.122      6.966   237.6937     1.7934    -5.1276     0.0248      0.153     -0.310     -0.450         24 1.9833e+03   996.3378 0.0000e+00
     -0.279    27.4530     7.4297     93.722  42.304289     40.083      6.987   234.1352     1.1945    10.4890     0.0264      0.144     -0.270     -0.393         25 2.1938e+03   996.3726 0.0000e+00
     -0.235    27.4008     7.4176     93.562  48.281693     46.256      6.976   227.1694     1.2021    10.5467     0.0289      0.126     -0.228     -0.332         26 2.2619e+03   996.3952 0.0000e+00
     -0.185    27.3552     7.4059     93.405  48.562813     46.170      6.960   217.7808     1.2059    10.5322     0.0289      0.119     -0.184     -0.267         27 2.3355e+03   996.4103 0.0000e+00
     -0.143    27.3134     7.3903     93.194  46.816401     44.724      6.924   216.6451     1.2250    10.5322     0.0283      0.130     -0.148     -0.215         28 2.2633e+03   996.4246 0.0000e+00
     -0.125    27.2911     7.2857     91.841  46.066854     43.935      6.872   216.5315     1.1983    10.5034     0.0279      0.142     -0.128     -0.186         29 2.2342e+03   996.4372 0.0000e+00
     -0.123    27.2832     7.1582     90.191  46.323103     44.265      6.829   217.8187     2.0719     2.3851     0.0280      0.141     -0.122     -0.178         30 2.1732e+03   996.4488 0.0000e+00
     -0.125    27.2774     7.1540     90.101  46.794012     44.790      6.788   213.1622     2.0642     2.3995     0.0283      0.125     -0.122     -0.177         31 2.1360e+03   996.4552 0.0000e+00
     -0.124    27.2764     7.1953     90.585  46.311001     44.236      6.750   211.9887     2.0680     2.3851     0.0280      0.098     -0.122     -0.176         32 2.0823e+03   996.4572 0.0000e+00
     -0.123    27.2780     7.2145     90.790  46.034741     44.054      6.706   211.4208     2.0566     2.4139     0.0279      0.072     -0.120     -0.174         33 2.0140e+03   996.4588 0.0000e+00
     -0.119    27.2791     7.1902     90.448  45.981513     43.948      6.651   232.2423     2.2664     2.6158     0.0279      0.045     -0.117     -0.171         34 1.9562e+03   996.4590 0.0000e+00
     -0.118    27.2792     7.1092     89.402  46.169705     44.160      6.598   210.4365     2.2397     2.6879     0.0280      0.023     -0.115     -0.168         35 1.9611e+03   996.4586 0.0000e+00
     -0.117    27.2754     7.0058     88.084  46.156320     44.159      6.556   233.3780     2.2740     2.5293     0.0280      0.009     -0.115     -0.168         36 2.0138e+03   996.4584 0.0000e+00
     -0.120    27.2701     6.9641     87.540  45.108741     43.144      6.518   243.7509     2.2473     2.6446     0.0276      0.004     -0.117     -0.170         37 2.0488e+03   996.4581 0.0000e+00
     -0.121    27.2610     6.9638     87.517  43.233915     41.357      6.480   244.3945     2.0490     2.5293     0.0268      0.003     -0.119     -0.172         38 2.0716e+03   996.4585 0.0000e+00
     -0.123    27.2405     6.9412     87.221  41.789660     39.918      6.453   244.0916     2.0604     2.4428     0.0262      0.002     -0.122     -0.177         39 2.1248e+03   996.4595 0.0000e+00
     -0.131    27.2146     6.9513     87.338  41.510892     39.738      6.426   243.9780     2.0604     2.3707     0.0262     -0.002     -0.127     -0.185         40 2.2050e+03   996.4619 0.0000e+00
     -0.135    27.1911     6.9874     87.780  41.209433     39.433      6.393   243.5995     2.0528     2.4139     0.0260     -0.006     -0.130     -0.189         41 2.2669e+03   996.4675 0.0000e+00
     -0.132    27.1686     7.0373     88.399  40.742050     38.998      6.360   244.1673     1.9917     2.5004     0.0258     -0.009     -0.129     -0.188         42 2.3074e+03   996.4746 0.0000e+00
     -0.129    27.1462     7.0688     88.787  40.551227     38.855      6.321   243.9023     2.0032     2.4860     0.0258     -0.009     -0.128     -0.186         43 2.3389e+03   996.4810 0.0000e+00
     -0.132    27.1242     7.0646     88.727  40.379863     38.684      6.280   244.0159     2.0184     2.4860     0.0257     -0.008     -0.130     -0.189         44 2.3567e+03   996.4872 0.0000e+00
     -0.137    27.1072     7.0135     88.083  40.095760     38.460      6.237   240.9116     2.0223     2.4860     0.0256     -0.008     -0.133     -0.193         45 2.3594e+03   996.4933 0.0000e+00
     -0.137    27.0957     6.9395     87.156  39.600656     37.967      6.212   215.5094     2.0566     2.3851     0.0254     -0.007     -0.133     -0.194         46 2.3440e+03   996.4992 0.0000e+00
     -0.135    27.0831     6.8434     85.956  39.099117     37.524      6.199   214.7522     2.0833     2.5293     0.0252     -0.005     -0.132     -0.192         47 2.3333e+03   996.5037 0.0000e+00
     -0.131    27.0711     6.7335     84.584  38.674866     37.103      6.192   214.1465     2.0680     2.4716     0.0250     -0.001     -0.129     -0.188         48 2.3249e+03   996.5068 0.0000e+00
     -0.129    27.0632     6.6185     83.146  38.468910     36.925      6.184   216.3422     2.0909     2.5004     0.0250      0.001     -0.127     -0.185         49 2.3051e+03   996.5103 0.0000e+00
     -0.129    27.0563     6.4985     81.641  38.466304     36.933      6.169   244.3945     2.0642     2.4572     0.0250      0.001     -0.126     -0.183         50 2.2852e+03   996.5136 0.0000e+00
     -0.128    27.0495     6.3878     80.250  38.529928     36.993      6.150   235.3087     2.0719     2.4572     0.0250      0.002     -0.125     -0.181         51 2.2897e+03   996.5158 0.0000e+00
     -0.124    27.0446     6.2757     78.839  38.686108     37.158      6.134   243.9023     2.0604     2.4716     0.0251      0.005     -0.122     -0.177         52 2.2708e+03   996.5178 0.0000e+00
     -0.121    27.0399     6.1744     77.561  38.894334     37.351      6.113   242.7666     2.0757     2.5149     0.0251      0.008     -0.120     -0.174         53 2.2679e+03   996.5197 0.0000e+00
     -0.122    27.0354     6.1227     76.908  38.922828     37.408      6.088   244.6973     2.0680     2.5149     0.0252      0.008     -0.120     -0.174         54 2.2237e+03   996.5210 0.0000e+00
     -0.123    27.0336     6.1364     77.077  38.650651     37.116      6.072   216.6451     2.1291     2.3995     0.0250      0.006     -0.120     -0.174         55 2.2497e+03   996.5222 0.0000e+00
     -0.123    27.0356     6.2011     77.889  38.403203     36.905      6.071   215.7744     2.1253     2.4860     0.0250      0.005     -0.120     -0.174         56 2.0704e+03   996.5234 0.0000e+00
     -0.121    27.0407     6.3043     79.195  38.223103     36.718      6.068   218.2351     2.1138     2.4860     0.0249      0.004     -0.119     -0.173         57 1.2616e+03   996.5239 0.0000e+00
     -0.120    27.0460     6.4439     80.955  38.163493     36.663      6.060   219.3330     2.1176     2.4572     0.0249      0.004     -0.117     -0.171         58 7.1464e+02   996.5233 0.0000e+00
     -0.119    27.0499     6.6025     82.931  38.181018     36.687      6.053   213.6544     2.1481     2.1976     0.0249      0.003     -0.117     -0.170         59 6.6376e+02   996.5219 0.0000e+00
     -0.120    27.0518     6.7694     85.011  38.112382     36.602      6.039   218.3108     2.1367     2.1976     0.0248      0.002     -0.118     -0.171         60 7.9806e+02   996.5204 0.0000e+00
     -0.120    27.0512     6.9100     86.764  38.100723     36.600      6.027   213.1622     2.1443     2.1544     0.0248      0.001     -0.118     -0.171         61 1.1446e+03   996.5194 0.0000e+00
     -0.121    27.0488     7.0160     88.093  38.106615     36.598      6.027   212.9729     2.1405     2.2409     0.0248      0.001     -0.118     -0.171         62 1.5651e+03   996.5189 0.0000e+00
     -0.121    27.0458     7.0787     88.888  38.045775     36.545      6.022   212.4429     2.1291     2.3707     0.0248      0.001     -0.118     -0.171         63 1.5432e+03   996.5189 0.0000e+00
     -0.119    27.0434     7.0917     89.058  38.057891     36.547      6.018   212.6322     2.0909     2.3707     0.0248      0.001     -0.117     -0.169         64 9.9582e+02   996.5196 0.0000e+00
     -0.117    27.0413     7.0466     88.488  38.121175     36.629      6.011   244.2430     2.1329     2.5293     0.0248      0.001     -0.115     -0.167         65 6.6728e+02   996.5205 0.0000e+00
     -0.116    27.0401     6.9524     87.311  38.055931     36.551      6.001   244.4702     2.1481     2.4860     0.0248      0.001     -0.114     -0.164         66 1.2942e+03   996.5212 0.0000e+00
     -0.115    27.0471     6.8334     85.804  37.990903     36.498      5.990   216.9858     2.0490     2.6014     0.0248      0.002     -0.107     -0.154         67 1.4860e+03   996.5217 0.0000e+00
     -0.093    27.0512     6.7110     84.261  37.935372     36.446      5.991   224.1408     2.0909     2.5725     0.0248      0.009     -0.089     -0.129         68 1.1080e+03   996.5222 0.0000e+00
     -0.064    27.0407     6.6131     83.043  38.243586     36.709      5.969   212.9351     2.0604     2.5437     0.0249      0.021     -0.068     -0.099         69 1.3719e+03   996.5204 0.0000e+00
     -0.055    27.0295     6.5664     82.450  38.555715     37.081      5.955   212.7079     2.0528     2.6302     0.0250      0.032     -0.056     -0.082         70 1.7079e+03   996.5194 0.0000e+00
     -0.053    27.0221     6.5568     82.314  38.258219     36.714      5.944   212.3294     2.1825     2.1976     0.0249      0.039     -0.053     -0.078         71 1.3572e+03   996.5223 0.0000e+00
     -0.055    27.0202     6.5549     82.302  37.961804     36.506      5.930   212.1022     2.1977     2.2697     0.0248      0.041     -0.054     -0.078         72 6.9219e+02   996.5253 0.0000e+00
     -0.057    27.0259     6.5637     82.475  37.828042     36.324      5.932   211.6858     2.1748     2.1832     0.0247      0.039     -0.054     -0.079         73 1.3947e+03   996.5272 0.0000e+00
     -0.056    27.0287     6.5887     82.815  37.713413     36.271      5.932   216.9858     2.1901     2.3274     0.0247      0.033     -0.054     -0.078         74 1.6282e+03   996.5277 0.0000e+00
     -0.054    27.0282     6.6436     83.505  37.719187     36.214      5.936   217.4780     2.1977     2.2986     0.0247      0.024     -0.053     -0.077         75 1.3155e+03   996.5262 0.0000e+00
     -0.052    27.0305     6.6967     84.182  37.643038     36.212      5.936   212.5944     2.2397     2.5149     0.0247      0.012     -0.055     -0.080         76 1.2951e+03   996.5254 0.0000e+00
     -0.060    27.0233     6.7304     84.622  38.015632     36.454      5.932   212.5187     2.2435     2.5437     0.0248      0.001     -0.070     -0.102         77 9.4604e+02   996.5256 0.0000e+00
     -0.104    27.0192     6.7414     84.787  38.648425     37.230      5.927   212.7458     2.2397     2.4572     0.0251     -0.014     -0.102     -0.148         78 1.3044e+03   996.5250 0.0000e+00
     -0.150    27.0254     6.7208     84.550  38.159558     36.618      5.913   231.0309     2.2550     2.3130     0.0248     -0.035     -0.131     -0.190         79 1.3947e+03   996.5266 0.0000e+00
     -0.143    27.0222     6.6722     84.012  37.616369     36.165      5.894   229.4030     2.1291     2.2553     0.0246     -0.048     -0.138     -0.200         80 1.1302e+03   996.5275 0.0000e+00
     -0.134    27.0111     6.6143     83.333  37.812942     36.321      5.872   242.7666     2.1405     2.2697     0.0247     -0.053     -0.132     -0.191         81 1.4383e+03   996.5259 0.0000e+00
     -0.127    27.0211     6.5440     82.460  38.092741     36.619      5.861   244.8488     2.1138     2.2697     0.0248     -0.052     -0.126     -0.182         82 1.6275e+03   996.5269 0.0000e+00
     -0.123    27.0600     6.4798     81.659  38.364714     36.868      5.855   224.7087     2.1176     2.2409     0.0249     -0.045     -0.122     -0.176         83 1.6556e+03   996.5301 0.0000e+00
     -0.121    27.0792     6.4120     80.819  38.511765     37.024      5.853   224.7087     2.1443     2.4860     0.0250     -0.032     -0.120     -0.174         84 1.7720e+03   996.5274 0.0000e+00
     -0.123    27.0797     6.3344     79.869  38.472836     36.940      5.847   246.7795     2.1329     2.5149     0.0250     -0.015     -0.121     -0.175         85 1.8802e+03   996.5166 0.0000e+00
     -0.125    27.0852     6.2641     79.008  38.324235     36.793      5.841   229.2137     2.1291     2.5581     0.0249      0.003     -0.121     -0.175         86 2.0219e+03   996.5113 0.0000e+00
     -0.122    27.0975     6.2003     78.216  38.103946     36.579      5.841   233.3023     2.1253     2.4139     0.0248      0.013     -0.118     -0.170         87 2.1022e+03   996.5111 0.0000e+00
     -0.112    27.1118     6.1336     77.381  37.946785     36.413      5.846   229.2137     2.0604     2.6158     0.0248      0.011     -0.111     -0.160         88 2.1578e+03   996.5096 0.0000e+00
     -0.103    27.1305     6.0630     76.498  38.164176     36.621      5.846   243.1073     2.0604     2.5870     0.0249      0.011     -0.106     -0.154         89 2.1743e+03   996.5063 0.0000e+00
     -0.111    27.1754     5.9960     75.658  38.515048     36.957      5.832   242.4259     2.0528     2.6302     0.0250      0.009     -0.110     -0.159         90 2.1892e+03   996.5025 0.0000e+00
     -0.120    27.2106     5.9232     74.742  38.517778     36.946      5.833   233.3780     2.0909     2.6446     0.0250      0.006     -0.116     -0.167         91 2.2207e+03   996.4973 0.0000e+00
     -0.120    27.2201     5.8601     73.947  38.338587     36.724      5.836   245.8709     2.1977     3.1061     0.0249      0.004     -0.118     -0.170         92 2.2508e+03   996.4847 0.0000e+00
     -0.119    27.2254     5.8088     73.303  38.263836     36.647      5.835   248.2559     2.1558     3.0628     0.0249      0.002     -0.117     -0.169         93 2.2605e+03   996.4749 0.0000e+00
     -0.117    27.2347     5.7529     72.604  38.225507     36.587      5.840   248.6345     2.1787     3.1061     0.0249      0.001     -0.115     -0.166         94 2.2526e+03   996.4724 0.0000e+00
     -0.114    27.2545     5.7057     72.016  38.356643     36.717      5.837   249.4295     2.1901     3.0195     0.0249     -0.001     -0.113     -0.162         95 2.2515e+03   996.4710 0.0000e+00
     -0.113    27.2724     5.6494     71.313  38.515554     36.871      5.836   249.9216     2.2016     3.0772     0.0250     -0.003     -0.111     -0.160         96 2.2666e+03   996.4684 0.0000e+00
     -0.110    27.2813     5.6054     70.762  38.501931     36.830      5.832   232.9994     2.0032     2.5149     0.0250     -0.001     -0.108     -0.156         97 2.2772e+03   996.4629 0.0000e+00
     -0.105    27.2868     5.5596     70.177  38.521772     36.844      5.834   248.9373     2.0032     2.4716     0.0250      0.005     -0.103     -0.150         98 2.2709e+03   996.4580 0.0000e+00
     -0.101    27.2920     5.5319     69.805  38.579766     36.891      5.833   246.4388     1.9917     2.5293     0.0250      0.009     -0.100     -0.146         99 2.2672e+03   996.4555 0.0000e+00
     -0.102    27.2960     5.5200     69.622  38.577940     36.888      5.826   242.6152     2.0070     2.6014     0.0250      0.010     -0.100     -0.145        100 2.2642e+03   996.4541 0.0000e+00
     -0.103    27.2981     5.5264     69.668  38.524041     36.831      5.820   234.5894     1.9269     2.5004     0.0250      0.009     -0.101     -0.146        101 2.2627e+03   996.4526 0.0000e+00
     -0.103    27.2991     5.5423     69.845  38.469017     36.774      5.812   240.6087     1.9536     2.6879     0.0250      0.008     -0.101     -0.146        102 2.2675e+03   996.4514 0.0000e+00
     -0.103    27.3012     5.5541     69.976  38.438954     36.746      5.814   247.7259     1.9574     2.6014     0.0250      0.006     -0.101     -0.146        103 2.2634e+03   996.4507 0.0000e+00
     -0.103    27.3058     5.5626     70.066  38.413265     36.719      5.819   249.2402     1.9231     2.6302     0.0249      0.004     -0.101     -0.146        104 2.2636e+03   996.4505 0.0000e+00
     -0.102    27.3121     5.5567     69.974  38.471346     36.771      5.820   247.0445     1.9536     2.4860     0.0250      0.002     -0.101     -0.146        105 2.2683e+03   996.4500 0.0000e+00
     -0.103    27.3190     5.5453     69.813  38.514857     36.821      5.824   242.0473     1.9231     2.4860     0.0250      0.000     -0.101     -0.146        106 2.2715e+03   996.4487 0.0000e+00
     -0.103    27.3222     5.5154     69.423  38.477664     36.763      5.825   244.5080     1.9193     2.3851     0.0250     -0.001     -0.101     -0.146        107 2.2751e+03   996.4470 0.0000e+00
     -0.104    27.3160     5.4827     69.001  38.369445     36.678      5.824   250.2623     1.9345     2.4860     0.0249     -0.000     -0.101     -0.146        108 2.2746e+03   996.4450 0.0000e+00
     -0.103    27.2985     5.4477     68.550  38.175339     36.462      5.824   251.0195     1.9574     2.3130     0.0248     -0.000     -0.101     -0.146        109 2.2685e+03   996.4440 0.0000e+00
     -0.102    27.2718     5.4439     68.494  38.037577     36.360      5.825   250.9816     1.9727     2.2841     0.0248      0.000     -0.100     -0.145        110 2.2684e+03   996.4458 0.0000e+00
     -0.102    27.2449     5.4409     68.450  37.948158     36.265      5.827   251.1331     1.9193     2.2265     0.0248      0.000     -0.100     -0.144        111 2.2727e+03   996.4506 0.0000e+00
     -0.100    27.2253     5.4531     68.597  37.930989     36.284      5.827   251.2088     1.9078     2.1976     0.0248      0.001     -0.099     -0.143        112 2.2724e+03   996.4580 0.0000e+00
     -0.100    27.2112     5.4761     68.885  37.940409     36.303      5.833   251.2088     1.9193     2.2697     0.0248      0.001     -0.099     -0.143        113 2.2729e+03   996.4655 0.0000e+00
     -0.101    27.1975     5.5009     69.203  37.906811     36.289      5.835   251.3602     1.9383     2.3274     0.0247      0.001     -0.099     -0.144        114 2.2721e+03   996.4709 0.0000e+00
     -0.101    27.1832     5.5249     69.521  37.883902     36.273      5.832   251.5873     1.9765     2.2553     0.0247      0.001     -0.099     -0.144        115 2.2723e+03   996.4748 0.0000e+00
     -0.101    27.1700     5.5343     69.658  37.880018     36.282      5.828   251.8145     1.9536     2.1976     0.0247      0.001     -0.099     -0.143        116 2.2669e+03   996.4786 0.0000e+00
     -0.100    27.1586     5.5263     69.573  37.882016     36.292      5.826   252.2309     1.9383     2.1399     0.0247      0.001     -0.099     -0.143        117 2.2571e+03   996.4826 0.0000e+00
     -0.100    27.1499     5.5055     69.322  37.881423     36.301      5.823   252.0416     1.8926     2.5581     0.0247      0.001     -0.098     -0.142        118 2.2555e+03   996.4862 0.0000e+00
     -0.100    27.1422     5.4733     68.922  37.851126     36.283      5.821   251.7388     1.9116     2.4428     0.0247      0.001     -0.098     -0.142        119 2.2519e+03   996.4893 0.0000e+00
     -0.100    27.1355     5.4391     68.494  37.801181     36.235      5.818   251.9659     1.9078     2.4572     0.0247      0.000     -0.098     -0.142        120 2.2279e+03   996.4917 0.0000e+00
     -0.101    27.1301     5.3977     67.976  37.795404     36.240      5.815   252.2688     1.8697     2.4572     0.0247      0.000     -0.099     -0.143        121 2.1429e+03   996.4939 0.0000e+00
     -0.100    27.1253     5.3513     67.392  37.799048     36.245      5.815   252.2688     1.4958     2.7888     0.0247      0.000     -0.099     -0.143        122 2.0097e+03   996.4958 0.0000e+00
     -0.100    27.1236     5.3063     66.825  37.796648     36.249      5.813   242.6152     1.5187     2.7744     0.0247      0.000     -0.098     -0.142        123 1.8576e+03   996.4972 0.0000e+00
     -0.099    27.1287     5.2670     66.326  37.798391     36.252      5.814   251.7766     1.5340     2.9619     0.0247      0.000     -0.098     -0.141        124 1.7100e+03   996.4986 0.0000e+00
     -0.099    27.1410     5.2373     65.949  37.796880     36.253      5.815   251.5116     1.5187     2.8177     0.0247      0.001     -0.097     -0.141        125 1.6361e+03   996.4991 0.0000e+00
     -0.098    27.1562     5.2080     65.580  37.887438     36.330      5.816   252.2309     1.8353     2.4428     0.0247      0.001     -0.097     -0.141        126 1.6493e+03   996.4977 0.0000e+00
     -0.099    27.1688     5.1822     65.252  37.982054     36.429      5.816   252.1931     1.7972     2.5293     0.0248      0.001     -0.097     -0.141        127 1.7248e+03   996.4943 0.0000e+00
     -0.099    27.1774     5.1612     64.986  37.945853     36.364      5.819   252.3445     1.8544     2.4572     0.0248      0.001     -0.097     -0.141        128 1.8165e+03   996.4900 0.0000e+00
     -0.099    27.1816     5.1339     64.646  37.932483     36.355      5.819   252.5338     1.8239     2.4428     0.0248      0.001     -0.097     -0.141        129 1.8951e+03   996.4866 0.0000e+00
     -0.098    27.1841     5.1108     64.360  37.909778     36.323      5.820   252.6852     1.8315     2.6590     0.0247      0.001     -0.097     -0.140        130 1.9762e+03   996.4842 0.0000e+00
     -0.098    27.1863     5.0839     64.026  37.885196     36.293      5.814   251.6252     1.8086     2.6014     0.0247      0.001     -0.096     -0.138        131 2.0537e+03   996.4831 0.0000e+00
     -0.095    27.1873     5.0566     63.685  37.933437     36.345      5.804   252.6852     1.8048     2.6302     0.0248      0.001     -0.093     -0.135        132 2.1253e+03   996.4824 0.0000e+00
     -0.093    27.1873     5.0259     63.300  37.938650     36.343      5.799   252.5716     1.8086     2.7311     0.0248      0.003     -0.091     -0.132        133 2.1916e+03   996.4818 0.0000e+00
     -0.091    27.1846     4.9973     62.941  37.937980     36.343      5.792   250.9059     1.8811     2.5293     0.0248      0.004     -0.089     -0.129        134 2.2361e+03   996.4816 0.0000e+00
     -0.089    27.1817     4.9693     62.589  37.904634     36.316      5.798   252.4959     1.8849     2.5149     0.0247      0.005     -0.087     -0.126        135 2.2509e+03   996.4815 0.0000e+00
     -0.087    27.1804     4.9434     62.264  37.802331     36.211      5.797   252.9881     1.8887     2.5293     0.0247      0.006     -0.085     -0.124        136 2.2387e+03   996.4822 0.0000e+00
     -0.086    27.1787     4.9221     61.992  37.798568     36.213      5.800   252.4202     1.8697     2.4860     0.0247      0.007     -0.084     -0.122        137 2.2115e+03   996.4831 0.0000e+00
     -0.086    27.1780     4.9040     61.765  37.879681     36.294      5.799   252.3823     1.8659     2.3418     0.0247      0.007     -0.084     -0.122        138 2.1789e+03   996.4834 0.0000e+00
     -0.086    27.1804     4.8874     61.559  37.879206     36.295      5.800   252.6473     1.8887     2.2553     0.0247      0.006     -0.084     -0.123        139 2.1551e+03   996.4839 0.0000e+00
     -0.087    27.1848     4.8678     61.316  37.888068     36.296      5.800   252.4202     1.8887     2.0967     0.0247      0.004     -0.085     -0.124        140 2.1522e+03   996.4841 0.0000e+00
     -0.087    27.1886     4.8493     61.086  37.898288     36.321      5.800   251.7388     1.9116     2.1688     0.0247      0.003     -0.085     -0.124        141 2.1508e+03   996.4834 0.0000e+00
     -0.087    27.1910     4.8323     60.874  37.896123     36.291      5.800   249.9973     1.8735     2.2841     0.0247      0.001     -0.085     -0.124        142 2.1244e+03   996.4821 0.0000e+00
     -0.086    27.1924     4.8178     60.694  37.920398     36.342      5.800   250.2245     1.9040     2.4860     0.0248      0.000     -0.084     -0.123        143 2.0600e+03   996.4811 0.0000e+00
     -0.086    27.1931     4.8043     60.529  37.897714     36.287      5.801   252.1931     1.8697     2.4139     0.0247     -0.000     -0.084     -0.122        144 1.9613e+03   996.4805 0.0000e+00
     -0.085    27.1945     4.7891     60.341  37.924353     36.339      5.801   252.8745     1.8620     2.4860     0.0248      0.000     -0.083     -0.121        145 1.8358e+03   996.4801 0.0000e+00
     -0.085    27.1947     4.7746     60.165  37.916882     36.312      5.802   251.1709     1.9116     2.5149     0.0247      0.001     -0.082     -0.120        146 1.6940e+03   996.4799 0.0000e+00
     -0.083    27.1924     4.7628     60.022  37.877374     36.284      5.806   247.5366     1.8811     2.6879     0.0247      0.002     -0.080     -0.117        147 1.5736e+03   996.4795 0.0000e+00
     -0.078    27.1921     4.7560     59.942  37.884610     36.284      5.807   241.3280     1.9040     2.6735     0.0247      0.003     -0.076     -0.111        148 1.5081e+03   996.4795 0.0000e+00
     -0.074    27.1951     4.7551     59.936  37.878241     36.286      5.810   250.9059     1.8849     2.5437     0.0247      0.006     -0.072     -0.106        149 1.4913e+03   996.4802 0.0000e+00
     -0.071    27.1990     4.7609     60.014  37.885302     36.286      5.809   248.2938     1.8773     2.6158     0.0247      0.008     -0.070     -0.102        150 1.5139e+03   996.4802 0.0000e+00
     -0.070    27.2015     4.7683     60.112  37.875821     36.284      5.811   249.8838     1.8887     2.5149     0.0247      0.009     -0.069     -0.099        151 1.5620e+03   996.4794 0.0000e+00
     -0.068    27.2035     4.7753     60.206  37.860399     36.254      5.815   226.4880     1.8811     2.4860     0.0247      0.010     -0.067     -0.096        152 1.6294e+03   996.4784 0.0000e+00
     -0.066    27.2067     4.7807     60.281  37.874855     36.279      5.823   225.5794     1.8811     2.5149     0.0247      0.010     -0.065     -0.094        153 1.7138e+03   996.4777 0.0000e+00
     -0.066    27.2104     4.7865     60.359  37.887467     36.278      5.824   224.9358     1.8849     2.4139     0.0247      0.010     -0.064     -0.093        154 1.7868e+03   996.4771 0.0000e+00
     -0.065    27.2149     4.7865     60.362  37.874341     36.276      5.832   224.3680     1.9460     2.6014     0.0247      0.008     -0.063     -0.092        155 1.8378e+03   996.4762 0.0000e+00
     -0.064    27.2205     4.7823     60.312  37.891188     36.273      5.833   224.2923     1.9650     2.6302     0.0247      0.006     -0.063     -0.091        156 1.8774e+03   996.4752 0.0000e+00
     -0.063    27.2259     4.7703     60.163  37.955408     36.350      5.836   223.7623     1.9498     2.6014     0.0248      0.005     -0.062     -0.090        157 1.9094e+03   996.4740 0.0000e+00
     -0.064    27.2308     4.7585     60.014  37.942601     36.320      5.835   223.8380     1.9345     2.7600     0.0248      0.004     -0.062     -0.090        158 1.9228e+03   996.4724 0.0000e+00
     -0.064    27.2359     4.7459     59.851  37.936760     36.316      5.835   223.6487     1.9460     2.6590     0.0248      0.003     -0.062     -0.090        159 1.9083e+03   996.4709 0.0000e+00
     -0.063    27.2405     4.7301     59.642  37.992310     36.366      5.833   223.4594     2.0108     2.4716     0.0248      0.002     -0.061     -0.089        160 1.8743e+03   996.4696 0.0000e+00
     -0.062    27.2456     4.7079     59.357  37.992013     36.362      5.835   223.6108     2.0261     2.5004     0.0248      0.002     -0.060     -0.088        161 1.8368e+03   996.4682 0.0000e+00
     -0.061    27.2512     4.6953     59.196  37.996401     36.359      5.835   223.0808     2.0108     2.3995     0.0248      0.002     -0.060     -0.087        162 1.7977e+03   996.4669 0.0000e+00
     -0.060    27.2567     4.6836     59.046  38.016483     36.382      5.838   223.1187     2.0184     2.3274     0.0248      0.002     -0.059     -0.086        163 1.7380e+03   996.4655 0.0000e+00
     -0.060    27.2615     4.6718     58.895  37.996654     36.352      5.838   223.0051     1.9307     2.5293     0.0248      0.002     -0.058     -0.085        164 1.6771e+03   996.4640 0.0000e+00
     -0.059    27.2645     4.6586     58.728  37.991438     36.348      5.840   222.9673     1.9612     2.5004     0.0248      0.003     -0.057     -0.083        165 1.6078e+03   996.4624 0.0000e+00
     -0.059    27.2669     4.6493     58.611  37.993336     36.345      5.841   222.8537     1.9612     2.4716     0.0248      0.003     -0.057     -0.083        166 1.5667e+03   996.4611 0.0000e+00
     -0.058    27.2688     4.6402     58.501  37.994290     36.342      5.843   222.5130     1.9383     2.5149     0.0248      0.003     -0.056     -0.082        167 1.5177e+03   996.4602 0.0000e+00
     -0.056    27.2689     4.6298     58.377  37.960611     36.314      5.844   222.5130     2.0184     2.5870     0.0248      0.003     -0.055     -0.079        168 1.5584e+03   996.4596 0.0000e+00
     -0.054    27.2639     4.6272     58.352  37.946337     36.286      5.845   222.4751     2.0108     2.5293     0.0248      0.003     -0.051     -0.074        169 1.4973e+03   996.4591 0.0000e+00
     -0.047    27.2554     4.6250     58.331  37.923144     36.286      5.845   222.0965     2.0261     2.6590     0.0248      0.005     -0.046     -0.066        170 1.4840e+03   996.4590 0.0000e+00
     -0.039    27.2505     4.6455     58.566  37.811658     36.156      5.843   222.2858     2.0146     2.6446     0.0247      0.009     -0.040     -0.057        171 1.8915e+03   996.4604 0.0000e+00
     -0.036    27.2486     4.9320     62.047  37.788719     36.162      5.842   222.5508     2.0604     2.5149     0.0247      0.012     -0.036     -0.052        172 2.1224e+03   996.4628 0.0000e+00
     -0.035    27.2463     5.7078     71.664  37.803513     36.165      5.839   222.2858     2.0642     2.6302     0.0247      0.014     -0.034     -0.050        173 2.2156e+03   996.4641 0.0000e+00
     -0.034    27.2448     6.5672     82.359  37.852523     36.220      5.833   222.1723     2.0566     2.5581     0.0247      0.014     -0.034     -0.049        174 2.3441e+03   996.4647 0.0000e+00
     -0.034    27.2437     7.3847     92.552  37.875911     36.248      5.830   222.3994     2.0909     2.7167     0.0247      0.014     -0.034     -0.049        175 2.3885e+03   996.4654 0.0000e+00
     -0.034    27.2451     8.0823    101.249  37.804046     36.169      5.829   222.6265     2.1481     2.6446     0.0247      0.012     -0.034     -0.049        176 2.4337e+03   996.4657 0.0000e+00
     -0.034    27.2485     8.6092    107.804  37.793778     36.170      5.833   222.5887     2.1481     2.5870     0.0247      0.008     -0.034     -0.049        177 2.4588e+03   996.4660 0.0000e+00
     -0.034    27.2565     8.9876    112.512  37.888688     36.249      5.836   222.6265     2.1253     2.6014     0.0247      0.005     -0.033     -0.048        178 2.4836e+03   996.4657 0.0000e+00
     -0.034    27.2625     9.1460    114.494  37.893384     36.273      5.842   222.6644     2.1329     2.5870     0.0247      0.002     -0.033     -0.048        179 2.5059e+03   996.4648 0.0000e+00
     -0.034    27.2711     9.1288    114.285  37.965750     36.295      5.841   222.9673     2.1405     2.6446     0.0248      0.001     -0.033     -0.048        180 2.5279e+03   996.4626 0.0000e+00
     -0.033    27.2431     8.9873    112.514  37.828262     36.236      5.847   223.0051     2.1405     2.5725     0.0247      0.001     -0.033     -0.047        181 2.5365e+03   996.4608 0.0000e+00
     -0.033    27.1318     8.8285    110.517  37.264313     35.591      5.849   223.0808     2.1329     2.6302     0.0245      0.001     -0.033     -0.047        182 2.5448e+03   996.4583 0.0000e+00
     -0.034    27.0179     8.6809    108.664  37.126514     35.553      5.853   223.3080     2.1291     2.6735     0.0245      0.001     -0.033     -0.047        183 2.5449e+03   996.4661 0.0000e+00
     -0.033    26.9542     8.5562    107.099  37.229241     35.686      5.853   223.1944     2.1176     2.6879     0.0245      0.000     -0.033     -0.047        184 2.5475e+03   996.4969 0.0000e+00
     -0.033    26.9181     8.4341    105.569  37.195787     35.763      5.854   223.6866     2.0833     2.5004     0.0245      0.000     -0.033     -0.047        185 2.5515e+03   996.5283 0.0000e+00
     -0.033    26.8930     8.3139    104.069  37.168196     35.754      5.858   223.6108     2.0833     2.4860     0.0245      0.000     -0.033     -0.047        186 2.5504e+03   996.5458 0.0000e+00
     -0.033    26.8690     8.1997    102.645  37.145072     35.778      5.860   223.1944     2.0604     2.2986     0.0245      0.000     -0.033     -0.047        187 2.5518e+03   996.5557 0.0000e+00
     -0.033    26.8548     8.1102    101.532  37.106046     35.742      5.863   223.6487     2.0566     2.4283     0.0244      0.000     -0.033     -0.048        188 2.5492e+03   996.5626 0.0000e+00
     -0.034    26.8534     8.0590    100.889  37.098236     35.758      5.863   223.4594     2.0184     2.5293     0.0244     -0.000     -0.033     -0.048        189 2.5321e+03   996.5692 0.0000e+00
     -0.034    26.8571     8.0208    100.404  37.154800     35.822      5.864   223.8758     2.0032     2.4139     0.0245     -0.000     -0.033     -0.048        190 2.5003e+03   996.5731 0.0000e+00
     -0.034    26.8570     7.9932    100.056  37.213471     35.877      5.867   224.0651     2.0108     2.5437     0.0245     -0.000     -0.033     -0.048        191 2.4475e+03   996.5735 0.0000e+00
     -0.033    26.8529     7.9807     99.900  37.203036     35.874      5.870   224.4437     2.0261     2.4860     0.0245     -0.000     -0.033     -0.047        192 2.3770e+03   996.5725 0.0000e+00
     -0.033    26.8497     7.9766     99.847  37.167786     35.820      5.871   224.4437     1.9574     2.6158     0.0245     -0.000     -0.033     -0.047        193 2.2813e+03   996.5725 0.0000e+00
     -0.034    26.8474     7.9858     99.961  37.138797     35.823      5.874   224.4437     1.9612     2.6735     0.0245     -0.000     -0.033     -0.048        194 2.1541e+03   996.5736 0.0000e+00
     -0.034    26.8467     7.9963    100.092  37.120571     35.771      5.876   224.5194     1.9383     2.6302     0.0244     -0.000     -0.033     -0.048        195 2.0096e+03   996.5745 0.0000e+00
     -0.034    26.8487     8.0041    100.193  37.190469     35.881      5.877   224.5951     1.9612     2.6302     0.0245     -0.000     -0.033     -0.048        196 1.8745e+03   996.5751 0.0000e+00
     -0.034    26.8525     8.0118    100.294  37.170355     35.828      5.881   224.8223     1.9460     2.5581     0.0245      0.000     -0.033     -0.048        197 1.7714e+03   996.5753 0.0000e+00
     -0.034    26.8559     8.0217    100.422  37.145604     35.826      5.881   225.0494     1.9383     2.6590     0.0245     -0.000     -0.033     -0.048        198 1.6830e+03   996.5747 0.0000e+00
     -0.033    26.8552     8.0271    100.494  37.161998     35.824      5.880   225.3901     1.9460     2.7167     0.0245     -0.000     -0.033     -0.048        199 1.6115e+03   996.5737 0.0000e+00
     -0.034    26.8518     8.0365    100.615  37.149952     35.821      5.884   225.2766     1.9269     2.5149     0.0245     -0.000     -0.033     -0.048        200 1.5374e+03   996.5727 0.0000e+00
     -0.033    26.8503     8.0327    100.570  37.160595     35.822      5.884   225.2008     2.0108     2.4572     0.0245     -0.000     -0.033     -0.047        201 1.4298e+03   996.5729 0.0000e+00
     -0.033    26.8499     8.0264    100.496  37.148753     35.824      5.885   225.4658     2.0184     2.4572     0.0245      0.000     -0.032     -0.047        202 1.3102e+03   996.5739 0.0000e+00
     -0.033    26.8493     8.0177    100.390  37.164690     35.825      5.888   225.2766     2.0108     2.3851     0.0245      0.001     -0.031     -0.046        203 1.2044e+03   996.5743 0.0000e+00
     -0.031    26.8486     8.0170    100.385  37.200033     35.879      5.888   225.6551     2.0108     2.4860     0.0245      0.001     -0.030     -0.044        204 1.1087e+03   996.5744 0.0000e+00
     -0.031    26.8483     8.0250    100.493  37.164041     35.826      5.890   225.8066     2.0261     2.4860     0.0245      0.002     -0.030     -0.044        205 1.0226e+03   996.5746 0.0000e+00
     -0.031    26.8502     8.0401    100.694  37.150210     35.826      5.891   225.8444     2.0184     2.5870     0.0245      0.002     -0.031     -0.044        206 9.6237e+02   996.5748 0.0000e+00
     -0.032    26.8531     8.0473    100.795  37.157974     35.826      5.893   225.9580     2.0146     2.5725     0.0245      0.001     -0.031     -0.045        207 9.2100e+02   996.5749 0.0000e+00
     -0.033    26.8553     8.0525    100.864  37.154380     35.825      5.895   226.1094     2.0108     2.6014     0.0245      0.001     -0.032     -0.046        208 8.9175e+02   996.5743 0.0000e+00
     -0.034    26.8572     8.0507    100.841  37.154682     35.823      5.895   226.2230     2.0223     2.7311     0.0245      0.000     -0.033     -0.048        209 8.6713e+02   996.5735 0.0000e+00
     -0.035    26.8593     8.0346    100.635  37.157596     35.821      5.895   226.2987     2.0642     2.4572     0.0245     -0.001     -0.034     -0.050        210 8.4248e+02   996.5729 0.0000e+00
     -0.036    26.8612     8.0160    100.399  37.210023     35.874      5.897   226.3744     2.0680     2.6014     0.0245     -0.002     -0.035     -0.050        211 8.1764e+02   996.5724 0.0000e+00
     -0.035    26.8633     8.0082    100.301  37.207978     35.873      5.897   226.6394     2.0566     2.3707     0.0245     -0.003     -0.035     -0.050        212 7.9220e+02   996.5718 0.0000e+00
     -0.035    26.8651     8.0074    100.296  37.160140     35.817      5.898   226.5258     2.0680     2.4860     0.0245     -0.003     -0.034     -0.049        213 7.7461e+02   996.5713 0.0000e+00
     -0.034    26.8674     8.0166    100.415  37.151014     35.816      5.896   226.8666     2.1939     2.6590     0.0245     -0.002     -0.034     -0.049        214 7.6389e+02   996.5707 0.0000e+00
     -0.034    26.8719     8.0293    100.579  37.160062     35.815      5.897   226.7151     2.2054     2.6302     0.0245     -0.001     -0.034     -0.049        215 7.5719e+02   996.5702 0.0000e+00
     -0.034    26.8780     8.0398    100.713  37.148879     35.813      5.898   227.0558     2.1939     2.5870     0.0245     -0.000     -0.034     -0.049        216 7.5609e+02   996.5696 0.0000e+00
     -0.034    26.8837     8.0359    100.667  37.164930     35.810      5.898   226.8666     2.1977     2.7456     0.0245      0.000     -0.034     -0.049        217 7.5830e+02   996.5684 0.0000e+00
     -0.034    26.8862     8.0231    100.511  37.199355     35.860      5.898   227.3208     2.2588     2.4139     0.0245      0.001     -0.033     -0.048        218 7.5927e+02   996.5667 0.0000e+00
     -0.034    26.8856     8.0159    100.431  37.165306     35.802      5.901   227.2830     2.2550     2.4716     0.0245      0.001     -0.033     -0.048        219 7.6009e+02   996.5651 0.0000e+00
     -0.034    26.8834     8.0169    100.458  37.148031     35.800      5.903   227.3587     2.2702     2.4572     0.0245      0.001     -0.033     -0.048        220 7.6215e+02   996.5645 0.0000e+00
     -0.033    26.8817     8.0213    100.529  37.161581     35.800      5.904   227.6237     2.2550     2.4428     0.0245      0.000     -0.033     -0.048        221 7.6156e+02   996.5646 0.0000e+00
     -0.033    26.8823     8.0308    100.666  37.148444     35.802      5.903   227.8508     2.2626     2.4716     0.0245      0.000     -0.034     -0.048        222 7.5770e+02   996.5652 0.0000e+00
     -0.035    26.8844     8.0372    100.761  37.164382     35.803      5.902   228.2673     2.2626     2.5149     0.0245      0.000     -0.034     -0.049        223 7.5415e+02   996.5657 0.0000e+00
     -0.035    26.8870     8.0410    100.828  37.141747     35.803      5.903   228.1916     2.2550     2.4572     0.0245     -0.000     -0.034     -0.049        224 7.5199e+02   996.5656 0.0000e+00
     -0.034    26.8890     8.0402    100.834  37.117340     35.748      5.906   228.2294     2.2626     2.5437     0.0244     -0.000     -0.033     -0.048        225 7.5366e+02   996.5649 0.0000e+00
     -0.033    26.8904     8.0400    100.842  37.135483     35.800      5.906   228.0023     2.2435     2.3851     0.0245     -0.000     -0.033     -0.047        226 7.5584e+02   996.5643 0.0000e+00
     -0.033    26.8917     8.0376    100.823  37.119169     35.744      5.907   228.3430     2.2321     2.5581     0.0244      0.000     -0.032     -0.046        227 7.5841e+02   996.5637 0.0000e+00
     -0.032    26.8949     8.0244    100.672  37.137645     35.797      5.903   228.5701     2.2664     2.5149     0.0245      0.001     -0.032     -0.046        228 7.6467e+02   996.5633 0.0000e+00
     -0.033    26.9005     8.0144    100.561  37.171760     35.796      5.905   228.4187     2.2321     2.4428     0.0245      0.001     -0.032     -0.047        229 7.7508e+02   996.5629 0.0000e+00
     -0.033    26.9080     8.0031    100.426  37.195252     35.848      5.904   228.6459     2.2473     2.5725     0.0245      0.001     -0.033     -0.047        230 7.9157e+02   996.5621 0.0000e+00
     -0.034    26.9174     7.9893    100.256  37.167678     35.790      5.905   228.9109     2.3198     2.4716     0.0245      0.001     -0.033     -0.048        231 8.1337e+02   996.5605 0.0000e+00
     -0.034    26.9270     7.9788    100.123  37.146801     35.785      5.905   229.0623     2.3122     2.5004     0.0245      0.000     -0.033     -0.048        232 8.3690e+02   996.5585 0.0000e+00
     -0.034    26.9357     7.9588     99.871  37.161958     35.779      5.906   229.0623     2.3198     2.3995     0.0245     -0.000     -0.033     -0.048        233 8.7811e+02   996.5559 0.0000e+00
     -0.033    26.9455     7.9483     99.739  37.208083     35.826      5.907   229.3273     2.3046     2.4428     0.0245     -0.000     -0.032     -0.047        234 9.2944e+02   996.5532 0.0000e+00
     -0.033    26.9544     7.9434     99.684  37.267207     35.874      5.904   229.2137     2.3313     2.5149     0.0245     -0.000     -0.032     -0.047        235 9.8549e+02   996.5509 0.0000e+00
     -0.033    26.9605     7.9590     99.885  37.206915     35.813      5.902   229.2894     2.3465     2.4428     0.0245     -0.000     -0.032     -0.047        236 1.0332e+03   996.5482 0.0000e+00
     -0.033    26.9667     7.9752    100.093  37.164570     35.753      5.902   229.1380     2.3274     2.5437     0.0245      0.000     -0.033     -0.047        237 1.1150e+03   996.5457 0.0000e+00
     -0.034    26.9751     7.9918    100.299  37.201359     35.803      5.905   229.3651     2.3007     2.4139     0.0245      0.000     -0.033     -0.047        238 1.1868e+03   996.5440 0.0000e+00
     -0.034    26.9827     8.0127    100.560  37.220398     35.798      5.902   229.6680     2.4762     2.4716     0.0245      0.000     -0.032     -0.046        239 1.3167e+03   996.5424 0.0000e+00
     -0.029    26.9869     8.0182    100.633  37.259414     35.846      5.905   229.2137     2.4304     2.4716     0.0245      0.001     -0.027     -0.040        240 1.3711e+03   996.5401 0.0000e+00
     -0.020    26.9880     8.0162    100.609  37.212071     35.787      5.903   229.3273     2.4533     2.5149     0.0245      0.004     -0.022     -0.031        241 1.1879e+03   996.5380 0.0000e+00
     -0.016    26.9874     8.0108    100.538  37.220041     35.785      5.906   229.6301     2.4457     2.4283     0.0245      0.007     -0.017     -0.025        242 1.2012e+03   996.5369 0.0000e+00
     -0.015    26.9869     7.9907    100.281  37.249493     35.837      5.908   229.8573     2.4266     2.5004     0.0245      0.010     -0.016     -0.023        243 1.2956e+03   996.5366 0.0000e+00
     -0.017    26.9873     7.9739    100.068  37.234689     35.784      5.906   229.7059     2.4266     2.4860     0.0245      0.011     -0.017     -0.024        244 1.2685e+03   996.5368 0.0000e+00
     -0.019    26.9903     7.9746    100.088  37.238465     35.838      5.904   229.8573     2.4419     2.4716     0.0245      0.010     -0.018     -0.025        245 1.2809e+03   996.5368 0.0000e+00
     -0.017    26.9942     7.9707    100.057  37.185523     35.731      5.907   229.8951     2.4419     2.4139     0.0245      0.009     -0.016     -0.023        246 1.2557e+03   996.5368 0.0000e+00
     -0.013    26.9960     7.9652    100.001  37.241302     35.836      5.908   230.0087     2.4075     2.3851     0.0245      0.008     -0.013     -0.019        247 1.1798e+03   996.5360 0.0000e+00
     -0.010    26.9949     7.9662    100.015  37.287588     35.833      5.907   230.0844     2.4915     2.3995     0.0245      0.006     -0.011     -0.016        248 1.1515e+03   996.5350 0.0000e+00
     -0.010    26.9945     7.9731    100.090  37.246461     35.832      5.910   230.1223     2.4800     2.5149     0.0245      0.004     -0.009     -0.013        249 1.1325e+03   996.5345 0.0000e+00
     -0.007    26.9964     7.9721    100.055  37.233213     35.779      5.907   230.1223     2.5105     2.5149     0.0245      0.005     -0.007     -0.009        250 1.0456e+03   996.5348 0.0000e+00
     -0.003    26.9967     7.9818    100.159  37.244804     35.833      5.907   229.9330     2.5067     2.5004     0.0245      0.007     -0.006     -0.009        251 9.7632e+02   996.5349 0.0000e+00
     -0.009    26.9950     7.9903    100.250  37.232036     35.778      5.907   230.4251     2.6174     2.4283     0.0245      0.007     -0.018     -0.027        252 9.5058e+02   996.5343 0.0000e+00
     -0.045    26.9921     7.9758    100.060  37.249103     35.831      5.905   230.2359     2.6212     2.4283     0.0245     -0.004     -0.051     -0.074        253 8.5974e+02   996.5341 0.0000e+00
     -0.102    26.9915     7.9599     99.859  37.223565     35.779      5.891   230.3494     2.6212     2.5149     0.0245     -0.028     -0.097     -0.141        254 7.9948e+02   996.5343 0.0000e+00
     -0.149    26.9975     7.9684     99.966  37.204546     35.781      5.886   230.3873     2.6212     2.6735     0.0245     -0.058     -0.142     -0.206        255 7.9572e+02   996.5349 0.0000e+00
     -0.184    27.0076     7.9777    100.089  37.272772     35.835      5.888   230.3494     2.5105     2.5870     0.0245     -0.088     -0.174     -0.253        256 7.8761e+02   996.5349 0.0000e+00
     -0.201    27.0150     7.9809    100.138  37.257200     35.831      5.893   230.8416     2.4838     2.5149     0.0245     -0.110     -0.189     -0.275        257 8.0401e+02   996.5332 0.0000e+00
     -0.194    27.0154     7.9785    100.122  37.223922     35.770      5.897   230.6144     2.4953     2.4139     0.0245     -0.118     -0.188     -0.272        258 8.0111e+02   996.5304 0.0000e+00
     -0.178    27.0087     7.9730    100.069  37.254912     35.819      5.895   230.9930     2.5029     2.5149     0.0245     -0.108     -0.183     -0.264        259 8.1510e+02   996.5285 0.0000e+00
     -0.187    26.9972     7.9752    100.111  37.218630     35.765      5.889   231.1066     2.1977     2.5149     0.0245     -0.088     -0.188     -0.273        260 8.3606e+02   996.5283 0.0000e+00
     -0.209    26.9865     7.9772    100.128  37.209802     35.769      5.894   231.5609     2.2130     2.4283     0.0245     -0.064     -0.206     -0.299        261 8.7488e+02   996.5300 0.0000e+00
     -0.233    26.9785     7.9755    100.092  37.206632     35.777      5.898   231.4094     2.1787     2.5437     0.0245     -0.045     -0.231     -0.335        262 9.0982e+02   996.5331 0.0000e+00
     -0.265    26.9737     7.9779    100.111  37.222580     35.785      5.896   231.4851     2.1977     2.4139     0.0245     -0.041     -0.262     -0.380        263 8.8886e+02   996.5359 0.0000e+00
     -0.303    26.9727     7.9876    100.226  37.249228     35.844      5.895   231.0687     2.1367     2.5149     0.0245     -0.051     -0.294     -0.427        264 8.6398e+02   996.5379 0.0000e+00
     -0.331    26.9734     7.9933    100.291  37.173472     35.740      5.900   231.2580     2.0986     2.4572     0.0245     -0.070     -0.318     -0.461        265 8.5460e+02   996.5391 0.0000e+00
     -0.338    26.9765     7.9871    100.203  37.257589     35.848      5.900   231.2201     2.1214     2.4572     0.0245     -0.086     -0.328     -0.475        266 8.4262e+02   996.5394 0.0000e+00
     -0.334    26.9817     7.9724    100.007  37.322359     35.901      5.902   231.5230     2.1100     2.4283     0.0245     -0.091     -0.327     -0.473        267 8.5056e+02   996.5392 0.0000e+00
     -0.327    26.9890     7.9640     99.889  37.270679     35.845      5.897   231.8259     2.1405     2.4572     0.0245     -0.079     -0.318     -0.461        268 8.6506e+02   996.5384 0.0000e+00
     -0.311    26.9987     7.9549     99.762  37.262632     35.842      5.894   231.8637     2.2130     2.4860     0.0245     -0.056     -0.302     -0.439        269 8.7127e+02   996.5370 0.0000e+00
     -0.288    27.0055     7.9511     99.702  37.273101     35.837      5.888   232.5073     2.1939     2.3707     0.0245     -0.027     -0.281     -0.409        270 8.7862e+02   996.5351 0.0000e+00
     -0.263    27.0020     7.9491     99.664  37.257648     35.830      5.888   232.3937     2.1977     2.5149     0.0245      0.007     -0.260     -0.377        271 8.9015e+02   996.5326 0.0000e+00
     -0.244    26.9933     7.9619     99.813  37.222589     35.771      5.886   231.9773     2.2130     2.4716     0.0245      0.037     -0.242     -0.351        272 9.2224e+02   996.5308 0.0000e+00
     -0.233    26.9870     7.9820    100.061  37.257458     35.828      5.887   232.3180     2.1748     2.5725     0.0245      0.056     -0.229     -0.332        273 9.5070e+02   996.5318 0.0000e+00
     -0.223    26.9835     8.0028    100.284  37.214256     35.780      5.890   232.3180     2.2168     2.4860     0.0245      0.064     -0.217     -0.314        274 1.0251e+03   996.5342 0.0000e+00
     -0.206    26.9799     8.0167    100.362  37.217087     35.784      5.893   232.0530     2.1748     2.4283     0.0245      0.067     -0.202     -0.292        275 1.0825e+03   996.5360 0.0000e+00
     -0.189    26.9739     8.0180    100.290  37.253937     35.841      5.896   232.2044     2.1825     2.4139     0.0245      0.067     -0.182     -0.265        276 1.2163e+03   996.5371 0.0000e+00
     -0.165    26.9675     8.0205    100.257  37.227668     35.789      5.894   231.9394     2.4304     2.4860     0.0245      0.066     -0.156     -0.226        277 1.2836e+03   996.5382 0.0000e+00
     -0.122    26.9608     8.0077    100.051  37.249780     35.847      5.892   232.0530     2.4495     2.5581     0.0245      0.071     -0.117     -0.169        278 1.4284e+03   996.5401 0.0000e+00
     -0.070    26.9533     7.9860     99.750  37.226422     35.798      5.888   232.0530     2.4343     2.4860     0.0245      0.085     -0.067     -0.098        279 1.3446e+03   996.5420 0.0000e+00
     -0.013    26.9468     7.9751     99.591  37.197470     35.803      5.889   230.6523     2.4457     2.5149     0.0245      0.108     -0.013     -0.019        280 1.1490e+03   996.5441 0.0000e+00
      0.043    26.9399     7.9721     99.531  37.167275     35.754      5.889   228.8351     2.6708     2.6302     0.0245      0.136      0.041      0.060        281 1.4415e+03   996.5464 0.0000e+00
      0.097    26.9338     7.9946     99.791  37.145465     35.758      5.893   228.6080     2.6975     2.6302     0.0245      0.162      0.094      0.137        282 1.2114e+03   996.5484 0.0000e+00
      0.146    26.9311     8.0317    100.219  37.165345     35.763      5.893   228.0780     2.7051     2.6590     0.0245      0.183      0.147      0.214        283 7.0585e+02   996.5505 0.0000e+00
      0.208    26.9087     8.0701    100.653  37.201807     35.821      5.892   228.3430     2.6898     2.6590     0.0245      0.201      0.206      0.299        284 7.4420e+02   996.5524 0.0000e+00
      0.278    26.8568     8.1058    101.033  37.159363     35.769      5.890   229.4030     2.8501     2.5725     0.0245      0.216      0.267      0.387        285 9.1606e+02   996.5535 0.0000e+00
      0.329    26.8073     8.1264    101.198  37.099631     35.730      5.894   229.5166     2.8272     2.6302     0.0244      0.222      0.318      0.461        286 8.6226e+02   996.5599 0.0000e+00
      0.366    26.7721     8.1364    101.244  37.039073     35.713      5.893   230.1601     2.8615     2.7744     0.0244      0.219      0.359      0.521        287 7.9994e+02   996.5742 0.0000e+00
      0.404    26.7463     8.1318    101.150  36.997667     35.693      5.895   231.0687     2.8691     2.6014     0.0244      0.211      0.399      0.578        288 6.8738e+02   996.5879 0.0000e+00
      0.449    26.7297     8.1141    100.902  37.032644     35.771      5.897   231.5987     2.8424     2.6302     0.0244      0.203      0.442      0.640        289 5.5870e+02   996.5978 0.0000e+00
      0.496    26.7166     8.0874    100.504  36.995564     35.735      5.898   231.7501     3.0484     2.6302     0.0244      0.195      0.487      0.705        290 6.8986e+02   996.6050 0.0000e+00
      0.542    26.7050     8.0596    100.031  36.984556     35.747      5.902   232.0909     3.0522     2.5581     0.0244      0.187      0.531      0.769        291 7.6348e+02   996.6097 0.0000e+00
      0.584    26.6923     8.0363     99.616  36.987083     35.755      5.901   232.5830     3.0484     2.6158     0.0244      0.177      0.571      0.828        292 5.6362e+02   996.6135 0.0000e+00
      0.620    26.6731     8.0104     99.185  36.992426     35.764      5.903   233.0752     3.0484     2.4860     0.0244      0.169      0.608      0.882        293 5.1232e+02   996.6169 0.0000e+00
      0.656    26.6482     7.9926     98.883  37.155724     35.934      5.905   233.6430     3.2086     2.5149     0.0245      0.165      0.647      0.939        294 5.6945e+02   996.6205 0.0000e+00
      0.707    26.6117     7.9800     98.682  37.376576     36.164      5.905   234.5894     3.2277     2.6014     0.0246      0.167      0.691      1.003        295 5.2548e+02   996.6260 0.0000e+00
      0.753    26.5616     7.9681     98.487  37.636293     36.425      5.898   235.0816     3.2201     2.6158     0.0247      0.168      0.730      1.059        296 5.3588e+02   996.6331 0.0000e+00
      0.773    26.5197     7.9628     98.304  37.929054     36.748      5.894   235.0437     3.2468     2.5149     0.0248      0.161      0.755      1.094        297 5.2647e+02   996.6431 0.0000e+00
      0.783    26.4982     7.9671     98.218  37.990252     36.838      5.895   235.8009     3.4146     2.6158     0.0248      0.148      0.771      1.119        298 5.0654e+02   996.6568 0.0000e+00
      0.804    26.4835     7.9986     98.459  37.945428     36.814      5.898   235.7630     3.4223     2.5870     0.0248      0.134      0.796      1.154        299 5.0382e+02   996.6683 0.0000e+00
      0.846    26.4457     8.0300     98.729  37.925585     36.829      5.898   236.9744     3.4070     2.6302     0.0248      0.126      0.836      1.212        300 4.7418e+02   996.6742 0.0000e+00
      0.906    26.3775     8.0454     98.852  37.926051     36.813      5.894   238.3752     3.3994     2.6302     0.0248      0.127      0.887      1.287        301 4.1897e+02   996.6785 0.0000e+00
      0.961    26.3066     8.0534     98.925  37.855951     36.812      5.893   239.0187     3.3879     2.7023     0.0248      0.133      0.936      1.358        302 4.0271e+02   996.6889 0.0000e+00
      0.996    26.2464     8.0862     99.305  37.657210     36.617      5.893   239.3216     3.4185     2.6302     0.0247      0.138      0.973      1.411        303 3.9240e+02   996.7074 0.0000e+00
      1.021    26.2000     8.1206     99.705  37.610325     36.667      5.892   239.7002     3.4185     2.6014     0.0247      0.144      1.000      1.450        304 3.4683e+02   996.7265 0.0000e+00
      1.043    26.1758     8.1470    100.045  37.647606     36.711      5.895   240.7980     3.4070     2.6014     0.0247      0.150      1.023      1.484        305 3.1899e+02   996.7428 0.0000e+00
      1.067    26.1466     8.1551    100.250  37.610844     36.744      5.895   241.4037     3.6779     2.9042     0.0247      0.150      1.047      1.519        306 3.0478e+02   996.7553 0.0000e+00
      1.094    26.0832     8.1510    100.294  37.596828     36.707      5.893   241.4416     3.6588     2.8898     0.0247      0.141      1.072      1.555        307 3.0342e+02   996.7620 0.0000e+00
      1.118    26.0030     8.1505    100.323  37.487251     36.671      5.896   241.7823     3.6512     2.7888     0.0246      0.125      1.097      1.591        308 3.1608e+02   996.7698 0.0000e+00
      1.142    25.9227     8.1516    100.340  37.421234     36.582      5.893   242.6152     3.6626     2.9474     0.0246      0.108      1.122      1.627        309 3.2253e+02   996.7868 0.0000e+00
      1.174    25.8572     8.1475    100.293  37.590108     36.885      5.891   243.2209     3.6550     2.8465     0.0247      0.100      1.147      1.663        310 3.3897e+02   996.8083 0.0000e+00
      1.190    25.8211     8.1390    100.194  37.543853     36.835      5.892   243.4480     3.6588     2.7744     0.0246      0.097      1.162      1.685        311 3.4817e+02   996.8297 0.0000e+00
      1.190    25.8056     8.1381    100.177  37.449200     36.827      5.894   243.3345     3.6626     2.8465     0.0246      0.090      1.166      1.691        312 3.5959e+02   996.8471 0.0000e+00
      1.188    25.7940     8.1291    100.068  37.470846     36.854      5.897   243.7509     3.6817     2.8898     0.0246      0.078      1.165      1.690        313 3.6973e+02   996.8567 0.0000e+00
      1.187    25.7807     8.1089     99.856  37.516936     36.918      5.899   244.3188     3.6092     2.8177     0.0246      0.062      1.165      1.690        314 3.6927e+02   996.8607 0.0000e+00
      1.188    25.7922     8.0977     99.730  37.510397     36.928      5.904   244.2430     3.4032     2.6158     0.0247      0.045      1.166      1.691        315 3.8708e+02   996.8638 0.0000e+00
      1.190    25.8470     8.1090     99.721  37.478989     36.882      5.906   244.8109     3.4146     2.6014     0.0246      0.029      1.168      1.693        316 4.0401e+02   996.8673 0.0000e+00
      1.194    25.8992     8.1145     99.599  37.556025     36.985      5.903   244.8866     3.4185     2.6735     0.0247      0.016      1.171      1.698        317 3.7236e+02   996.8644 0.0000e+00
      1.198    25.9185     8.1179     99.549  37.533064     36.888      5.908   245.3030     3.4185     2.6014     0.0246      0.007      1.173      1.702        318 3.5061e+02   996.8499 0.0000e+00
      1.197    25.9208     8.1173     99.539  37.507542     36.851      5.907   245.3788     3.4528     2.6158     0.0246      0.004      1.173      1.702        319 3.4354e+02   996.8360 0.0000e+00
      1.195    25.9230     8.1159     99.552  37.528491     36.837      5.909   245.8709     3.4604     2.6735     0.0246      0.005      1.172      1.699        320 3.2857e+02   996.8310 0.0000e+00
      1.193    25.9253     8.1099     99.492  37.506982     36.836      5.909   245.7952     3.4681     2.7311     0.0246      0.004      1.171      1.698        321 3.3250e+02   996.8303 0.0000e+00
      1.194    25.9226     8.0913     99.282  37.475034     36.779      5.909   246.1359     3.4566     2.7744     0.0246      0.004      1.172      1.700        322 3.3874e+02   996.8297 0.0000e+00
      1.199    25.9236     8.0730     99.066  37.508976     36.832      5.914   246.5145     3.4146     2.6302     0.0246      0.003      1.177      1.707        323 3.4224e+02   996.8292 0.0000e+00
      1.207    25.9444     8.0480     98.739  37.524014     36.834      5.916   246.1738     3.3956     2.7023     0.0246      0.005      1.188      1.722        324 3.4034e+02   996.8299 0.0000e+00
      1.227    25.9475     8.0210     98.328  37.515591     36.833      5.918   246.9309     3.3956     2.6014     0.0246      0.011      1.208      1.752        325 3.2429e+02   996.8297 0.0000e+00
      1.263    25.8690     7.9934     97.827  37.578726     36.874      5.914   247.1580     3.4299     2.6446     0.0247      0.025      1.236      1.793        326 3.1458e+02   996.8244 0.0000e+00
      1.290    25.7654     7.9860     97.462  37.623253     36.924      5.911   247.4230     3.3078     2.5725     0.0247      0.043      1.263      1.832        327 3.0062e+02   996.8237 0.0000e+00
      1.311    25.7140     7.9871     97.191  37.638001     36.983      5.908   248.3316     3.2811     2.5437     0.0247      0.060      1.289      1.869        328 2.6986e+02   996.8445 0.0000e+00
      1.345    25.7130     7.9895     97.004  37.619679     37.059      5.907   248.4452     3.2659     2.5870     0.0247      0.078      1.317      1.910        329 2.4920e+02   996.8721 0.0000e+00
      1.373    25.7282     7.9810     96.724  37.586827     37.041      5.902   248.7102     3.2849     2.5581     0.0247      0.093      1.343      1.947        330 2.3568e+02   996.8857 0.0000e+00
      1.388    25.7372     7.9788     96.542  37.619640     37.097      5.906   249.3538     3.4108     2.8465     0.0247      0.100      1.361      1.974        331 2.2424e+02   996.8860 0.0000e+00
      1.404    25.7458     7.9861     96.479  37.638121     37.085      5.906   249.4673     3.3956     2.8898     0.0247      0.101      1.379      2.000        332 2.1139e+02   996.8822 0.0000e+00
      1.426    25.7514     7.9896     96.375  37.623095     37.080      5.909   249.9216     3.4261     2.8177     0.0247      0.097      1.400      2.030        333 1.9752e+02   996.8799 0.0000e+00
      1.451    25.7391     7.9708     96.016  37.638335     37.072      5.907   250.0352     3.3918     2.8032     0.0247      0.091      1.423      2.063        334 1.8727e+02   996.8777 0.0000e+00
      1.475    25.6956     7.9391     95.511  37.619152     37.069      5.907   250.1488     3.4185     2.8177     0.0247      0.088      1.446      2.098        335 1.8140e+02   996.8763 0.0000e+00
      1.499    25.6028     7.8907     94.822  37.587695     37.022      5.907   250.3759     3.6512     3.0628     0.0247      0.087      1.469      2.131        336 1.7916e+02   996.8796 0.0000e+00
      1.520    25.4512     7.8114     93.774  37.677491     37.165      5.906   250.9816     3.6588     3.0195     0.0247      0.085      1.490      2.161        337 1.7866e+02   996.8913 0.0000e+00
      1.538    25.2925     7.6828     92.130  37.744517     37.286      5.904   251.0952     3.6550     2.9907     0.0247      0.085      1.508      2.187        338 1.7943e+02   996.9157 0.0000e+00
      1.554    25.1700     7.5333     90.223  37.622877     37.289      5.903   252.0416     3.6588     3.0772     0.0247      0.085      1.524      2.212        339 1.7980e+02   996.9554 0.0000e+00
      1.573    25.0708     7.3835     88.295  37.473309     37.241      5.905   252.4202     4.0250     3.4377     0.0246      0.084      1.543      2.238        340 1.7898e+02   996.9967 0.0000e+00
      1.593    24.9829     7.2427     86.447  37.812185     37.665      5.907   252.7609     4.0174     3.2791     0.0248      0.081      1.563      2.267        341 1.7280e+02   997.0286 0.0000e+00
      1.617    24.8979     7.1103     84.663  38.683056     38.632      5.908   253.0259     4.0136     3.2647     0.0252      0.079      1.585      2.299        342 1.6465e+02   997.0545 0.0000e+00
      1.640    24.8163     6.9917     83.031  39.353305     39.371      5.909   253.2531     3.9983     3.2358     0.0254      0.078      1.609      2.334        343 1.5828e+02   997.0773 0.0000e+00
      1.666    24.7412     6.9080     81.797  39.586252     39.662      5.908   253.7452     3.9411     3.4954     0.0255      0.080      1.633      2.369        344 1.5273e+02   997.0992 0.0000e+00
      1.691    24.6720     6.8596     80.986  39.638022     39.783      5.908   253.7452     3.9640     3.5963     0.0256      0.084      1.657      2.403        345 1.4907e+02   997.1203 0.0000e+00
      1.713    24.6115     6.8741     80.939  39.703869     39.899      5.908   254.0102     3.9525     3.4666     0.0256      0.088      1.680      2.437        346 1.4608e+02   997.1395 0.0000e+00
      1.737    24.5562     6.9513     81.743  39.889658     40.151      5.907   254.2752     3.9563     3.4954     0.0257      0.091      1.703      2.470        347 1.4299e+02   997.1571 0.0000e+00
      1.760    24.4976     7.1112     83.651  39.881080     40.201      5.909   254.5024     3.8877     3.5963     0.0257      0.093      1.726      2.505        348 1.3987e+02   997.1726 0.0000e+00
      1.785    24.4293     7.4038     87.036  39.803499     40.132      5.911   255.1838     3.9106     3.5387     0.0256      0.094      1.751      2.540        349 1.3461e+02   997.1866 0.0000e+00
      1.812    24.3486     7.8100     91.562  39.660204     40.095      5.911   256.3952     3.9029     3.6252     0.0256      0.095      1.777      2.578        350 1.2939e+02   997.2015 0.0000e+00
      1.840    24.2457     8.2918     96.887  38.903525     39.331      5.908   257.0388     3.9258     3.5387     0.0253      0.096      1.803      2.615        351 1.2658e+02   997.2185 0.0000e+00
      1.862    24.1180     8.7680    102.045  38.107398     38.604      5.907   256.4709     4.2653     4.1587     0.0250      0.097      1.826      2.649        352 1.2357e+02   997.2386 0.0000e+00
      1.885    23.9750     9.1368    106.072  37.450150     38.031      5.905   257.7202     4.2539     4.1443     0.0247      0.097      1.850      2.684        353 1.1939e+02   997.2642 0.0000e+00
      1.914    23.8206     9.3420    108.226  36.757861     37.392      5.903   258.2124     4.2844     4.2741     0.0244      0.099      1.876      2.721        354 1.1549e+02   997.2959 0.0000e+00
      1.940    23.6625     9.3387    108.173  36.449975     37.215      5.901   257.9474     4.2692     4.1875     0.0243      0.100      1.901      2.758        355 1.1334e+02   997.3312 0.0000e+00
      1.962    23.5218     9.1643    106.076  35.877481     36.762      5.902   258.7802     4.2539     4.1875     0.0241      0.099      1.924      2.791        356 1.1229e+02   997.3692 0.0000e+00
      1.985    23.4536     8.7889    101.453  35.425647     36.336      5.903   258.4395     3.8915     4.7067     0.0238      0.098      1.947      2.825        357 1.1126e+02   997.4077 0.0000e+00
      2.011    23.4692     8.2619     95.070  36.004803     37.133      5.905   258.5531     3.8953     4.6778     0.0241      0.097      1.971      2.858        358 1.1208e+02   997.4422 0.0000e+00
      2.032    23.4300     7.6010     87.194  36.579223     37.733      5.907   258.8559     3.9182     4.7788     0.0244      0.096      1.991      2.888        359 1.1420e+02   997.4589 0.0000e+00
      2.048    23.2940     6.9115     79.032  36.785215     37.950      5.910   258.7045     3.8686     4.7067     0.0245      0.093      2.008      2.913        360 1.1540e+02   997.4553 0.0000e+00
      2.065    23.1081     6.1927     70.598  36.933847     38.122      5.915   258.5909     3.5482     5.4276     0.0245      0.088      2.024      2.936        361 1.1641e+02   997.4649 0.0000e+00
      2.079    22.9119     5.5080     62.592  37.283335     38.582      5.917   258.7802     3.5405     5.3123     0.0247      0.082      2.040      2.958        362 1.1635e+02   997.4978 0.0000e+00
      2.097    22.7679     4.6881     53.094  37.535772     39.043      5.920   258.4774     3.5329     5.3267     0.0248      0.077      2.056      2.982        363 1.1555e+02   997.5424 0.0000e+00
      2.115    22.6699     3.9060     44.133  37.745950     39.330      5.922   259.1967     3.5482     5.3555     0.0249      0.073      2.072      3.005        364 1.1552e+02   997.5891 0.0000e+00
      2.126    22.6523     2.9882     33.709  38.355517     40.198      5.923   258.8559     3.8610     5.5142     0.0252      0.068      2.085      3.024        365 1.1514e+02   997.6232 0.0000e+00
      2.138    22.6161     2.1507     24.234  38.348010     40.204      5.926   259.1588     3.8495     5.5430     0.0252      0.063      2.098      3.044        366 1.1333e+02   997.6462 0.0000e+00
      2.157    22.4741     1.2959     14.600  38.555541     40.415      5.928   259.1588     3.8343     5.5718     0.0253      0.061      2.117      3.071        367 1.0958e+02   997.6505 0.0000e+00
      2.184    22.3082     0.6295      7.096  39.668106     41.679      5.928   259.1588     3.8457     5.4997     0.0258      0.063      2.141      3.106        368 1.0531e+02   997.6594 0.0000e+00
      2.210    22.1424     0.0681      0.768  42.209725     44.335      5.923   258.8181     3.6969     5.5718     0.0268      0.068      2.167      3.144        369 1.0127e+02   997.6934 0.0000e+00
      2.237    21.9739    -0.2727     -3.073  55.227542     57.927      5.915   259.1588     3.7198     5.5430     0.0326      0.075      2.193      3.181        370 9.7467e+01   997.7364 0.0000e+00
      2.262    21.8134    -0.4654     -5.240  79.089055     84.203      5.911   259.2345     3.7275     5.6439     0.0441      0.081      2.217      3.216        371 9.4651e+01   997.7830 0.0000e+00
      2.283    21.6447    -0.4987     -5.612 102.519752    108.916      5.907   259.7267     3.6893     5.5574     0.0551      0.087      2.238      3.246        372 9.2129e+01   997.8301 0.0000e+00
      2.300    21.4717    -0.4351     -4.895 124.270864    132.881      5.909   259.0831     3.6588     5.3123     0.0659      0.091      2.255      3.271        373 8.9044e+01   997.8746 0.0000e+00
      2.316    21.3485    -0.3189     -3.588 137.292098    147.553      5.908   259.1588     3.6473     5.3700     0.0726      0.091      2.269      3.291        374 8.6503e+01   997.9175 0.0000e+00
      2.325    21.2667    -0.1857     -2.091 139.381701    149.651      5.900   258.9317     3.6397     5.2979     0.0736      0.085      2.277      3.303        375 8.4908e+01   997.9570 0.0000e+00
      2.327    21.2104    -0.0700     -0.789 140.578775    151.892      5.894   259.2724     3.6626     5.3123     0.0746      0.073      2.282      3.309        376 8.3574e+01   997.9849 0.0000e+00
      2.329    21.2009     0.0281      0.317 139.734297    150.916      5.884   259.4995     3.5863     5.5142     0.0741      0.059      2.284      3.312        377 8.3217e+01   998.0026 0.0000e+00
      2.330    21.2354     0.1126      1.269 135.220667    146.427      5.877   260.1431     3.6054     5.6007     0.0720      0.045      2.285      3.315        378 8.3739e+01   998.0134 0.0000e+00
      2.332    21.2490     0.2021      2.274 130.828905    141.383      5.872   260.1431     3.6016     5.6872     0.0697      0.032      2.288      3.319        379 8.4920e+01   998.0138 0.0000e+00
      2.337    21.2070     0.2908      3.265 132.126801    142.766      5.867   259.8781     3.6092     5.5718     0.0704      0.022      2.291      3.324        380 8.6404e+01   998.0067 0.0000e+00
      2.341    21.1681     0.3949      4.424 137.655353    148.930      5.862   259.8402     3.5825     5.6872     0.0732      0.016      2.296      3.330        381 8.7503e+01   998.0058 0.0000e+00
      2.345    21.1471     0.4910      5.493 139.225482    150.723      5.860   260.1431     3.6550     5.6007     0.0740      0.012      2.300      3.335        382 8.8508e+01   998.0158 0.0000e+00
      2.347    21.1266     0.5733      6.403 139.643256    150.992      5.856   260.2188     3.6664     5.6007     0.0741      0.012      2.303      3.340        383 8.9145e+01   998.0244 0.0000e+00
      2.352    21.1300     0.6464      7.206 136.718559    148.695      5.853   259.9538     3.6626     5.5863     0.0731      0.013      2.306      3.345        384 8.8606e+01   998.0279 0.0000e+00
      2.356    21.1891     0.6897      7.678 132.382363    142.642      5.848   259.9159     3.6512     5.5718     0.0703      0.014      2.310      3.351        385 8.8166e+01   998.0308 0.0000e+00
      2.359    21.2358 -9.990e-29 -9.990e-29 127.857537    139.690      5.846   259.8781     2.9378     6.7543     0.0689      0.015      2.314      3.356        386 8.7674e+01   998.0283 0.0000e+00
      2.363    21.2228 -9.990e-29 -9.990e-29 128.921193    137.804      5.841   259.8402     2.9454     6.7398     0.0681      0.015      2.318      3.362        387 8.6498e+01   998.0158 0.0000e+00
      2.368    21.1967 -9.990e-29 -9.990e-29 138.087380    151.160      5.839   259.9159     2.9531     6.6245     0.0742      0.015      2.323      3.369        388 8.4973e+01   998.0090 0.0000e+00
      2.375    21.1263 -9.990e-29 -9.990e-29 140.004216    149.911      5.834   259.9917     2.9340     6.6822     0.0736      0.016      2.329      3.378        389 8.2642e+01   998.0126 0.0000e+00
      2.381    21.0107 -9.990e-29 -9.990e-29 145.417376    158.339      5.833   258.9695     2.3274     8.7009     0.0775      0.017      2.335      3.388        390 8.0012e+01   998.0204 0.0000e+00
      2.389    20.9076 -9.990e-29 -9.990e-29 163.802916    176.304      5.833   258.3638     2.3007     8.7009     0.0859      0.020      2.342      3.398        391 7.6857e+01   998.0430 0.0000e+00
      2.396    20.8158 -9.990e-29 -9.990e-29 193.884535    211.438      5.832   257.4552     2.2931     8.7298     0.1023      0.021      2.349      3.407        392 7.3768e+01   998.0800 0.0000e+00
      2.401    20.7372 -9.990e-29 -9.990e-29 230.738001    250.565      5.827   255.3352     2.2969     8.7442     0.1208      0.023      2.355      3.415        393 7.1157e+01   998.1171 0.0000e+00
      2.407    20.6461 -9.990e-29 -9.990e-29 254.382890    279.081      5.819   254.4645     2.5334     9.2056     0.1343      0.024      2.360      3.423        394 6.8370e+01   998.1464 0.0000e+00
      2.411    20.5865 -9.990e-29 -9.990e-29 272.760661    296.207      5.811   254.5402     2.5678     9.2633     0.1425      0.024      2.364      3.429        395 6.6472e+01   998.1708 0.0000e+00
      2.414 -9.990e-29 -9.990e-29 -9.990e-29 252.190715    281.062      5.802   253.8966     2.5830     9.1335     0.1353      0.023      2.366      3.433        396 6.6402e+01   998.1823 0.0000e+00
      2.415 -9.990e-29 -9.990e-29 -9.990e-29 218.855159    233.075      5.796   254.0102     2.5601     9.1912     0.1124      0.021      2.367      3.434        397 6.6787e+01   998.1818 0.0000e+00
