* Sea-Bird SBE19plus  Data File:
* FileName = C:\DATA\070819_fcr50_0004.hex
* Software version 2.8.0.119
* Temperature SN = 7809
* Conductivity SN = 7809
* System UpLoad Time = Jul 08 2019 15:01:52
* <ApplicationData>
* <Seaterm232>
* <SoftwareVersion>2.8.0.119</SoftwareVersion>
* <BuildDate>07-Nov-2018</BuildDate>
* </Seaterm232>
* </ApplicationData>
* <InstrumentState>
* <HardwareData DeviceType='SBE19plus' SerialNumber='01907809'>
*
*    <Manufacturer>Sea-Bird Electronics, Inc.</Manufacturer>
*
*    <FirmwareVersion>3.1.8</FirmwareVersion>
*
*    <FirmwareDate>Mar  9 2016 16:22:29</FirmwareDate>
*
*    <CommandSetVersion>1.4</CommandSetVersion>
*
*    <PCBAssembly PCBSerialNum='120721' AssemblyNum='41054J'/>
*
*    <PCBAssembly PCBSerialNum='120715' AssemblyNum='41967A'/>
*
*    <PCBAssembly PCBSerialNum='116699' AssemblyNum='41606'/>
*
*    <PCBAssembly PCBSerialNum='120719' AssemblyNum='41059D'/>
*
*    <MfgDate>28-Apr-2017</MfgDate>
*
*    <InternalSensors>
*
*       <Sensor id='Main Temperature'>
*
*          <type>temperature0</type>
*
*          <SerialNumber>01907809</SerialNumber>
*
*       </Sensor>
*
*       <Sensor id='Main Conductivity'>
*
*          <type>conductivity-0</type>
*
*          <SerialNumber>01907809</SerialNumber>
*
*       </Sensor>
*
*       <Sensor id='Main Pressure'>
*
*          <type>strain-0</type>
*
*          <SerialNumber>10586018</SerialNumber>
*
*       </Sensor>
*
*    </InternalSensors>
*
*    <ExternalSensors>
*
*       <Sensor id='volt 0'>
*
*          <type>pH</type>
*
*          <SerialNumber>27-0363</SerialNumber>
*
*       </Sensor>
*
*       <Sensor id='volt 1'>
*
*          <type>ORP</type>
*
*          <SerialNumber>27-0363</SerialNumber>
*
*       </Sensor>
*
*       <Sensor id='volt 2'>
*
*          <type>OXY</type>
*
*          <SerialNumber>43-0434</SerialNumber>
*
*       </Sensor>
*
*       <Sensor id='volt 3'>
*
*          <type>PAR</type>
*
*          <SerialNumber>1122</SerialNumber>
*
*       </Sensor>
*
*       <Sensor id='volt 4'>
*
*          <type>ECO AFL/FL</type>
*
*          <SerialNumber>FLNTURT-2496</SerialNumber>
*
*       </Sensor>
*
*       <Sensor id='volt 5'>
*
*          <type>ECO-NTU</type>
*
*          <SerialNumber>FLNTURT-2496</SerialNumber>
*
*       </Sensor>
*
*       <Sensor id='serial'>
*
*          <type>not assigned</type>
*
*          <SerialNumber>not assigned</SerialNumber>
*
*       </Sensor>
*
*    </ExternalSensors>
*
* </HardwareData>
* <StatusData DeviceType='SBE19plus' SerialNumber='01907809'>
*
*    <DateTime>2019-07-08T15:00:04</DateTime>
*
*    <LoggingState>not logging</LoggingState>
*
*    <EventSummary numEvents='0'/>
*
*    <Power>
*
*       <vMain>12.6</vMain>
*
*       <vLith>8.8</vLith>
*
*       <iMain>63.1</iMain>
*
*       <iPump>40.7</iPump>
*
*       <iExt01>19.2</iExt01>
*
*       <iExt2345>35.8</iExt2345>
*
*    </Power>
*
*    <MemorySummary>
*
*       <Bytes>112608</Bytes>
*
*       <Samples>4896</Samples>
*
*       <SamplesFree>2855892</SamplesFree>
*
*       <SampleLength>23</SampleLength>
*
*       <Profiles>6</Profiles>
*
*    </MemorySummary>
*
* </StatusData>
* <ConfigurationData DeviceType='SBE19plus' SerialNumber='01907809'>
*
*    <ProfileMode>
*
*       <ScansToAverage>1</ScansToAverage>
*
*       <MinimumCondFreq>5</MinimumCondFreq>
*
*       <PumpDelay>45</PumpDelay>
*
*       <AutoRun>no</AutoRun>
*
*       <IgnoreSwitch>no</IgnoreSwitch>
*
*    </ProfileMode>
*
*    <Battery>
*
*       <Type>alkaline</Type>
*
*       <CutOff>7.5</CutOff>
*
*    </Battery>
*
*    <DataChannels>
*
*       <ExtVolt0>yes</ExtVolt0>
*
*       <ExtVolt1>yes</ExtVolt1>
*
*       <ExtVolt2>yes</ExtVolt2>
*
*       <ExtVolt3>yes</ExtVolt3>
*
*       <ExtVolt4>yes</ExtVolt4>
*
*       <ExtVolt5>yes</ExtVolt5>
*
*       <SBE38>no</SBE38>
*
*       <WETLABS>no</WETLABS>
*
*       <OPTODE>no</OPTODE>
*
*       <SBE63>no</SBE63>
*
*       <SeaFET>no</SeaFET>
*
*       <GTD>no</GTD>
*
*    </DataChannels>
*
*    <EchoCharacters>yes</EchoCharacters>
*
*    <OutputExecutedTag>yes</OutputExecutedTag>
*
*    <OutputFormat>raw HEX</OutputFormat>
*
* </ConfigurationData>
* <CalibrationCoefficients DeviceType='SBE19plus' SerialNumber='01907809'>
*
*    <Calibration format='TEMP1' id='Main Temperature'>
*
*       <SerialNum>01907809</SerialNum>
*
*       <CalDate>24-Mar-19</CalDate>
*
*       <TA0>1.217923e-03</TA0>
*
*       <TA1>2.816693e-04</TA1>
*
*       <TA2>-1.603333e-06</TA2>
*
*       <TA3>1.984146e-07</TA3>
*
*       <TOFFSET>0.000000e+00</TOFFSET>
*
*    </Calibration>
*
*    <Calibration format='WBCOND0' id='Main Conductivity'>
*
*       <SerialNum>01907809</SerialNum>
*
*       <CalDate>24-Mar-19</CalDate>
*
*       <G>-1.005893e+00</G>
*
*       <H>1.268163e-01</H>
*
*       <I>-1.515604e-04</I>
*
*       <J>2.671373e-05</J>
*
*       <CPCOR>-9.570000e-08</CPCOR>
*
*       <CTCOR>3.250000e-06</CTCOR>
*
*       <CSLOPE>1.000000e+00</CSLOPE>
*
*    </Calibration>
*
*    <Calibration format='STRAIN0' id='Main Pressure'>
*
*       <SerialNum>10586018</SerialNum>
*
*       <CalDate>11-Mar-19</CalDate>
*
*       <PA0>4.565618e-02</PA0>
*
*       <PA1>4.850951e-04</PA1>
*
*       <PA2>-2.883271e-12</PA2>
*
*       <PTCA0>5.252467e+05</PTCA0>
*
*       <PTCA1>1.223042e+01</PTCA1>
*
*       <PTCA2>-3.567450e-01</PTCA2>
*
*       <PTCB0>2.516687e+01</PTCB0>
*
*       <PTCB1>3.750000e-04</PTCB1>
*
*       <PTCB2>0.000000e+00</PTCB2>
*
*       <PTEMPA0>-5.487846e+01</PTEMPA0>
*
*       <PTEMPA1>5.537568e+01</PTEMPA1>
*
*       <PTEMPA2>-5.867271e-01</PTEMPA2>
*
*       <POFFSET>7.140000e-01</POFFSET>
*
*       <PRANGE>1.600000e+02</PRANGE>
*
*    </Calibration>
*
*    <Calibration format='VOLT0' id='Volt 0'>
*
*       <OFFSET>-4.920000e-02</OFFSET>
*
*       <SLOPE>1.248122e+00</SLOPE>
*
*    </Calibration>
*
*    <Calibration format='VOLT0' id='Volt 1'>
*
*       <OFFSET>-4.784000e-02</OFFSET>
*
*       <SLOPE>1.248871e+00</SLOPE>
*
*    </Calibration>
*
*    <Calibration format='VOLT0' id='Volt 2'>
*
*       <OFFSET>-4.864632e-02</OFFSET>
*
*       <SLOPE>1.248714e+00</SLOPE>
*
*    </Calibration>
*
*    <Calibration format='VOLT0' id='Volt 3'>
*
*       <OFFSET>-4.743790e-02</OFFSET>
*
*       <SLOPE>1.248571e+00</SLOPE>
*
*    </Calibration>
*
*    <Calibration format='VOLT0' id='Volt 4'>
*
*       <OFFSET>-4.671263e-02</OFFSET>
*
*       <SLOPE>1.248951e+00</SLOPE>
*
*    </Calibration>
*
*    <Calibration format='VOLT0' id='Volt 5'>
*
*       <OFFSET>-4.871053e-02</OFFSET>
*
*       <SLOPE>1.249136e+00</SLOPE>
*
*    </Calibration>
*
*    <Calibration format='FREQ0' id='external frequency channel'>
*
*       <EXTFREQSF>1.000014e+00</EXTFREQSF>
*
*    </Calibration>
*
* </CalibrationCoefficients>
* <EventCounters DeviceType='SBE19plus' SerialNumber='01907809'>
*
*    <EventSummary numEvents='0'/>
*
* </EventCounters></InstrumentState>
* <Headers>
*
* cast   4 08 Jul 2019 11:25:12 samples 2062 to 2843, avg = 1, stop = mag switch
*
# nquan = 18
# nvalues = 699                         
# units = specified
# name 0 = depFM: Depth [fresh water, m]
# name 1 = tv290C: Temperature [ITS-90, deg C]
# name 2 = sbeox0Mg/L: Oxygen, SBE 43 [mg/l]
# name 3 = sbeox0PS: Oxygen, SBE 43 [% saturation]
# name 4 = c0uS/cm: Conductivity [uS/cm]
# name 5 = specc: Specific Conductance [uS/cm]
# name 6 = ph: pH
# name 7 = orp: Oxidation Reduction Potential [mV]
# name 8 = flECO-AFL: Fluorescence, WET Labs ECO-AFL/FL [mg/m^3]
# name 9 = turbWETntu0: Turbidity, WET Labs ECO [NTU]
# name 10 = sal00: Salinity, Practical [PSU]
# name 11 = dz/dtM: Descent Rate [m/s]
# name 12 = prdM: Pressure, Strain Gauge [db]
# name 13 = prdE: Pressure, Strain Gauge [psi]
# name 14 = scan: Scan Count
# name 15 = par/sat/log: PAR/Logarithmic, Satlantic
# name 16 = density00: Density [density, kg/m^3]
# name 17 = flag:  0.000e+00
# span 0 =     -0.607,      5.346       
# span 1 =    10.8775,    27.2661       
# span 2 =     0.1344,    13.8567       
# span 3 =      1.261,    158.633       
# span 4 =   2.336735,  37.503497       
# span 5 =      2.723,     46.978       
# span 6 =      6.065,      7.282       
# span 7 =   -21.9313,   311.5154       
# span 8 =    -0.2628,     8.4616       
# span 9 =    -1.9697,    39.7611       
# span 10 =     0.0122,     0.0248      
# span 11 =     -0.267,      0.262      
# span 12 =     -0.594,      5.243      
# span 13 =     -0.862,      7.604      
# span 14 =          1,        699      
# span 15 = 1.5855e+00, 2.5819e+03      
# span 16 =   996.4592,   999.6615      
# span 17 = 0.0000e+00, 0.0000e+00      
# interval = seconds: 0.25
# start_time = Jul 08 2019 11:25:12 [Instrument's time stamp, header]
# bad_flag = -9.990e-29
# <Sensors count="9" >
#   <sensor Channel="1" >
#     <!-- Count, Temperature -->
#     <TemperatureSensor SensorID="58" >
#       <SerialNumber>7809</SerialNumber>
#       <CalibrationDate>24-Mar-19</CalibrationDate>
#       <A0>1.21792325e-003</A0>
#       <A1>2.81669265e-004</A1>
#       <A2>-1.60333336e-006</A2>
#       <A3>1.98414625e-007</A3>
#       <Slope>1.00000000</Slope>
#       <Offset>0.0000</Offset>
#     </TemperatureSensor>
#   </sensor>
#   <sensor Channel="2" >
#     <!-- Frequency 0, Conductivity -->
#     <ConductivitySensor SensorID="3" >
#       <SerialNumber>7809</SerialNumber>
#       <CalibrationDate>24-Mar-19</CalibrationDate>
#       <UseG_J>1</UseG_J>
#       <!-- Cell const and series R are applicable only for wide range sensors. -->
#       <SeriesR>0.0000</SeriesR>
#       <CellConst>2000.0000</CellConst>
#       <ConductivityType>0</ConductivityType>
#       <Coefficients equation="0" >
#         <A>0.00000000e+000</A>
#         <B>0.00000000e+000</B>
#         <C>0.00000000e+000</C>
#         <D>0.00000000e+000</D>
#         <M>0.0</M>
#         <CPcor>-9.57000000e-008</CPcor>
#       </Coefficients>
#       <Coefficients equation="1" >
#         <G>-1.00589325e+000</G>
#         <H>1.26816302e-001</H>
#         <I>-1.51560448e-004</I>
#         <J>2.67137274e-005</J>
#         <CPcor>-9.57000000e-008</CPcor>
#         <CTcor>3.2500e-006</CTcor>
#         <!-- WBOTC not applicable unless ConductivityType = 1. -->
#         <WBOTC>0.00000000e+000</WBOTC>
#       </Coefficients>
#       <Slope>1.00000000</Slope>
#       <Offset>0.00000</Offset>
#     </ConductivitySensor>
#   </sensor>
#   <sensor Channel="3" >
#     <!-- Count, Pressure, Strain Gauge -->
#     <PressureSensor SensorID="46" >
#       <SerialNumber>7809</SerialNumber>
#       <CalibrationDate>11-Mar-19</CalibrationDate>
#       <PA0>4.56561833e-002</PA0>
#       <PA1>4.85095118e-004</PA1>
#       <PA2>-2.88327090e-012</PA2>
#       <PTEMPA0>-5.48784562e+001</PTEMPA0>
#       <PTEMPA1>5.53756816e+001</PTEMPA1>
#       <PTEMPA2>-5.86727098e-001</PTEMPA2>
#       <PTCA0>5.25246745e+005</PTCA0>
#       <PTCA1>1.22304214e+001</PTCA1>
#       <PTCA2>-3.56745036e-001</PTCA2>
#       <PTCB0>2.51668750e+001</PTCB0>
#       <PTCB1>3.75000000e-004</PTCB1>
#       <PTCB2>0.00000000e+000</PTCB2>
#       <Offset>0.000000</Offset>
#     </PressureSensor>
#   </sensor>
#   <sensor Channel="4" >
#     <!-- A/D voltage 0, Oxygen, SBE 43 -->
#     <OxygenSensor SensorID="38" >
#       <SerialNumber>0434</SerialNumber>
#       <CalibrationDate>13-Apr-19</CalibrationDate>
#       <Use2007Equation>1</Use2007Equation>
#       <CalibrationCoefficients equation="0" >
#         <!-- Coefficients for Owens-Millard equation. -->
#         <Boc>0.0000</Boc>
#         <Soc>0.0000e+000</Soc>
#         <offset>0.0000</offset>
#         <Pcor>0.00e+000</Pcor>
#         <Tcor>0.0000</Tcor>
#         <Tau>0.0</Tau>
#       </CalibrationCoefficients>
#       <CalibrationCoefficients equation="1" >
#         <!-- Coefficients for Sea-Bird equation - SBE calibration in 2007 and later. -->
#         <Soc>4.2007e-001</Soc>
#         <offset>-0.6109</offset>
#         <A>-4.3656e-003</A>
#         <B> 1.7017e-004</B>
#         <C>-2.5341e-006</C>
#         <D0> 2.5826e+000</D0>
#         <D1> 1.92634e-004</D1>
#         <D2>-4.64803e-002</D2>
#         <E> 3.6000e-002</E>
#         <Tau20> 1.1800</Tau20>
#         <H1>-3.3000e-002</H1>
#         <H2> 5.0000e+003</H2>
#         <H3> 1.4500e+003</H3>
#       </CalibrationCoefficients>
#     </OxygenSensor>
#   </sensor>
#   <sensor Channel="5" >
#     <!-- A/D voltage 1, PAR/Logarithmic, Satlantic -->
#     <PARLog_SatlanticSensor SensorID="76" >
#       <SerialNumber>1122</SerialNumber>
#       <CalibrationDate>08-May-2019</CalibrationDate>
#       <a0>9.7456e-001</a0>
#       <a1>8.1640e-001</a1>
#       <Im>1.3589e+000</Im>
#       <Multiplier>1.0000e+000</Multiplier>
#     </PARLog_SatlanticSensor>
#   </sensor>
#   <sensor Channel="6" >
#     <!-- A/D voltage 2, pH -->
#     <pH_Sensor SensorID="43" >
#       <SerialNumber>0363</SerialNumber>
#       <CalibrationDate>15-Apr-19</CalibrationDate>
#       <Slope>4.5952</Slope>
#       <Offset>2.5370</Offset>
#     </pH_Sensor>
#   </sensor>
#   <sensor Channel="7" >
#     <!-- A/D voltage 3, Oxidation Reduction Potential -->
#     <OxidationReductionPotentialSensor SensorID="41" >
#       <SerialNumber>0363</SerialNumber>
#       <CalibrationDate>15-Apr-19</CalibrationDate>
#       <B>2.499480</B>
#       <M>-0.496195</M>
#       <Offset>0.0</Offset>
#     </OxidationReductionPotentialSensor>
#   </sensor>
#   <sensor Channel="8" >
#     <!-- A/D voltage 4, Fluorometer, WET Labs ECO-AFL/FL -->
#     <FluoroWetlabECO_AFL_FL_Sensor SensorID="20" >
#       <SerialNumber>FLNTURT-2496</SerialNumber>
#       <CalibrationDate>08-May-2019</CalibrationDate>
#       <ScaleFactor>5.00000000e+001</ScaleFactor>
#       <!-- Dark output -->
#       <Vblank>0.0550</Vblank>
#     </FluoroWetlabECO_AFL_FL_Sensor>
#   </sensor>
#   <sensor Channel="9" >
#     <!-- A/D voltage 5, Turbidity Meter, WET Labs, ECO-NTU -->
#     <TurbidityMeter SensorID="67" >
#       <SerialNumber>FLNTURT-2496</SerialNumber>
#       <CalibrationDate>08-May-2019</CalibrationDate>
#       <ScaleFactor>189.000000</ScaleFactor>
#       <!-- Dark output -->
#       <DarkVoltage>0.071000</DarkVoltage>
#     </TurbidityMeter>
#   </sensor>
# </Sensors>
# datcnv_date = Jul 09 2019 07:37:35, 7.26.7.129 [datcnv_vars = 17]
# datcnv_in = C:\DATA\070819_fcr30.hex C:\DATA\SBE19plusV2_7809.xmlcon
# datcnv_skipover = 0
# datcnv_ox_hysteresis_correction = yes
# datcnv_ox_tau_correction = yes
# filter_date = Jul 09 2019 07:39:48, 7.26.7.129
# filter_in = C:\DATA\070819_fcr30.cnv
# filter_low_pass_tc_A = 0.030
# filter_low_pass_tc_B = 0.150
# filter_low_pass_A_vars = tv290C c0uS/cm par/sat/log density00
# filter_low_pass_B_vars = prdM prdE
# alignctd_date = Jul 09 2019 07:40:15, 7.26.7.129
# alignctd_in = C:\DATA\070819_fcr30.cnv
# alignctd_adv = tv290C 0.500, sbeox0Mg/L 3.000, sbeox0PS 3.000                                                                                                                                                                      
# file_type = ascii
*END*
     -0.605    25.1087     7.3808     90.741   6.172863      5.840      6.158   311.5154     0.1835     1.3324     0.0128 2.1053e-16     -0.593     -0.861          1 4.7999e+02   997.0464 0.0000e+00
     -0.606    25.2700     7.3310     90.736   9.095555      9.405      6.162   310.3797     0.1835     1.3180     0.0139     -0.000     -0.594     -0.862          2 4.5875e+02   997.0438 0.0000e+00
     -0.606    25.3943     7.2951     90.754   7.775769      7.695      6.164   308.8275     0.1759     1.3324     0.0134     -0.000     -0.594     -0.862          3 5.1610e+02   997.0260 0.0000e+00
     -0.606    25.4438     7.2666     90.794   5.921341      5.729      6.166   302.6568    -0.2132     0.3086     0.0129     -0.000     -0.594     -0.862          4 5.5634e+02   996.9840 0.0000e+00
     -0.607    25.4991     7.2601     90.970   7.763535      7.872      6.167   293.4953    -0.1712     0.3807     0.0136     -0.001     -0.594     -0.862          5 5.6240e+02   996.9522 0.0000e+00
     -0.606    25.5327     7.2692     91.238   6.400482      6.345      6.173   286.4160    -0.1674     0.3086     0.0131     -0.001     -0.594     -0.862          6 5.4411e+02   996.9390 0.0000e+00
     -0.606    25.5126     7.2952     91.654   4.599460      4.405      6.169   280.6996    -0.1789     0.3951     0.0126     -0.001     -0.594     -0.862          7 5.2632e+02   996.9242 0.0000e+00
     -0.606    25.4948     7.3187     91.996   3.495253      3.713      6.166   275.8917    -0.2017     0.2798     0.0124     -0.001     -0.594     -0.862          8 5.4379e+02   996.9151 0.0000e+00
     -0.606    25.4570     7.3508     92.441   3.839476      3.355      6.164   269.7210     1.0953    -1.9264     0.0124     -0.000     -0.593     -0.861          9 5.6177e+02   996.9206 0.0000e+00
     -0.606    25.5089     7.3802     92.809   2.336735      3.053      6.164   242.8423     1.0800    -1.9264     0.0123      0.000     -0.588     -0.853         10 5.8297e+02   996.9249 0.0000e+00
     -0.592    25.8466     7.4080     93.101   3.974869      2.723      6.065   -21.9313     1.0533    -1.9697     0.0122      0.004     -0.557     -0.809         11 6.1075e+02   996.9352 0.0000e+00
     -0.503    26.2249     7.4299     93.330  22.847053     23.326      6.303   242.1987     1.0609    -1.9264     0.0191      0.030     -0.486     -0.705         12 6.3555e+02   996.9269 0.0000e+00
     -0.394    26.5047     7.4377     93.411  37.027258     36.472      6.659   199.1929    -0.2551    -1.6525     0.0245      0.078     -0.392     -0.568         13 6.4665e+02   996.8426 0.0000e+00
     -0.303    26.7464     7.4337     93.376  37.205302     36.264      6.958   199.3443    -0.2475    -1.6957     0.0245      0.135     -0.303     -0.439         14 6.3774e+02   996.7425 0.0000e+00
     -0.226    26.9047     7.4209     93.248  37.230702     36.173      7.152   201.5779    -0.2628    -1.6380     0.0245      0.193     -0.233     -0.338         15 6.3081e+02   996.6674 0.0000e+00
     -0.184    26.9996     7.4430     93.562  37.291852     36.004      7.243   203.0165    -0.2551    -1.7822     0.0245      0.237     -0.187     -0.271         16 6.1009e+02   996.6021 0.0000e+00
     -0.162    27.0531     7.4616     93.818  37.188354     35.840      7.280   247.6502     1.8811     5.2114     0.0245      0.260     -0.161     -0.232         17 6.1020e+02   996.5587 0.0000e+00
     -0.145    27.0833     7.4980     94.295  37.181608     35.722      7.282   210.3987     1.8773     5.2979     0.0245      0.258     -0.137     -0.198         18 6.4184e+02   996.5329 0.0000e+00
     -0.109    27.1077     7.5295     94.720  37.181656     35.738      7.277   248.0666     1.8887     5.3555     0.0245      0.235     -0.109     -0.157         19 6.7084e+02   996.5182 0.0000e+00
     -0.079    27.1062     7.5158     94.578  37.069726     35.558      7.259   247.8016     1.8697     5.2979     0.0244      0.192     -0.084     -0.122         20 6.1771e+02   996.5100 0.0000e+00
     -0.072    27.0730     7.4737     94.063  37.024534     35.540      7.234   228.4566     2.2168     2.4139     0.0244      0.146     -0.073     -0.106         21 5.5834e+02   996.5033 0.0000e+00
     -0.073    27.0447     7.4178     93.366  37.000805     35.487      7.214   222.1723     2.2473     2.4139     0.0244      0.108     -0.072     -0.105         22 6.1287e+02   996.5037 0.0000e+00
     -0.077    27.0351     7.3807     92.905  36.980718     35.511      7.198   231.9016     2.2359     2.4428     0.0244      0.077     -0.074     -0.108         23 6.3584e+02   996.5128 0.0000e+00
     -0.077    27.0430     7.3784     92.882  36.990275     35.530      7.176   237.1637     2.2588     2.4572     0.0244      0.056     -0.075     -0.109         24 6.0454e+02   996.5206 0.0000e+00
     -0.077    27.0635     7.3745     92.837  36.988923     35.537      7.154   250.9816     2.2740     2.4139     0.0244      0.040     -0.076     -0.111         25 5.1962e+02   996.5233 0.0000e+00
     -0.080    27.0845     7.3365     92.357  37.100945     35.639      7.130   244.9623     2.3198     2.4572     0.0244      0.023     -0.080     -0.116         26 5.1140e+02   996.5211 0.0000e+00
     -0.090    27.0975     7.2857     91.723  37.147214     35.678      7.102   253.9724     2.3160     2.3851     0.0245      0.004     -0.083     -0.121         27 5.9935e+02   996.5154 0.0000e+00
     -0.085    27.1092     7.2358     91.098  37.168414     35.664      7.083   237.5044     2.3198     2.4716     0.0245     -0.006     -0.077     -0.112         28 6.3157e+02   996.5097 0.0000e+00
     -0.058    27.1270     7.1810     90.410  37.193093     35.709      7.059   253.3288     2.3084     2.3851     0.0245     -0.001     -0.063     -0.091         29 6.3516e+02   996.5062 0.0000e+00
     -0.053    27.1439     7.1113     89.530  37.116494     35.593      7.039   254.0481     2.3236     2.3851     0.0244      0.007     -0.056     -0.081         30 6.3410e+02   996.5031 0.0000e+00
     -0.059    27.1530     7.0056     88.197  37.145193     35.635      7.020   253.9724     2.3694     2.4572     0.0245      0.012     -0.058     -0.084         31 6.2600e+02   996.4981 0.0000e+00
     -0.065    27.1570     6.9054     86.935  37.216640     35.677      7.004   254.7295     2.3465     2.5293     0.0245      0.012     -0.062     -0.090         32 6.1786e+02   996.4933 0.0000e+00
     -0.066    27.1608     6.8004     85.618  37.205383     35.670      6.990   253.5559     2.3503     2.4283     0.0245      0.012     -0.063     -0.091         33 6.1670e+02   996.4909 0.0000e+00
     -0.063    27.1646     6.7096     84.479  37.218467     35.668      6.978   254.2752     2.4190     2.3851     0.0245      0.012     -0.060     -0.087         34 6.1515e+02   996.4898 0.0000e+00
     -0.056    27.1659     6.6329     83.520  37.200354     35.665      6.966   223.4973     2.3961     2.4283     0.0245      0.011     -0.053     -0.078         35 6.1558e+02   996.4888 0.0000e+00
     -0.045    27.1659     6.5976     83.079  37.109382     35.556      6.959   222.3237     2.4190     2.3851     0.0244      0.009     -0.045     -0.066         36 6.2407e+02   996.4877 0.0000e+00
     -0.038    27.1686     6.6268     83.451  37.094596     35.554      6.951   221.1123     2.4266     2.4139     0.0244      0.007     -0.038     -0.055         37 6.1306e+02   996.4873 0.0000e+00
     -0.032    27.1713     6.7094     84.493  37.100212     35.555      6.943   220.1280     2.4915     2.3995     0.0244      0.013     -0.032     -0.047         38 5.6886e+02   996.4874 0.0000e+00
     -0.028    27.1723     6.8339     86.058  37.102393     35.553      6.936   220.0144     2.4381     2.4139     0.0244      0.019     -0.029     -0.042         39 5.4556e+02   996.4867 0.0000e+00
     -0.029    27.1710     6.9552     87.584  37.151152     35.605      6.927   219.7115     2.4762     2.3562     0.0245      0.022     -0.029     -0.041         40 5.5104e+02   996.4859 0.0000e+00
     -0.030    27.1688     7.0851     89.222  37.158071     35.604      6.915   220.0144     2.4762     2.4428     0.0245      0.020     -0.029     -0.041         41 5.6357e+02   996.4857 0.0000e+00
     -0.029    27.1690     7.1993     90.664  37.153053     35.605      6.898   219.2573     2.6097     2.2986     0.0245      0.017     -0.029     -0.041         42 5.7114e+02   996.4861 0.0000e+00
     -0.028    27.1716     7.2992     91.925  37.157398     35.606      6.882   219.4465     2.6135     2.3562     0.0245      0.012     -0.029     -0.041         43 5.6636e+02   996.4866 0.0000e+00
     -0.029    27.1755     7.3314     92.331  37.152663     35.606      6.872   219.1815     2.5830     2.3562     0.0245      0.006     -0.029     -0.042         44 5.5449e+02   996.4866 0.0000e+00
     -0.030    27.1793     7.3362     92.393  37.158945     35.604      6.864   219.1437     2.6174     2.3851     0.0245      0.003     -0.029     -0.042         45 5.3770e+02   996.4859 0.0000e+00
     -0.029    27.1821     7.3280     92.291  37.149580     35.602      6.857   219.0680     2.6059     2.4139     0.0245      0.000     -0.028     -0.041         46 5.2882e+02   996.4847 0.0000e+00
     -0.028    27.1846     7.3158     92.136  37.105048     35.545      6.851   218.9544     2.5983     2.3418     0.0244      0.000     -0.028     -0.040         47 5.2545e+02   996.4837 0.0000e+00
     -0.027    27.1857     7.3139     92.108  37.155093     35.597      6.844   218.8408     2.5754     2.3851     0.0245      0.001     -0.027     -0.039         48 5.2697e+02   996.4830 0.0000e+00
     -0.027    27.1841     7.3159     92.122  37.205837     35.649      6.838   219.0301     2.5830     2.4572     0.0245      0.001     -0.027     -0.039         49 5.3922e+02   996.4823 0.0000e+00
     -0.027    27.1830     7.3182     92.144  37.160437     35.595      6.835   219.1058     2.7089     2.6302     0.0245      0.001     -0.027     -0.039         50 5.5606e+02   996.4819 0.0000e+00
     -0.028    27.1842     7.3273     92.257  37.152322     35.596      6.834   219.2951     2.7776     2.5581     0.0245      0.001     -0.027     -0.040         51 5.7259e+02   996.4825 0.0000e+00
     -0.028    27.1865     7.3268     92.251  37.156666     35.596      6.828   219.2951     2.7967     2.5004     0.0245      0.001     -0.027     -0.040         52 5.8211e+02   996.4827 0.0000e+00
     -0.028    27.1885     7.2981     91.890  37.155032     35.596      6.827   219.6737     2.8081     2.6302     0.0245      0.001     -0.027     -0.040         53 5.8214e+02   996.4824 0.0000e+00
     -0.027    27.1894     7.2360     91.108  37.154355     35.594      6.826   219.8251     2.7814     2.5004     0.0245      0.000     -0.026     -0.039         54 5.8139e+02   996.4818 0.0000e+00
     -0.025    27.1900     7.1536     90.067  37.157507     35.593      6.825   219.8251     2.8386     2.5437     0.0245      0.001     -0.025     -0.036         55 5.7315e+02   996.4812 0.0000e+00
     -0.024    27.1905     7.0504     88.766  37.151108     35.592      6.824   220.1280     2.8615     2.5149     0.0245      0.001     -0.024     -0.035         56 5.7302e+02   996.4810 0.0000e+00
     -0.025    27.1905     6.9427     87.411  37.103047     35.538      6.823   220.1280     2.8539     2.3562     0.0244      0.002     -0.023     -0.034         57 5.7194e+02   996.4808 0.0000e+00
     -0.023    27.1874     6.8324     86.018  37.098777     35.538      6.819   220.3173     2.8272     2.3707     0.0244      0.003     -0.020     -0.030         58 5.8026e+02   996.4806 0.0000e+00
     -0.015    27.1812     6.7204     84.603  37.156423     35.591      6.817   219.9387     2.9340     2.4572     0.0245      0.005     -0.014     -0.021         59 5.6318e+02   996.4807 0.0000e+00
     -0.008    27.1766     6.6230     83.370  37.149850     35.593      6.804   220.3551     2.8920     2.4860     0.0245      0.008     -0.009     -0.013         60 4.8284e+02   996.4816 0.0000e+00
     -0.005    27.1751     6.5254     82.135  37.106958     35.544      6.788   220.6958     2.9264     2.4428     0.0244      0.011     -0.006     -0.009         61 5.1060e+02   996.4833 0.0000e+00
     -0.005    27.1754     6.4452     81.119  37.091261     35.547      6.783   220.8473     2.9111     2.3562     0.0244      0.012     -0.005     -0.008         62 5.3538e+02   996.4846 0.0000e+00
     -0.005    27.1760     6.3698     80.166  37.050846     35.495      6.781   220.9608     2.9759     2.5004     0.0244      0.013     -0.005     -0.008         63 5.4732e+02   996.4850 0.0000e+00
     -0.006    27.1753     6.3081     79.385  36.979446     35.441      6.782   221.4151     2.9798     2.5725     0.0244      0.011     -0.006     -0.009         64 5.8608e+02   996.4848 0.0000e+00
     -0.006    27.1734     6.2411     78.536  36.943038     35.387      6.784   221.3773     2.9759     2.6158     0.0244      0.010     -0.006     -0.009         65 6.7153e+02   996.4847 0.0000e+00
     -0.007    27.1726     6.1847     77.821  36.977616     35.441      6.783   221.4530     2.9683     2.5870     0.0244      0.006     -0.006     -0.009         66 7.0470e+02   996.4849 0.0000e+00
     -0.005    27.1725     6.1307     77.135  36.995684     35.442      6.781   221.5287     2.9759     2.3995     0.0244      0.002     -0.005     -0.008         67 6.4588e+02   996.4854 0.0000e+00
     -0.004    27.1706     6.0846     76.551  36.979822     35.443      6.780   221.6044     2.9759     2.3707     0.0244      0.001     -0.004     -0.006         68 6.5235e+02   996.4857 0.0000e+00
     -0.003    27.1669     6.0402     75.987  36.908451     35.363      6.775   221.9830     2.9683     2.3851     0.0244      0.001     -0.003     -0.005         69 6.6733e+02   996.4856 0.0000e+00
     -0.003    27.1625     5.9912     75.366  36.847425     35.311      6.772   221.9830     2.9836     2.4139     0.0243      0.001     -0.003     -0.005         70 5.8802e+02   996.4862 0.0000e+00
     -0.004    27.1579     5.9484     74.822  36.818690     35.286      6.771   222.0965     2.7890     2.5149     0.0243      0.001     -0.004     -0.006         71 5.1486e+02   996.4872 0.0000e+00
     -0.005    27.1539     5.9055     74.277  36.796039     35.262      6.771   222.0965     2.7890     2.3707     0.0243      0.001     -0.004     -0.006         72 4.9850e+02   996.4884 0.0000e+00
     -0.004    27.1506     5.8610     73.711  36.845982     35.319      6.768   222.3615     2.7700     2.5293     0.0243      0.001     -0.003     -0.004         73 3.6918e+02   996.4897 0.0000e+00
     -0.001    27.1475     5.8086     73.046  36.845444     35.322      6.765   222.0965     2.8043     2.3851     0.0243      0.002     -0.002     -0.001         74 3.8504e+02   996.4908 0.0000e+00
      0.000    27.1438     5.7784     72.661  36.855979     35.324      6.764   222.3615     2.7776     2.5437     0.0243      0.002     -0.000      0.001         75 4.1041e+02   996.4917 0.0000e+00
      0.001    27.1395     5.7346     72.107  36.862506     35.353      6.764   222.4751     2.6822     2.3995     0.0243      0.002      0.000      0.001         76 3.6341e+02   996.4926 0.0000e+00
      0.000    27.1352     5.7041     71.722  36.807687     35.275      6.766   222.8158     2.6479     2.3995     0.0243      0.003      0.001      0.001         77 3.4091e+02   996.4936 0.0000e+00
      0.002    27.1315     5.6784     71.394  36.835297     35.332      6.765   222.2858     2.6670     2.3851     0.0243      0.003      0.002      0.003         78 3.3263e+02   996.4948 0.0000e+00
      0.005    27.1280     5.6557     71.105  36.857784     35.335      6.766   222.7401     2.6517     2.5004     0.0243      0.004      0.005      0.007         79 3.2147e+02   996.4960 0.0000e+00
      0.009    27.1245     5.6275     70.748  36.838977     35.337      6.769   222.7401     2.5258     2.4283     0.0243      0.006      0.008      0.011         80 3.2100e+02   996.4970 0.0000e+00
      0.011    27.1210     5.5956     70.343  36.799434     35.286      6.768   223.0430     2.5144     2.2986     0.0243      0.006      0.010      0.015         81 3.1572e+02   996.4980 0.0000e+00
      0.012    27.1168     5.5690     70.004  36.758820     35.261      6.770   223.0051     2.5296     2.2986     0.0243      0.006      0.011      0.017         82 3.6568e+02   996.4990 0.0000e+00
      0.012    27.1117     5.5350     69.574  36.741348     35.237      6.769   222.9673     2.5182     2.4860     0.0243      0.007      0.012      0.018         83 4.3992e+02   996.4999 0.0000e+00
      0.013    27.1067     5.5070     69.217  36.732276     35.240      6.770   223.6487     2.5525     2.4572     0.0243      0.007      0.012      0.018         84 3.8339e+02   996.5011 0.0000e+00
      0.011    27.1031     5.4748     68.805  36.740478     35.243      6.769   223.3080     2.5449     2.4572     0.0243      0.006      0.011      0.016         85 3.9167e+02   996.5025 0.0000e+00
      0.009    27.1008     5.4427     68.394  36.731144     35.247      6.770   223.6866     2.5296     2.5149     0.0243      0.004      0.010      0.014         86 3.8326e+02   996.5038 0.0000e+00
      0.009    27.0989     5.4158     68.051  36.743895     35.249      6.771   223.6487     2.5563     2.4716     0.0243      0.001      0.010      0.015         87 3.8358e+02   996.5049 0.0000e+00
      0.013    27.0958     5.3966     67.808  36.754247     35.277      6.773   223.3080     2.5945     2.4283     0.0243      0.000      0.013      0.019         88 4.2415e+02   996.5055 0.0000e+00
      0.016    27.0927     5.3872     67.686  36.688629     35.198      6.772   223.4594     2.6212     2.4860     0.0243      0.001      0.016      0.023         89 4.2861e+02   996.5060 0.0000e+00
      0.018    27.0904     5.3760     67.542  36.677384     35.200      6.771   224.0273     2.5830     2.4572     0.0243      0.002      0.018      0.027         90 4.1942e+02   996.5069 0.0000e+00
      0.022    27.0873     5.3618     67.365  36.679337     35.203      6.772   224.1787     2.5907     2.3562     0.0243      0.004      0.023      0.034         91 4.0933e+02   996.5078 0.0000e+00
      0.031    27.0845     5.3447     67.123  36.686197     35.204      6.771   223.2323     2.6746     2.4428     0.0243      0.009      0.030      0.044         92 3.8732e+02   996.5084 0.0000e+00
      0.040    27.0819     5.3270     66.860  36.698483     35.233      6.770   223.2701     2.6708     2.4283     0.0243      0.014      0.037      0.054         93 4.4045e+02   996.5093 0.0000e+00
      0.042    27.0778     5.3118     66.654  36.634415     35.154      6.767   223.3837     2.6860     2.5437     0.0243      0.017      0.040      0.059         94 4.5956e+02   996.5101 0.0000e+00
      0.043    27.0722     5.3012     66.525  36.617757     35.156      6.770   223.5351     2.6593     2.4428     0.0243      0.018      0.041      0.060         95 3.9440e+02   996.5108 0.0000e+00
      0.042    27.0663     5.3170     66.730  36.630313     35.159      6.769   223.7244     2.6555     2.4139     0.0243      0.017      0.041      0.059         96 4.4569e+02   996.5120 0.0000e+00
      0.041    27.0620     5.3410     67.023  36.618792     35.163      6.769   223.8001     2.7471     2.3562     0.0243      0.014      0.041      0.059         97 4.6359e+02   996.5135 0.0000e+00
      0.041    27.0600     5.3812     67.462  36.632096     35.167      6.771   223.5351     2.7280     2.4139     0.0243      0.011      0.042      0.061         98 4.1568e+02   996.5151 0.0000e+00
      0.047    27.0564     5.4301     68.009  36.643394     35.196      6.772   223.5351     2.7394     2.4139     0.0243      0.009      0.047      0.068         99 3.8840e+02   996.5163 0.0000e+00
      0.055    27.0553     5.5166     69.069  36.575101     35.117      6.770   224.1030     2.7242     2.4428     0.0242      0.007      0.052      0.076        100 3.7656e+02   996.5169 0.0000e+00
      0.058    27.0548     5.6469     70.698  36.568914     35.120      6.771   223.7244     2.7318     2.3995     0.0242      0.008      0.056      0.081        101 3.9085e+02   996.5179 0.0000e+00
      0.058    27.0326     5.7971     72.582  36.562191     35.121      6.772   224.1408     2.7127     2.3995     0.0242      0.009      0.056      0.081        102 4.4220e+02   996.5182 0.0000e+00
      0.055    26.9992     5.9617     74.647  36.524200     35.067      6.770   224.1787     2.7471     2.4572     0.0242      0.009      0.054      0.078        103 4.1428e+02   996.5183 0.0000e+00
      0.052    26.9870     6.0760     76.097  36.586561     35.162      6.773   224.1408     2.7394     2.4572     0.0242      0.008      0.053      0.077        104 4.0146e+02   996.5244 0.0000e+00
      0.055    26.9892     6.1558     77.090  36.632766     35.213      6.774   224.2544     2.7890     2.3995     0.0243      0.007      0.058      0.084        105 3.7683e+02   996.5336 0.0000e+00
      0.069    26.9953     6.1922     77.524  36.674153     35.274      6.775   224.1030     2.7852     2.4572     0.0243      0.008      0.071      0.104        106 4.1299e+02   996.5370 0.0000e+00
      0.096    26.9861     6.1902     77.493  36.623966     35.219      6.763   223.9894     2.7852     2.4716     0.0243      0.015      0.090      0.131        107 5.4287e+02   996.5366 0.0000e+00
      0.109    26.9347     6.1712     77.260  36.517417     35.108      6.750   224.1408     2.7814     2.4428     0.0242      0.023      0.102      0.148        108 4.2699e+02   996.5349 0.0000e+00
      0.107    26.8813     6.1411     76.879  36.569675     35.166      6.746   224.2923     2.9111     2.3562     0.0242      0.030      0.105      0.152        109 3.7868e+02   996.5375 0.0000e+00
      0.106    26.8613     6.1042     76.405  36.588574     35.229      6.749   224.5951     2.9187     2.3562     0.0242      0.033      0.105      0.152        110 4.8128e+02   996.5516 0.0000e+00
      0.109    26.8602     6.0621     75.876  36.523553     35.185      6.752   224.9358     2.8997     2.4283     0.0242      0.034      0.107      0.156        111 4.4000e+02   996.5662 0.0000e+00
      0.115    26.8621     6.0180     75.322  36.561710     35.252      6.762   224.8223     2.9416     2.4139     0.0242      0.033      0.112      0.163        112 3.6209e+02   996.5718 0.0000e+00
      0.120    26.8668     5.9664     74.666  36.570734     35.253      6.763   225.1630     2.7738     2.4572     0.0242      0.027      0.117      0.170        113 3.5799e+02   996.5721 0.0000e+00
      0.124    26.8778     5.9143     74.009  36.512327     35.197      6.768   225.0873     2.7967     2.4139     0.0242      0.020      0.120      0.175        114 5.0417e+02   996.5715 0.0000e+00
      0.125    26.8745     5.8566     73.283  36.575129     35.249      6.771   225.4280     2.7852     2.3274     0.0242      0.013      0.120      0.174        115 6.8503e+02   996.5703 0.0000e+00
      0.117    26.8589     5.8004     72.576  36.551844     35.240      6.774   225.6930     2.8005     2.4716     0.0242      0.009      0.116      0.167        116 5.5484e+02   996.5672 0.0000e+00
      0.113    26.8544     5.7412     71.830  36.452398     35.108      6.774   225.6551     2.7814     2.4139     0.0242      0.006      0.112      0.162        117 4.0016e+02   996.5681 0.0000e+00
      0.114    26.8580     5.6853     71.125  36.550718     35.254      6.778   225.5416     2.8272     2.3130     0.0242      0.004      0.112      0.162        118 4.5468e+02   996.5724 0.0000e+00
      0.115    26.8547     5.6382     70.533  36.577663     35.257      6.778   225.8823     2.8462     2.3851     0.0242     -0.000      0.113      0.164        119 4.4907e+02   996.5737 0.0000e+00
      0.117    26.8465     5.5929     69.964  36.507771     35.200      6.779   226.0716     2.8462     2.4428     0.0242     -0.002      0.115      0.167        120 5.5755e+02   996.5727 0.0000e+00
      0.120    26.8445     5.5583     69.531  36.459891     35.149      6.782   226.3744     2.8272     2.4428     0.0242     -0.003      0.117      0.169        121 7.8088e+02   996.5735 0.0000e+00
      0.120    26.8425     5.5270     69.139  36.429809     35.128      6.784   226.2230     2.9340     2.4283     0.0242     -0.002      0.117      0.169        122 6.4886e+02   996.5758 0.0000e+00
      0.118    26.8361     5.5011     68.811  36.426673     35.129      6.784   226.3744     2.9264     2.4428     0.0242     -0.000      0.117      0.169        123 4.9605e+02   996.5763 0.0000e+00
      0.120    26.8318     5.4752     68.483  36.434161     35.130      6.787   226.6773     2.9149     2.3707     0.0242      0.003      0.118      0.171        124 5.6735e+02   996.5768 0.0000e+00
      0.122    26.8291     5.4523     68.194  36.420492     35.135      6.787   226.7530     2.8958     2.3418     0.0242      0.004      0.120      0.174        125 5.8580e+02   996.5786 0.0000e+00
      0.125    26.8255     5.4247     67.845  36.443687     35.137      6.788   226.6773     2.9531     2.1399     0.0242      0.004      0.122      0.177        126 6.2170e+02   996.5799 0.0000e+00
      0.126    26.8213     5.4037     67.580  36.494201     35.220      6.789   227.0180     2.9569     2.1976     0.0242      0.005      0.123      0.179        127 5.9457e+02   996.5806 0.0000e+00
      0.126    26.8174     5.3819     67.306  36.446532     35.142      6.788   226.9801     2.9607     2.1399     0.0242      0.004      0.124      0.179        128 4.9861e+02   996.5815 0.0000e+00
      0.126    26.8147     5.3640     67.083  36.414108     35.144      6.787   227.2451     2.9645     2.1544     0.0242      0.004      0.124      0.179        129 6.1886e+02   996.5827 0.0000e+00
      0.126    26.8135     5.3533     66.948  36.445651     35.147      6.783   227.2830     2.9607     2.4860     0.0242      0.004      0.124      0.179        130 8.5494e+02   996.5838 0.0000e+00
      0.126    26.8137     5.3356     66.724  36.496183     35.230      6.780   227.6237     3.0027     2.3851     0.0242      0.004      0.124      0.180        131 1.2705e+03   996.5845 0.0000e+00
      0.128    26.8130     5.3210     66.539  36.469761     35.177      6.781   227.3587     2.9531     2.4428     0.0242      0.003      0.125      0.182        132 1.5307e+03   996.5849 0.0000e+00
      0.129    26.8102     5.3040     66.322  36.419265     35.150      6.784   227.5101     2.9607     2.4716     0.0242      0.002      0.127      0.184        133 1.2668e+03   996.5848 0.0000e+00
      0.129    26.8071     5.2868     66.104  36.381219     35.096      6.782   227.8130     2.9454     2.3995     0.0242      0.002      0.127      0.184        134 1.5005e+03   996.5850 0.0000e+00
      0.129    26.8041     5.2650     65.828  36.368938     35.098      6.786   227.9266     2.9950     2.3418     0.0242      0.002      0.127      0.184        135 1.8416e+03   996.5857 0.0000e+00
      0.129    26.8012     5.2417     65.534  36.375280     35.100      6.786   227.9644     2.9836     2.4860     0.0242      0.002      0.126      0.183        136 1.1642e+03   996.5866 0.0000e+00
      0.128    26.7994     5.2249     65.321  36.373327     35.102      6.785   228.0780     2.9645     2.3562     0.0242      0.002      0.126      0.183        137 9.7667e+02   996.5874 0.0000e+00
      0.128    26.7985     5.2003     65.012  36.401005     35.131      6.787   228.2294     2.9836     2.4572     0.0242      0.001      0.126      0.183        138 1.7990e+03   996.5882 0.0000e+00
      0.128    26.7983     5.1880     64.855  36.370470     35.105      6.788   228.4187     3.0332     2.3851     0.0242      0.001      0.126      0.183        139 1.5859e+03   996.5887 0.0000e+00
      0.129    26.7976     5.1691     64.617  36.381693     35.106      6.790   228.7216     3.0675     2.4860     0.0242      0.000      0.127      0.184        140 1.1148e+03   996.5889 0.0000e+00
      0.131    26.7956     5.1483     64.353  36.416674     35.160      6.793   228.6837     3.0370     2.3562     0.0242      0.000      0.129      0.186        141 1.6510e+03   996.5890 0.0000e+00
      0.131    26.7931     5.1305     64.128  36.386207     35.107      6.790   228.7973     3.0255     2.4139     0.0242      0.001      0.129      0.186        142 1.3665e+03   996.5893 0.0000e+00
      0.130    26.7907     5.1111     63.885  36.389975     35.135      6.787   228.8351     2.5373     2.6302     0.0242      0.001      0.128      0.185        143 1.1488e+03   996.5898 0.0000e+00
      0.130    26.7876     5.0966     63.703  36.382352     35.110      6.787   228.9109     2.5220     2.6446     0.0242      0.001      0.127      0.185        144 1.2368e+03   996.5904 0.0000e+00
      0.130    26.7847     5.0911     63.632  36.366062     35.111      6.785   229.0623     2.5373     2.6014     0.0242      0.001      0.127      0.185        145 1.3512e+03   996.5911 0.0000e+00
      0.130    26.7825     5.0750     63.430  36.380614     35.113      6.782   229.2137     2.5411     2.6014     0.0242      0.001      0.127      0.185        146 1.8413e+03   996.5919 0.0000e+00
      0.129    26.7804     5.0579     63.213  36.364242     35.115      6.783   229.4030     2.3694     2.3851     0.0242      0.000      0.127      0.184        147 1.1180e+03   996.5927 0.0000e+00
      0.129    26.7783     5.0382     62.965  36.386438     35.117      6.783   229.3651     2.3618     2.4428     0.0242     -0.001      0.127      0.184        148 1.1104e+03   996.5933 0.0000e+00
      0.130    26.7761     5.0230     62.772  36.382628     35.145      6.784   229.6301     2.3427     2.4428     0.0242     -0.001      0.127      0.184        149 1.5259e+03   996.5939 0.0000e+00
      0.130    26.7736     4.9999     62.481  36.339351     35.066      6.786   229.6301     2.3618     2.5581     0.0241     -0.000      0.127      0.184        150 1.3279e+03   996.5945 0.0000e+00
      0.128    26.7710     4.9833     62.271  36.351395     35.121      6.783   229.9330     2.4266     2.3562     0.0242     -0.001      0.126      0.182        151 1.2821e+03   996.5951 0.0000e+00
      0.126    26.7689     4.9702     62.105  36.338007     35.069      6.783   229.9709     2.4190     2.4716     0.0241     -0.001      0.124      0.180        152 1.5815e+03   996.5957 0.0000e+00
      0.126    26.7682     4.9516     61.871  36.356012     35.125      6.785   229.7437     2.4114     2.4716     0.0242     -0.002      0.124      0.180        153 1.5913e+03   996.5964 0.0000e+00
      0.128    26.7675     4.9375     61.694  36.388257     35.126      6.786   230.0466     2.4266     2.4860     0.0242     -0.002      0.125      0.182        154 1.0193e+03   996.5969 0.0000e+00
      0.129    26.7661     4.9237     61.517  36.386782     35.154      6.786   230.0844     2.1748     2.6158     0.0242     -0.001      0.126      0.183        155 1.2354e+03   996.5972 0.0000e+00
      0.129    26.7645     4.9061     61.296  36.328213     35.073      6.788   230.0087     2.1672     2.4283     0.0241     -0.001      0.126      0.183        156 1.4196e+03   996.5974 0.0000e+00
      0.129    26.7627     4.8917     61.114  36.312974     35.074      6.788   230.4630     2.1748     2.5293     0.0241     -0.000      0.127      0.184        157 1.2559e+03   996.5978 0.0000e+00
      0.130    26.7604     4.8795     60.959  36.316846     35.075      6.790   230.5387     2.1748     2.5725     0.0241      0.001      0.127      0.185        158 1.1997e+03   996.5982 0.0000e+00
      0.130    26.7579     4.8653     60.781  36.323395     35.076      6.789   230.6144     2.1443     2.4716     0.0241      0.002      0.127      0.185        159 9.7754e+02   996.5987 0.0000e+00
      0.129    26.7554     4.8543     60.643  36.393726     35.159      6.788   230.7280     2.2511     2.3995     0.0242      0.002      0.127      0.185        160 9.7013e+02   996.5993 0.0000e+00
      0.130    26.7535     4.8369     60.426  36.377493     35.134      6.789   230.7280     2.2397     2.4139     0.0242      0.002      0.128      0.185        161 1.4042e+03   996.6000 0.0000e+00
      0.130    26.7519     4.8217     60.236  36.313965     35.081      6.791   230.8037     2.2397     2.3851     0.0241      0.001      0.128      0.185        162 1.6085e+03   996.6007 0.0000e+00
      0.130    26.7501     4.8081     60.063  36.324616     35.083      6.791   231.2580     2.2473     2.3851     0.0241      0.001      0.128      0.185        163 1.7184e+03   996.6012 0.0000e+00
      0.130    26.7483     4.7929     59.872  36.364238     35.138      6.791   231.0309     2.1901     2.3707     0.0242      0.000      0.128      0.185        164 1.4991e+03   996.6017 0.0000e+00
      0.130    26.7462     4.7785     59.690  36.383194     35.139      6.792   231.1823     2.1558     2.4283     0.0242      0.000      0.128      0.185        165 1.2553e+03   996.6022 0.0000e+00
      0.129    26.7443     4.7681     59.562  36.389929     35.167      6.793   231.2580     2.1672     2.3130     0.0242     -0.000      0.128      0.185        166 1.0480e+03   996.6027 0.0000e+00
      0.130    26.7422     4.7630     59.503  36.326222     35.088      6.792   231.4851     2.1787     2.4283     0.0241     -0.000      0.128      0.185        167 1.1920e+03   996.6033 0.0000e+00
      0.131    26.7405     4.7653     59.535  36.314307     35.089      6.793   231.5609     2.1024     2.4139     0.0241      0.000      0.129      0.187        168 1.9899e+03   996.6037 0.0000e+00
      0.134    26.7393     4.7683     59.574  36.315856     35.090      6.795   231.6744     2.1138     2.2986     0.0241      0.001      0.132      0.191        169 1.6937e+03   996.6043 0.0000e+00
      0.137    26.7388     4.7698     59.595  36.324295     35.091      6.796   231.7501     2.1214     2.4572     0.0241      0.003      0.134      0.194        170 8.2567e+02   996.6048 0.0000e+00
      0.138    26.7396     4.7963     59.993  36.333440     35.119      6.791   231.5230     2.0947     2.5004     0.0242      0.004      0.135      0.196        171 9.3869e+02   996.6052 0.0000e+00
      0.138    26.7389     5.0876     63.823  36.274842     35.039      6.798   231.9016     2.0451     2.5149     0.0241      0.005      0.136      0.197        172 1.3398e+03   996.6053 0.0000e+00
      0.139    26.7364     5.7829     72.699  36.308318     35.092      6.800   231.8259     2.0604     2.4428     0.0241      0.006      0.137      0.198        173 9.6604e+02   996.6051 0.0000e+00
      0.140    26.7344     6.6359     83.523  36.321414     35.093      6.800   232.0909     2.0871     2.4860     0.0241      0.006      0.137      0.199        174 1.1865e+03   996.6053 0.0000e+00
      0.140    26.7337     7.4645     94.014  36.317813     35.094      6.803   232.2423     2.0490     2.3995     0.0241      0.005      0.137      0.199        175 1.8246e+03   996.6059 0.0000e+00
      0.139    26.7347     8.2176    103.536  36.312799     35.096      6.805   232.4316     2.0642     2.4572     0.0241      0.004      0.137      0.199        176 1.5011e+03   996.6065 0.0000e+00
      0.141    26.7385     8.7620    110.415  36.357288     35.123      6.805   231.8259     2.0680     2.4860     0.0242      0.003      0.139      0.202        177 1.1803e+03   996.6067 0.0000e+00
      0.147    26.7415     9.1252    115.004  36.351351     35.149      6.804   232.0530     2.0375     2.6014     0.0242      0.003      0.144      0.209        178 1.3002e+03   996.6064 0.0000e+00
      0.151    26.7443     9.3074    117.310  36.290554     35.039      6.792   232.4694     2.0680     2.4428     0.0241      0.005      0.148      0.214        179 1.3038e+03   996.6054 0.0000e+00
      0.153    26.7451     9.2948    117.154  36.284776     35.091      6.786   232.2801     2.0451     2.4139     0.0241      0.007      0.150      0.217        180 1.0544e+03   996.6046 0.0000e+00
      0.154    26.8127     9.1640    115.507  36.299271     35.035      6.785   232.4694     2.1024     2.5293     0.0241      0.008      0.151      0.219        181 1.0344e+03   996.6038 0.0000e+00
      0.155    26.9675     9.0044    113.497  36.835568     35.601      6.787   232.8480     2.1176     2.5004     0.0243      0.009      0.151      0.219        182 1.6550e+03   996.6038 0.0000e+00
      0.154    27.0901     8.8578    111.651  37.365802     36.070      6.789   232.5073     2.1024     2.3851     0.0246      0.009      0.150      0.218        183 1.3155e+03   996.5854 0.0000e+00
      0.151    27.1552     8.7300    110.041  37.328558     35.903      6.793   232.5830     2.1100     2.4428     0.0245      0.007      0.150      0.216        184 1.4169e+03   996.5430 0.0000e+00
      0.151    27.1936     8.6435    108.949  37.326380     35.821      6.796   232.6209     2.1901     2.6302     0.0245      0.004      0.150      0.216        185 2.1780e+03   996.5092 0.0000e+00
      0.154    27.2122     8.5755    108.093  37.368454     35.829      6.799   233.0752     2.1977     2.5870     0.0245      0.002      0.151      0.219        186 1.6892e+03   996.4913 0.0000e+00
      0.156    27.2232     8.5305    107.527  37.394702     35.803      6.803   233.1130     2.1787     2.6014     0.0245      0.001      0.152      0.220        187 1.4055e+03   996.4807 0.0000e+00
      0.155    27.2291     8.4831    106.929  37.382600     35.817      6.806   233.4159     2.1863     2.6014     0.0246      0.000      0.151      0.219        188 1.3528e+03   996.4755 0.0000e+00
      0.153    27.2333     8.4470    106.476  37.353870     35.730      6.805   233.3023     2.2206     2.4428     0.0245      0.000      0.150      0.218        189 1.8171e+03   996.4724 0.0000e+00
      0.153    27.2347     8.4158    106.083  37.430451     35.859      6.806   233.1887     2.2511     2.3562     0.0246      0.000      0.150      0.218        190 2.4055e+03   996.4708 0.0000e+00
      0.154    27.2355     8.3981    105.860  37.405835     35.776      6.803   233.2644     2.2588     2.4860     0.0245      0.001      0.151      0.218        191 1.7310e+03   996.4697 0.0000e+00
      0.154    27.2365     8.3940    105.809  37.354866     35.775      6.798   233.4159     2.2511     2.5149     0.0245      0.001      0.151      0.219        192 1.5514e+03   996.4693 0.0000e+00
      0.155    27.2371     8.3962    105.836  37.404972     35.775      6.799   233.5294     2.2969     2.4283     0.0245      0.000      0.152      0.220        193 2.0688e+03   996.4691 0.0000e+00
      0.156    27.2372     8.3942    105.809  37.432385     35.854      6.803   233.5294     2.2969     2.4572     0.0246      0.000      0.153      0.221        194 1.4335e+03   996.4688 0.0000e+00
      0.156    27.2370     8.3961    105.830  37.350386     35.720      6.803   233.6052     2.2817     2.3562     0.0245      0.001      0.153      0.221        195 1.0179e+03   996.4686 0.0000e+00
      0.155    27.2373     8.4027    105.913  37.358840     35.773      6.803   233.9459     2.3160     2.5149     0.0245      0.001      0.152      0.220        196 1.3707e+03   996.4686 0.0000e+00
      0.155    27.2382     8.4064    105.959  37.332959     35.720      6.808   233.6809     2.3046     2.5581     0.0245      0.001      0.152      0.220        197 1.1448e+03   996.4686 0.0000e+00
      0.156    27.2384     8.4025    105.911  37.323323     35.720      6.807   233.9459     2.2893     2.5004     0.0245      0.001      0.153      0.221        198 1.4162e+03   996.4685 0.0000e+00
      0.157    27.2387     8.3908    105.767  37.400466     35.799      6.813   234.2109     2.2626     2.5870     0.0246      0.001      0.154      0.223        199 2.3356e+03   996.4683 0.0000e+00
      0.157    27.2393     8.3797    105.627  37.385135     35.773      6.812   234.4002     2.2931     2.6302     0.0245      0.001      0.154      0.223        200 1.2451e+03   996.4682 0.0000e+00
      0.156    27.2395     8.3618    105.403  37.372038     35.772      6.815   234.6273     2.2473     2.4860     0.0245      0.001      0.154      0.223        201 9.2582e+02   996.4682 0.0000e+00
      0.157    27.2394     8.3582    105.356  37.387129     35.772      6.812   234.4380     2.2397     2.3274     0.0245      0.001      0.155      0.224        202 1.5271e+03   996.4680 0.0000e+00
      0.160    27.2390     8.3618    105.401  37.366356     35.772      6.814   234.7787     2.2550     2.4139     0.0245      0.002      0.157      0.227        203 2.1526e+03   996.4680 0.0000e+00
      0.162    27.2381     8.3786    105.611  37.397889     35.772      6.816   234.7787     2.2550     2.3995     0.0245      0.003      0.158      0.229        204 2.5819e+03   996.4680 0.0000e+00
      0.161    27.2369     8.4015    105.899  37.436791     35.852      6.813   234.8166     2.2092     2.3562     0.0246      0.003      0.158      0.229        205 1.5641e+03   996.4681 0.0000e+00
      0.161    27.2362     8.4210    106.144  37.406850     35.773      6.817   234.6273     2.3694     2.4139     0.0245      0.003      0.158      0.229        206 1.4756e+03   996.4684 0.0000e+00
      0.162    27.2362     8.4358    106.330  37.435152     35.854      6.819   234.9302     2.3770     2.3562     0.0246      0.003      0.159      0.230        207 1.5402e+03   996.4687 0.0000e+00
      0.162    27.2371     8.4505    106.515  37.342299     35.721      6.821   235.3844     2.3427     2.3418     0.0245      0.003      0.159      0.230        208 1.4776e+03   996.4689 0.0000e+00
      0.161    27.2385     8.4559    106.582  37.374226     35.774      6.819   235.0816     2.3770     2.3995     0.0245      0.002      0.158      0.229        209 1.1958e+03   996.4689 0.0000e+00
      0.161    27.2389     8.4505    106.515  37.454691     35.854      6.821   234.9302     2.2855     2.4572     0.0246      0.002      0.158      0.229        210 1.4215e+03   996.4686 0.0000e+00
      0.161    27.2390     8.4331    106.295  37.390339     35.772      6.822   235.4980     2.3198     2.4428     0.0245      0.000      0.158      0.228        211 1.9003e+03   996.4683 0.0000e+00
      0.160    27.2388     8.4101    106.005  37.365404     35.772      6.822   235.4602     2.2855     2.3995     0.0245     -0.001      0.157      0.227        212 1.2483e+03   996.4681 0.0000e+00
      0.159    27.2383     8.3950    105.815  37.396816     35.772      6.823   235.4223     2.2893     2.3851     0.0245     -0.001      0.157      0.227        213 1.0408e+03   996.4681 0.0000e+00
      0.159    27.2377     8.3820    105.651  37.440154     35.852      6.822   235.2330     2.1253     2.5149     0.0246     -0.001      0.157      0.227        214 1.1723e+03   996.4682 0.0000e+00
      0.161    27.2369     8.3775    105.596  37.341107     35.719      6.823   235.4602     2.1405     2.4716     0.0245     -0.001      0.158      0.228        215 1.2425e+03   996.4683 0.0000e+00
      0.162    27.2368     8.3743    105.557  37.371901     35.773      6.824   235.7630     2.1253     2.3995     0.0245     -0.000      0.159      0.230        216 1.5873e+03   996.4685 0.0000e+00
      0.162    27.2365     8.3866    105.713  37.461102     35.854      6.825   235.9144     2.1214     2.3274     0.0246      0.000      0.159      0.230        217 1.4349e+03   996.4687 0.0000e+00
      0.161    27.2360     8.3955    105.823  37.378275     35.774      6.824   235.8009     2.3427     2.4139     0.0245      0.001      0.158      0.229        218 1.2448e+03   996.4688 0.0000e+00
      0.160    27.2361     8.4014    105.895  37.326799     35.720      6.827   235.9523     2.3618     2.4428     0.0245      0.001      0.157      0.227        219 1.2699e+03   996.4688 0.0000e+00
      0.159    27.2360     8.4050    105.938  37.376985     35.774      6.825   235.9144     2.3847     2.4572     0.0245      0.000      0.155      0.226        220 1.2710e+03   996.4689 0.0000e+00
      0.158    27.2360     8.3998    105.878  37.404728     35.801      6.825   235.8766     2.3732     2.3851     0.0246     -0.001      0.155      0.225        221 1.2754e+03   996.4689 0.0000e+00
      0.158    27.2357     8.4043    105.943  37.381181     35.774      6.824   235.8009     2.2817     2.3851     0.0245     -0.002      0.155      0.225        222 1.2701e+03   996.4689 0.0000e+00
      0.159    27.2358     8.4102    106.024  37.376652     35.774      6.825   236.0280     2.2969     2.4572     0.0245     -0.002      0.156      0.226        223 1.1297e+03   996.4689 0.0000e+00
      0.161    27.2364     8.4138    106.068  37.380727     35.774      6.825   235.8009     2.3198     2.4860     0.0245     -0.002      0.157      0.228        224 1.0702e+03   996.4690 0.0000e+00
      0.162    27.2367     8.4110    106.033  37.376109     35.774      6.827   235.8009     2.3046     2.3707     0.0245     -0.000      0.158      0.229        225 1.5138e+03   996.4690 0.0000e+00
      0.161    27.2372     8.4142    106.081  37.382399     35.774      6.828   236.4066     2.2817     2.4139     0.0245      0.001      0.157      0.228        226 1.5394e+03   996.4688 0.0000e+00
      0.160    27.2377     8.4177    106.135  37.402536     35.800      6.827   236.1037     2.1176     2.3995     0.0246      0.001      0.157      0.227        227 1.0400e+03   996.4687 0.0000e+00
      0.159    27.2372     8.4272    106.260  37.380686     35.773      6.827   236.1794     2.1062     2.3995     0.0245      0.001      0.157      0.227        228 1.1492e+03   996.4686 0.0000e+00
      0.161    27.2356     8.4311    106.313  37.468862     35.853      6.829   236.2930     2.1291     2.4716     0.0246      0.001      0.158      0.228        229 1.2001e+03   996.4684 0.0000e+00
      0.163    27.2347     8.4271    106.267  37.440981     35.854      6.831   236.6337     2.1253     2.3562     0.0246      0.002      0.155      0.224        230 1.2119e+03   996.4686 0.0000e+00
      0.150    27.2370     8.4178    106.154  37.356112     35.721      6.828   236.2930     2.1672     2.5437     0.0245     -0.002      0.135      0.196        231 1.4733e+03   996.4691 0.0000e+00
      0.100    27.2420     8.4057    106.004  37.426300     35.855      6.823   236.1794     2.1520     2.5437     0.0246     -0.018      0.086      0.126        232 1.3227e+03   996.4690 0.0000e+00
      0.016    27.2452     8.3966    105.891  37.412904     35.773      6.813   236.2173     2.1596     2.6735     0.0245     -0.051      0.010      0.015        233 1.6536e+03   996.4680 0.0000e+00
     -0.084    27.2444     8.3803    105.686  37.432054     35.850      6.809   235.8766     2.1825     2.5870     0.0246     -0.101     -0.080     -0.116        234 1.8036e+03   996.4661 0.0000e+00
     -0.177    27.2444     8.3639    105.478  37.402465     35.768      6.814   236.1416     2.0451     2.4428     0.0245     -0.159     -0.163     -0.236        235 1.6824e+03   996.4648 0.0000e+00
     -0.235    27.2486     8.3467    105.253  37.360816     35.768      6.820   236.0659     2.0680     2.4283     0.0245     -0.211     -0.225     -0.326        236 1.6898e+03   996.4649 0.0000e+00
     -0.275    27.2535     8.3198    104.903  37.394977     35.768      6.821   235.9902     2.0719     2.5149     0.0245     -0.247     -0.271     -0.393        237 1.3253e+03   996.4647 0.0000e+00
     -0.321    27.2564     8.3001    104.639  37.389587     35.792      6.818   235.3466     2.0604     2.3851     0.0246     -0.267     -0.311     -0.450        238 9.9923e+02   996.4634 0.0000e+00
     -0.356    27.2586     8.2866    104.458  37.397157     35.762      6.821   235.4602     1.9231     1.7073     0.0245     -0.263     -0.336     -0.488        239 1.2173e+03   996.4619 0.0000e+00
     -0.350    27.2610     8.2771    104.331  37.444825     35.840      6.824   236.0280     1.9116     1.6785     0.0246     -0.228     -0.337     -0.489        240 1.6370e+03   996.4610 0.0000e+00
     -0.328    27.2633     8.2663    104.185  37.478443     35.839      6.825   236.2930     1.9345     1.8371     0.0246     -0.171     -0.319     -0.462        241 1.7441e+03   996.4605 0.0000e+00
     -0.296    27.2647     8.2599    104.093  37.503497     35.891      6.825   236.3687     1.9460     1.8371     0.0246     -0.105     -0.291     -0.421        242 1.7751e+03   996.4600 0.0000e+00
     -0.265    27.2655     8.2358    103.775  37.472914     35.836      6.828   236.8987     0.7100    39.7611     0.0246     -0.044     -0.258     -0.374        243 1.7620e+03   996.4596 0.0000e+00
     -0.225    27.2661     8.1859    103.133  37.457231     35.835      6.826   236.6716     0.7367    39.6602     0.0246      0.010     -0.220     -0.319        244 1.7618e+03   996.4593 0.0000e+00
     -0.182    27.2649     8.1430    102.575  37.463744     35.834      6.829   236.6337     0.6947    39.7179     0.0246      0.059     -0.180     -0.260        245 1.7951e+03   996.4592 0.0000e+00
     -0.143    27.2610     8.1233    102.303  37.375903     35.754      6.831   236.7852     0.6947    39.5304     0.0245      0.101     -0.142     -0.205        246 1.7980e+03   996.4592 0.0000e+00
     -0.108    27.2550     8.1171    102.210  37.388735     35.754      6.832   236.9366     0.7024    39.6169     0.0245      0.129     -0.106     -0.152        247 1.7696e+03   996.4597 0.0000e+00
     -0.072    27.2470     8.1298    102.366  37.447775     35.837      6.835   237.0123     2.1558     2.4139     0.0246      0.141     -0.066     -0.096        248 1.7629e+03   996.4610 0.0000e+00
     -0.022    27.2412     8.1479    102.592  37.391336     35.761      6.837   237.3909     2.2054     2.4139     0.0245      0.150     -0.020     -0.028        249 1.4410e+03   996.4629 0.0000e+00
      0.033    27.2374     8.1760    102.941  37.370070     35.767      6.835   237.2773     2.1787     2.3851     0.0245      0.159      0.033      0.049        250 7.3393e+02   996.4653 0.0000e+00
      0.088    27.2321     8.1951    103.178  37.385339     35.771      6.835   237.2773     2.1863     2.2986     0.0245      0.168      0.094      0.138        251 7.1809e+02   996.4672 0.0000e+00
      0.170    27.2256     8.2179    103.467  37.372336     35.773      6.832   237.5423     1.9956     2.6014     0.0245      0.185      0.171      0.249        252 1.0785e+03   996.4686 0.0000e+00
      0.268    27.2180     8.2280    103.594  37.386256     35.777      6.831   237.8830     2.0108     2.6014     0.0245      0.211      0.256      0.372        253 1.1049e+03   996.4705 0.0000e+00
      0.346    27.2107     8.2401    103.744  37.368021     35.781      6.838   238.3752     2.0108     2.5725     0.0245      0.240      0.328      0.477        254 1.2571e+03   996.4726 0.0000e+00
      0.391    27.2012     8.2411    103.748  37.335761     35.733      6.841   238.6402     1.9917     2.5437     0.0245      0.259      0.377      0.547        255 8.9503e+02   996.4749 0.0000e+00
      0.418    27.1887     8.2361    103.671  37.307864     35.738      6.846   238.7159     2.2550     2.4428     0.0245      0.262      0.409      0.593        256 6.5581e+02   996.4771 0.0000e+00
      0.445    27.1805     8.2450    103.751  37.284200     35.691      6.850   238.9052     2.2511     2.3707     0.0245      0.249      0.431      0.626        257 9.7537e+02   996.4798 0.0000e+00
      0.456    27.1781     8.2435    103.702  37.305945     35.753      6.852   239.0945     2.2550     2.4572     0.0245      0.221      0.445      0.646        258 9.9207e+02   996.4833 0.0000e+00
      0.460    27.1768     8.2329    103.539  37.340081     35.759      6.857   239.4352     2.2321     2.3995     0.0245      0.181      0.454      0.658        259 8.3039e+02   996.4856 0.0000e+00
      0.473    27.1742     8.2351    103.524  37.360265     35.814      6.862   239.4730     2.5334     2.3562     0.0245      0.135      0.467      0.676        260 8.8851e+02   996.4864 0.0000e+00
      0.494    27.1727     8.2369    103.503  37.280829     35.708      6.859   240.1923     2.5220     2.3851     0.0245      0.096      0.487      0.706        261 8.9852e+02   996.4867 0.0000e+00
      0.523    27.1735     8.2443    103.560  37.261126     35.710      6.859   240.6845     2.5411     2.4572     0.0245      0.075      0.512      0.742        262 8.4226e+02   996.4876 0.0000e+00
      0.548    27.1736     8.2441    103.534  37.325515     35.764      6.857   240.6845     2.5525     2.4139     0.0245      0.069      0.535      0.776        263 1.0997e+03   996.4882 0.0000e+00
      0.565    27.1718     8.2497    103.592  37.319242     35.763      6.857   240.7223     2.2359     2.3851     0.0245      0.070      0.555      0.806        264 7.7664e+02   996.4880 0.0000e+00
      0.587    27.1680     8.2348    103.398  37.328204     35.763      6.859   240.6845     2.2397     2.4139     0.0245      0.073      0.577      0.837        265 7.5483e+02   996.4881 0.0000e+00
      0.615    27.1594     8.2208    103.216  37.314361     35.765      6.861   240.8737     2.2321     2.4428     0.0245      0.082      0.602      0.872        266 1.0102e+03   996.4886 0.0000e+00
      0.638    27.1431     8.2203    103.205  37.277200     35.714      6.864   241.0252     2.2435     2.4572     0.0245      0.089      0.624      0.905        267 7.7979e+02   996.4898 0.0000e+00
      0.657    27.1265     8.2230    103.248  37.255912     35.719      6.865   241.1766     2.2664     2.4860     0.0245      0.091      0.644      0.933        268 8.5038e+02   996.4923 0.0000e+00
      0.674    27.1100     8.2291    103.336  37.222318     35.677      6.869   241.1766     2.2817     2.4139     0.0245      0.088      0.663      0.962        269 8.1154e+02   996.4969 0.0000e+00
      0.700    27.0873     8.2421    103.501  37.259743     35.742      6.871   241.7445     2.3160     2.3851     0.0245      0.086      0.687      0.997        270 6.4890e+02   996.5016 0.0000e+00
      0.729    27.0638     8.2490    103.580  37.209344     35.700      6.874   241.5173     2.2931     2.4139     0.0245      0.088      0.713      1.035        271 5.8788e+02   996.5062 0.0000e+00
      0.753    27.0447     8.2631    103.749  37.107238     35.608      6.876   241.6309     2.3274     2.3995     0.0244      0.091      0.737      1.069        272 6.4670e+02   996.5126 0.0000e+00
      0.773    27.0317     8.2788    103.938  37.149742     35.678      6.874   241.8202     2.6097     2.4572     0.0245      0.091      0.756      1.097        273 6.6051e+02   996.5192 0.0000e+00
      0.788    27.0250     8.2913    104.087  37.156459     35.691      6.876   241.9716     2.6135     2.3995     0.0245      0.088      0.773      1.121        274 5.9506e+02   996.5244 0.0000e+00
      0.805    27.0213     8.2820    103.968  37.158159     35.700      6.874   242.1230     2.6212     2.4428     0.0245      0.086      0.790      1.146        275 5.5135e+02   996.5281 0.0000e+00
      0.825    27.0177     8.2722    103.840  37.147634     35.705      6.876   242.3123     2.6326     2.4283     0.0245      0.084      0.809      1.173        276 5.0286e+02   996.5301 0.0000e+00
      0.845    27.0159     8.2645    103.735  37.110290     35.654      6.873   242.5016     2.8386     2.4572     0.0244      0.081      0.829      1.203        277 6.5443e+02   996.5312 0.0000e+00
      0.865    27.0203     8.2677    103.765  37.145364     35.710      6.873   242.0852     2.8501     2.3562     0.0245      0.077      0.850      1.233        278 5.9844e+02   996.5323 0.0000e+00
      0.889    27.0265     8.2531    103.572  37.163258     35.711      6.875   242.6530     2.8577     2.4139     0.0245      0.076      0.874      1.267        279 5.1287e+02   996.5329 0.0000e+00
      0.918    27.0273     8.2345    103.329  37.206563     35.762      6.874   242.7666     2.8577     2.4860     0.0245      0.079      0.899      1.303        280 6.0324e+02   996.5318 0.0000e+00
      0.940    27.0236     8.2188    103.120  37.210012     35.757      6.875   242.8802     2.8043     2.4860     0.0245      0.083      0.922      1.336        281 4.9910e+02   996.5302 0.0000e+00
      0.961    27.0191     8.2100    102.988  37.158964     35.703      6.879   242.9559     2.7852     2.5149     0.0245      0.087      0.943      1.367        282 4.4536e+02   996.5300 0.0000e+00
      0.983    27.0144     8.2157    103.024  37.151549     35.706      6.879   243.1073     2.8005     2.3851     0.0245      0.089      0.965      1.400        283 4.3178e+02   996.5312 0.0000e+00
      1.009    27.0107     8.2301    103.156  37.159972     35.709      6.879   243.1830     2.8119     2.3851     0.0245      0.091      0.989      1.435        284 4.6993e+02   996.5325 0.0000e+00
      1.033    27.0090     8.2384    103.223  37.148486     35.712      6.881   243.2966     2.9035     2.3851     0.0245      0.092      1.011      1.467        285 4.8786e+02   996.5339 0.0000e+00
      1.051    27.0068     8.2396    103.240  37.165846     35.714      6.884   243.2588     2.8958     2.4139     0.0245      0.091      1.031      1.495        286 4.1039e+02   996.5350 0.0000e+00
      1.070    27.0024     8.2483    103.350  37.197640     35.769      6.885   243.1830     2.9111     2.4572     0.0245      0.088      1.051      1.523        287 4.5292e+02   996.5356 0.0000e+00
      1.094    26.9970     8.2687    103.544  37.108919     35.663      6.888   243.3345     2.9035     2.3851     0.0244      0.086      1.073      1.555        288 4.9619e+02   996.5363 0.0000e+00
      1.117    26.9915     8.2929    103.725  37.098447     35.666      6.885   243.7888     3.0828     2.6302     0.0244      0.086      1.095      1.588        289 4.2292e+02   996.5376 0.0000e+00
      1.138    26.9861     8.3070    103.805  37.151405     35.724      6.883   243.8645     3.1095     2.5581     0.0245      0.086      1.116      1.619        290 3.7936e+02   996.5392 0.0000e+00
      1.160    26.9796     8.3197    103.876  37.102287     35.674      6.880   243.9402     3.1095     2.5725     0.0244      0.085      1.140      1.653        291 3.5931e+02   996.5408 0.0000e+00
      1.189    26.9678     8.3739    104.416  37.100304     35.678      6.877   244.3188     3.0942     2.6590     0.0244      0.086      1.166      1.690        292 3.5420e+02   996.5424 0.0000e+00
      1.216    26.9488     8.5043    105.809  37.153877     35.736      6.874   244.8866     3.1056     2.5293     0.0245      0.089      1.191      1.727        293 3.5129e+02   996.5443 0.0000e+00
      1.238    26.9227     8.6728    107.680  37.094892     35.690      6.871   244.6595     3.1438     2.6014     0.0244      0.093      1.215      1.761        294 3.4718e+02   996.5477 0.0000e+00
      1.262    26.9032     8.8747    109.986  36.995904     35.596      6.872   244.9245     3.1743     2.5725     0.0244      0.095      1.238      1.795        295 3.6053e+02   996.5530 0.0000e+00
      1.285    26.9035     9.1666    113.305  37.039995     35.667      6.869   245.0002     3.1705     2.5725     0.0244      0.095      1.258      1.825        296 3.2717e+02   996.5603 0.0000e+00
      1.301    26.9042     9.5660    117.803  37.099305     35.735      6.873   244.8866     3.1552     2.5725     0.0244      0.094      1.276      1.851        297 3.3516e+02   996.5657 0.0000e+00
      1.316    26.8698     9.9526    122.080  37.040643     35.680      6.879   244.6595     3.3155     2.6302     0.0244      0.090      1.295      1.878        298 3.4117e+02   996.5656 0.0000e+00
      1.346    26.8071    10.2949    125.863  37.053730     35.680      6.881   245.1138     3.3574     2.5725     0.0244      0.088      1.319      1.914        299 3.2032e+02   996.5656 0.0000e+00
      1.374    26.7532    10.6173    129.432  37.201564     35.864      6.885   244.9623     3.3460     2.5437     0.0245      0.087      1.343      1.949        300 3.2375e+02   996.5752 0.0000e+00
      1.389    26.7073    10.9156    132.692  37.271579     35.963      6.888   245.0002     3.3460     2.5725     0.0245      0.085      1.362      1.975        301 3.3645e+02   996.5923 0.0000e+00
      1.404    26.6328    11.2109    135.907  37.262980     36.000      6.894   245.0380     3.4681     2.4428     0.0245      0.083      1.379      1.999        302 3.2550e+02   996.6071 0.0000e+00
      1.425    26.5134    11.4663    138.680  37.330836     36.086      6.901   244.1673     3.4604     2.4572     0.0245      0.081      1.396      2.025        303 3.1442e+02   996.6198 0.0000e+00
      1.441    26.3971    11.6264    140.353  37.453881     36.272      6.906   244.2430     3.4490     2.5149     0.0246      0.079      1.411      2.047        304 3.2239e+02   996.6402 0.0000e+00
      1.450    26.2951    11.7370    141.447  37.376612     36.277      6.914   243.8645     3.4604     2.4716     0.0246      0.076      1.423      2.064        305 3.2057e+02   996.6726 0.0000e+00
      1.462    26.1495    11.8318    142.326  37.219604     36.196      6.922   243.7509     3.4528     2.4428     0.0245      0.070      1.437      2.085        306 3.0521e+02   996.7039 0.0000e+00
      1.485    25.9450    11.8879    142.729  37.086259     36.158      6.936   243.5238     3.4604     2.3562     0.0245      0.064      1.460      2.118        307 3.0429e+02   996.7316 0.0000e+00
      1.521    25.7297    11.9026    142.655  36.920274     36.070      6.942   243.9780     3.4833     2.5437     0.0244      0.066      1.490      2.162        308 2.9881e+02   996.7707 0.0000e+00
      1.554    25.5479    11.8671    142.199  36.803907     36.133      6.948   244.0159     3.4871     2.4283     0.0244      0.075      1.519      2.204        309 2.9185e+02   996.8252 0.0000e+00
      1.571    25.3909    11.8001    141.574  36.638475     36.094      6.955   242.9559     3.7275     2.6014     0.0243      0.082      1.540      2.235        310 2.9018e+02   996.8822 0.0000e+00
      1.590    25.2360    11.7518    141.094  36.503925     36.113      6.966   238.2995     3.7008     2.6014     0.0243      0.086      1.558      2.260        311 2.7519e+02   996.9300 0.0000e+00
      1.606    25.0872    11.7653    140.900  36.378753     36.087      6.973   237.0123     3.7122     2.5004     0.0242      0.089      1.573      2.281        312 2.8072e+02   996.9710 0.0000e+00
      1.615    24.9601    11.7741    140.518  36.260912     36.087      6.981   237.2773     3.6893     2.5293     0.0242      0.088      1.584      2.297        313 2.7819e+02   997.0112 0.0000e+00
      1.624    24.8591    11.7619    139.990  36.146873     36.083      6.988   237.5044     3.7389     2.6590     0.0241      0.081      1.594      2.312        314 2.6767e+02   997.0495 0.0000e+00
      1.638    24.7652    11.7546    139.597  36.016968     36.035      6.997   237.7316     4.1547     2.7600     0.0241      0.071      1.607      2.331        315 2.6705e+02   997.0822 0.0000e+00
      1.654    24.6678    11.7905    139.778  35.889229     35.996      7.007   238.1859     4.1166     2.7456     0.0240      0.060      1.622      2.353        316 2.6056e+02   997.1080 0.0000e+00
      1.670    24.5623    11.8748    140.558  35.802118     35.951      7.014   237.7316     4.1013     2.7311     0.0240      0.054      1.638      2.377        317 2.5968e+02   997.1319 0.0000e+00
      1.690    24.4719    11.9935    141.710  35.651286     35.910      7.020   238.0345     4.1623     2.7311     0.0239      0.055      1.657      2.404        318 2.5244e+02   997.1567 0.0000e+00
      1.710    24.4574    12.1294    143.074  35.513952     35.788      7.026   238.4887     4.3264     3.7550     0.0239      0.057      1.676      2.430        319 2.4337e+02   997.1834 0.0000e+00
      1.725    24.5274    12.2733    144.563  35.706378     36.111      7.031   238.0723     4.3111     3.6540     0.0240      0.061      1.692      2.454        320 2.4631e+02   997.2063 0.0000e+00
      1.741    24.5571    12.4140    145.993  35.915621     36.288      7.040   237.7316     4.3149     3.7117     0.0240      0.065      1.710      2.479        321 2.4320e+02   997.2101 0.0000e+00
      1.763    24.4287    12.5784    147.698  35.698059     36.069      7.043   238.0723     4.3149     3.7838     0.0240      0.069      1.730      2.509        322 2.3690e+02   997.1925 0.0000e+00
      1.786    24.2415    12.7513    149.498  35.295545     35.563      7.050   238.0723     4.5247     4.3750     0.0238      0.072      1.750      2.539        323 2.3186e+02   997.1850 0.0000e+00
      1.806    24.0954    12.9009    151.018  35.231216     35.661      7.054   238.0723     4.4942     4.4038     0.0238      0.074      1.770      2.566        324 2.2713e+02   997.2174 0.0000e+00
      1.823    23.9777    13.0178    152.222  35.215141     35.739      7.061   237.9209     4.4751     4.3173     0.0238      0.075      1.786      2.591        325 2.2360e+02   997.2642 0.0000e+00
      1.837    23.8846    13.1290    153.294  35.078570     35.732      7.065   237.6559     4.5057     4.3606     0.0237      0.074      1.802      2.613        326 2.2237e+02   997.3005 0.0000e+00
      1.853    23.7999    13.2259    154.141  34.986391     35.703      7.073   237.9587     4.5972     4.1731     0.0237      0.073      1.819      2.638        327 2.1626e+02   997.3298 0.0000e+00
      1.876    23.7058    13.2810    154.538  34.885426     35.686      7.077   238.1102     4.6048     4.1587     0.0236      0.073      1.838      2.665        328 2.0952e+02   997.3527 0.0000e+00
      1.892    23.6159    13.3082    154.634  34.848680     35.690      7.080   238.1102     4.6048     4.2741     0.0236      0.072      1.854      2.689        329 2.1002e+02   997.3736 0.0000e+00
      1.903    23.5389    13.3333    154.709  34.824739     35.759      7.087   238.1859     4.5820     4.1875     0.0236      0.069      1.868      2.709        330 2.0903e+02   997.3966 0.0000e+00
      1.918    23.4566    13.3871    155.101  34.737470     35.711      7.095   238.5645     4.5209     4.1875     0.0236      0.065      1.883      2.731        331 2.0170e+02   997.4185 0.0000e+00
      1.938    23.3752    13.4616    155.703  34.542477     35.594      7.101   238.9052     4.4904     4.2020     0.0235      0.065      1.900      2.756        332 1.9759e+02   997.4373 0.0000e+00
      1.957    23.2922    13.5373    156.319  34.385910     35.453      7.110   239.0187     4.4980     4.2020     0.0234      0.065      1.918      2.782        333 1.9238e+02   997.4572 0.0000e+00
      1.974    23.2128    13.6147    156.972  34.398982     35.571      7.114   238.9809     4.5171     4.2308     0.0234      0.066      1.935      2.807        334 1.8758e+02   997.4769 0.0000e+00
      1.992    23.1527    13.6766    157.440  34.437354     35.631      7.119   238.9430     4.4751     4.2164     0.0235      0.066      1.953      2.833        335 1.8734e+02   997.4969 0.0000e+00
      2.010    23.0752    13.7369    157.911  34.456723     35.750      7.126   238.9052     4.3187     3.9280     0.0235      0.066      1.972      2.859        336 1.8212e+02   997.5160 0.0000e+00
      2.028    22.9788    13.7821    158.276  34.434177     35.734      7.127   239.2837     4.3264     3.8703     0.0235      0.068      1.989      2.884        337 1.8073e+02   997.5304 0.0000e+00
      2.044    22.8950    13.8178    158.577  34.376549     35.764      7.131   239.1323     4.3149     4.0289     0.0234      0.070      2.004      2.907        338 1.7614e+02   997.5489 0.0000e+00
      2.059    22.8198    13.8289    158.633  34.261792     35.691      7.138   239.0566     4.3149     3.8992     0.0234      0.069      2.019      2.928        339 1.7119e+02   997.5719 0.0000e+00
      2.074    22.7461    13.8309    158.520  34.191824     35.694      7.146   238.8673     4.1623     4.1299     0.0234      0.067      2.034      2.950        340 1.6727e+02   997.5917 0.0000e+00
      2.090    22.6676    13.8389    158.352  34.196981     35.751      7.150   238.6023     4.2005     4.1154     0.0234      0.066      2.050      2.974        341 1.5971e+02   997.6095 0.0000e+00
      2.109    22.5799    13.8458    158.224  34.136886     35.747      7.156   238.7159     4.2043     4.2308     0.0233      0.065      2.066      2.998        342 1.5474e+02   997.6269 0.0000e+00
      2.123    22.4932    13.8567    158.012  34.059229     35.718      7.161   238.7916     4.2272     4.1731     0.0233      0.064      2.081      3.018        343 1.4888e+02   997.6453 0.0000e+00
      2.135    22.4126    13.8382    157.526  33.967718     35.696      7.170   238.7537     3.9449     3.9712     0.0233      0.062      2.094      3.037        344 1.4362e+02   997.6658 0.0000e+00
      2.149    22.3317    13.8075    157.025  33.895236     35.673      7.178   239.2080     3.9335     3.8847     0.0232      0.060      2.107      3.056        345 1.3802e+02   997.6860 0.0000e+00
      2.160    22.2583    13.7905    156.702  33.823530     35.675      7.184   239.1323     3.9602     3.9424     0.0232      0.058      2.117      3.071        346 1.3314e+02   997.7047 0.0000e+00
      2.167    22.2070    13.7557    156.414  33.731052     35.618      7.189   239.3216     3.9258     3.8703     0.0232      0.055      2.125      3.082        347 1.2996e+02   997.7233 0.0000e+00
      2.174    22.1709    13.7497    156.379  33.773314     35.733      7.200   238.9809     3.8953     3.7261     0.0232      0.050      2.134      3.094        348 1.2589e+02   997.7403 0.0000e+00
      2.185    22.1483    13.7651    156.401  33.770970     35.771      7.206   239.1323     3.8686     3.5963     0.0232      0.045      2.144      3.109        349 1.2300e+02   997.7522 0.0000e+00
      2.197    22.1005    13.7804    156.387  33.763625     35.769      7.215   239.0187     3.8724     3.7838     0.0232      0.042      2.155      3.125        350 1.2102e+02   997.7604 0.0000e+00
      2.209    22.0211    13.8024    156.343  33.693578     35.757      7.221   239.3216     3.9029     3.7405     0.0232      0.040      2.165      3.140        351 1.2172e+02   997.7656 0.0000e+00
      2.216    21.9471    13.8112    156.109  33.502588     35.524      7.227   238.9809     3.7885     3.7694     0.0231      0.039      2.175      3.155        352 1.2144e+02   997.7765 0.0000e+00
      2.231    21.8411    13.7993    155.634  33.379092     35.529      7.233   239.1323     3.7732     3.5963     0.0230      0.039      2.187      3.173        353 1.2189e+02   997.7945 0.0000e+00
      2.244    21.7513    13.7830    155.024  33.225065     35.343      7.228   239.2080     3.7580     3.6829     0.0229      0.041      2.198      3.189        354 1.2519e+02   997.8114 0.0000e+00
      2.249    21.6974    13.7405    154.098  33.279488     35.545      7.232   238.7159     3.7580     3.8126     0.0230      0.042      2.207      3.201        355 1.2722e+02   997.8354 0.0000e+00
      2.260    21.6608    13.6846    153.098  33.281775     35.584      7.238   239.0187     3.7694     3.6973     0.0230      0.043      2.216      3.214        356 1.2923e+02   997.8556 0.0000e+00
      2.269    21.6905    13.5683    151.610  33.251887     35.592      7.244   238.5266     3.6473     3.6108     0.0230      0.041      2.225      3.227        357 1.2980e+02   997.8677 0.0000e+00
      2.277    21.7021    13.4790    150.449  33.346340     35.744      7.250   238.9052     3.6245     3.4810     0.0230      0.040      2.233      3.238        358 1.3024e+02   997.8760 0.0000e+00
      2.284    21.6535    13.3977    149.290  33.312391     35.657      7.256   238.9052     3.6435     3.4666     0.0230      0.038      2.242      3.251        359 1.2963e+02   997.8693 0.0000e+00
      2.297    21.5897    13.3083    148.057  33.175611     35.529      7.262   239.0566     3.6550     3.5963     0.0230      0.037      2.254      3.269        360 1.2723e+02   997.8668 0.0000e+00
      2.314    21.4940    13.2105    146.778  33.012851     35.358      7.261   239.3973     3.7389     3.5242     0.0229      0.038      2.269      3.291        361 1.2537e+02   997.8776 0.0000e+00
      2.330    21.3846    13.1255    145.622  32.922364     35.345      7.262   239.3973     3.7389     3.4666     0.0228      0.041      2.284      3.312        362 1.2333e+02   997.8920 0.0000e+00
      2.343    21.2707    13.0727    144.836  32.843807     35.299      7.267   239.6623     3.6931     3.5098     0.0228      0.045      2.297      3.332        363 1.2197e+02   997.9133 0.0000e+00
      2.355    21.1318    13.0310    144.261  32.755102     35.322      7.268   240.2302     3.6893     3.4666     0.0228      0.048      2.309      3.349        364 1.2087e+02   997.9375 0.0000e+00
      2.367    20.9821    13.0040    144.023  32.647621     35.257      7.270   240.4573     3.7732     3.2214     0.0227      0.051      2.321      3.366        365 1.1954e+02   997.9627 0.0000e+00
      2.377    20.8605    12.9901    144.006  32.562809     35.304      7.273   240.4195     3.7885     3.2503     0.0227      0.052      2.332      3.382        366 1.1863e+02   997.9930 0.0000e+00
      2.390    20.7950    12.9998    144.229  32.594049     35.418      7.274   241.0630     3.7618     3.2503     0.0227      0.052      2.344      3.400        367 1.1609e+02   998.0257 0.0000e+00
      2.405    20.7394    13.0227    144.533  32.638436     35.606      7.273   241.8959     3.7465     3.2214     0.0227      0.051      2.359      3.422        368 1.1390e+02   998.0520 0.0000e+00
      2.423    20.6546    13.0444    144.851  32.477992     35.441      7.271   242.1230     3.8114     2.7600     0.0226      0.051      2.375      3.445        369 1.1128e+02   998.0662 0.0000e+00
      2.439    20.5740    13.0606    145.109  32.408574     35.423      7.274   242.6152     3.8228     2.7744     0.0226      0.052      2.390      3.467        370 1.0866e+02   998.0781 0.0000e+00
      2.450    20.5066    13.0858    145.410  32.398934     35.490      7.268   242.6530     3.8343     2.7888     0.0226      0.053      2.401      3.483        371 1.0835e+02   998.0963 0.0000e+00
      2.457    20.4345    13.1177    145.645  32.312250     35.430      7.262   244.8866     3.8190     2.8321     0.0226      0.053      2.410      3.495        372 1.0678e+02   998.1135 0.0000e+00
      2.466    20.3634    13.1503    145.832  32.338714     35.543      7.261   246.5902     3.7770     2.5437     0.0226      0.052      2.419      3.508        373 1.0504e+02   998.1277 0.0000e+00
      2.475    20.3260    13.1652    145.751  32.366033     35.600      7.258   247.1580     3.7427     2.6014     0.0226      0.049      2.426      3.518        374 1.0411e+02   998.1430 0.0000e+00
      2.479    20.3451    13.1772    145.502  32.396799     35.717      7.254   247.3852     3.7961     2.5581     0.0226      0.044      2.430      3.524        375 1.0323e+02   998.1581 0.0000e+00
      2.479    20.3946    13.1810    145.143  32.359712     35.687      7.252   248.0666     3.7656     2.6302     0.0226      0.036      2.431      3.525        376 1.0363e+02   998.1659 0.0000e+00
      2.479    20.4327    13.1542    144.525  32.352943     35.670      7.245   247.8773     3.7923     2.5293     0.0226      0.028      2.431      3.525        377 1.0414e+02   998.1619 0.0000e+00
      2.479    20.4530    13.0937    143.606  32.405218     35.693      7.245   247.8773     3.6779     2.6446     0.0226      0.020      2.431      3.525        378 1.0385e+02   998.1515 0.0000e+00
      2.479    20.4780    12.9971    142.328  32.413155     35.662      7.242   247.8016     3.7160     2.5437     0.0226      0.014      2.433      3.528        379 1.0369e+02   998.1435 0.0000e+00
      2.483    20.5067    12.8610    140.652  32.402305     35.648      7.245   246.1738     3.6931     2.6446     0.0226      0.010      2.438      3.536        380 1.0226e+02   998.1392 0.0000e+00
      2.497    20.5114    12.7246    139.004  32.418710     35.627      7.247   245.3409     3.7046     2.6014     0.0226      0.010      2.450      3.553        381 9.9917e+01   998.1340 0.0000e+00
      2.515    20.4721    12.5901    137.357  32.392730     35.605      7.247   245.5302     3.7542     2.5149     0.0226      0.015      2.465      3.576        382 9.7345e+01   998.1281 0.0000e+00
      2.530    20.4105    12.4665    135.812  32.316110     35.477      7.245   245.4545     3.7694     2.6302     0.0226      0.023      2.479      3.597        383 9.5986e+01   998.1271 0.0000e+00
      2.540    20.3244    12.3594    134.463  32.277032     35.509      7.242   245.4545     3.7465     2.5149     0.0226      0.032      2.491      3.613        384 9.5005e+01   998.1354 0.0000e+00
      2.552    20.1933    12.2936    133.568  32.263606     35.496      7.243   245.7195     3.7618     2.7023     0.0225      0.040      2.503      3.630        385 9.3024e+01   998.1484 0.0000e+00
      2.565    20.0546    12.2566    132.993  32.273587     35.624      7.240   246.0980     3.7313     2.5149     0.0226      0.046      2.514      3.646        386 9.2136e+01   998.1666 0.0000e+00
      2.573    19.9424    12.2504    132.769  32.264650     35.667      7.235   245.8709     3.7503     2.6158     0.0225      0.049      2.523      3.659        387 9.1288e+01   998.1941 0.0000e+00
      2.581    19.8532    12.2400    132.508  32.274784     35.839      7.235   245.7573     3.7923     2.6014     0.0226      0.048      2.532      3.672        388 8.9840e+01   998.2230 0.0000e+00
      2.592    19.7758    12.2088    132.114  32.172148     35.773      7.234   246.8930     3.7465     2.5437     0.0225      0.045      2.542      3.686        389 8.8651e+01   998.2462 0.0000e+00
      2.601    19.7103    12.1532    131.462  32.036884     35.719      7.234   248.3316     3.5176     2.3707     0.0225      0.041      2.552      3.700        390 8.7983e+01   998.2645 0.0000e+00
      2.610    19.6532    12.0713    130.493  31.998729     35.719      7.233   248.2559     3.5100     2.4283     0.0224      0.039      2.562      3.715        391 8.6503e+01   998.2803 0.0000e+00
      2.626    19.5888    11.9455    129.028  31.893752     35.678      7.234   249.8459     3.5253     2.3418     0.0224      0.040      2.576      3.736        392 8.4187e+01   998.2937 0.0000e+00
      2.643    19.5167    11.7913    127.298  31.693503     35.473      7.233   250.7166     3.5062     2.4139     0.0223      0.042      2.591      3.758        393 8.2629e+01   998.3053 0.0000e+00
      2.657    19.4494    11.6226    125.332  31.625772     35.461      7.230   251.6631     3.2926     2.2120     0.0223      0.045      2.606      3.779        394 8.1324e+01   998.3183 0.0000e+00
      2.672    19.3817    11.4600    123.357  31.622535     35.519      7.227   252.0038     3.2621     2.0967     0.0223      0.049      2.619      3.799        395 7.9930e+01   998.3330 0.0000e+00
      2.683    19.3183    11.3101    121.546  31.579050     35.510      7.226   252.9881     3.2735     2.1976     0.0222      0.052      2.631      3.817        396 7.8657e+01   998.3466 0.0000e+00
      2.696    19.2577    11.1884    120.061  31.620662     35.627      7.221   254.3131     3.2811     2.2697     0.0223      0.053      2.643      3.835        397 7.7368e+01   998.3601 0.0000e+00
      2.709    19.2053    11.0738    118.670  31.659663     35.710      7.218   255.9409     3.2849     2.1399     0.0223      0.054      2.656      3.853        398 7.6221e+01   998.3729 0.0000e+00
      2.722    19.1811    11.0102    117.857  31.767566     35.883      7.217   257.2281     3.2125     1.9813     0.0223      0.054      2.669      3.871        399 7.4964e+01   998.3851 0.0000e+00
      2.733    19.1636    10.9720    117.389  31.871569     36.055      7.213   257.0766     3.2125     1.9236     0.0224      0.052      2.679      3.884        400 7.4316e+01   998.3955 0.0000e+00
      2.738    19.1301    10.9489    117.178  31.885792     36.072      7.207   257.4552     3.1819     1.9813     0.0224      0.048      2.685      3.894        401 7.3944e+01   998.4003 0.0000e+00
      2.743    19.0927    10.9538    117.246  31.868392     36.088      7.203   258.3638     3.2125     2.0823     0.0224      0.044      2.691      3.903        402 7.3159e+01   998.4038 0.0000e+00
      2.752    19.0645    10.9622    117.349  31.833976     36.051      7.200   259.4995     3.2849     1.9813     0.0224      0.040      2.699      3.915        403 7.2311e+01   998.4105 0.0000e+00
      2.763    19.0086    10.9597    117.322  31.750867     36.020      7.196   259.6888     3.2849     2.0102     0.0223      0.037      2.709      3.929        404 7.1399e+01   998.4179 0.0000e+00
      2.774    18.9204    10.9653    117.357  31.527415     35.756      7.196   260.6352     3.2697     1.9813     0.0222      0.035      2.720      3.945        405 7.0505e+01   998.4233 0.0000e+00
      2.785    18.8397    10.9614    117.297  31.341748     35.612      7.196   261.0895     3.2659     2.0534     0.0221      0.035      2.731      3.962        406 6.9648e+01   998.4343 0.0000e+00
      2.798    18.7669    10.9466    117.049  31.211631     35.525      7.192   261.2788     3.9182     2.0534     0.0221      0.036      2.743      3.979        407 6.8675e+01   998.4516 0.0000e+00
      2.809    18.7005    10.9205    116.681  31.096829     35.463      7.189   261.4302     3.8762     1.9381     0.0220      0.039      2.754      3.994        408 6.7908e+01   998.4673 0.0000e+00
      2.818    18.6451    10.8899    116.301  31.099497     35.522      7.186   261.4302     3.8762     1.9813     0.0220      0.041      2.763      4.008        409 6.7152e+01   998.4814 0.0000e+00
      2.827    18.6220    10.8563    115.778  31.089833     35.576      7.185   261.6952     3.8839     1.9092     0.0220      0.042      2.773      4.021        410 6.6425e+01   998.4943 0.0000e+00
      2.838    18.6339    10.8140    115.030  31.168137     35.685      7.182   262.1874     5.7722     1.7362     0.0221      0.042      2.783      4.035        411 6.5565e+01   998.5051 0.0000e+00
      2.847    18.6421    10.7498    114.060  31.268716     35.865      7.180   262.4902     5.7836     1.8371     0.0221      0.041      2.793      4.050        412 6.4567e+01   998.5095 0.0000e+00
      2.858    18.6472    10.6479    112.742  31.231320     35.757      7.178   262.8310     5.7836     1.6929     0.0221      0.041      2.803      4.065        413 6.3658e+01   998.5073 0.0000e+00
      2.868    18.6468    10.4932    110.936  31.273930     35.847      7.174   263.5502     5.7493     1.7362     0.0221      0.040      2.812      4.078        414 6.2987e+01   998.5058 0.0000e+00
      2.875    18.6379    10.2619    108.426  31.304568     35.843      7.170   264.1560     8.2403     1.7362     0.0221      0.038      2.820      4.091        415 6.2444e+01   998.5048 0.0000e+00
      2.886    18.6278     9.9604    105.241  31.311699     35.875      7.169   264.4588     8.2212     1.8371     0.0221      0.038      2.830      4.105        416 6.1435e+01   998.5049 0.0000e+00
      2.898    18.5920     9.5988    101.288  31.353939     35.915      7.166   264.4588     8.2403     1.6929     0.0222      0.039      2.840      4.119        417 6.1017e+01   998.5067 0.0000e+00
      2.903    18.5545     9.2724     97.688  31.400143     35.986      7.163   264.9888     8.2251     1.7218     0.0222      0.038      2.847      4.130        418 6.0771e+01   998.5087 0.0000e+00
      2.909    18.5310     8.9827     94.518  31.461599     36.081      7.158   265.3674     8.2403     1.7218     0.0222      0.036      2.854      4.140        419 6.0188e+01   998.5157 0.0000e+00
      2.920    18.4603     8.7495     91.947  31.455236     36.112      7.159   265.8217     8.4425     1.8371     0.0222      0.035      2.864      4.154        420 5.9374e+01   998.5229 0.0000e+00
      2.933    18.3362     8.5758     90.029  31.585842     36.259      7.154   266.1245     8.4501     1.7073     0.0223      0.035      2.876      4.172        421 5.8567e+01   998.5274 0.0000e+00
      2.946    18.2123     8.4607     88.766  31.980525     36.799      7.151   266.4652     8.4425     1.7362     0.0225      0.037      2.889      4.191        422 5.7825e+01   998.5411 0.0000e+00
      2.959    18.1110     8.3686     87.660  32.119593     37.067      7.146   266.8060     8.4616     1.7362     0.0225      0.040      2.900      4.207        423 5.6939e+01   998.5647 0.0000e+00
      2.968    18.0355     8.3166     87.102  31.946132     36.946      7.143   267.3738     5.9095     1.5343     0.0224      0.041      2.910      4.220        424 5.6119e+01   998.5880 0.0000e+00
      2.975    18.0097     8.2753     86.674  31.870534     36.970      7.141   267.4874     5.9171     1.5920     0.0224      0.041      2.918      4.232        425 5.4944e+01   998.6070 0.0000e+00
      2.984    18.0039     8.2493     86.374  31.828550     36.968      7.137   268.5474     5.9057     1.5631     0.0224      0.042      2.926      4.244        426 5.3746e+01   998.6210 0.0000e+00
      2.992    17.9453     8.2430     86.262  31.820641     36.993      7.134   268.6231     5.8981     1.4910     0.0224      0.041      2.934      4.256        427 5.2571e+01   998.6258 0.0000e+00
      2.999    17.8654     8.2508     86.233  31.880389     37.058      7.131   269.6453     4.8757     1.5199     0.0224      0.038      2.943      4.269        428 5.0707e+01   998.6269 0.0000e+00
      3.012    17.8064     8.2714     86.244  31.843087     37.080      7.129   270.1374     4.8490     1.4334     0.0224      0.036      2.954      4.285        429 4.8448e+01   998.6378 0.0000e+00
      3.025    17.7417     8.2984     86.354  31.837456     37.115      7.126   270.8567     4.8910     1.5487     0.0224      0.036      2.966      4.301        430 4.6540e+01   998.6525 0.0000e+00
      3.034    17.6980     8.3494     86.748  31.798544     37.168      7.123   271.3867     4.8910     1.5199     0.0224      0.037      2.976      4.316        431 4.4447e+01   998.6634 0.0000e+00
      3.044    17.6585     8.4310     87.487  31.654516     36.993      7.118   271.5381     4.6926     1.5343     0.0223      0.038      2.986      4.331        432 4.2236e+01   998.6752 0.0000e+00
      3.058    17.5924     8.5843     89.005  31.542671     36.970      7.115   272.1438     4.7078     1.5199     0.0223      0.041      2.997      4.347        433 4.0295e+01   998.6831 0.0000e+00
      3.066    17.5770     8.7975     91.165  31.434078     36.800      7.113   272.6360     4.7193     1.4334     0.0222      0.041      3.004      4.357        434 3.9009e+01   998.6903 0.0000e+00
      3.066    17.5838     9.0462     93.667  31.523029     37.030      7.108   273.0524     4.7193     1.5776     0.0223      0.039      3.007      4.361        435 3.8112e+01   998.7023 0.0000e+00
      3.066    17.5657     9.2724     95.935  31.520878     37.004      7.105   273.5824     4.8414     1.5199     0.0223      0.035      3.008      4.363        436 3.7369e+01   998.7051 0.0000e+00
      3.069    17.5416     9.4540     97.773  31.466390     36.936      7.103   273.5824     4.8223     1.4478     0.0222      0.029      3.015      4.372        437 3.6277e+01   998.7039 0.0000e+00
      3.087    17.4764     9.5484     98.731  31.264934     36.753      7.101   274.2638     4.8185     1.6208     0.0221      0.027      3.030      4.395        438 3.4467e+01   998.7071 0.0000e+00
      3.113    17.3669     9.5251     98.461  30.467997     35.791      7.097   274.5667     4.8643     1.5487     0.0217      0.031      3.049      4.423        439 3.3323e+01   998.7113 0.0000e+00
      3.125    17.2688     9.3647     96.765  29.791773     35.055      7.087   274.9831     4.8414     1.5920     0.0214      0.035      3.066      4.447        440 3.2040e+01   998.7228 0.0000e+00
      3.143    17.1946     9.0748     93.734  29.766035     35.116      7.084   275.6646     4.9558     1.4766     0.0214      0.042      3.081      4.470        441 3.0378e+01   998.7424 0.0000e+00
      3.160    17.1335     8.7338     90.175  29.966801     35.459      7.077   275.5510     4.9405     1.5487     0.0215      0.050      3.096      4.491        442 2.9216e+01   998.7600 0.0000e+00
      3.169    17.0952     8.3575     86.246  29.986344     35.523      7.072   276.3081     4.9482     1.4622     0.0215      0.057      3.109      4.509        443 2.7909e+01   998.7731 0.0000e+00
      3.184    17.0672     7.9847     82.336  30.038001     35.640      7.076   276.7624     4.9673     1.6208     0.0215      0.062      3.123      4.529        444 2.6566e+01   998.7840 0.0000e+00
      3.200    17.0295     7.6347     78.648  30.406181     36.104      7.076   277.5196     4.9482     1.9669     0.0217      0.063      3.137      4.550        445 2.5513e+01   998.7909 0.0000e+00
      3.212    16.9925     7.3431     75.556  30.802095     36.625      7.073   277.6710     4.9405     1.9236     0.0219      0.059      3.148      4.566        446 2.4589e+01   998.7959 0.0000e+00
      3.218    16.9729     7.1102     73.059  30.908126     36.758      7.069   278.0117     4.9482     1.9525     0.0220      0.053      3.157      4.578        447 2.3585e+01   998.8027 0.0000e+00
      3.228    16.9630     6.9005     70.866  30.926032     36.824      7.073   278.2767     4.9482     1.9525     0.0220      0.050      3.167      4.593        448 2.2406e+01   998.8092 0.0000e+00
      3.241    16.9493     6.7530     69.331  31.046469     36.974      7.073   278.0874     4.9405     1.9525     0.0220      0.047      3.179      4.610        449 2.1367e+01   998.8127 0.0000e+00
      3.254    16.9308     6.6483     68.198  31.202662     37.182      7.071   278.0874     4.9482     1.9669     0.0221      0.046      3.190      4.626        450 2.0611e+01   998.8145 0.0000e+00
      3.262    16.9126     6.5865     67.480  31.294578     37.294      7.068   279.0339     4.9405     1.9813     0.0222      0.045      3.200      4.641        451 1.9921e+01   998.8169 0.0000e+00
      3.274    16.8928     6.5580     67.156  31.287616     37.311      7.069   278.6553     4.9711     1.9525     0.0222      0.043      3.211      4.656        452 1.9415e+01   998.8202 0.0000e+00
      3.286    16.8690     6.5627     67.211  31.270590     37.293      7.066   278.9581     5.0626     1.7939     0.0221      0.042      3.221      4.671        453 1.9254e+01   998.8234 0.0000e+00
      3.293    16.8314     6.6100     67.634  31.286148     37.344      7.062   278.9581     5.0970     1.8227     0.0222      0.042      3.230      4.685        454 1.9305e+01   998.8268 0.0000e+00
      3.303    16.7852     6.7112     68.501  31.297890     37.366      7.062   279.2231     5.0741     1.7362     0.0222      0.042      3.240      4.699        455 1.9437e+01   998.8309 0.0000e+00
      3.315    16.7272     6.8128     69.493  31.285616     37.399      7.060   279.4881     5.0474     1.7073     0.0222      0.042      3.251      4.714        456 1.9594e+01   998.8375 0.0000e+00
      3.326    16.6648     6.9249     70.593  31.094045     37.207      7.056   279.7153     5.1809     2.1111     0.0221      0.041      3.261      4.729        457 1.9714e+01   998.8455 0.0000e+00
      3.334    16.6360     7.0458     71.794  30.884514     36.989      7.056   280.3589     5.1771     2.2697     0.0219      0.040      3.271      4.744        458 1.9605e+01   998.8553 0.0000e+00
      3.346    16.6237     7.1999     73.355  30.983480     37.182      7.052   281.4946     5.1961     2.1399     0.0220      0.040      3.282      4.759        459 1.9294e+01   998.8660 0.0000e+00
      3.358    16.5815     7.3907     75.242  30.970907     37.205      7.048   281.7974     5.1732     2.1832     0.0220      0.041      3.292      4.774        460 1.8935e+01   998.8710 0.0000e+00
      3.365    16.5255     7.5834     77.143  30.515027     36.647      7.048   282.6303     5.1618     2.1688     0.0218      0.040      3.299      4.784        461 1.8545e+01   998.8730 0.0000e+00
      3.368    16.4997     7.7555     78.793  30.425004     36.548      7.043   282.8574     5.3297     2.2553     0.0217      0.039      3.303      4.790        462 1.8155e+01   998.8800 0.0000e+00
      3.371    16.5072     7.9138     80.327  30.579299     36.870      7.038   283.3496     5.3411     2.2409     0.0218      0.035      3.309      4.798        463 1.7721e+01   998.8897 0.0000e+00
      3.382    16.4577     8.0540     81.683  30.737802     36.957      7.038   283.3874     5.3182     2.1976     0.0219      0.032      3.319      4.813        464 1.7062e+01   998.8941 0.0000e+00
      3.401    16.3532     8.1554     82.693  30.287014     36.617      7.032   283.8039     5.2953     2.1976     0.0217      0.033      3.332      4.833        465 1.6634e+01   998.8927 0.0000e+00
      3.409    16.3122     8.2231     83.377  29.629377     35.543      7.027   284.2203     5.1771     1.9525     0.0212      0.034      3.342      4.847        466 1.6555e+01   998.9008 0.0000e+00
      3.413    16.2880     8.2647     83.755  29.837936     36.251      7.026   284.5610     5.1771     1.8660     0.0215      0.033      3.349      4.858        467 1.6296e+01   998.9184 0.0000e+00
      3.425    16.2662     8.2694     83.747  29.553481     35.636      7.028   284.6367     5.2076     2.0102     0.0212      0.034      3.358      4.870        468 1.6169e+01   998.9252 0.0000e+00
      3.432    16.2577     8.2526     83.552  29.568640     35.864      7.025   285.0532     5.1885     1.9957     0.0213      0.036      3.368      4.884        469 1.6019e+01   998.9292 0.0000e+00
      3.445    16.2257     8.2201     83.226  29.611702     35.883      7.024   285.2424     5.0130     2.0102     0.0213      0.039      3.378      4.900        470 1.5853e+01   998.9329 0.0000e+00
      3.456    16.1839     8.1804     82.831  29.351774     35.516      7.023   285.6210     4.9901     2.0823     0.0212      0.040      3.389      4.915        471 1.5877e+01   998.9342 0.0000e+00
      3.466    16.1290     8.1278     82.263  29.418122     35.750      7.023   285.6967     5.0130     2.0534     0.0212      0.039      3.399      4.930        472 1.5799e+01   998.9396 0.0000e+00
      3.479    16.0811     8.0674     81.616  29.262521     35.443      7.022   285.7346     5.0054     1.9813     0.0211      0.039      3.409      4.943        473 1.5948e+01   998.9465 0.0000e+00
      3.481    16.0456     8.0087     81.009  29.249186     35.630      7.020   286.2646     4.7078     2.6158     0.0212      0.039      3.415      4.951        474 1.6199e+01   998.9556 0.0000e+00
      3.485    16.0331     7.9578     80.423  29.138491     35.397      7.019   286.4539     4.7193     2.5581     0.0210      0.037      3.420      4.959        475 1.6118e+01   998.9633 0.0000e+00
      3.494    16.0320     7.9153     79.809  29.281801     35.702      7.020   286.4160     4.7231     2.5149     0.0212      0.035      3.425      4.968        476 1.6040e+01   998.9692 0.0000e+00
      3.498    16.0075     7.8611     79.109  29.307850     35.711      7.015   286.5296     4.7155     2.5725     0.0212      0.031      3.430      4.975        477 1.5932e+01   998.9713 0.0000e+00
      3.502    15.9772     7.7994     78.253  29.165328     35.508      7.019   286.7567     4.7193     2.5725     0.0211      0.027      3.434      4.981        478 1.5633e+01   998.9714 0.0000e+00
      3.506    15.9620     7.6431     76.556  29.251796     35.700      7.017   286.6432     4.4790     2.4716     0.0211      0.023      3.438      4.986        479 1.5480e+01   998.9754 0.0000e+00
      3.508    15.9650     7.3641     73.722  29.170624     35.557      7.016   286.6810     4.4675     2.4139     0.0211      0.020      3.442      4.992        480 1.5275e+01   998.9804 0.0000e+00
      3.516    15.9668     6.9257     69.118  29.236732     35.705      7.016   286.5296     4.5057     2.5437     0.0211      0.018      3.447      4.999        481 1.5209e+01   998.9829 0.0000e+00
      3.518    15.9484     6.3249     62.932  29.406531     35.874      7.015   286.6432     4.5209     2.3707     0.0212      0.018      3.451      5.005        482 1.5280e+01   998.9826 0.0000e+00
      3.523    15.9266     5.6339     55.956  29.374058     35.870      7.016   286.9082     4.5057     2.1399     0.0212      0.018      3.455      5.012        483 1.5407e+01   998.9823 0.0000e+00
      3.530    15.9207     4.8986     48.596  29.336394     35.786      7.014   286.6810     4.4980     2.2409     0.0212      0.017      3.463      5.024        484 1.5565e+01   998.9852 0.0000e+00
      3.544    15.8732     4.0624     40.236  29.364535     35.906      7.013   287.0217     4.5019     2.2265     0.0212      0.020      3.477      5.044        485 1.5574e+01   998.9888 0.0000e+00
      3.566    15.7733     3.2914     32.529  30.553697     37.209      7.013   286.7189     4.4904     2.2120     0.0218      0.027      3.494      5.068        486 1.5827e+01   998.9903 0.0000e+00
      3.577    15.6739     2.6043     25.701  31.944978     39.263      7.009   286.5674     4.3836     2.3851     0.0226      0.034      3.508      5.088        487 1.6192e+01   998.9986 0.0000e+00
      3.590    15.5397     2.0434     20.170  31.810552     38.853      7.009   287.0596     4.3760     2.4139     0.0224      0.041      3.521      5.106        488 1.6530e+01   999.0147 0.0000e+00
      3.603    15.4623     1.5998     15.802  32.083889     39.524      7.008   286.9460     4.3760     2.4428     0.0226      0.046      3.533      5.124        489 1.7057e+01   999.0307 0.0000e+00
      3.613    15.4283     1.2344     12.196  31.812262     39.247      7.003   287.0596     4.3531     2.4139     0.0225      0.051      3.546      5.143        490 1.7312e+01   999.0518 0.0000e+00
      3.635    15.2923     0.8990      8.872  32.267151     39.703      7.001   287.6653     4.1967     2.6302     0.0226      0.055      3.563      5.168        491 1.7381e+01   999.0643 0.0000e+00
      3.652    15.1481     0.6809      6.695  33.621558     41.834      6.995   287.0217     4.2043     2.5725     0.0235      0.058      3.577      5.188        492 1.7682e+01   999.0703 0.0000e+00
      3.656    15.0671     0.5790      5.680  33.178639     40.945      6.993   287.4003     4.1700     2.6735     0.0231      0.055      3.586      5.202        493 1.7693e+01   999.0912 0.0000e+00
      3.666    15.0101     0.5573      5.465  33.233197     41.540      6.990   287.8167     4.2157     2.5870     0.0233      0.052      3.596      5.216        494 1.7445e+01   999.1134 0.0000e+00
      3.680    14.9363     0.5890      5.769  33.612974     41.835      6.991   287.7789     4.2005     2.6158     0.0234      0.051      3.610      5.236        495 1.7059e+01   999.1259 0.0000e+00
      3.698    14.8368     0.6151      6.021  33.713506     42.206      6.989   288.5739     4.1967     2.4860     0.0235      0.052      3.627      5.260        496 1.6597e+01   999.1347 0.0000e+00
      3.717    14.7721     0.6166      6.036  33.730372     42.180      6.986   288.4603     4.1700     2.3995     0.0235      0.053      3.643      5.285        497 1.6288e+01   999.1459 0.0000e+00
      3.730    14.7801     0.6309      6.180  33.562389     42.146      6.982   288.5360     4.1890     2.3274     0.0234      0.054      3.658      5.305        498 1.6300e+01   999.1608 0.0000e+00
      3.742    14.8106     0.6340      6.218  33.418869     42.006      6.980   289.1417     4.0670     2.1976     0.0234      0.054      3.670      5.323        499 1.6526e+01   999.1704 0.0000e+00
      3.754    14.8226     0.6100      5.987  33.257122     41.785      6.974   289.5960     4.0555     2.2553     0.0233      0.054      3.682      5.341        500 1.6741e+01   999.1693 0.0000e+00
      3.769    14.7617     0.5712      5.606  33.408107     41.963      6.972   290.5046     4.0555     2.1544     0.0234      0.057      3.699      5.365        501 1.6593e+01   999.1649 0.0000e+00
      3.795    14.6037     0.5428      5.323  33.734688     42.336      6.966   291.3753     4.0937     2.2265     0.0235      0.060      3.721      5.396        502 1.6012e+01   999.1633 0.0000e+00
      3.819    14.4977     0.5340      5.234  34.065583     42.853      6.957   291.4510     4.0555     2.2409     0.0237      0.064      3.739      5.423        503 1.5626e+01   999.1726 0.0000e+00
      3.822    14.4699     0.5716      5.603  33.944554     42.854      6.949   293.1168     4.0937     2.5581     0.0237      0.063      3.747      5.436        504 1.5030e+01   999.1958 0.0000e+00
      3.825    14.4239     0.6220      6.096  33.855732     42.829      6.943   293.9875     4.0975     2.3274     0.0236      0.059      3.751      5.441        505 1.4146e+01   999.2112 0.0000e+00
      3.829    14.3942     0.6755      6.618  34.028009     43.136      6.940   293.4953     4.0632     2.3418     0.0237      0.054      3.755      5.446        506 1.3385e+01   999.2154 0.0000e+00
      3.832    14.4005     0.7202      7.038  33.967235     43.050      6.937   293.2682     4.0479     2.4572     0.0237      0.047      3.760      5.454        507 1.2684e+01   999.2220 0.0000e+00
      3.841    14.4302     0.7537      7.345  33.931382     43.080      6.932   293.8360     3.9411     2.2553     0.0237      0.040      3.767      5.465        508 1.2110e+01   999.2262 0.0000e+00
      3.852    14.4810     0.7810      7.602  33.865218     42.968      6.932   294.2903     3.9258     2.1976     0.0236      0.033      3.777      5.478        509 1.1645e+01   999.2254 0.0000e+00
      3.861    14.5179     0.7976      7.748  33.842149     42.899      6.930   294.8960     3.9449     2.1976     0.0236      0.027      3.786      5.490        510 1.1360e+01   999.2212 0.0000e+00
      3.868    14.5111     0.7959      7.726  33.930443     42.986      6.926   295.3503     3.9296     2.1255     0.0237      0.024      3.792      5.500        511 1.1163e+01   999.2139 0.0000e+00
      3.872    14.4770     0.7841      7.615  33.903477     42.873      6.926   295.9560     3.8381     2.4860     0.0236      0.027      3.797      5.508        512 1.0873e+01   999.2086 0.0000e+00
      3.876    14.4633     0.7713      7.489  33.875695     42.882      6.920   295.8803     3.8190     2.5149     0.0236      0.028      3.802      5.514        513 1.0616e+01   999.2096 0.0000e+00
      3.882    14.4622     0.7586      7.354  33.965020     42.990      6.919   295.8425     3.8190     2.4572     0.0237      0.028      3.807      5.522        514 1.0365e+01   999.2145 0.0000e+00
      3.888    14.4550     0.7552      7.304  33.881222     42.970      6.920   296.1832     3.8152     2.5149     0.0237      0.027      3.813      5.531        515 1.0079e+01   999.2166 0.0000e+00
      3.896    14.4272     0.7402      7.152  34.009619     43.004      6.915   295.9939     3.5825     3.2214     0.0237      0.025      3.822      5.544        516 9.7122e+00   999.2168 0.0000e+00
      3.909    14.3124     0.7328      7.080  33.716338     42.874      6.911   296.3725     3.5901     3.2358     0.0236      0.025      3.833      5.560        517 9.3138e+00   999.2177 0.0000e+00
      3.921    14.1966     0.7150      6.908  32.705407     41.306      6.909   296.3725     3.5939     3.2070     0.0229      0.028      3.843      5.573        518 9.1073e+00   999.2214 0.0000e+00
      3.923    14.1335     0.7005      6.770  32.926887     41.962      6.905   297.2053     3.5710     3.2791     0.0232      0.029      3.849      5.582        519 8.8457e+00   999.2379 0.0000e+00
      3.932    14.0494     0.6680      6.458  32.996274     42.091      6.901   296.9782     3.5672     3.2503     0.0232      0.031      3.857      5.593        520 8.4780e+00   999.2545 0.0000e+00
      3.944    14.0130     0.6308      6.097  32.500583     41.471      6.898   297.3946     3.8266     2.9763     0.0229      0.033      3.866      5.606        521 8.2334e+00   999.2632 0.0000e+00
      3.948    14.0315     0.5964      5.765  32.595640     41.785      6.896   297.5839     3.7961     3.0772     0.0230      0.034      3.872      5.616        522 8.0192e+00   999.2751 0.0000e+00
      3.952    14.0229     0.5677      5.486  32.670594     41.819      6.892   297.5082     3.8114     3.2214     0.0230      0.032      3.879      5.626        523 7.6849e+00   999.2802 0.0000e+00
      3.966    13.9494     0.5474      5.289  32.792507     42.050      6.891   297.8868     3.8190     3.0628     0.0231      0.031      3.890      5.642        524 7.3023e+00   999.2778 0.0000e+00
      3.981    13.8491     0.5335      5.152  32.740222     41.914      6.888   297.9625     3.6473     3.4666     0.0230      0.032      3.902      5.659        525 7.0329e+00   999.2791 0.0000e+00
      3.989    13.8016     0.5223      5.039  32.706040     41.995      6.887   297.5839     3.6397     3.4954     0.0230      0.034      3.911      5.672        526 6.8835e+00   999.2892 0.0000e+00
      3.995    13.7977     0.5170      4.983  32.775815     42.177      6.884   297.9625     3.6321     3.5098     0.0231      0.036      3.918      5.683        527 6.8029e+00   999.3031 0.0000e+00
      4.003    13.8031     0.5108      4.918  32.771946     42.228      6.884   297.7732     3.6512     3.5387     0.0231      0.036      3.925      5.693        528 6.7964e+00   999.3097 0.0000e+00
      4.010    13.8164     0.5055      4.854  32.770138     42.231      6.878   297.9625     3.0675     4.6201     0.0231      0.035      3.932      5.702        529 6.8837e+00   999.3103 0.0000e+00
      4.015    13.8219     0.4997      4.784  32.778072     42.226      6.881   298.1896     3.0828     4.6057     0.0231      0.035      3.938      5.711        530 7.0602e+00   999.3096 0.0000e+00
      4.022    13.8218     0.4874      4.660  32.762071     42.211      6.878   298.4168     3.1247     4.6634     0.0231      0.032      3.944      5.721        531 7.2189e+00   999.3078 0.0000e+00
      4.030    13.8195     0.4677      4.466  32.730785     42.133      6.876   298.6061     3.1133     4.5625     0.0231      0.029      3.952      5.733        532 7.3576e+00   999.3070 0.0000e+00
      4.041    13.8096     0.4585      4.373  32.817004     42.278      6.877   298.5303     2.8615     4.9518     0.0231      0.028      3.961      5.745        533 7.4738e+00   999.3071 0.0000e+00
      4.046    13.7973     0.4516      4.302  32.832555     42.278      6.872   298.8711     2.8501     4.8076     0.0231      0.028      3.966      5.753        534 7.5141e+00   999.3075 0.0000e+00
      4.048    13.7748     0.4483      4.267  32.770694     42.220      6.872   299.4011     2.8539     4.8941     0.0231      0.027      3.970      5.758        535 7.5391e+00   999.3088 0.0000e+00
      4.051    13.7356     0.4542      4.322  32.775471     42.230      6.871   299.5903     2.8691     4.9374     0.0231      0.025      3.974      5.765        536 7.5011e+00   999.3105 0.0000e+00
      4.060    13.6951     0.4576      4.353  32.767356     42.258      6.868   299.9311     2.4953     7.3743     0.0231      0.025      3.984      5.779        537 7.3219e+00   999.3137 0.0000e+00
      4.077    13.6370     0.4566      4.341  32.721543     42.225      6.866   299.8553     2.4648     7.3743     0.0231      0.027      3.999      5.800        538 7.0692e+00   999.3190 0.0000e+00
      4.096    13.5156     0.4441      4.220  32.447311     41.949      6.864   299.9311     2.4724     7.3887     0.0229      0.032      4.015      5.823        539 6.9667e+00   999.3245 0.0000e+00
      4.108    13.3912     0.4193      3.984  32.071617     41.464      6.862   299.9689     2.5105     7.4032     0.0227      0.036      4.027      5.841        540 6.9618e+00   999.3322 0.0000e+00
      4.116    13.3179     0.3948      3.750  32.033569     41.600      6.858   300.0446     2.6746     8.1097     0.0227      0.040      4.036      5.855        541 7.0207e+00   999.3485 0.0000e+00
      4.125    13.2695     0.3630      3.443  32.109524     41.806      6.856   299.9311     2.6479     8.0809     0.0227      0.044      4.046      5.868        542 7.2399e+00   999.3650 0.0000e+00
      4.136    13.2192     0.3296      3.122  32.095658     41.887      6.850   300.1582     2.6517     8.0520     0.0227      0.047      4.056      5.883        543 7.4923e+00   999.3747 0.0000e+00
      4.147    13.1640     0.2989      2.829  32.317524     42.194      6.851   300.3096     2.6593     8.0809     0.0229      0.048      4.067      5.899        544 7.8360e+00   999.3813 0.0000e+00
      4.158    13.1259     0.2732      2.587  32.751957     42.870      6.851   300.4989     2.6746     8.0520     0.0231      0.046      4.078      5.915        545 8.3048e+00   999.3880 0.0000e+00
      4.170    13.1097     0.2506      2.375  33.125421     43.372      6.846   300.5746     3.0599     8.3549     0.0233      0.043      4.088      5.930        546 8.7634e+00   999.3953 0.0000e+00
      4.179    13.1023     0.2319      2.196  33.067615     43.415      6.847   300.3096     3.0179     8.1818     0.0233      0.041      4.097      5.942        547 9.2591e+00   999.4003 0.0000e+00
      4.185    13.0772     0.2139      2.023  33.120217     43.361      6.842   300.6125     3.0332     8.2683     0.0233      0.040      4.103      5.952        548 9.8685e+00   999.4024 0.0000e+00
      4.190    13.0441     0.2049      1.936  33.326647     43.845      6.842   300.6882     3.0332     8.2683     0.0235      0.038      4.108      5.958        549 1.0567e+01   999.4034 0.0000e+00
      4.190    13.0411     0.1863      1.759  33.462603     43.800      6.839   300.4989     2.7814     6.9994     0.0235      0.034      4.111      5.963        550 1.1312e+01   999.4067 0.0000e+00
      4.197    13.0302     0.1763      1.664  33.247341     43.877      6.839   300.7639     2.8005     6.8696     0.0235      0.030      4.119      5.974        551 1.1835e+01   999.4109 0.0000e+00
      4.214    12.9664     0.1694      1.597  33.683440     43.989      6.837   300.8396     2.7852     6.8119     0.0235      0.029      4.132      5.992        552 1.2232e+01   999.4115 0.0000e+00
      4.227    12.9035     0.1625      1.530  35.409034     46.826      6.834   300.6503     2.7661     6.8264     0.0248      0.029      4.143      6.008        553 1.2762e+01   999.4137 0.0000e+00
      4.231    12.8744     0.1542      1.451  35.692957     46.834      6.831   300.5746     2.3007     6.4515     0.0247      0.030      4.150      6.018        554 1.3196e+01   999.4220 0.0000e+00
      4.235    12.8868     0.1526      1.433  35.345146     46.729      6.830   300.5746     2.3274     6.4803     0.0247      0.030      4.155      6.024        555 1.3457e+01   999.4298 0.0000e+00
      4.241    12.9189     0.1457      1.369  35.249224     46.468      6.828   300.8396     2.2817     6.5091     0.0245      0.031      4.160      6.033        556 1.3492e+01   999.4335 0.0000e+00
      4.250    12.8973     0.1432      1.345  35.012227     46.235      6.827   301.2182     2.2740     6.5235     0.0244      0.032      4.168      6.044        557 1.3347e+01   999.4318 0.0000e+00
      4.258    12.8425     0.1414      1.328  35.106673     46.263      6.824   301.5968     2.4915     6.4803     0.0245      0.032      4.175      6.056        558 1.3212e+01   999.4279 0.0000e+00
      4.265    12.7980     0.1386      1.302  35.250216     46.515      6.824   301.8239     2.5144     6.4659     0.0246      0.030      4.183      6.067        559 1.3041e+01   999.4307 0.0000e+00
      4.274    12.7602     0.1355      1.272  35.426273     46.802      6.819   301.9375     2.4762     6.4659     0.0247      0.027      4.192      6.079        560 1.2862e+01   999.4376 0.0000e+00
      4.283    12.7341     0.1344      1.261  35.480274     46.932      6.821   301.8618     2.4800     6.4082     0.0247      0.028      4.201      6.092        561 1.2802e+01   999.4433 0.0000e+00
      4.292    12.7075     0.1364      1.279  35.479378     46.978      6.818   302.1646     2.4686     7.1148     0.0247      0.030      4.209      6.104        562 1.2751e+01   999.4480 0.0000e+00
      4.300    12.6558     0.1360      1.274  35.368137     46.864      6.817   301.9375     2.4686     7.1869     0.0247      0.032      4.218      6.117        563 1.2499e+01   999.4512 0.0000e+00
      4.312    12.5868     0.1381      1.292  35.085314     46.524      6.815   302.0132     2.4724     7.2013     0.0245      0.034      4.228      6.132        564 1.2195e+01   999.4544 0.0000e+00
      4.321    12.5405     0.1387      1.296  34.794181     46.182      6.814   301.9375     2.4686     7.1869     0.0243      0.035      4.237      6.145        565 1.2023e+01   999.4608 0.0000e+00
      4.329    12.5345     0.1408      1.316  34.782196     46.267      6.814   301.9753     2.4877     7.1724     0.0243      0.036      4.245      6.157        566 1.1906e+01   999.4692 0.0000e+00
      4.338    12.5313     0.1394      1.302  34.833558     46.400      6.811   302.0889     2.5029     7.6483     0.0244      0.036      4.254      6.170        567 1.1850e+01   999.4750 0.0000e+00
      4.347    12.5096     0.1451      1.353  34.611752     46.107      6.809   302.1646     2.4838     7.5185     0.0242      0.036      4.262      6.182        568 1.1924e+01   999.4756 0.0000e+00
      4.355    12.5128     0.1463      1.362  34.376678     45.777      6.808   302.5054     2.5029     7.7781     0.0241      0.035      4.271      6.194        569 1.1971e+01   999.4759 0.0000e+00
      4.364    12.5196     0.1463      1.361  34.414918     45.878      6.806   302.5811     2.4953     7.6195     0.0241      0.035      4.280      6.207        570 1.1887e+01   999.4786 0.0000e+00
      4.375    12.4813     0.1515      1.408  34.119679     45.504      6.802   302.9218     2.3694     7.6483     0.0240      0.035      4.290      6.221        571 1.1715e+01   999.4781 0.0000e+00
      4.383    12.4333     0.1569      1.458  33.618076     44.746      6.797   302.6568     2.3961     7.6483     0.0236      0.035      4.299      6.235        572 1.1508e+01   999.4771 0.0000e+00
      4.393    12.3894     0.1528      1.420  33.557558     44.798      6.795   303.0354     2.3885     7.5618     0.0237      0.035      4.309      6.249        573 1.1300e+01   999.4817 0.0000e+00
      4.405    12.3480     0.1555      1.444  33.394952     44.590      6.793   303.2246     2.3770     7.6050     0.0235      0.037      4.320      6.265        574 1.1007e+01   999.4875 0.0000e+00
      4.418    12.3210     0.1502      1.395  33.050049     44.197      6.792   303.9818     2.1825     7.5474     0.0234      0.039      4.331      6.282        575 1.0732e+01   999.4927 0.0000e+00
      4.428    12.3029     0.1437      1.335  32.949721     44.095      6.789   304.3604     2.1825     7.6195     0.0233      0.040      4.341      6.297        576 1.0555e+01   999.4976 0.0000e+00
      4.436    12.2692     0.1398      1.299  32.986472     44.203      6.788   304.2846     2.1901     7.6339     0.0233      0.041      4.350      6.309        577 1.0334e+01   999.5008 0.0000e+00
      4.444    12.2126     0.1403      1.304  32.945065     44.148      6.783   303.6032     2.1901     7.5762     0.0233      0.040      4.358      6.321        578 1.0139e+01   999.5030 0.0000e+00
      4.453    12.1602     0.1415      1.315  32.942000     44.188      6.784   303.5275     2.1214     7.4897     0.0233      0.040      4.368      6.334        579 9.9897e+00   999.5070 0.0000e+00
      4.464    12.1197     0.1462      1.358  32.990300     44.331      6.782   303.7168     2.1100     7.6195     0.0233      0.039      4.378      6.349        580 9.7504e+00   999.5138 0.0000e+00
      4.476    12.0861     0.1507      1.399  32.944239     44.319      6.781   303.2246     2.1100     7.4897     0.0233      0.039      4.387      6.363        581 9.5479e+00   999.5199 0.0000e+00
      4.481    12.0607     0.1540      1.430  32.940086     44.367      6.778   303.6789     2.1443     7.4897     0.0233      0.037      4.393      6.372        582 9.4704e+00   999.5246 0.0000e+00
      4.484    12.0433     0.1630      1.514  32.936228     44.407      6.774   303.4896     2.2893     7.5618     0.0233      0.034      4.397      6.377        583 9.4469e+00   999.5285 0.0000e+00
      4.486    12.0329     0.1668      1.550  32.889793     44.362      6.773   303.4139     2.3313     7.5906     0.0233      0.031      4.399      6.380        584 9.4019e+00   999.5315 0.0000e+00
      4.488    12.0302     0.1706      1.584  32.879361     44.383      6.770   303.1868     2.3046     7.6195     0.0233      0.027      4.401      6.383        585 9.3542e+00   999.5334 0.0000e+00
      4.490    12.0376     0.1837      1.705  32.889958     44.396      6.770   302.6189     2.2740     7.5762     0.0233      0.022      4.403      6.386        586 9.2794e+00   999.5347 0.0000e+00
      4.492    12.0549     0.1852      1.719  32.876612     44.398      6.766   302.7325     2.2855     7.5329     0.0233      0.017      4.406      6.391        587 9.2355e+00   999.5350 0.0000e+00
      4.497    12.0659     0.1905      1.768  32.836711     44.315      6.765   302.2403     2.2473     7.5618     0.0233      0.013      4.411      6.398        588 9.1051e+00   999.5341 0.0000e+00
      4.506    12.0631     0.1960      1.816  32.821089     44.293      6.769   302.4296     2.2550     7.5329     0.0233      0.012      4.421      6.413        589 8.8231e+00   999.5321 0.0000e+00
      4.525    12.0442     0.2053      1.898  32.777526     44.205      6.762   302.5432     2.2435     7.6339     0.0232      0.017      4.438      6.437        590 8.4313e+00   999.5310 0.0000e+00
      4.548    12.0254     0.2140      1.976  32.772400     44.208      6.764   302.2782     2.2550     7.6050     0.0232      0.027      4.457      6.465        591 8.0719e+00   999.5314 0.0000e+00
      4.564    12.0282     0.2294      2.116  32.768210     44.231      6.761   302.3539     2.1977     8.5712     0.0232      0.038      4.472      6.486        592 7.9858e+00   999.5336 0.0000e+00
      4.569    12.0389     0.2521      2.324  32.782747     44.255      6.757   302.1646     2.1787     8.5279     0.0232      0.045      4.482      6.500        593 7.8707e+00   999.5358 0.0000e+00
      4.579    12.0392     0.2799      2.579  32.813576     44.325      6.753   302.1646     2.1710     8.4414     0.0233      0.050      4.490      6.513        594 7.6925e+00   999.5355 0.0000e+00
      4.589    12.0140     0.3248      2.992  32.729843     44.162      6.753   301.7482     2.1787     8.5423     0.0232      0.052      4.500      6.527        595 7.5389e+00   999.5344 0.0000e+00
      4.598    11.9945     0.3750      3.455  32.709165     44.161      6.751   302.0132     2.0108     9.3931     0.0232      0.051      4.508      6.538        596 7.5008e+00   999.5343 0.0000e+00
      4.601    12.0091     0.4353      4.013  32.631899     44.078      6.745   302.0889     1.9994     9.3931     0.0231      0.046      4.514      6.547        597 7.4764e+00   999.5372 0.0000e+00
      4.609    12.0003     0.4945      4.564  32.677857     44.141      6.747   302.4675     1.9879     9.3498     0.0232      0.038      4.525      6.563        598 7.1923e+00   999.5395 0.0000e+00
      4.633    11.9294     0.5550      5.128  32.592717     44.083      6.747   302.4675     1.9803     9.3787     0.0231      0.037      4.546      6.593        599 6.6842e+00   999.5379 0.0000e+00
      4.665    11.8373     0.6009      5.558  32.086001     43.301      6.745   302.9975     1.7590    10.3015     0.0228      0.044      4.571      6.630        600 6.3275e+00   999.5389 0.0000e+00
      4.685    11.7713     0.6353      5.880  31.856614     43.158      6.745   302.9596     1.7476    10.3015     0.0227      0.054      4.591      6.659        601 6.2301e+00   999.5470 0.0000e+00
      4.696    11.7361     0.6572      6.083  31.900442     43.268      6.741   303.1868     1.7438    10.3015     0.0227      0.060      4.606      6.681        602 6.0103e+00   999.5574 0.0000e+00
      4.712    11.7139     0.6691      6.184  31.912977     43.421      6.739   302.8461     1.7476    10.2871     0.0228      0.066      4.617      6.697        603 5.9264e+00   999.5648 0.0000e+00
      4.715    11.6915     0.6622      6.110  31.781785     43.234      6.738   303.2246     1.4882    10.9216     0.0227      0.067      4.622      6.703        604 6.0026e+00   999.5687 0.0000e+00
      4.712    11.6754     0.6528      6.011  31.619294     43.070      6.735   303.3004     1.5187    11.0369     0.0226      0.062      4.621      6.702        605 5.9549e+00   999.5711 0.0000e+00
      4.710    11.6864     0.6322      5.811  31.641145     43.096      6.735   303.1111     1.5073    10.9360     0.0226      0.050      4.619      6.699        606 5.9911e+00   999.5736 0.0000e+00
      4.708    11.7187     0.6201      5.695  31.873115     43.458      6.736   303.4518     1.4920    10.9648     0.0227      0.033      4.619      6.699        607 5.9724e+00   999.5754 0.0000e+00
      4.712    11.7592     0.6260      5.747  31.923191     43.522      6.735   303.6789     1.5225    10.9648     0.0228      0.019      4.621      6.702        608 5.9222e+00   999.5742 0.0000e+00
      4.715    11.8128     0.6567      6.029  31.904740     43.406      6.733   303.7925     1.3738    10.9937     0.0227      0.010      4.623      6.706        609 5.9202e+00   999.5707 0.0000e+00
      4.715    11.8538     0.7215      6.628  32.103471     43.701      6.734   303.7168     1.3852    10.9648     0.0229      0.005      4.625      6.708        610 5.8897e+00   999.5663 0.0000e+00
      4.717    11.8796     0.8072      7.414  32.179553     43.675      6.731   303.7168     1.4119    10.9937     0.0229      0.002      4.628      6.712        611 5.8537e+00   999.5604 0.0000e+00
      4.724    11.8789     0.8988      8.247  32.224845     43.739      6.731   304.0575     1.3814    10.9648     0.0229      0.004      4.636      6.724        612 5.6546e+00   999.5558 0.0000e+00
      4.742    11.8217     0.9957      9.126  31.928572     43.294      6.730   304.0954     1.3738    11.2100     0.0228      0.012      4.649      6.744        613 5.4681e+00   999.5529 0.0000e+00
      4.756    11.7453     1.0842      9.931  31.363091     42.495      6.729   304.0954     1.3966    11.2244     0.0224      0.020      4.663      6.764        614 5.4053e+00   999.5527 0.0000e+00
      4.767    11.6585     1.1638     10.656  31.091600     42.225      6.730   304.1711     1.3966    11.2244     0.0223      0.028      4.675      6.781        615 5.2768e+00   999.5590 0.0000e+00
      4.781    11.5799     1.2295     11.253  30.785048     41.892      6.731   304.3604     1.4043    11.1811     0.0221      0.035      4.686      6.797        616 5.1372e+00   999.5675 0.0000e+00
      4.789    11.5423     1.2862     11.767  30.529889     41.612      6.727   304.1332     1.4996    11.8012     0.0219      0.041      4.695      6.810        617 5.1230e+00   999.5771 0.0000e+00
      4.794    11.5260     1.3294     12.152  30.549982     41.779      6.726   304.4361     1.5187    11.9165     0.0220      0.044      4.702      6.820        618 5.0445e+00   999.5857 0.0000e+00
      4.803    11.5311     1.3693     12.507  30.463802     41.668      6.724   304.5118     1.5263    11.9165     0.0219      0.044      4.711      6.832        619 4.9082e+00   999.5898 0.0000e+00
      4.814    11.5510     1.4100     12.873  30.459395     41.687      6.724   304.3604     1.4767    12.0175     0.0219      0.042      4.720      6.846        620 4.8210e+00   999.5916 0.0000e+00
      4.821    11.5460     1.4631     13.352  30.555472     41.834      6.724   304.7389     1.3394    13.4450     0.0220      0.038      4.728      6.858        621 4.7351e+00   999.5911 0.0000e+00
      4.829    11.5039     1.5277     13.938  30.403489     41.581      6.724   304.9282     1.3356    13.4739     0.0219      0.035      4.738      6.872        622 4.6094e+00   999.5889 0.0000e+00
      4.844    11.4570     1.6117     14.707  30.144876     41.243      6.722   304.8904     1.3280    13.5027     0.0217      0.035      4.750      6.889        623 4.4895e+00   999.5894 0.0000e+00
      4.855    11.4286     1.7192     15.701  30.107019     41.215      6.722   305.0039     1.3242    13.5027     0.0217      0.036      4.761      6.905        624 4.4586e+00   999.5940 0.0000e+00
      4.865    11.4123     1.8203     16.639  30.183977     41.421      6.721   305.3446     1.3165    13.4450     0.0218      0.038      4.772      6.921        625 4.3451e+00   999.5992 0.0000e+00
      4.878    11.3954     1.9177     17.527  29.930616     41.070      6.720   304.8904     1.3165    13.4595     0.0216      0.041      4.784      6.939        626 4.2163e+00   999.6022 0.0000e+00
      4.892    11.3745     2.0041     18.292  29.681679     40.743      6.719   305.0039     1.3280    13.5748     0.0214      0.043      4.798      6.959        627 4.1045e+00   999.6038 0.0000e+00
      4.909    11.3414     2.0562     18.749  29.605000     40.686      6.720   305.1932     1.3470    13.4883     0.0214      0.047      4.814      6.982        628 3.9415e+00   999.6057 0.0000e+00
      4.926    11.3071     2.0761     18.927  29.226156     40.172      6.721   305.1175     1.3165    13.4739     0.0212      0.051      4.829      7.003        629 3.8567e+00   999.6079 0.0000e+00
      4.936    11.2860     2.0763     18.922  28.938515     39.785      6.717   305.3825     1.1258    13.7479     0.0210      0.053      4.838      7.017        630 3.8309e+00   999.6113 0.0000e+00
      4.937    11.2670     2.0689     18.841  29.014972     39.978      6.716   305.1932     1.1487    13.7046     0.0211      0.050      4.840      7.021        631 3.8524e+00   999.6149 0.0000e+00
      4.935    11.2572     2.0728     18.864  29.101395     40.076      6.717   305.4204     1.1334    13.6902     0.0211      0.045      4.840      7.021        632 3.8449e+00   999.6172 0.0000e+00
      4.936    11.2664     2.0755     18.883  29.245722     40.330      6.714   305.1932     1.1449    13.7479     0.0212      0.037      4.842      7.023        633 3.8061e+00   999.6193 0.0000e+00
      4.941    11.2994     2.0904     19.015  29.398242     40.532      6.716   305.1554     1.0113    13.1855     0.0213      0.029      4.846      7.029        634 3.7587e+00   999.6203 0.0000e+00
      4.948    11.3390     2.1207     19.284  29.474470     40.639      6.714   305.3068     1.0113    13.1566     0.0213      0.022      4.853      7.039        635 3.7092e+00   999.6194 0.0000e+00
      4.956    11.3327     2.1641     19.671  29.506359     40.640      6.714   305.3068     1.0190    13.2864     0.0214      0.017      4.862      7.051        636 3.6328e+00   999.6161 0.0000e+00
      4.968    11.2763     2.2112     20.090  29.121543     40.095      6.716   305.5718     1.0075    13.2720     0.0211      0.017      4.871      7.065        637 3.5728e+00   999.6118 0.0000e+00
      4.976    11.2337     2.2586     20.516  28.709103     39.448      6.716   305.8746     1.0152    13.0124     0.0209      0.020      4.878      7.075        638 3.5566e+00   999.6122 0.0000e+00
      4.977    11.2233     2.2994     20.885  28.953138     39.935      6.715   306.0261     0.9999    12.9548     0.0210      0.024      4.883      7.081        639 3.5185e+00   999.6183 0.0000e+00
      4.983    11.2082     2.3459     21.307  29.084482     40.136      6.717   306.2532     1.0419    13.0557     0.0211      0.027      4.891      7.093        640 3.4335e+00   999.6229 0.0000e+00
      5.002    11.1775     2.3857     21.665  28.782660     39.722      6.715   306.2532     1.0609    13.0413     0.0209      0.030      4.905      7.114        641 3.2514e+00   999.6239 0.0000e+00
      5.021    11.1494     2.4265     22.033  28.617769     39.508      6.715   306.5561     1.0915    12.7529     0.0208      0.036      4.919      7.135        642 3.2161e+00   999.6255 0.0000e+00
      5.023    11.1369     2.4622     22.355  28.667580     39.618      6.711   306.5182     1.0571    12.7241     0.0209      0.037      4.926      7.145        643 3.2216e+00   999.6287 0.0000e+00
      5.027    11.1278     2.4894     22.595  28.661433     39.650      6.711   306.8211     1.0953    12.7817     0.0209      0.037      4.931      7.152        644 3.1882e+00   999.6317 0.0000e+00
      5.035    11.1141     2.5075     22.754  28.566179     39.509      6.711   306.8968     1.0991    12.7241     0.0208      0.036      4.939      7.163        645 3.1326e+00   999.6330 0.0000e+00
      5.046    11.0960     2.5171     22.838  28.489885     39.442      6.711   306.9725     0.9084    11.4263     0.0208      0.037      4.949      7.178        646 2.9925e+00   999.6338 0.0000e+00
      5.060    11.0765     2.5233     22.890  28.460141     39.379      6.711   307.1996     0.8969    11.3974     0.0207      0.039      4.960      7.195        647 2.9386e+00   999.6353 0.0000e+00
      5.069    11.0655     2.5329     22.973  28.514327     39.515      6.710   307.5025     0.8740    11.3542     0.0208      0.038      4.970      7.209        648 2.9107e+00   999.6373 0.0000e+00
      5.075    11.0635     2.5377     23.013  28.511332     39.498      6.708   307.4268     0.8893    11.4263     0.0208      0.035      4.978      7.221        649 2.8479e+00   999.6393 0.0000e+00
      5.086    11.0626     2.5382     23.013  28.493500     39.510      6.709   307.6918     0.9122    11.3974     0.0208      0.034      4.988      7.235        650 2.7724e+00   999.6405 0.0000e+00
      5.096    11.0566     2.5434     23.056  28.506898     39.512      6.709   307.6161     0.9312    11.0081     0.0208      0.037      4.997      7.247        651 2.7502e+00   999.6407 0.0000e+00
      5.102    11.0505     2.5515     23.124  28.494659     39.513      6.708   307.9947     0.8816    10.8927     0.0208      0.038      5.004      7.257        652 2.7093e+00   999.6408 0.0000e+00
      5.109    11.0448     2.5544     23.149  28.449484     39.442      6.708   307.9947     0.8969    11.0081     0.0207      0.036      5.011      7.268        653 2.6295e+00   999.6415 0.0000e+00
      5.119    11.0339     2.5557     23.162  28.444624     39.449      6.708   307.8432     0.9084    11.0514     0.0207      0.034      5.019      7.281        654 2.5891e+00   999.6421 0.0000e+00
      5.127    11.0236     2.5478     23.086  28.411839     39.416      6.708   308.3354     0.9007    10.7630     0.0207      0.033      5.028      7.293        655 2.5545e+00   999.6427 0.0000e+00
      5.135    11.0172     2.5205     22.830  28.371792     39.351      6.710   308.1461     0.8931    10.7341     0.0207      0.033      5.036      7.304        656 2.5272e+00   999.6439 0.0000e+00
      5.143    11.0108     2.4926     22.573  28.346346     39.362      6.707   308.4868     0.9007    10.7341     0.0207      0.032      5.044      7.315        657 2.4492e+00   999.6450 0.0000e+00
      5.150    11.0023     2.4567     22.246  28.325013     39.292      6.707   308.3354     0.8740    10.6764     0.0206      0.031      5.051      7.326        658 2.4273e+00   999.6456 0.0000e+00
      5.157    10.9945     2.4176     21.888  28.427965     39.492      6.708   308.3354     0.8969    10.1429     0.0207      0.031      5.057      7.336        659 2.4267e+00   999.6464 0.0000e+00
      5.163    10.9872     2.3711     21.459  28.514466     39.579      6.707   308.4111     0.8855    10.0852     0.0208      0.031      5.066      7.347        660 2.3586e+00   999.6473 0.0000e+00
      5.177    10.9777     2.3345     21.122  28.602481     39.743      6.706   308.3354     0.9236    10.0708     0.0208      0.031      5.078      7.364        661 2.2774e+00   999.6482 0.0000e+00
      5.191    10.9684     2.2956     20.768  28.792424     39.984      6.703   308.7139     0.8855     9.9987     0.0209      0.033      5.090      7.383        662 2.2082e+00   999.6491 0.0000e+00
      5.202    10.9661     2.2735     20.563  28.900201     40.188      6.701   308.6382     0.9122     9.4940     0.0210      0.036      5.100      7.398        663 2.1855e+00   999.6502 0.0000e+00
      5.210    10.9678     2.2503     20.351  28.853476     40.082      6.703   308.7897     0.9045     9.4652     0.0210      0.038      5.109      7.411        664 2.1364e+00   999.6511 0.0000e+00
      5.218    10.9600     2.2278     20.159  28.909824     40.201      6.703   308.9789     0.9160     9.3642     0.0210      0.039      5.117      7.422        665 2.1271e+00   999.6514 0.0000e+00
      5.228    10.9450     2.2058     19.974  28.978203     40.277      6.702   308.5625     0.8931     9.3498     0.0211      0.040      5.127      7.435        666 2.0742e+00   999.6513 0.0000e+00
      5.237    10.9360     2.1854     19.790  29.035005     40.363      6.698   308.8275     0.8435     7.8502     0.0211      0.040      5.136      7.448        667 2.0213e+00   999.6522 0.0000e+00
      5.244    10.9322     2.1680     19.629  29.046512     40.419      6.697   308.8275     0.8511     7.8357     0.0211      0.039      5.143      7.460        668 2.0402e+00   999.6537 0.0000e+00
      5.252    10.9237     2.1515     19.477  28.993512     40.313      6.696   308.6382     0.8435     7.8357     0.0211      0.036      5.152      7.472        669 1.9918e+00   999.6547 0.0000e+00
      5.265    10.9084     2.1354     19.329  29.071340     40.472      6.696   308.4111     0.8359     7.7637     0.0211      0.035      5.162      7.486        670 1.9250e+00   999.6551 0.0000e+00
      5.272    10.8969     2.1284     19.264  29.275533     40.715      6.694   308.3354     0.8473     7.8790     0.0212      0.035      5.170      7.499        671 1.9006e+00   999.6561 0.0000e+00
      5.280    10.8932     2.1223     19.203  29.361529     40.926      6.696   308.7518     0.9084     7.8646     0.0213      0.035      5.178      7.510        672 1.8764e+00   999.6577 0.0000e+00
      5.290    10.8828     2.1160     19.142  29.290202     40.746      6.695   308.5625     0.9007     7.8069     0.0212      0.035      5.187      7.523        673 1.7878e+00   999.6589 0.0000e+00
      5.299    10.8775     2.1213     19.186  29.364303     40.943      6.695   308.2218     0.9236     7.8646     0.0213      0.035      5.196      7.537        674 1.7457e+00   999.6594 0.0000e+00
      5.307    10.9024     2.1257     19.225  29.328566     40.839      6.693   307.9568     0.8816     7.7492     0.0213      0.035      5.203      7.547        675 1.7442e+00   999.6604 0.0000e+00
      5.310    10.9306     2.1319     19.286  29.305054     40.846      6.691   307.8811     0.9465     7.5618     0.0213      0.034      5.207      7.553        676 1.7384e+00   999.6609 0.0000e+00
      5.313    10.9328     2.1349     19.325  29.304687     40.817      6.690   307.3889     0.9541     7.6195     0.0213      0.031      5.210      7.557        677 1.7360e+00   999.6585 0.0000e+00
      5.315    10.9268     2.1283     19.274  29.269765     40.706      6.687   307.5404     0.9961     7.5618     0.0212      0.026      5.213      7.560        678 1.7318e+00   999.6556 0.0000e+00
      5.317    10.9201     2.1108     19.117  29.378131     40.899      6.689   307.6161     0.9618     7.5329     0.0213      0.023      5.215      7.563        679 1.7521e+00   999.6554 0.0000e+00
      5.319    10.9143     2.0821     18.859  29.406827     40.905      6.686   307.5404     1.0113     7.5185     0.0213      0.018      5.217      7.566        680 1.7499e+00   999.6560 0.0000e+00
      5.322    10.9098     2.0332     18.416  29.382181     40.913      6.686   307.4268     1.0342     7.5906     0.0213      0.014      5.220      7.570        681 1.7188e+00   999.6567 0.0000e+00
      5.326    10.8988     1.9741     17.882  29.319929     40.803      6.686   307.0482     1.0266     7.6195     0.0213      0.011      5.223      7.575        682 1.6947e+00   999.6573 0.0000e+00
      5.328    10.8877     1.9158     17.360  29.306550     40.808      6.683   307.0861     1.0190     7.5474     0.0213      0.010      5.225      7.579        683 1.6963e+00   999.6578 0.0000e+00
      5.331    10.8808     1.8596     16.856  29.517336     41.093      6.681   307.5404     1.0686     8.2107     0.0214      0.010      5.228      7.583        684 1.7023e+00   999.6590 0.0000e+00
      5.333    10.8792     1.8178     16.482  29.857505     41.611      6.682   307.1239     1.0648     8.2972     0.0216      0.010      5.230      7.585        685 1.6835e+00   999.6603 0.0000e+00
      5.334    10.8917     1.7856     16.194  30.216387     42.086      6.681   306.9725     1.1105     8.3260     0.0218      0.010      5.231      7.587        686 1.6709e+00   999.6611 0.0000e+00
      5.336    10.9171     1.7898     16.237  30.729799     42.828      6.679   307.2375     1.1105     8.2828     0.0221      0.010      5.233      7.589        687 1.6695e+00   999.6615 0.0000e+00
      5.337    10.9343 -9.990e-29 -9.990e-29  31.085076     43.319      6.676   306.9346     1.0152     8.9461     0.0223      0.009      5.234      7.591        688 1.6675e+00   999.6605 0.0000e+00
      5.339    10.9387 -9.990e-29 -9.990e-29  30.988968     43.132      6.678   306.7075     1.0381     8.8307     0.0223      0.008      5.235      7.593        689 1.6798e+00   999.6579 0.0000e+00
      5.339    10.9435 -9.990e-29 -9.990e-29  30.997531     43.111      6.675   306.9346     1.0266     9.1191     0.0223      0.007      5.236      7.594        690 1.6669e+00   999.6561 0.0000e+00
      5.340    10.9450 -9.990e-29 -9.990e-29  31.133668     43.339      6.676   307.0104     1.0342     8.8596     0.0224      0.005      5.236      7.595        691 1.6401e+00   999.6558 0.0000e+00
      5.340    10.9487 -9.990e-29 -9.990e-29  30.878802     42.945      6.674   306.9346     1.0113     8.8740     0.0222      0.004      5.236      7.595        692 1.6511e+00   999.6552 0.0000e+00
      5.340    10.9624 -9.990e-29 -9.990e-29  30.396253     42.283      6.672   307.0482     1.0152     8.1674     0.0219      0.004      5.237      7.595        693 1.6414e+00   999.6548 0.0000e+00
      5.341    10.9765 -9.990e-29 -9.990e-29  30.104691     41.852      6.672   306.8968     1.0228     8.3116     0.0217      0.003      5.238      7.596        694 1.6319e+00   999.6544 0.0000e+00
      5.342    10.9870 -9.990e-29 -9.990e-29  30.026941     41.757      6.673   306.8211     1.0381     8.3260     0.0217      0.002      5.239      7.598        695 1.6426e+00   999.6529 0.0000e+00
      5.343    11.0013 -9.990e-29 -9.990e-29  29.870852     41.509      6.675   307.0482     1.0342     8.2107     0.0216      0.003      5.240      7.600        696 1.6170e+00   999.6513 0.0000e+00
      5.345    11.0111 -9.990e-29 -9.990e-29  29.736038     41.302      6.670   307.1239     1.0838     8.0665     0.0215      0.003      5.241      7.602        697 1.6041e+00   999.6503 0.0000e+00
      5.346 -9.990e-29 -9.990e-29 -9.990e-29  29.661440     41.210      6.670   307.0104     1.1182     8.0953     0.0215      0.003      5.243      7.604        698 1.5977e+00   999.6488 0.0000e+00
      5.346 -9.990e-29 -9.990e-29 -9.990e-29  29.578546     41.041      6.671   307.3511     1.0876     8.1097     0.0214      0.004      5.243      7.604        699 1.5855e+00   999.6478 0.0000e+00
