* Sea-Bird SBE19plus  Data File:
* FileName = C:\DATA\071019_bvr_0004.hex
* Software version 2.8.0.119
* Temperature SN = 7809
* Conductivity SN = 7809
* System UpLoad Time = Jul 12 2019 13:02:14
* <ApplicationData>
* <Seaterm232>
* <SoftwareVersion>2.8.0.119</SoftwareVersion>
* <BuildDate>07-Nov-2018</BuildDate>
* </Seaterm232>
* </ApplicationData>
* <InstrumentState>
* <HardwareData DeviceType='SBE19plus' SerialNumber='01907809'>
*
*    <Manufacturer>Sea-Bird Electronics, Inc.</Manufacturer>
*
*    <FirmwareVersion>3.1.8</FirmwareVersion>
*
*    <FirmwareDate>Mar  9 2016 16:22:29</FirmwareDate>
*
*    <CommandSetVersion>1.4</CommandSetVersion>
*
*    <PCBAssembly PCBSerialNum='120721' AssemblyNum='41054J'/>
*
*    <PCBAssembly PCBSerialNum='120715' AssemblyNum='41967A'/>
*
*    <PCBAssembly PCBSerialNum='116699' AssemblyNum='41606'/>
*
*    <PCBAssembly PCBSerialNum='120719' AssemblyNum='41059D'/>
*
*    <MfgDate>28-Apr-2017</MfgDate>
*
*    <InternalSensors>
*
*       <Sensor id='Main Temperature'>
*
*          <type>temperature0</type>
*
*          <SerialNumber>01907809</SerialNumber>
*
*       </Sensor>
*
*       <Sensor id='Main Conductivity'>
*
*          <type>conductivity-0</type>
*
*          <SerialNumber>01907809</SerialNumber>
*
*       </Sensor>
*
*       <Sensor id='Main Pressure'>
*
*          <type>strain-0</type>
*
*          <SerialNumber>10586018</SerialNumber>
*
*       </Sensor>
*
*    </InternalSensors>
*
*    <ExternalSensors>
*
*       <Sensor id='volt 0'>
*
*          <type>pH</type>
*
*          <SerialNumber>27-0363</SerialNumber>
*
*       </Sensor>
*
*       <Sensor id='volt 1'>
*
*          <type>ORP</type>
*
*          <SerialNumber>27-0363</SerialNumber>
*
*       </Sensor>
*
*       <Sensor id='volt 2'>
*
*          <type>OXY</type>
*
*          <SerialNumber>43-0434</SerialNumber>
*
*       </Sensor>
*
*       <Sensor id='volt 3'>
*
*          <type>PAR</type>
*
*          <SerialNumber>1122</SerialNumber>
*
*       </Sensor>
*
*       <Sensor id='volt 4'>
*
*          <type>ECO AFL/FL</type>
*
*          <SerialNumber>FLNTURT-2496</SerialNumber>
*
*       </Sensor>
*
*       <Sensor id='volt 5'>
*
*          <type>ECO-NTU</type>
*
*          <SerialNumber>FLNTURT-2496</SerialNumber>
*
*       </Sensor>
*
*       <Sensor id='serial'>
*
*          <type>not assigned</type>
*
*          <SerialNumber>not assigned</SerialNumber>
*
*       </Sensor>
*
*    </ExternalSensors>
*
* </HardwareData>
* <StatusData DeviceType='SBE19plus' SerialNumber='01907809'>
*
*    <DateTime>2019-07-12T12:59:51</DateTime>
*
*    <LoggingState>not logging</LoggingState>
*
*    <EventSummary numEvents='0'/>
*
*    <Power>
*
*       <vMain>12.8</vMain>
*
*       <vLith>8.6</vLith>
*
*       <iMain>63.0</iMain>
*
*       <iPump>123.3</iPump>
*
*       <iExt01>19.1</iExt01>
*
*       <iExt2345>36.6</iExt2345>
*
*    </Power>
*
*    <MemorySummary>
*
*       <Bytes>253115</Bytes>
*
*       <Samples>11005</Samples>
*
*       <SamplesFree>2849783</SamplesFree>
*
*       <SampleLength>23</SampleLength>
*
*       <Profiles>10</Profiles>
*
*    </MemorySummary>
*
* </StatusData>
* <ConfigurationData DeviceType='SBE19plus' SerialNumber='01907809'>
*
*    <ProfileMode>
*
*       <ScansToAverage>1</ScansToAverage>
*
*       <MinimumCondFreq>5</MinimumCondFreq>
*
*       <PumpDelay>45</PumpDelay>
*
*       <AutoRun>no</AutoRun>
*
*       <IgnoreSwitch>no</IgnoreSwitch>
*
*    </ProfileMode>
*
*    <Battery>
*
*       <Type>alkaline</Type>
*
*       <CutOff>7.5</CutOff>
*
*    </Battery>
*
*    <DataChannels>
*
*       <ExtVolt0>yes</ExtVolt0>
*
*       <ExtVolt1>yes</ExtVolt1>
*
*       <ExtVolt2>yes</ExtVolt2>
*
*       <ExtVolt3>yes</ExtVolt3>
*
*       <ExtVolt4>yes</ExtVolt4>
*
*       <ExtVolt5>yes</ExtVolt5>
*
*       <SBE38>no</SBE38>
*
*       <WETLABS>no</WETLABS>
*
*       <OPTODE>no</OPTODE>
*
*       <SBE63>no</SBE63>
*
*       <SeaFET>no</SeaFET>
*
*       <GTD>no</GTD>
*
*    </DataChannels>
*
*    <EchoCharacters>yes</EchoCharacters>
*
*    <OutputExecutedTag>yes</OutputExecutedTag>
*
*    <OutputFormat>raw HEX</OutputFormat>
*
* </ConfigurationData>
* <CalibrationCoefficients DeviceType='SBE19plus' SerialNumber='01907809'>
*
*    <Calibration format='TEMP1' id='Main Temperature'>
*
*       <SerialNum>01907809</SerialNum>
*
*       <CalDate>24-Mar-19</CalDate>
*
*       <TA0>1.217923e-03</TA0>
*
*       <TA1>2.816693e-04</TA1>
*
*       <TA2>-1.603333e-06</TA2>
*
*       <TA3>1.984146e-07</TA3>
*
*       <TOFFSET>0.000000e+00</TOFFSET>
*
*    </Calibration>
*
*    <Calibration format='WBCOND0' id='Main Conductivity'>
*
*       <SerialNum>01907809</SerialNum>
*
*       <CalDate>24-Mar-19</CalDate>
*
*       <G>-1.005893e+00</G>
*
*       <H>1.268163e-01</H>
*
*       <I>-1.515604e-04</I>
*
*       <J>2.671373e-05</J>
*
*       <CPCOR>-9.570000e-08</CPCOR>
*
*       <CTCOR>3.250000e-06</CTCOR>
*
*       <CSLOPE>1.000000e+00</CSLOPE>
*
*    </Calibration>
*
*    <Calibration format='STRAIN0' id='Main Pressure'>
*
*       <SerialNum>10586018</SerialNum>
*
*       <CalDate>11-Mar-19</CalDate>
*
*       <PA0>4.565618e-02</PA0>
*
*       <PA1>4.850951e-04</PA1>
*
*       <PA2>-2.883271e-12</PA2>
*
*       <PTCA0>5.252467e+05</PTCA0>
*
*       <PTCA1>1.223042e+01</PTCA1>
*
*       <PTCA2>-3.567450e-01</PTCA2>
*
*       <PTCB0>2.516687e+01</PTCB0>
*
*       <PTCB1>3.750000e-04</PTCB1>
*
*       <PTCB2>0.000000e+00</PTCB2>
*
*       <PTEMPA0>-5.487846e+01</PTEMPA0>
*
*       <PTEMPA1>5.537568e+01</PTEMPA1>
*
*       <PTEMPA2>-5.867271e-01</PTEMPA2>
*
*       <POFFSET>7.140000e-01</POFFSET>
*
*       <PRANGE>1.600000e+02</PRANGE>
*
*    </Calibration>
*
*    <Calibration format='VOLT0' id='Volt 0'>
*
*       <OFFSET>-4.920000e-02</OFFSET>
*
*       <SLOPE>1.248122e+00</SLOPE>
*
*    </Calibration>
*
*    <Calibration format='VOLT0' id='Volt 1'>
*
*       <OFFSET>-4.784000e-02</OFFSET>
*
*       <SLOPE>1.248871e+00</SLOPE>
*
*    </Calibration>
*
*    <Calibration format='VOLT0' id='Volt 2'>
*
*       <OFFSET>-4.864632e-02</OFFSET>
*
*       <SLOPE>1.248714e+00</SLOPE>
*
*    </Calibration>
*
*    <Calibration format='VOLT0' id='Volt 3'>
*
*       <OFFSET>-4.743790e-02</OFFSET>
*
*       <SLOPE>1.248571e+00</SLOPE>
*
*    </Calibration>
*
*    <Calibration format='VOLT0' id='Volt 4'>
*
*       <OFFSET>-4.671263e-02</OFFSET>
*
*       <SLOPE>1.248951e+00</SLOPE>
*
*    </Calibration>
*
*    <Calibration format='VOLT0' id='Volt 5'>
*
*       <OFFSET>-4.871053e-02</OFFSET>
*
*       <SLOPE>1.249136e+00</SLOPE>
*
*    </Calibration>
*
*    <Calibration format='FREQ0' id='external frequency channel'>
*
*       <EXTFREQSF>1.000014e+00</EXTFREQSF>
*
*    </Calibration>
*
* </CalibrationCoefficients>
* <EventCounters DeviceType='SBE19plus' SerialNumber='01907809'>
*
*    <EventSummary numEvents='0'/>
*
* </EventCounters></InstrumentState>
* <Headers>
*
* cast   4 10 Jul 2019 23:39:08 samples 3322 to 4199, avg = 1, stop = mag switch
*
# nquan = 18
# nvalues = 779                         
# units = specified
# name 0 = depFM: Depth [fresh water, m]
# name 1 = tv290C: Temperature [ITS-90, deg C]
# name 2 = sbeox0Mg/L: Oxygen, SBE 43 [mg/l]
# name 3 = sbeox0PS: Oxygen, SBE 43 [% saturation]
# name 4 = c0uS/cm: Conductivity [uS/cm]
# name 5 = specc: Specific Conductance [uS/cm]
# name 6 = ph: pH
# name 7 = orp: Oxidation Reduction Potential [mV]
# name 8 = flECO-AFL: Fluorescence, WET Labs ECO-AFL/FL [mg/m^3]
# name 9 = turbWETntu0: Turbidity, WET Labs ECO [NTU]
# name 10 = sal00: Salinity, Practical [PSU]
# name 11 = dz/dtM: Descent Rate [m/s]
# name 12 = prdM: Pressure, Strain Gauge [db]
# name 13 = prdE: Pressure, Strain Gauge [psi]
# name 14 = scan: Scan Count
# name 15 = par/sat/log: PAR/Logarithmic, Satlantic
# name 16 = density00: Density [density, kg/m^3]
# name 17 = flag:  0.000e+00
# span 0 =     -0.671,     10.568       
# span 1 =     8.4172,    27.6221       
# span 2 =    -0.4368,     8.4881       
# span 3 =     -4.034,    107.431       
# span 4 =   0.436036, 162.819065       
# span 5 =      0.456,    243.386       
# span 6 =      5.880,      7.671       
# span 7 =   -85.5315,   333.0183       
# span 8 =    -0.1560,    31.7430       
# span 9 =    -0.5566,    23.3082       
# span 10 =     0.0110,     0.1130      
# span 11 =     -0.211,      0.282      
# span 12 =     -0.658,     10.363      
# span 13 =     -0.954,     15.030      
# span 14 =          1,        779      
# span 15 = 1.2345e-01, 1.2394e-01      
# span 16 =   996.3574,   999.9618      
# span 17 = 0.0000e+00, 0.0000e+00      
# interval = seconds: 0.25
# start_time = Jul 10 2019 23:39:08 [Instrument's time stamp, header]
# bad_flag = -9.990e-29
# <Sensors count="9" >
#   <sensor Channel="1" >
#     <!-- Count, Temperature -->
#     <TemperatureSensor SensorID="58" >
#       <SerialNumber>7809</SerialNumber>
#       <CalibrationDate>24-Mar-19</CalibrationDate>
#       <A0>1.21792325e-003</A0>
#       <A1>2.81669265e-004</A1>
#       <A2>-1.60333336e-006</A2>
#       <A3>1.98414625e-007</A3>
#       <Slope>1.00000000</Slope>
#       <Offset>0.0000</Offset>
#     </TemperatureSensor>
#   </sensor>
#   <sensor Channel="2" >
#     <!-- Frequency 0, Conductivity -->
#     <ConductivitySensor SensorID="3" >
#       <SerialNumber>7809</SerialNumber>
#       <CalibrationDate>24-Mar-19</CalibrationDate>
#       <UseG_J>1</UseG_J>
#       <!-- Cell const and series R are applicable only for wide range sensors. -->
#       <SeriesR>0.0000</SeriesR>
#       <CellConst>2000.0000</CellConst>
#       <ConductivityType>0</ConductivityType>
#       <Coefficients equation="0" >
#         <A>0.00000000e+000</A>
#         <B>0.00000000e+000</B>
#         <C>0.00000000e+000</C>
#         <D>0.00000000e+000</D>
#         <M>0.0</M>
#         <CPcor>-9.57000000e-008</CPcor>
#       </Coefficients>
#       <Coefficients equation="1" >
#         <G>-1.00589325e+000</G>
#         <H>1.26816302e-001</H>
#         <I>-1.51560448e-004</I>
#         <J>2.67137274e-005</J>
#         <CPcor>-9.57000000e-008</CPcor>
#         <CTcor>3.2500e-006</CTcor>
#         <!-- WBOTC not applicable unless ConductivityType = 1. -->
#         <WBOTC>0.00000000e+000</WBOTC>
#       </Coefficients>
#       <Slope>1.00000000</Slope>
#       <Offset>0.00000</Offset>
#     </ConductivitySensor>
#   </sensor>
#   <sensor Channel="3" >
#     <!-- Count, Pressure, Strain Gauge -->
#     <PressureSensor SensorID="46" >
#       <SerialNumber>7809</SerialNumber>
#       <CalibrationDate>11-Mar-19</CalibrationDate>
#       <PA0>4.56561833e-002</PA0>
#       <PA1>4.85095118e-004</PA1>
#       <PA2>-2.88327090e-012</PA2>
#       <PTEMPA0>-5.48784562e+001</PTEMPA0>
#       <PTEMPA1>5.53756816e+001</PTEMPA1>
#       <PTEMPA2>-5.86727098e-001</PTEMPA2>
#       <PTCA0>5.25246745e+005</PTCA0>
#       <PTCA1>1.22304214e+001</PTCA1>
#       <PTCA2>-3.56745036e-001</PTCA2>
#       <PTCB0>2.51668750e+001</PTCB0>
#       <PTCB1>3.75000000e-004</PTCB1>
#       <PTCB2>0.00000000e+000</PTCB2>
#       <Offset>0.000000</Offset>
#     </PressureSensor>
#   </sensor>
#   <sensor Channel="4" >
#     <!-- A/D voltage 0, Oxygen, SBE 43 -->
#     <OxygenSensor SensorID="38" >
#       <SerialNumber>0434</SerialNumber>
#       <CalibrationDate>13-Apr-19</CalibrationDate>
#       <Use2007Equation>1</Use2007Equation>
#       <CalibrationCoefficients equation="0" >
#         <!-- Coefficients for Owens-Millard equation. -->
#         <Boc>0.0000</Boc>
#         <Soc>0.0000e+000</Soc>
#         <offset>0.0000</offset>
#         <Pcor>0.00e+000</Pcor>
#         <Tcor>0.0000</Tcor>
#         <Tau>0.0</Tau>
#       </CalibrationCoefficients>
#       <CalibrationCoefficients equation="1" >
#         <!-- Coefficients for Sea-Bird equation - SBE calibration in 2007 and later. -->
#         <Soc>4.2007e-001</Soc>
#         <offset>-0.6109</offset>
#         <A>-4.3656e-003</A>
#         <B> 1.7017e-004</B>
#         <C>-2.5341e-006</C>
#         <D0> 2.5826e+000</D0>
#         <D1> 1.92634e-004</D1>
#         <D2>-4.64803e-002</D2>
#         <E> 3.6000e-002</E>
#         <Tau20> 1.1800</Tau20>
#         <H1>-3.3000e-002</H1>
#         <H2> 5.0000e+003</H2>
#         <H3> 1.4500e+003</H3>
#       </CalibrationCoefficients>
#     </OxygenSensor>
#   </sensor>
#   <sensor Channel="5" >
#     <!-- A/D voltage 1, PAR/Logarithmic, Satlantic -->
#     <PARLog_SatlanticSensor SensorID="76" >
#       <SerialNumber>1122</SerialNumber>
#       <CalibrationDate>08-May-2019</CalibrationDate>
#       <a0>9.7456e-001</a0>
#       <a1>8.1640e-001</a1>
#       <Im>1.3589e+000</Im>
#       <Multiplier>1.0000e+000</Multiplier>
#     </PARLog_SatlanticSensor>
#   </sensor>
#   <sensor Channel="6" >
#     <!-- A/D voltage 2, pH -->
#     <pH_Sensor SensorID="43" >
#       <SerialNumber>0363</SerialNumber>
#       <CalibrationDate>15-Apr-19</CalibrationDate>
#       <Slope>4.5952</Slope>
#       <Offset>2.5370</Offset>
#     </pH_Sensor>
#   </sensor>
#   <sensor Channel="7" >
#     <!-- A/D voltage 3, Oxidation Reduction Potential -->
#     <OxidationReductionPotentialSensor SensorID="41" >
#       <SerialNumber>0363</SerialNumber>
#       <CalibrationDate>15-Apr-19</CalibrationDate>
#       <B>2.499480</B>
#       <M>-0.496195</M>
#       <Offset>0.0</Offset>
#     </OxidationReductionPotentialSensor>
#   </sensor>
#   <sensor Channel="8" >
#     <!-- A/D voltage 4, Fluorometer, WET Labs ECO-AFL/FL -->
#     <FluoroWetlabECO_AFL_FL_Sensor SensorID="20" >
#       <SerialNumber>FLNTURT-2496</SerialNumber>
#       <CalibrationDate>08-May-2019</CalibrationDate>
#       <ScaleFactor>5.00000000e+001</ScaleFactor>
#       <!-- Dark output -->
#       <Vblank>0.0550</Vblank>
#     </FluoroWetlabECO_AFL_FL_Sensor>
#   </sensor>
#   <sensor Channel="9" >
#     <!-- A/D voltage 5, Turbidity Meter, WET Labs, ECO-NTU -->
#     <TurbidityMeter SensorID="67" >
#       <SerialNumber>FLNTURT-2496</SerialNumber>
#       <CalibrationDate>08-May-2019</CalibrationDate>
#       <ScaleFactor>189.000000</ScaleFactor>
#       <!-- Dark output -->
#       <DarkVoltage>0.071000</DarkVoltage>
#     </TurbidityMeter>
#   </sensor>
# </Sensors>
# datcnv_date = Jul 12 2019 13:13:04, 7.26.7.129 [datcnv_vars = 17]
# datcnv_in = C:\DATA\071019_bvr50_e.hex C:\DATA\SBE19plusV2_7809.xmlcon
# datcnv_skipover = 0
# datcnv_ox_hysteresis_correction = yes
# datcnv_ox_tau_correction = yes
# filter_date = Jul 12 2019 13:13:33, 7.26.7.129
# filter_in = C:\DATA\071019_bvr50_e.cnv
# filter_low_pass_tc_A = 0.030
# filter_low_pass_tc_B = 0.150
# filter_low_pass_A_vars = tv290C c0uS/cm par/sat/log density00
# filter_low_pass_B_vars = prdM prdE
# alignctd_date = Jul 12 2019 13:14:04, 7.26.7.129
# alignctd_in = C:\DATA\071019_bvr50_e.cnv
# alignctd_adv = tv290C 0.500, sbeox0Mg/L 3.000, sbeox0PS 3.000                                                                                                                                                                      
# file_type = ascii
*END*
     -0.671    22.7249     8.2385     95.549   0.492525      0.514      6.412    17.7052     0.2522     0.1788     0.0110      0.000     -0.658     -0.954          1 1.2367e-01   997.6101 0.0000e+00
     -0.670    22.7250     8.2393     95.558   0.488291      0.514      6.411    14.6388     0.2446     0.1788     0.0110      0.000     -0.657     -0.953          2 1.2353e-01   997.6101 0.0000e+00
     -0.670    22.7253     8.2399     95.566   0.436036      0.456      6.408    12.9731     0.2522     0.2798     0.0110      0.000     -0.657     -0.953          3 1.2362e-01   997.6101 0.0000e+00
     -0.671    22.7254     8.2393     95.559   0.439230      0.456      6.408    12.7838     0.2522     0.4672     0.0110      0.000     -0.658     -0.954          4 1.2369e-01   997.6101 0.0000e+00
     -0.671    22.7252     8.2429     95.601   0.543480      0.573      6.409     9.9067     0.2446     0.4240     0.0110     -0.000     -0.658     -0.954          5 1.2370e-01   997.6100 0.0000e+00
     -0.670    22.7254     8.2433     95.605   0.542952      0.573      6.411     5.6666     0.2255     0.4240     0.0110     -0.000     -0.658     -0.954          6 1.2374e-01   997.6100 0.0000e+00
     -0.671    22.7257     8.2453     95.629   0.499051      0.514      6.410     2.4109     0.2713     0.4961     0.0110     -0.000     -0.658     -0.954          7 1.2370e-01   997.6100 0.0000e+00
     -0.670    22.7257     8.2425     95.596   0.538949      0.573      6.409     0.7452     0.2255     0.3519     0.0110     -0.000     -0.658     -0.954          8 1.2385e-01   997.6100 0.0000e+00
     -0.671    22.7255     8.2440     95.614   0.552462      0.573      6.409    -3.3055     0.3094     0.3519     0.0110     -0.000     -0.658     -0.954          9 1.2381e-01   997.6099 0.0000e+00
     -0.670    22.7258     8.2451     95.627   0.541399      0.573      6.409    -4.7441     0.3361     0.3663     0.0110     -0.000     -0.658     -0.954         10 1.2368e-01   997.6099 0.0000e+00
     -0.671    22.7256     8.2423     95.595   0.552717      0.573      6.408    -7.1291     0.3132     0.4384     0.0110      0.000     -0.658     -0.954         11 1.2378e-01   997.6100 0.0000e+00
     -0.671    22.7256     8.2447     95.623   0.597540      0.631      6.409   -13.2241     0.3094     0.5249     0.0110      0.000     -0.658     -0.954         12 1.2369e-01   997.6099 0.0000e+00
     -0.670    22.7259     8.2419     95.590   0.751855      0.777      6.408   -11.5206     0.1187    -0.1240     0.0110      0.000     -0.658     -0.954         13 1.2372e-01   997.6099 0.0000e+00
     -0.671    22.7258     8.2430     95.603   0.893152      0.952      6.405   -10.4984     0.1187    -0.0951     0.0110     -0.000     -0.658     -0.954         14 1.2378e-01   997.6099 0.0000e+00
     -0.671    22.7259     8.2415     95.586   0.865431      0.894      6.407   -11.5963     0.1378     0.0058     0.0110      0.000     -0.658     -0.954         15 1.2374e-01   997.6099 0.0000e+00
     -0.670    22.7262     8.2423     95.596   0.845519      0.894      6.408   -13.1863     0.1454     0.0202     0.0110      0.000     -0.657     -0.953         16 1.2377e-01   997.6099 0.0000e+00
     -0.670    22.7262     8.2406     95.576   0.858767      0.894      6.408   -12.8077    -0.0034    -0.2537     0.0110      0.000     -0.657     -0.953         17 1.2366e-01   997.6098 0.0000e+00
     -0.670    22.7265     8.1964     95.558   0.848942      0.894      6.409   -14.5113     0.0043    -0.2105     0.0110      0.000     -0.657     -0.953         18 1.2355e-01   997.6098 0.0000e+00
     -0.670    22.7261     8.0272     95.489   0.857746      0.894      6.409   -14.4356    -0.0148    -0.3691     0.0110      0.000     -0.657     -0.953         19 1.2375e-01   997.6098 0.0000e+00
     -0.670    22.7271     7.8861     95.437   0.847812      0.894      6.407   -13.2998     0.0004    -0.2393     0.0110      0.000     -0.657     -0.953         20 1.2384e-01   997.6097 0.0000e+00
     -0.670    22.7261     7.7838     95.378   0.861305      0.894      6.404   -12.6563    -0.1331    -0.4845     0.0110      0.000     -0.657     -0.953         21 1.2364e-01   997.6098 0.0000e+00
     -0.671    22.7278     7.6962     95.358   0.781789      0.835      6.403   -12.5427    -0.1026    -0.4700     0.0110      0.000     -0.658     -0.954         22 1.2366e-01   997.6096 0.0000e+00
     -0.671    22.7250     7.6353     95.429   0.828440      0.835      6.403   -11.4448    -0.1254    -0.5277     0.0110     -0.000     -0.658     -0.954         23 1.2378e-01   997.6098 0.0000e+00
     -0.670    22.7298     7.6136     95.647   0.803250      0.894      6.403   -10.6877    -0.1140    -0.5133     0.0110     -0.000     -0.658     -0.954         24 1.2374e-01   997.6094 0.0000e+00
     -0.671    22.7220     7.6268     96.070   0.990631      0.952      6.401    -9.7413    -0.1254    -0.4268     0.0110     -0.000     -0.658     -0.954         25 1.2374e-01   997.6101 0.0000e+00
     -0.670    22.7351     7.6583     96.617   0.831905      1.011      6.400    -9.1355    -0.1369    -0.4556     0.0110     -0.000     -0.658     -0.954         26 1.2377e-01   997.6089 0.0000e+00
     -0.671    22.7141     7.7043     97.277   1.178274      1.011      6.404    -8.3405    -0.1216    -0.3979     0.0110     -0.000     -0.657     -0.953         27 1.2373e-01   997.6108 0.0000e+00
     -0.670    23.0373     7.7593     98.035   0.677911      1.069      6.341   -85.5315    -0.1254    -0.5277     0.0110      0.000     -0.652     -0.945         28 1.2375e-01   997.6076 0.0000e+00
     -0.654    24.0446     7.8266     98.786   1.898340      1.390      6.437    59.0832    -0.1560    -0.4845     0.0110      0.005     -0.627     -0.909         29 1.2388e-01   997.6130 0.0000e+00
     -0.592    24.9999     7.8994     99.515  14.041159     14.802      6.776   307.8432    -0.1407    -0.4124     0.0152      0.024     -0.573     -0.831         30 1.2385e-01   997.5399 0.0000e+00
     -0.510    25.6678     7.9600    100.132  25.730770     26.478      7.120   304.8904    -0.1102    -0.5277     0.0200      0.060     -0.500     -0.725         31 1.2367e-01   997.2992 0.0000e+00
     -0.431    26.2847     7.9847    100.331  27.464967     27.355      7.364   305.5718    -0.1064    -0.5566     0.0206      0.106     -0.424     -0.614         32 1.2372e-01   997.0604 0.0000e+00
     -0.355    26.7598     8.0165    100.654  27.488437     27.181      7.462   316.0582    -0.1254    -0.5566     0.0207      0.156     -0.350     -0.507         33 1.2388e-01   996.8869 0.0000e+00
     -0.284    27.0497     8.1949    102.998  27.745101     27.021      7.563   333.0183     0.5269    23.2217     0.0208      0.204     -0.280     -0.405         34 1.2377e-01   996.7239 0.0000e+00
     -0.215    27.2011     8.2408    103.729  27.708131     26.769      7.633   306.9725     0.4811    23.1784     0.0208      0.244     -0.213     -0.308         35 1.2368e-01   996.5954 0.0000e+00
     -0.150    27.2861     8.1678    102.943  27.711997     26.622      7.659   315.4147     0.4887    23.3082     0.0208      0.272     -0.149     -0.215         36 1.2358e-01   996.5163 0.0000e+00
     -0.090    27.3362     7.9532    100.321  27.621690     26.439      7.671   316.7397     0.4925    23.1207     0.0208      0.282     -0.088     -0.126         37 1.2365e-01   996.4747 0.0000e+00
     -0.025    27.3665     7.6957     97.141  27.524240     26.341      7.667   317.6483     0.7329     1.0873     0.0208      0.276     -0.028     -0.041         38 1.2375e-01   996.4513 0.0000e+00
      0.028    27.3146     7.4592     94.223  27.329680     26.078      7.644   312.0832     0.7100     1.2171     0.0207      0.264      0.022      0.032         39 1.2354e-01   996.4376 0.0000e+00
      0.065    27.2070     7.2118     91.133  27.330620     26.114      7.613   313.0297     0.7176     1.0873     0.0207      0.247      0.059      0.086         40 1.2369e-01   996.4294 0.0000e+00
      0.090    27.1270     6.9627     87.994  27.374959     26.141      7.570   311.4018     0.6985     1.0873     0.0207      0.225      0.080      0.116         41 1.2379e-01   996.4439 0.0000e+00
      0.090    27.0616     6.7722     85.588  27.304139     26.168      7.534   310.9854     0.6757     0.8710     0.0207      0.193      0.078      0.113         42 1.2369e-01   996.4738 0.0000e+00
      0.055    27.0251     6.6530     84.082  27.211442     26.075      7.492   313.0297     0.6795     0.8710     0.0207      0.147      0.060      0.087         43 1.2364e-01   996.4957 0.0000e+00
      0.042    27.0754     6.5896     83.296  27.342244     26.267      7.439   314.7332     0.6909     0.9719     0.0207      0.098      0.051      0.074         44 1.2373e-01   996.5137 0.0000e+00
      0.060    27.1617     6.5477     82.778  27.556073     26.477      7.394   310.6825     0.6413     0.8422     0.0208      0.057      0.064      0.093         45 1.2387e-01   996.5239 0.0000e+00
      0.091    27.2311     6.5057     82.257  27.597006     26.502      7.372   310.6068     0.6833     1.1594     0.0208      0.032      0.092      0.134         46 1.2379e-01   996.5103 0.0000e+00
      0.130    27.2791     6.4491     81.533  27.617122     26.459      7.360   311.5154     0.7100     1.0585     0.0208      0.025      0.129      0.186         47 1.2371e-01   996.4866 0.0000e+00
      0.173    27.3178     6.3854     80.728  27.649498     26.476      7.321   312.0832     0.7367     1.0873     0.0208      0.037      0.166      0.240         48 1.2360e-01   996.4676 0.0000e+00
      0.203    27.3580     6.3260     79.985  27.615933     26.400      7.281   312.2347     0.7138     1.1017     0.0208      0.059      0.196      0.283         49 1.2364e-01   996.4543 0.0000e+00
      0.222    27.3795     6.2697     79.276  27.599631     26.380      7.265   309.0547     0.7024     1.1594     0.0208      0.085      0.219      0.318         50 1.2375e-01   996.4436 0.0000e+00
      0.247    27.3859     6.2335     78.805  27.669769     26.413      7.251   311.5532     0.6795     1.0873     0.0208      0.109      0.242      0.353         51 1.2377e-01   996.4326 0.0000e+00
      0.275    27.3864     6.2435     78.929  27.647120     26.402      7.222   310.9475     0.7024     1.1738     0.0208      0.119      0.267      0.388         52 1.2369e-01   996.4267 0.0000e+00
      0.294    27.3874     6.2748     79.333  27.509326     26.239      7.191   310.8718     0.6795     1.0729     0.0208      0.116      0.286      0.415         53 1.2362e-01   996.4251 0.0000e+00
      0.305    27.3960     6.3407     80.175  27.485794     26.238      7.158   310.4175     0.6833     1.1450     0.0208      0.104      0.298      0.432         54 1.2381e-01   996.4250 0.0000e+00
      0.313    27.4060     6.4153     81.104  27.557919     26.292      7.122   310.3039     0.6604     1.0296     0.0208      0.089      0.305      0.443         55 1.2375e-01   996.4247 0.0000e+00
      0.316    27.4109     6.4595     81.627  27.597292     26.340      7.083   310.2282     0.6642     1.1882     0.0208      0.073      0.310      0.451         56 1.2366e-01   996.4223 0.0000e+00
      0.321    27.4070     6.4858     81.952  27.673760     26.389      7.063   310.6825     0.6795     1.1738     0.0208      0.060      0.315      0.457         57 1.2369e-01   996.4196 0.0000e+00
      0.326    27.4053     6.4777     81.864  27.758966     26.492      7.041   312.0832     0.6604     1.0585     0.0209      0.048      0.318      0.462         58 1.2365e-01   996.4182 0.0000e+00
      0.325    27.4121     6.4613     81.673  27.728226     26.442      7.042   312.7647     0.7786     0.8133     0.0209      0.035      0.320      0.463         59 1.2371e-01   996.4193 0.0000e+00
      0.327    27.4128     6.4338     81.326  27.712017     26.442      7.034   312.0832     0.7596     0.9143     0.0209      0.023      0.322      0.466         60 1.2377e-01   996.4198 0.0000e+00
      0.331    27.4046     6.3995     80.891  27.779138     26.492      7.024   312.2725     0.7710     0.8710     0.0209      0.016      0.324      0.470         61 1.2368e-01   996.4180 0.0000e+00
      0.331    27.4022     6.3432     80.184  27.763178     26.491      7.007   311.4397     0.7901     0.9431     0.0209      0.012      0.324      0.470         62 1.2363e-01   996.4178 0.0000e+00
      0.328    27.4087     6.2932     79.557  27.672635     26.389      6.994   311.0611     0.6566     1.2027     0.0208      0.008      0.321      0.466         63 1.2371e-01   996.4200 0.0000e+00
      0.322    27.4142     6.2658     79.213  27.654849     26.391      6.981   310.7961     0.6604     1.0729     0.0208      0.004      0.318      0.461         64 1.2356e-01   996.4207 0.0000e+00
      0.321    27.4036     6.2665     79.220  27.666828     26.387      6.965   310.6447     0.6795     1.1594     0.0208     -0.000      0.319      0.462         65 1.2370e-01   996.4189 0.0000e+00
      0.332    27.3808     6.2912     79.528  27.716967     26.438      6.948   311.0989     0.6947     1.1161     0.0209      0.000      0.326      0.473         66 1.2380e-01   996.4174 0.0000e+00
      0.344    27.3746     6.3348     80.072  27.829422     26.549      6.919   310.6447     0.6604     1.1306     0.0209      0.004      0.334      0.484         67 1.2371e-01   996.4204 0.0000e+00
      0.343    27.3852     6.3774     80.601  27.763855     26.508      6.884   310.2282     0.6680     0.8422     0.0209      0.006      0.334      0.485         68 1.2361e-01   996.4268 0.0000e+00
      0.336    27.3952     6.4267     81.214  27.680083     26.404      6.865   308.9789     0.6604     0.9431     0.0208      0.006      0.331      0.480         69 1.2362e-01   996.4283 0.0000e+00
      0.336    27.3969     6.4774     81.847  27.815193     26.559      6.839   309.3197     0.6947     0.9143     0.0209      0.007      0.330      0.478         70 1.2373e-01   996.4254 0.0000e+00
      0.337    27.3956     6.5112     82.273  27.891927     26.607      6.824   309.3954     0.6871     0.8710     0.0209      0.008      0.330      0.478         71 1.2354e-01   996.4228 0.0000e+00
      0.336    27.3986     6.5320     82.538  27.880799     26.606      6.806   309.5847     0.6604     0.8133     0.0209      0.007      0.330      0.478         72 1.2363e-01   996.4222 0.0000e+00
      0.336    27.4025     6.5301     82.514  27.829039     26.554      6.789   309.4711     0.6757     0.9431     0.0209      0.003      0.330      0.478         73 1.2377e-01   996.4226 0.0000e+00
      0.336    27.4038     6.5067     82.224  27.837855     26.552      6.771   308.6382     0.6604     0.9143     0.0209     -0.001      0.330      0.478         74 1.2372e-01   996.4218 0.0000e+00
      0.336    27.4027     6.4654     81.707  27.840204     26.577      6.751   308.7518     0.6833     0.9431     0.0209     -0.003      0.330      0.478         75 1.2375e-01   996.4207 0.0000e+00
      0.336    27.3997     6.4225     81.167  27.855736     26.549      6.733   309.0168     0.6337     0.8422     0.0209     -0.002      0.329      0.478         76 1.2377e-01   996.4203 0.0000e+00
      0.336    27.3946     6.3850     80.694  27.937015     26.683      6.716   308.7139     0.6757     0.8710     0.0210     -0.000      0.329      0.478         77 1.2370e-01   996.4207 0.0000e+00
      0.336    27.3882     6.3471     80.213  27.916785     26.605      6.706   308.7139     0.7100     0.8422     0.0209     -0.000      0.329      0.478         78 1.2369e-01   996.4215 0.0000e+00
      0.335    27.3809     6.3228     79.901  27.999398     26.741      6.691   308.1082     0.6947     0.9431     0.0210     -0.001      0.329      0.477         79 1.2384e-01   996.4229 0.0000e+00
      0.336    27.3764     6.3142     79.790  28.041559     26.744      6.679   308.2597     0.7176     0.8566     0.0210     -0.000      0.329      0.476         80 1.2380e-01   996.4247 0.0000e+00
      0.334    27.3758     6.3138     79.777  27.953184     26.694      6.664   307.8432     0.7329     0.8854     0.0210     -0.001      0.329      0.476         81 1.2371e-01   996.4266 0.0000e+00
      0.335    27.3764     6.3151     79.778  27.902029     26.617      6.655   308.1082     0.7176     0.8277     0.0209     -0.001      0.329      0.477         82 1.2370e-01   996.4280 0.0000e+00
      0.337    27.3772     6.3102     79.715  28.016358     26.750      6.643   307.8432     0.7329     0.9431     0.0210     -0.000      0.330      0.479         83 1.2378e-01   996.4282 0.0000e+00
      0.338    27.3802     6.2957     79.538  28.077502     26.803      6.634   307.8054     0.7977     0.8566     0.0210      0.000      0.331      0.480         84 1.2375e-01   996.4280 0.0000e+00
      0.338    27.3839     6.2821     79.359  28.033289     26.750      6.629   307.9947     0.7519     0.8854     0.0210      0.001      0.331      0.480         85 1.2359e-01   996.4278 0.0000e+00
      0.338    27.3853     6.2568     79.017  28.130624     26.854      6.625   308.2597     0.7596     0.8998     0.0210      0.001      0.331      0.480         86 1.2363e-01   996.4269 0.0000e+00
      0.338    27.3857     6.2228     78.571  28.193344     26.906      6.620   308.1082     0.7748     0.7989     0.0210      0.002      0.331      0.480         87 1.2348e-01   996.4259 0.0000e+00
      0.337    27.3847     6.1692     77.889  28.192207     26.905      6.617   308.0325     0.8244     0.8422     0.0210      0.001      0.330      0.479         88 1.2359e-01   996.4256 0.0000e+00
      0.336    27.3815     6.1008     77.015  28.191280     26.905      6.611   307.9568     0.7901     0.8277     0.0210      0.001      0.329      0.478         89 1.2386e-01   996.4255 0.0000e+00
      0.336    27.3797     6.0433     76.266  28.194498     26.905      6.601   307.9568     0.7672     0.8854     0.0210     -0.000      0.329      0.478         90 1.2375e-01   996.4257 0.0000e+00
      0.337    27.3741     5.9810     75.462  28.188205     26.907      6.595   307.2754     0.7558     0.8710     0.0210     -0.001      0.330      0.479         91 1.2361e-01   996.4266 0.0000e+00
      0.338    27.3640     5.9274     74.777  28.199113     26.908      6.588   307.6161     0.7901     0.7845     0.0210     -0.000      0.331      0.480         92 1.2362e-01   996.4271 0.0000e+00
      0.336    27.3625     5.8834     74.213  28.180924     26.911      6.580   306.4046     0.7748     0.9575     0.0210     -0.001      0.329      0.478         93 1.2357e-01   996.4287 0.0000e+00
      0.334    27.3666     5.8367     73.611  28.151599     26.863      6.577   306.5182     0.7825     0.8710     0.0210     -0.001      0.328      0.476         94 1.2355e-01   996.4315 0.0000e+00
      0.334    27.3612     5.8137     73.311  28.235611     26.970      6.551   307.1996     0.7443     0.8710     0.0211     -0.001      0.328      0.476         95 1.2368e-01   996.4320 0.0000e+00
      0.336    27.3459     5.7850     72.938  28.254105     26.968      6.527   307.4647     0.7786     0.9719     0.0211     -0.001      0.329      0.477         96 1.2374e-01   996.4308 0.0000e+00
      0.336    27.3341     5.7645     72.667  28.247072     26.971      6.516   307.3132     0.7748     0.8422     0.0211     -0.001      0.329      0.478         97 1.2378e-01   996.4323 0.0000e+00
      0.337    27.3303     5.7343     72.272  28.244367     26.979      6.511   307.1996     0.7672     0.8422     0.0211     -0.000      0.330      0.479         98 1.2372e-01   996.4366 0.0000e+00
      0.339    27.3219     5.7077     71.923  28.198231     26.932      6.509   306.9725     0.7672     0.8998     0.0210      0.000      0.332      0.481         99 1.2373e-01   996.4398 0.0000e+00
      0.340    27.3055     5.6753     71.499  28.126758     26.880      6.509   307.2375     0.7748     0.9287     0.0210      0.001      0.332      0.481        100 1.2387e-01   996.4410 0.0000e+00
      0.337    27.2928     5.6424     71.069  28.096341     26.831      6.497   306.7075     0.7252     0.9575     0.0210      0.002      0.331      0.479        101 1.2383e-01   996.4432 0.0000e+00
      0.335    27.2862     5.6001     70.522  28.176843     26.946      6.485   306.3668     0.7176     0.8277     0.0210      0.002      0.329      0.477        102 1.2385e-01   996.4477 0.0000e+00
      0.335    27.2788     5.5592     69.993  28.204311     26.953      6.474   306.6318     0.7100     0.8998     0.0210      0.000      0.328      0.476        103 1.2390e-01   996.4513 0.0000e+00
      0.335    27.2695     5.5252     69.553  28.121409     26.903      6.466   305.7232     0.7100     0.9431     0.0210     -0.001      0.328      0.476        104 1.2368e-01   996.4531 0.0000e+00
      0.334    27.2611     5.4921     69.125  28.043043     26.800      6.461   305.5718     0.7748     0.8422     0.0210     -0.002      0.328      0.476        105 1.2361e-01   996.4551 0.0000e+00
      0.335    27.2530     5.4563     68.666  28.064863     26.858      6.462   305.8368     0.7558     0.9143     0.0210     -0.002      0.328      0.477        106 1.2374e-01   996.4577 0.0000e+00
      0.336    27.2431     5.4183     68.178  28.035013     26.809      6.458   306.0261     0.7596     0.8422     0.0210     -0.002      0.329      0.477        107 1.2370e-01   996.4600 0.0000e+00
      0.336    27.2321     5.3958     67.889  28.020951     26.813      6.458   305.7611     0.7748     0.8710     0.0210     -0.001      0.329      0.477        108 1.2370e-01   996.4623 0.0000e+00
      0.334    27.2211     5.3656     67.501  28.023123     26.818      6.454   305.9125     0.7291     0.8998     0.0210     -0.000      0.329      0.477        109 1.2382e-01   996.4651 0.0000e+00
      0.335    27.2094     5.3413     67.185  27.884204     26.690      6.454   306.4046     0.7176     0.9864     0.0209      0.000      0.329      0.476        110 1.2374e-01   996.4681 0.0000e+00
      0.334    27.1972     5.3139     66.835  27.838376     26.642      6.449   306.2532     0.7062     0.7989     0.0209     -0.000      0.328      0.476        111 1.2367e-01   996.4711 0.0000e+00
      0.334    27.1857     5.2945     66.587  27.872807     26.702      6.446   306.1396     0.7252     0.9287     0.0209     -0.000      0.328      0.476        112 1.2386e-01   996.4743 0.0000e+00
      0.335    27.1749     5.2709     66.284  27.841360     26.655      6.445   306.2154     0.7100     0.9431     0.0209     -0.000      0.328      0.476        113 1.2375e-01   996.4777 0.0000e+00
      0.334    27.1652     5.2506     66.020  27.847894     26.687      6.442   306.0639     0.7252     0.9287     0.0209     -0.000      0.328      0.477        114 1.2372e-01   996.4809 0.0000e+00
      0.336    27.1566     5.2322     65.783  27.775813     26.612      6.441   306.1018     0.7176     0.8710     0.0209     -0.000      0.329      0.478        115 1.2367e-01   996.4838 0.0000e+00
      0.336    27.1486     5.2111     65.517  27.723716     26.564      6.437   306.1775     0.7024     0.7845     0.0209      0.000      0.329      0.478        116 1.2355e-01   996.4865 0.0000e+00
      0.336    27.1415     5.1917     65.269  27.705381     26.568      6.433   306.2154     0.7329     0.8422     0.0209      0.001      0.329      0.478        117 1.2373e-01   996.4889 0.0000e+00
      0.336    27.1356     5.1731     65.028  27.680147     26.519      6.422   306.1018     0.7176     0.9287     0.0208      0.001      0.329      0.478        118 1.2387e-01   996.4912 0.0000e+00
      0.336    27.1289     5.1585     64.836  27.695879     26.576      6.409   305.9125     0.7100     0.8710     0.0209      0.001      0.329      0.478        119 1.2365e-01   996.4931 0.0000e+00
      0.336    27.1215     5.1467     64.679  27.685807     26.525      6.402   305.9125     0.7176     0.8133     0.0208      0.001      0.329      0.478        120 1.2364e-01   996.4947 0.0000e+00
      0.337    27.1163     5.1373     64.554  27.692687     26.582      6.398   306.1018     0.7405     0.8998     0.0209      0.001      0.329      0.478        121 1.2389e-01   996.4965 0.0000e+00
      0.335    27.1132     5.1195     64.324  27.628078     26.479      6.390   306.2532     0.8015     0.9287     0.0208      0.000      0.328      0.477        122 1.2360e-01   996.4985 0.0000e+00
      0.334    27.1080     5.1088     64.182  27.588484     26.482      6.388   305.9882     0.7901     0.9143     0.0208     -0.001      0.328      0.476        123 1.2350e-01   996.5000 0.0000e+00
      0.335    27.1004     5.0995     64.058  27.564233     26.430      6.388   306.0639     0.7519     0.7845     0.0208     -0.001      0.329      0.477        124 1.2360e-01   996.5009 0.0000e+00
      0.337    27.0961     5.0872     63.896  27.539776     26.432      6.387   305.7989     0.7786     0.8566     0.0208     -0.000      0.329      0.478        125 1.2361e-01   996.5023 0.0000e+00
      0.336    27.0950     5.0757     63.743  27.559683     26.436      6.383   305.5718     0.7634     0.9287     0.0208     -0.000      0.328      0.477        126 1.2367e-01   996.5043 0.0000e+00
      0.333    27.0914     5.0628     63.571  27.539463     26.438      6.379   305.3825     0.7596     0.8998     0.0208     -0.001      0.327      0.475        127 1.2373e-01   996.5055 0.0000e+00
      0.334    27.0857     5.0541     63.449  27.505698     26.385      6.376   305.0796     0.7748     0.9575     0.0208     -0.001      0.327      0.475        128 1.2378e-01   996.5058 0.0000e+00
      0.334    27.0788     5.0462     63.337  27.483218     26.387      6.370   304.7768     0.7405     0.8422     0.0208     -0.001      0.327      0.475        129 1.2379e-01   996.5068 0.0000e+00
      0.335    27.0712     5.0414     63.268  27.508198     26.390      6.357   305.2689     0.7977     1.2603     0.0208     -0.000      0.328      0.476        130 1.2369e-01   996.5084 0.0000e+00
      0.336    27.0650     5.0390     63.231  27.474613     26.394      6.338   305.5339     0.7748     1.1594     0.0208     -0.000      0.329      0.477        131 1.2388e-01   996.5103 0.0000e+00
      0.335    27.0591     5.0319     63.133  27.436153     26.317      6.325   305.1932     0.7901     1.0152     0.0207     -0.000      0.329      0.477        132 1.2387e-01   996.5124 0.0000e+00
      0.335    27.0524     5.0266     63.058  27.467200     26.401      6.322   305.1554     0.7901     1.1738     0.0208     -0.000      0.328      0.476        133 1.2369e-01   996.5141 0.0000e+00
      0.335    27.0464     5.0175     62.937  27.465600     26.350      6.323   305.1932     0.7634     1.1306     0.0207      0.000      0.328      0.476        134 1.2387e-01   996.5157 0.0000e+00
      0.335    27.0403     5.0061     62.782  27.467769     26.407      6.327   305.6096     0.7214     0.9575     0.0208      0.001      0.327      0.475        135 1.2366e-01   996.5176 0.0000e+00
      0.333    27.0330     4.9873     62.532  27.434881     26.330      6.335   305.6096     0.7405     0.9287     0.0207     -0.000      0.327      0.474        136 1.2371e-01   996.5192 0.0000e+00
      0.333    27.0236     4.9734     62.341  27.388047     26.333      6.343   305.5718     0.7100     0.8710     0.0207     -0.001      0.327      0.474        137 1.2370e-01   996.5209 0.0000e+00
      0.335    27.0126     4.9570     62.116  27.377953     26.283      6.346   305.0039     0.6947     0.8710     0.0207     -0.001      0.328      0.476        138 1.2371e-01   996.5229 0.0000e+00
      0.337    27.0019     4.9440     61.933  27.388203     26.341      6.346   304.8904     0.7939     0.9864     0.0207     -0.000      0.330      0.478        139 1.2383e-01   996.5255 0.0000e+00
      0.338    26.9939     4.9319     61.763  27.316050     26.239      6.343   305.0039     0.7977     0.8998     0.0207      0.001      0.330      0.479        140 1.2377e-01   996.5285 0.0000e+00
      0.337    26.9877     4.9291     61.709  27.319645     26.272      6.341   304.6632     0.7786     0.8710     0.0207      0.002      0.330      0.479        141 1.2384e-01   996.5314 0.0000e+00
      0.336    26.9797     4.9228     61.613  27.354112     26.303      6.328   304.6632     0.7558     0.8133     0.0207      0.002      0.330      0.478        142 1.2371e-01   996.5337 0.0000e+00
      0.336    26.9720     4.9209     61.574  27.302781     26.252      6.314   304.6254     0.7138     0.9143     0.0207      0.002      0.330      0.478        143 1.2369e-01   996.5354 0.0000e+00
      0.337    26.9654     4.9241     61.597  27.294665     26.256      6.315   304.8525     0.7329     0.8998     0.0207      0.002      0.329      0.478        144 1.2374e-01   996.5376 0.0000e+00
      0.335    26.9557     4.9220     61.547  27.304972     26.260      6.318   304.8525     0.7519     0.8998     0.0207      0.001      0.328      0.476        145 1.2380e-01   996.5397 0.0000e+00
      0.333    26.9425     4.9161     61.445  27.349199     26.317      6.320   304.3982     0.7138     0.9287     0.0207     -0.001      0.328      0.475        146 1.2372e-01   996.5415 0.0000e+00
      0.335    26.9275     4.9084     61.320  27.298871     26.268      6.323   304.4361     0.7252     0.9575     0.0207     -0.002      0.328      0.475        147 1.2375e-01   996.5441 0.0000e+00
      0.333    26.9103     4.8999     61.181  27.219505     26.194      6.323   304.3604     0.7329     0.8998     0.0207     -0.002      0.327      0.474        148 1.2380e-01   996.5477 0.0000e+00
      0.332    26.8926     4.8844     60.952  27.240628     26.229      6.326   304.0196     0.7252     0.8998     0.0207     -0.002      0.326      0.473        149 1.2376e-01   996.5518 0.0000e+00
      0.333    26.8755     4.8732     60.777  27.242969     26.237      6.327   304.0575     0.7519     0.8710     0.0207     -0.002      0.326      0.473        150 1.2384e-01   996.5566 0.0000e+00
      0.333    26.8587     4.8627     60.616  27.246219     26.246      6.329   304.4361     0.7214     0.8854     0.0207     -0.002      0.326      0.473        151 1.2373e-01   996.5615 0.0000e+00
      0.332    26.8433     4.8538     60.478  27.236590     26.255      6.328   303.9439     0.7214     0.8566     0.0207     -0.002      0.326      0.474        152 1.2369e-01   996.5661 0.0000e+00
      0.334    26.8295     4.8446     60.339  27.195718     26.210      6.328   303.8682     0.7329     0.8998     0.0206     -0.001      0.327      0.475        153 1.2364e-01   996.5706 0.0000e+00
      0.335    26.8138     4.8378     60.233  27.237849     26.271      6.327   303.4139     0.7100     0.8710     0.0207      0.000      0.328      0.476        154 1.2352e-01   996.5749 0.0000e+00
      0.335    26.7924     4.8379     60.211  27.273025     26.305      6.323   304.1332     0.7062     0.7845     0.0207      0.001      0.328      0.476        155 1.2364e-01   996.5787 0.0000e+00
      0.334    26.7672     4.8349     60.148  27.240810     26.286      6.325   304.2846     0.7062     0.8998     0.0207      0.001      0.328      0.475        156 1.2374e-01   996.5830 0.0000e+00
      0.334    26.7405     4.8298     60.057  27.189085     26.243      6.324   304.7389     0.7252     0.8998     0.0206      0.001      0.328      0.475        157 1.2370e-01   996.5888 0.0000e+00
      0.334    26.7110     4.8291     60.022  27.189299     26.256      6.323   304.2089     0.7024     0.9143     0.0206      0.001      0.328      0.475        158 1.2373e-01   996.5957 0.0000e+00
      0.334    26.6784     4.8222     59.913  27.181312     26.270      6.323   304.1332     0.7329     0.8854     0.0206      0.001      0.328      0.475        159 1.2374e-01   996.6030 0.0000e+00
      0.333    26.6466     4.8194     59.857  27.139793     26.231      6.320   304.1711     0.6718     0.9719     0.0206      0.000      0.327      0.474        160 1.2378e-01   996.6110 0.0000e+00
      0.332    26.6190     4.8110     59.732  27.152116     26.274      6.308   303.7168     0.6604     0.9719     0.0206     -0.001      0.326      0.473        161 1.2377e-01   996.6199 0.0000e+00
      0.332    26.5945     4.8009     59.587  27.136367     26.263      6.291   303.4896     0.6833     0.8854     0.0206     -0.001      0.326      0.473        162 1.2373e-01   996.6286 0.0000e+00
      0.333    26.5722     4.7874     59.400  27.070544     26.223      6.279   303.4139     0.6757     1.0152     0.0206     -0.001      0.326      0.473        163 1.2370e-01   996.6360 0.0000e+00
      0.332    26.5520     4.7912     59.427  27.085941     26.236      6.276   303.4139     0.7252     0.8133     0.0206     -0.001      0.326      0.473        164 1.2363e-01   996.6427 0.0000e+00
      0.333    26.5313     4.7819     59.292  27.117215     26.301      6.279   303.4896     0.7252     0.9431     0.0206     -0.001      0.326      0.473        165 1.2360e-01   996.6487 0.0000e+00
      0.333    26.5073     4.7772     59.214  27.090872     26.257      6.278   303.6032     0.7291     0.9287     0.0206     -0.001      0.326      0.473        166 1.2371e-01   996.6541 0.0000e+00
      0.333    26.4818     4.7742     59.159  27.118732     26.322      6.282   303.8304     0.7329     0.8998     0.0206     -0.000      0.326      0.473        167 1.2358e-01   996.6598 0.0000e+00
      0.333    26.4576     4.7723     59.121  27.112173     26.307      6.280   303.7546     0.8321     0.9864     0.0206      0.000      0.326      0.473        168 1.2360e-01   996.6663 0.0000e+00
      0.333    26.4355     4.7634     58.998  27.069422     26.293      6.284   304.0954     0.8549     0.9575     0.0206      0.000      0.326      0.473        169 1.2371e-01   996.6732 0.0000e+00
      0.333    26.4161     4.7616     58.971  27.083082     26.306      6.286   304.0575     0.8664     0.8998     0.0206      0.000      0.327      0.474        170 1.2358e-01   996.6798 0.0000e+00
      0.334    26.3980     4.8121     59.816  27.065562     26.317      6.288   303.9061     0.8435     1.0008     0.0206      0.000      0.327      0.475        171 1.2362e-01   996.6857 0.0000e+00
      0.334    26.3795     5.1424     64.380  27.031993     26.272      6.291   303.9439     0.8397     0.8133     0.0205      0.001      0.327      0.474        172 1.2370e-01   996.6909 0.0000e+00
      0.333    26.3601     5.8035     73.021  27.006384     26.282      6.288   303.9061     0.7672     0.9143     0.0205      0.000      0.326      0.473        173 1.2373e-01   996.6958 0.0000e+00
      0.332    26.3425     6.5461     82.592  26.949338     26.210      6.284   304.0954     0.7977     0.9719     0.0205      0.000      0.326      0.473        174 1.2375e-01   996.7008 0.0000e+00
      0.332    26.3244     7.2359     91.424  27.043752     26.328      6.282   303.7546     0.7558     0.9143     0.0206     -0.000      0.325      0.472        175 1.2373e-01   996.7061 0.0000e+00
      0.331    26.3066     7.8191     98.870  27.007375     26.310      6.280   304.0575     0.7825     0.8998     0.0205     -0.001      0.324      0.470        176 1.2354e-01   996.7108 0.0000e+00
      0.330    26.2882     8.2065    103.808  26.964995     26.238      6.281   303.8682     0.7977     0.8422     0.0205     -0.002      0.324      0.470        177 1.2363e-01   996.7156 0.0000e+00
      0.330    26.2761     8.4289    106.654  27.037258     26.383      6.281   303.5654     0.7672     0.8422     0.0206     -0.002      0.324      0.471        178 1.2377e-01   996.7204 0.0000e+00
      0.332    26.2611     8.4881    107.431  27.065552     26.338      6.282   303.7168     0.7901     0.9575     0.0205     -0.002      0.325      0.472        179 1.2371e-01   996.7254 0.0000e+00
      0.333    26.2624     8.4018    106.359  26.959411     26.345      6.281   303.9061     0.8015     0.8998     0.0205     -0.001      0.326      0.473        180 1.2384e-01   996.7286 0.0000e+00
      0.333    26.4690     8.2384    104.302  27.139736     26.378      6.282   303.7168     0.7252     0.9575     0.0205      0.000      0.327      0.474        181 1.2370e-01   996.7326 0.0000e+00
      0.334    26.8530     8.0739    102.231  27.937128     27.333      6.281   303.7168     0.7176     0.9287     0.0209      0.001      0.328      0.476        182 1.2352e-01   996.7326 0.0000e+00
      0.338    27.1385     7.9435    100.613  28.188645     27.334      6.282   303.8682     0.7252     0.8422     0.0210      0.003      0.331      0.480        183 1.2359e-01   996.6770 0.0000e+00
      0.339    27.2896     7.8417     99.342  28.159612     27.178      6.279   303.5654     0.7024     0.8422     0.0210      0.004      0.333      0.483        184 1.2357e-01   996.5726 0.0000e+00
      0.340    27.3726     7.7768     98.526  28.210112     27.033      6.270   303.7546     0.7672     0.7701     0.0210      0.005      0.333      0.484        185 1.2374e-01   996.4941 0.0000e+00
      0.341    27.4142     7.7363     98.016  28.125692     26.900      6.247   303.7168     0.7825     0.7845     0.0210      0.006      0.334      0.485        186 1.2381e-01   996.4521 0.0000e+00
      0.342    27.4369     7.7056     97.629  28.205362     26.912      6.226   303.7168     0.8168     0.7845     0.0210      0.005      0.335      0.486        187 1.2384e-01   996.4292 0.0000e+00
      0.342    27.4533     7.6887     97.426  28.170172     26.890      6.206   303.6789     0.7710     0.9575     0.0210      0.005      0.335      0.486        188 1.2374e-01   996.4175 0.0000e+00
      0.341    27.4683     7.6732     97.245  28.050980     26.719      6.201   303.6411     0.7214     1.0008     0.0210      0.004      0.335      0.486        189 1.2356e-01   996.4111 0.0000e+00
      0.342    27.4790     7.6612     97.091  28.057466     26.764      6.197   303.9439     0.7176     0.8710     0.0210      0.003      0.335      0.486        190 1.2371e-01   996.4066 0.0000e+00
      0.342    27.4848     7.6534     96.986  28.043606     26.703      6.198   303.7546     0.7024     0.9575     0.0210      0.002      0.334      0.485        191 1.2381e-01   996.4024 0.0000e+00
      0.338    27.4922     7.6495     96.937  28.068224     26.751      6.190   303.3761     0.7672     0.7845     0.0210      0.000      0.332      0.481        192 1.2378e-01   996.3994 0.0000e+00
      0.335    27.5097     7.6437     96.873  28.086069     26.748      6.180   302.9596     0.7329     0.8133     0.0210     -0.002      0.329      0.477        193 1.2374e-01   996.3978 0.0000e+00
      0.335    27.5208     7.6424     96.867  28.080638     26.744      6.177   303.2246     0.7672     0.8422     0.0210     -0.003      0.328      0.476        194 1.2376e-01   996.3957 0.0000e+00
      0.335    27.5239     7.6381     96.827  28.134223     26.788      6.179   303.4896     0.7748     0.7989     0.0210     -0.004      0.328      0.476        195 1.2371e-01   996.3908 0.0000e+00
      0.335    27.5259     7.6346     96.788  28.078622     26.730      6.184   303.6411     0.7558     0.8710     0.0210     -0.005      0.328      0.477        196 1.2374e-01   996.3877 0.0000e+00
      0.334    27.5270     7.6327     96.752  28.090584     26.728      6.186   303.1111     0.7977     0.9864     0.0210     -0.005      0.332      0.482        197 1.2377e-01   996.3869 0.0000e+00
      0.347    27.5338     7.6275     96.675  28.119335     26.780      6.196   302.7704     0.7252     0.9287     0.0210     -0.001      0.344      0.499        198 1.2380e-01   996.3864 0.0000e+00
      0.372    27.5420     7.6223     96.608  28.042842     26.673      6.160   303.2246     0.6947     0.8422     0.0210      0.009      0.360      0.523        199 1.2376e-01   996.3861 0.0000e+00
      0.381    27.5415     7.6258     96.653  28.008045     26.670      6.137   303.0354     0.7252     0.9431     0.0210      0.020      0.370      0.537        200 1.2374e-01   996.3842 0.0000e+00
      0.378    27.5375     7.6289     96.689  28.044149     26.665      6.141   302.5054     0.7176     1.0008     0.0210      0.026      0.371      0.538        201 1.2361e-01   996.3820 0.0000e+00
      0.376    27.5379     7.6271     96.679  28.116397     26.772      6.163   302.2782     0.7252     0.8998     0.0210      0.028      0.370      0.537        202 1.2360e-01   996.3821 0.0000e+00
      0.378    27.5429     7.6335     96.773  28.095864     26.721      6.189   302.2782     0.7252     0.8710     0.0210      0.028      0.371      0.539        203 1.2374e-01   996.3832 0.0000e+00
      0.382    27.5498     7.6458     96.935  28.069702     26.721      6.208   302.8082     0.7443     0.8710     0.0210      0.025      0.373      0.542        204 1.2362e-01   996.3831 0.0000e+00
      0.382    27.5583     7.6574     97.101  28.030468     26.665      6.224   302.0511     0.7214     0.9287     0.0210      0.020      0.373      0.542        205 1.2372e-01   996.3817 0.0000e+00
      0.380    27.5611     7.6618     97.149  27.966958     26.609      6.237   302.1646     0.7252     0.8710     0.0210      0.011      0.373      0.541        206 1.2376e-01   996.3798 0.0000e+00
      0.380    27.5546     7.6652     97.198  27.971005     26.604      6.244   301.7861     0.7176     0.8710     0.0210      0.003      0.373      0.542        207 1.2369e-01   996.3774 0.0000e+00
      0.384    27.5477     7.6513     97.053  27.966185     26.603      6.251   302.0889     0.7176     0.8422     0.0210      0.002      0.374      0.542        208 1.2364e-01   996.3765 0.0000e+00
      0.381    27.5471     7.6445     96.983  27.972956     26.606      6.260   301.8618     0.7138     0.8710     0.0210      0.002      0.365      0.530        209 1.2374e-01   996.3784 0.0000e+00
      0.352    27.5475     7.6408     96.920  28.021822     26.663      6.281   301.2182     0.7252     1.0296     0.0210     -0.006      0.339      0.493        210 1.2381e-01   996.3802 0.0000e+00
      0.307    27.5459     7.6392     96.888  28.023861     26.663      6.295   300.2718     0.7329     0.8854     0.0210     -0.024      0.304      0.440        211 1.2369e-01   996.3802 0.0000e+00
      0.271    27.5533     7.6502     97.022  28.029665     26.663      6.303   299.8553     0.7176     0.9143     0.0210     -0.047      0.274      0.398        212 1.2373e-01   996.3799 0.0000e+00
      0.263    27.5601     7.6617     97.168  28.014600     26.664      6.305   299.5146     0.7176     0.8998     0.0210     -0.064      0.262      0.380        213 1.2370e-01   996.3803 0.0000e+00
      0.267    27.5649     7.6716     97.297  27.983364     26.607      6.297   299.4011     0.6947     0.9431     0.0210     -0.072      0.258      0.375        214 1.2375e-01   996.3783 0.0000e+00
      0.259    27.5738     7.6740     97.333  28.009291     26.656      6.288   298.4925     0.7100     0.8710     0.0210     -0.075      0.248      0.361        215 1.2370e-01   996.3763 0.0000e+00
      0.235    27.5714     7.6829     97.452  27.982332     26.601      6.270   298.3789     0.6985     0.8133     0.0210     -0.077      0.223      0.324        216 1.2364e-01   996.3749 0.0000e+00
      0.188    27.5740     7.6841     97.478  27.957668     26.596      6.257   297.3568     0.6795     0.8422     0.0210     -0.080      0.179      0.260        217 1.2385e-01   996.3722 0.0000e+00
      0.124    27.5922     7.6887     97.549  27.980739     26.598      6.229   296.3725     0.6833     0.8998     0.0210     -0.088      0.121      0.176        218 1.2378e-01   996.3725 0.0000e+00
      0.061    27.6006     7.6842     97.496  27.953619     26.596      6.207   296.1075     0.6947     0.8998     0.0210     -0.105      0.061      0.088        219 1.2367e-01   996.3716 0.0000e+00
      0.002    27.5928     7.6816     97.465  27.902551     26.507      6.218   295.5396     0.6680     0.9575     0.0209     -0.133      0.001      0.001        220 1.2371e-01   996.3663 0.0000e+00
     -0.061    27.5852     7.6759     97.396  27.955423     26.582      6.222   294.7068     0.6566     0.8566     0.0210     -0.170     -0.055     -0.081        221 1.2361e-01   996.3636 0.0000e+00
     -0.110    27.5826     7.6595     97.195  27.976683     26.587      6.213   294.4418     0.6528     0.8854     0.0210     -0.200     -0.100     -0.146        222 1.2365e-01   996.3655 0.0000e+00
     -0.134    27.5821     7.6451     97.017  27.964958     26.591      6.219   294.4796     0.6833     0.8998     0.0210     -0.211     -0.129     -0.188        223 1.2370e-01   996.3675 0.0000e+00
     -0.151    27.5844     7.6165     96.651  27.970014     26.592      6.227   294.4796     0.6909     0.8422     0.0210     -0.203     -0.152     -0.220        224 1.2375e-01   996.3682 0.0000e+00
     -0.179    27.5876     7.5884     96.292  27.970392     26.592      6.222   293.9875     0.6947     0.8998     0.0210     -0.183     -0.181     -0.262        225 1.2376e-01   996.3682 0.0000e+00
     -0.222    27.5907     7.5628     95.968  27.964488     26.591      6.209   293.7225     0.6528     0.8854     0.0210     -0.162     -0.218     -0.316        226 1.2366e-01   996.3674 0.0000e+00
     -0.263    27.5968     7.5394     95.676  27.977360     26.589      6.209   293.4196     0.7024     0.8566     0.0210     -0.147     -0.258     -0.374        227 1.2365e-01   996.3663 0.0000e+00
     -0.305    27.6040     7.5393     95.678  27.954372     26.588      6.204   293.4196     0.6680     1.0008     0.0210     -0.137     -0.297     -0.432        228 1.2371e-01   996.3653 0.0000e+00
     -0.345    27.6070     7.5562     95.896  27.904229     26.505      6.202   292.9275     0.6947     0.8998     0.0209     -0.134     -0.332     -0.482        229 1.2376e-01   996.3634 0.0000e+00
     -0.367    27.6080     7.5809     96.212  27.950895     26.581      6.202   293.3439     0.6757     0.8998     0.0210     -0.134     -0.356     -0.516        230 1.2374e-01   996.3612 0.0000e+00
     -0.380    27.6104     7.6039     96.501  27.985161     26.580      6.206   292.9275     0.7176     0.8854     0.0210     -0.133     -0.370     -0.536        231 1.2377e-01   996.3604 0.0000e+00
     -0.387    27.6142     7.6155     96.644  28.009692     26.632      6.211   292.5868     0.7138     0.8998     0.0210     -0.125     -0.377     -0.545        232 1.2374e-01   996.3601 0.0000e+00
     -0.385    27.6165     7.6240     96.754  27.979609     26.578      6.211   292.7760     0.7405     0.9287     0.0210     -0.105     -0.375     -0.543        233 1.2373e-01   996.3594 0.0000e+00
     -0.374    27.6154     7.6304     96.837  27.963354     26.576      6.203   292.9653     0.7291     0.8566     0.0210     -0.076     -0.364     -0.528        234 1.2383e-01   996.3584 0.0000e+00
     -0.355    27.6135     7.6392     96.945  28.029921     26.628      6.180   293.0410     0.7100     0.8566     0.0210     -0.044     -0.345     -0.501        235 1.2376e-01   996.3578 0.0000e+00
     -0.330    27.6142     7.6337     96.868  28.015255     26.628      6.158   292.9653     0.7825     1.1306     0.0210     -0.010     -0.320     -0.463        236 1.2373e-01   996.3583 0.0000e+00
     -0.291    27.6167     7.6112     96.576  27.981606     26.576      6.142   293.3439     0.7596     1.1161     0.0210      0.025     -0.285     -0.412        237 1.2366e-01   996.3590 0.0000e+00
     -0.250    27.6191     7.5896     96.300  28.012554     26.629      6.128   293.0789     0.7825     1.0873     0.0210      0.057     -0.246     -0.357        238 1.2364e-01   996.3589 0.0000e+00
     -0.213    27.6212     7.5769     96.142  27.976740     26.575      6.126   292.8518     0.7786     1.1450     0.0210      0.086     -0.208     -0.303        239 1.2366e-01   996.3584 0.0000e+00
     -0.175    27.6221     7.5726     96.092  27.966931     26.573      6.132   293.1168     0.8054     0.8998     0.0210      0.110     -0.171     -0.248        240 1.2371e-01   996.3579 0.0000e+00
     -0.135    27.6207     7.5718     96.085  27.965518     26.572      6.142   293.1546     0.7748     0.8854     0.0210      0.128     -0.132     -0.192        241 1.2372e-01   996.3575 0.0000e+00
     -0.094    27.6185     7.5677     96.031  27.978499     26.572      6.157   293.4196     0.7710     0.9575     0.0210      0.142     -0.092     -0.133        242 1.2368e-01   996.3574 0.0000e+00
     -0.054    27.6193     7.5620     95.959  27.950776     26.573      6.167   293.6089     0.7748     0.8422     0.0210      0.150     -0.049     -0.072        243 1.2378e-01   996.3580 0.0000e+00
     -0.003    27.6204     7.5641     95.988  27.911154     26.494      6.171   293.5710     0.6757     0.9575     0.0209      0.158     -0.002     -0.003        244 1.2369e-01   996.3588 0.0000e+00
      0.050    27.6180     7.5722     96.090  27.998187     26.626      6.170   294.1010     0.7100     0.8710     0.0210      0.164      0.046      0.068        245 1.2365e-01   996.3588 0.0000e+00
      0.095    27.6140     7.5834     96.231  27.990575     26.573      6.174   294.2525     0.6795     0.8998     0.0210      0.170      0.091      0.133        246 1.2367e-01   996.3587 0.0000e+00
      0.135    27.6109     7.5953     96.381  28.009493     26.627      6.178   294.6689     0.6947     0.9719     0.0210      0.174      0.131      0.190        247 1.2366e-01   996.3596 0.0000e+00
      0.170    27.6098     7.5960     96.388  28.033889     26.629      6.177   294.7825     0.7176     0.8422     0.0210      0.175      0.166      0.242        248 1.2372e-01   996.3608 0.0000e+00
      0.204    27.6111     7.5948     96.373  28.019459     26.631      6.182   294.7446     0.7329     1.0296     0.0210      0.172      0.201      0.292        249 1.2382e-01   996.3619 0.0000e+00
      0.240    27.6139     7.5957     96.384  27.968207     26.578      6.173   295.4260     0.7214     0.9575     0.0210      0.166      0.236      0.343        250 1.2369e-01   996.3623 0.0000e+00
      0.279    27.6155     7.6005     96.444  27.890320     26.498      6.166   295.6153     0.6757     0.8422     0.0209      0.160      0.274      0.398        251 1.2364e-01   996.3621 0.0000e+00
      0.321    27.6145     7.5983     96.418  27.968281     26.576      6.163   296.3346     0.7252     0.8854     0.0210      0.153      0.313      0.454        252 1.2370e-01   996.3615 0.0000e+00
      0.357    27.6146     7.5788     96.172  28.019294     26.628      6.166   296.5618     0.7405     0.8566     0.0210      0.148      0.349      0.507        253 1.2371e-01   996.3612 0.0000e+00
      0.393    27.6156     7.5615     95.954  27.974943     26.576      6.167   296.8646     0.7367     1.0296     0.0210      0.146      0.384      0.556        254 1.2380e-01   996.3617 0.0000e+00
      0.423    27.6154     7.5388     95.670  27.964232     26.576      6.165   297.2432     0.7024     0.9143     0.0210      0.144      0.414      0.601        255 1.2365e-01   996.3618 0.0000e+00
      0.450    27.6147     7.5287     95.544  27.973381     26.575      6.165   297.3946     0.7138     0.8133     0.0210      0.141      0.443      0.641        256 1.2377e-01   996.3616 0.0000e+00
      0.480    27.6140     7.5241     95.486  28.022801     26.628      6.163   297.4325     0.7825     0.9287     0.0210      0.137      0.468      0.679        257 1.2392e-01   996.3618 0.0000e+00
      0.501    27.6134     7.5269     95.523  27.961973     26.576      6.161   297.6218     0.7558     0.8998     0.0210      0.129      0.487      0.705        258 1.2369e-01   996.3621 0.0000e+00
      0.506    27.6134     7.5411     95.702  27.900972     26.496      6.162   297.2432     0.7901     0.8566     0.0209      0.115      0.496      0.718        259 1.2360e-01   996.3623 0.0000e+00
      0.508    27.6131     7.5506     95.818  27.950607     26.576      6.164   297.4703     0.7710     0.8710     0.0210      0.096      0.502      0.727        260 1.2367e-01   996.3625 0.0000e+00
      0.519    27.6130     7.5462     95.761  27.929824     26.523      6.170   296.9025     0.7100     0.8422     0.0210      0.079      0.517      0.749        261 1.2365e-01   996.3625 0.0000e+00
      0.556    27.6140     7.5522     95.836  27.956458     26.576      6.165   297.3189     0.7252     0.9287     0.0210      0.071      0.545      0.791        262 1.2358e-01   996.3628 0.0000e+00
      0.591    27.6148     7.5523     95.837  27.976706     26.577      6.162   297.2810     0.7329     0.9287     0.0210      0.070      0.579      0.839        263 1.2360e-01   996.3630 0.0000e+00
      0.624    27.6156     7.5555     95.876  27.963870     26.576      6.156   297.3568     0.7062     0.8710     0.0210      0.075      0.609      0.883        264 1.2365e-01   996.3629 0.0000e+00
      0.648    27.6173     7.5579     95.906  27.972433     26.576      6.154   297.8111     0.7176     0.7701     0.0210      0.082      0.633      0.918        265 1.2376e-01   996.3627 0.0000e+00
      0.665    27.6188     7.5635     95.978  27.966051     26.575      6.157   297.3946     0.7329     0.9431     0.0210      0.091      0.653      0.947        266 1.2378e-01   996.3626 0.0000e+00
      0.684    27.6198     7.5630     95.970  27.971812     26.574      6.157   297.1296     0.7176     0.9864     0.0210      0.099      0.672      0.975        267 1.2360e-01   996.3621 0.0000e+00
      0.708    27.6204     7.5679     96.029  27.965260     26.574      6.157   297.3189     0.6947     0.8998     0.0210      0.103      0.693      1.005        268 1.2366e-01   996.3618 0.0000e+00
      0.726    27.6191     7.5742     96.104  27.974203     26.573      6.159   297.3189     0.7062     0.9143     0.0210      0.099      0.714      1.036        269 1.2370e-01   996.3616 0.0000e+00
      0.752    27.6173     7.5747     96.105  28.019927     26.626      6.157   296.9403     0.6947     0.8998     0.0210      0.091      0.739      1.072        270 1.2352e-01   996.3616 0.0000e+00
      0.784    27.6163     7.5754     96.110  27.967602     26.573      6.159   297.1296     0.7405     0.9287     0.0210      0.088      0.770      1.117        271 1.2378e-01   996.3621 0.0000e+00
      0.820    27.6157     7.5683     96.016  27.980080     26.574      6.159   297.3946     0.7138     0.9719     0.0210      0.092      0.804      1.166        272 1.2379e-01   996.3628 0.0000e+00
      0.854    27.6150     7.5680     96.008  28.004400     26.628      6.158   297.3946     0.6985     0.8422     0.0210      0.100      0.838      1.215        273 1.2362e-01   996.3632 0.0000e+00
      0.887    27.6140     7.5757     96.105  27.996579     26.575      6.155   297.7732     0.7252     0.8710     0.0210      0.110      0.869      1.261        274 1.2364e-01   996.3635 0.0000e+00
      0.917    27.6139     7.5784     96.140  28.049057     26.682      6.154   297.4703     0.6757     0.8854     0.0210      0.117      0.898      1.304        275 1.2368e-01   996.3638 0.0000e+00
      0.945    27.6140     7.5763     96.114  27.998336     26.576      6.158   297.3189     0.7291     0.9431     0.0210      0.122      0.926      1.344        276 1.2371e-01   996.3642 0.0000e+00
      0.972    27.6134     7.5719     96.059  28.000457     26.629      6.156   297.4703     0.7252     0.9431     0.0210      0.124      0.955      1.385        277 1.2366e-01   996.3644 0.0000e+00
      1.004    27.6121     7.5732     96.071  28.046419     26.629      6.156   297.7353     0.7596     0.8710     0.0210      0.123      0.986      1.429        278 1.2361e-01   996.3645 0.0000e+00
      1.039    27.6091     7.5821     96.177  28.118869     26.735      6.156   297.8111     0.7977     0.9864     0.0210      0.122      1.018      1.476        279 1.2361e-01   996.3648 0.0000e+00
      1.071    27.6056     7.5840     96.197  28.206514     26.789      6.156   298.4168     0.7786     0.9287     0.0211      0.121      1.047      1.518        280 1.2375e-01   996.3654 0.0000e+00
      1.092    27.6035     7.5749     96.079  28.233566     26.844      6.156   298.1896     0.7825     0.8566     0.0211      0.118      1.070      1.552        281 1.2357e-01   996.3663 0.0000e+00
      1.111    27.6013     7.5588     95.874  28.203692     26.792      6.154   298.2653     0.7748     1.0008     0.0211      0.114      1.088      1.579        282 1.2359e-01   996.3674 0.0000e+00
      1.127    27.5989     7.5404     95.639  28.065962     26.687      6.152   298.1896     0.7748     1.0008     0.0210      0.108      1.104      1.602        283 1.2382e-01   996.3680 0.0000e+00
      1.141    27.5981     7.5092     95.242  28.108751     26.689      6.156   298.1139     0.7901     1.1738     0.0210      0.099      1.122      1.627        284 1.2379e-01   996.3687 0.0000e+00
      1.166    27.5987     7.4889     94.982  28.268932     26.902      6.155   298.3789     0.7939     1.1882     0.0211      0.092      1.145      1.660        285 1.2385e-01   996.3696 0.0000e+00
      1.194    27.5996     7.4746     94.798  28.281329     26.849      6.155   298.2653     0.7100     1.2171     0.0211      0.086      1.170      1.696        286 1.2374e-01   996.3699 0.0000e+00
      1.217    27.5994     7.4681     94.715  28.271056     26.902      6.154   298.3789     0.7252     1.0873     0.0211      0.082      1.193      1.730        287 1.2352e-01   996.3698 0.0000e+00
      1.238    27.5967     7.4825     94.896  28.163228     26.742      6.155   297.9625     0.7100     1.0008     0.0210      0.082      1.216      1.765        288 1.2363e-01   996.3696 0.0000e+00
      1.269    27.5931     7.4952     95.057  28.000809     26.636      6.152   298.3032     0.7291     1.1161     0.0210      0.086      1.245      1.806        289 1.2374e-01   996.3698 0.0000e+00
      1.302    27.5908     7.5075     95.214  27.910368     26.505      6.147   298.3789     0.7214     0.9431     0.0209      0.094      1.276      1.851        290 1.2375e-01   996.3706 0.0000e+00
      1.334    27.5891     7.5109     95.257  27.949943     26.587      6.143   298.6818     0.7214     0.8710     0.0210      0.102      1.306      1.894        291 1.2365e-01   996.3717 0.0000e+00
      1.359    27.5884     7.5229     95.408  27.981181     26.588      6.142   298.7953     0.7481     0.8133     0.0210      0.108      1.331      1.931        292 1.2356e-01   996.3725 0.0000e+00
      1.379    27.5879     7.5248     95.431  27.960358     26.589      6.140   298.5682     0.7252     0.8998     0.0210      0.108      1.352      1.962        293 1.2361e-01   996.3731 0.0000e+00
      1.398    27.5868     7.5177     95.338  27.975857     26.589      6.140   298.8711     0.8740     0.9143     0.0210      0.105      1.374      1.993        294 1.2367e-01   996.3734 0.0000e+00
      1.425    27.5856     7.5005     95.118  27.961893     26.589      6.140   298.7575     0.8282     0.8422     0.0210      0.104      1.400      2.030        295 1.2365e-01   996.3737 0.0000e+00
      1.460    27.5844     7.4969     95.072  27.977737     26.590      6.135   298.8711     0.8397     0.9431     0.0210      0.104      1.431      2.075        296 1.2367e-01   996.3741 0.0000e+00
      1.491    27.5833     7.5021     95.136  27.956142     26.590      6.137   299.0225     0.8321     0.8710     0.0210      0.104      1.462      2.122        297 1.2380e-01   996.3746 0.0000e+00
      1.525    27.5828     7.5005     95.114  27.899904     26.511      6.136   299.0982     0.8397     0.8854     0.0209      0.105      1.495      2.168        298 1.2385e-01   996.3751 0.0000e+00
      1.558    27.5827     7.5046     95.164  27.958860     26.592      6.135   299.4011     0.7214     0.8854     0.0210      0.110      1.525      2.212        299 1.2380e-01   996.3756 0.0000e+00
      1.581    27.5829     7.5030     95.143  27.971638     26.592      6.136   298.7575     0.6795     0.7845     0.0210      0.114      1.551      2.249        300 1.2367e-01   996.3758 0.0000e+00
      1.606    27.5830     7.5060     95.179  27.972867     26.592      6.140   299.0225     0.7176     0.9287     0.0210      0.117      1.576      2.285        301 1.2370e-01   996.3759 0.0000e+00
      1.633    27.5825     7.5094     95.222  27.957330     26.592      6.138   299.2496     0.7367     0.8710     0.0210      0.117      1.600      2.322        302 1.2364e-01   996.3760 0.0000e+00
      1.656    27.5815     7.5107     95.237  27.902109     26.512      6.140   299.2118     0.7252     1.1594     0.0209      0.113      1.625      2.357        303 1.2352e-01   996.3760 0.0000e+00
      1.683    27.5798     7.5118     95.251  27.952725     26.592      6.141   299.4011     0.6985     1.1161     0.0210      0.108      1.649      2.392        304 1.2372e-01   996.3763 0.0000e+00
      1.705    27.5787     7.5027     95.136  27.894339     26.513      6.143   299.1361     0.7138     1.2171     0.0209      0.103      1.671      2.424        305 1.2386e-01   996.3766 0.0000e+00
      1.724    27.5783     7.4959     95.051  27.885905     26.514      6.147   299.2496     0.7214     1.0873     0.0209      0.097      1.692      2.454        306 1.2379e-01   996.3772 0.0000e+00
      1.748    27.5778     7.4887     94.959  27.963222     26.594      6.149   299.3253     0.7825     1.1882     0.0210      0.094      1.715      2.488        307 1.2374e-01   996.3776 0.0000e+00
      1.775    27.5768     7.4810     94.861  27.975851     26.594      6.151   299.6282     0.7977     1.1450     0.0210      0.094      1.741      2.525        308 1.2367e-01   996.3779 0.0000e+00
      1.803    27.5757     7.4676     94.688  27.959054     26.594      6.152   299.3253     0.7672     1.1450     0.0210      0.094      1.767      2.563        309 1.2378e-01   996.3782 0.0000e+00
      1.827    27.5750     7.4584     94.569  27.895259     26.515      6.153   299.5146     0.7710     1.1017     0.0209      0.095      1.792      2.599        310 1.2381e-01   996.3785 0.0000e+00
      1.852    27.5743     7.4435     94.374  27.877513     26.516      6.153   299.3632     0.7901     0.9143     0.0209      0.096      1.816      2.634        311 1.2364e-01   996.3789 0.0000e+00
      1.877    27.5737     7.4320     94.224  27.892275     26.516      6.155   299.4389     0.7710     0.8133     0.0209      0.097      1.841      2.670        312 1.2370e-01   996.3792 0.0000e+00
      1.904    27.5733     7.4259     94.140  27.965754     26.596      6.156   299.4011     0.7825     0.8998     0.0210      0.099      1.867      2.708        313 1.2373e-01   996.3795 0.0000e+00
      1.931    27.5731     7.4309     94.196  27.963802     26.596      6.153   299.5903     0.7825     0.9143     0.0210      0.101      1.891      2.742        314 1.2372e-01   996.3798 0.0000e+00
      1.948    27.5734     7.4452     94.370  27.894705     26.517      6.147   299.6661     0.7634     1.1594     0.0209      0.099      1.906      2.765        315 1.2378e-01   996.3800 0.0000e+00
      1.953    27.5737     7.4601     94.550  27.962877     26.597      6.140   299.3253     0.7825     1.1017     0.0210      0.092      1.915      2.778        316 1.2371e-01   996.3801 0.0000e+00
      1.961    27.5736     7.4722     94.694  27.967828     26.597      6.145   299.7039     0.8092     1.1450     0.0210      0.082      1.924      2.791        317 1.2373e-01   996.3801 0.0000e+00
      1.974    27.5727     7.4732     94.695  27.888544     26.517      6.153   300.0068     0.7596     1.1017     0.0209      0.072      1.937      2.809        318 1.2370e-01   996.3800 0.0000e+00
      1.991    27.5712     7.4669     94.590  27.883814     26.517      6.156   300.1203     0.7825     1.1017     0.0209      0.064      1.953      2.832        319 1.2357e-01   996.3801 0.0000e+00
      2.009    27.5695     7.4603     94.474  27.973715     26.597      6.156   300.0825     0.7748     1.1161     0.0210      0.058      1.971      2.860        320 1.2370e-01   996.3805 0.0000e+00
      2.032    27.5667     7.4487     94.298  27.954395     26.598      6.160   300.5368     0.7977     1.1161     0.0210      0.056      1.992      2.890        321 1.2367e-01   996.3810 0.0000e+00
      2.055    27.5636     7.4298     94.032  27.907858     26.519      6.159   300.4989     0.7748     1.1017     0.0209      0.058      2.014      2.921        322 1.2365e-01   996.3816 0.0000e+00
      2.073    27.5603     7.4003     93.633  27.942766     26.600      6.162   300.3096     0.7519     1.1161     0.0210      0.064      2.034      2.951        323 1.2382e-01   996.3824 0.0000e+00
      2.096    27.5556     7.3852     93.416  27.910954     26.522      6.157   300.3096     0.7748     1.0585     0.0209      0.073      2.056      2.981        324 1.2379e-01   996.3834 0.0000e+00
      2.119    27.5507     7.3757     93.266  27.947447     26.603      6.151   300.5746     0.7901     1.0585     0.0210      0.079      2.076      3.011        325 1.2370e-01   996.3845 0.0000e+00
      2.136    27.5453     7.3940     93.462  27.986216     26.606      6.148   300.4611     0.7748     1.1738     0.0210      0.082      2.093      3.037        326 1.2369e-01   996.3859 0.0000e+00
      2.150    27.5399     7.4262     93.827  27.951574     26.608      6.150   300.5746     0.7558     1.1882     0.0210      0.081      2.109      3.060        327 1.2378e-01   996.3873 0.0000e+00
      2.168    27.5331     7.4557     94.150  27.901697     26.531      6.153   300.3096     0.8397     1.2171     0.0209      0.078      2.129      3.088        328 1.2379e-01   996.3888 0.0000e+00
      2.196    27.5184     7.4767     94.361  27.870560     26.534      6.156   300.5746     0.8321     1.1738     0.0209      0.078      2.154      3.124        329 1.2374e-01   996.3905 0.0000e+00
      2.225    27.4987     7.4914     94.489  27.901461     26.537      6.157   300.5746     0.8549     1.0296     0.0209      0.080      2.180      3.161        330 1.2370e-01   996.3925 0.0000e+00
      2.246    27.4814     7.4940     94.467  27.952111     26.624      6.155   300.6503     0.8321     1.1017     0.0210      0.083      2.202      3.194        331 1.2372e-01   996.3967 0.0000e+00
      2.266    27.4658     7.4799     94.245  27.896398     26.555      6.155   300.6503     0.8588     1.1450     0.0209      0.084      2.221      3.222        332 1.2371e-01   996.4023 0.0000e+00
      2.284    27.4506     7.4567     93.914  27.852313     26.537      6.153   300.9532     0.8321     1.1017     0.0209      0.085      2.238      3.246        333 1.2368e-01   996.4072 0.0000e+00
      2.297    27.4351     7.4131     93.321  27.829250     26.518      6.154   300.7261     0.8397     1.1882     0.0209      0.085      2.253      3.268        334 1.2381e-01   996.4116 0.0000e+00
      2.313    27.4167     7.3765     92.787  27.776999     26.473      6.157   301.1425     0.8321     1.0585     0.0209      0.082      2.269      3.291        335 1.2372e-01   996.4159 0.0000e+00
      2.331    27.3952     7.3384     92.210  27.769238     26.480      6.156   301.1803     0.7825     1.2171     0.0209      0.077      2.286      3.316        336 1.2368e-01   996.4204 0.0000e+00
      2.349    27.3701     7.2929     91.523  27.720430     26.436      6.159   301.1425     0.7519     1.2459     0.0209      0.072      2.305      3.344        337 1.2374e-01   996.4255 0.0000e+00
      2.371    27.3410     7.2525     90.853  27.719261     26.447      6.159   301.5211     0.7672     1.1306     0.0209      0.069      2.326      3.374        338 1.2373e-01   996.4316 0.0000e+00
      2.394    27.3090     7.2143     90.177  27.711458     26.460      6.157   301.5211     0.7748     1.0873     0.0209      0.070      2.350      3.409        339 1.2374e-01   996.4387 0.0000e+00
      2.425    27.2747     7.1697     89.419  27.730151     26.475      6.153   301.6346     0.7405     1.1161     0.0209      0.075      2.376      3.446        340 1.2370e-01   996.4470 0.0000e+00
      2.448    27.2428     7.1291     88.753  27.814496     26.598      6.150   301.6346     0.7748     1.0729     0.0209      0.081      2.398      3.478        341 1.2381e-01   996.4560 0.0000e+00
      2.461    27.2160     7.1120     88.451  27.843476     26.615      6.151   301.8996     0.7825     1.1882     0.0209      0.085      2.413      3.500        342 1.2383e-01   996.4656 0.0000e+00
      2.472    27.1931     7.1022     88.283  27.871827     26.685      6.151   301.7103     0.7748     1.1161     0.0209      0.084      2.425      3.518        343 1.2369e-01   996.4745 0.0000e+00
      2.484    27.1669     7.0838     88.020  27.897711     26.698      6.157   301.3318     0.7634     1.0296     0.0209      0.080      2.440      3.539        344 1.2370e-01   996.4820 0.0000e+00
      2.509    27.1226     7.0733     87.832  28.018625     26.844      6.159   301.8618     0.8855     1.2171     0.0210      0.076      2.461      3.569        345 1.2379e-01   996.4885 0.0000e+00
      2.535    27.0639     7.0682     87.693  28.136067     26.964      6.158   302.0889     0.8397     1.1161     0.0210      0.075      2.484      3.603        346 1.2369e-01   996.4959 0.0000e+00
      2.554    26.9924     7.0651     87.578  28.136653     26.987      6.160   301.6346     0.8397     1.1450     0.0210      0.073      2.506      3.635        347 1.2365e-01   996.5082 0.0000e+00
      2.579    26.8930     7.0761     87.568  28.136401     27.018      6.160   301.8996     0.8778     1.1450     0.0210      0.073      2.530      3.670        348 1.2365e-01   996.5245 0.0000e+00
      2.606    26.7715     7.0992     87.552  28.077161     27.001      6.160   302.0132     0.8473     1.1594     0.0210      0.078      2.555      3.706        349 1.2363e-01   996.5443 0.0000e+00
      2.632    26.6469     7.0954     87.300  28.032675     26.999      6.160   302.3539     0.8321     1.2027     0.0210      0.086      2.579      3.741        350 1.2367e-01   996.5717 0.0000e+00
      2.653    26.5482     7.0762     86.983  28.073314     27.116      6.159   302.0889     0.8549     1.1450     0.0210      0.092      2.603      3.775        351 1.2366e-01   996.6051 0.0000e+00
      2.678    26.4915     7.0889     86.978  28.085875     27.182      6.160   302.2403     0.8549     1.2027     0.0210      0.095      2.628      3.811        352 1.2365e-01   996.6390 0.0000e+00
      2.707    26.4631     7.1018     86.892  28.076332     27.235      6.162   302.6946     0.8511     1.0008     0.0210      0.096      2.654      3.849        353 1.2361e-01   996.6660 0.0000e+00
      2.732    26.4404     7.1070     86.681  28.085227     27.264      6.164   302.5432     0.8244     1.0440     0.0210      0.098      2.681      3.889        354 1.2366e-01   996.6815 0.0000e+00
      2.763    26.4054     7.0914     86.252  28.074829     27.279      6.161   303.2625     0.8397     1.0729     0.0210      0.101      2.709      3.929        355 1.2375e-01   996.6892 0.0000e+00
      2.791    26.3562     7.0602     85.682  28.089286     27.291      6.160   303.4139     0.8244     1.1161     0.0209      0.103      2.734      3.965        356 1.2380e-01   996.6955 0.0000e+00
      2.808    26.3090     7.0081     84.912  28.067247     27.310      6.161   303.1489     0.9541     1.1161     0.0209      0.102      2.753      3.994        357 1.2375e-01   996.7050 0.0000e+00
      2.823    26.2117     6.9318     83.920  28.043027     27.281      6.159   303.4896     0.9618     1.2459     0.0209      0.099      2.772      4.020        358 1.2361e-01   996.7184 0.0000e+00
      2.849    26.0293     6.8559     82.947  28.000958     27.307      6.158   304.1332     0.9694     1.2748     0.0209      0.097      2.796      4.055        359 1.2364e-01   996.7311 0.0000e+00
      2.880    25.8997     6.7914     82.051  27.853028     27.165      6.158   304.5496     0.9846     1.1450     0.0208      0.096      2.824      4.096        360 1.2379e-01   996.7573 0.0000e+00
      2.909    25.8449     6.7563     81.436  27.812458     27.266      6.160   304.8146     0.9579     1.0585     0.0208      0.095      2.851      4.135        361 1.2380e-01   996.8061 0.0000e+00
      2.933    25.7452     6.7401     81.033  27.784907     27.280      6.159   305.0418     0.9465     1.0296     0.0208      0.095      2.874      4.169        362 1.2375e-01   996.8407 0.0000e+00
      2.950    25.5901     6.7269     80.695  27.709633     27.253      6.160   305.0039     0.9579     1.1450     0.0208      0.094      2.893      4.196        363 1.2377e-01   996.8551 0.0000e+00
      2.968    25.4191     6.7210     80.484  27.669195     27.252      6.163   305.3825     0.9656     1.1306     0.0207      0.092      2.914      4.225        364 1.2389e-01   996.8815 0.0000e+00
      2.995    25.2677     6.7366     80.565  27.657539     27.336      6.161   305.5718     0.9846     1.1450     0.0207      0.094      2.940      4.263        365 1.2382e-01   996.9224 0.0000e+00
      3.030    25.1464     6.7808     80.981  27.664951     27.429      6.160   305.9504     1.0266     1.3324     0.0207      0.097      2.971      4.308        366 1.2363e-01   996.9673 0.0000e+00
      3.061    25.0592     6.8233     81.353  27.600792     27.456      6.160   306.1775     0.9961     1.3324     0.0207      0.098      2.998      4.348        367 1.2366e-01   997.0067 0.0000e+00
      3.079    25.0151     6.8435     81.411  27.618955     27.523      6.157   306.6318     1.0190     1.4334     0.0207      0.097      3.018      4.377        368 1.2381e-01   997.0382 0.0000e+00
      3.092    24.9788     6.8492     81.342  27.642394     27.627      6.157   306.6318     1.0457     1.2603     0.0207      0.095      3.034      4.401        369 1.2380e-01   997.0606 0.0000e+00
      3.112    24.9019     6.8096     80.775  27.512413     27.483      6.160   307.2754     1.0037     1.3613     0.0206      0.094      3.056      4.432        370 1.2364e-01   997.0720 0.0000e+00
      3.144    24.7760     6.7472     79.958  27.395656     27.419      6.159   307.3132     1.0304     1.4045     0.0206      0.095      3.086      4.475        371 1.2371e-01   997.0815 0.0000e+00
      3.183    24.6386     6.6558     78.804  27.313774     27.349      6.156   307.7297     1.0381     1.3036     0.0206      0.098      3.120      4.524        372 1.2361e-01   997.1012 0.0000e+00
      3.215    24.5183     6.5628     77.619  27.199650     27.335      6.154   307.8432     1.0304     1.4189     0.0205      0.101      3.148      4.566        373 1.2363e-01   997.1334 0.0000e+00
      3.234    24.4255     6.4667     76.377  27.093413     27.270      6.155   308.1839     1.1639     1.3613     0.0205      0.100      3.168      4.596        374 1.2378e-01   997.1683 0.0000e+00
      3.245    24.3524     6.3861     75.330  27.120203     27.392      6.153   308.4111     1.1372     1.4045     0.0205      0.099      3.183      4.617        375 1.2371e-01   997.1987 0.0000e+00
      3.260    24.2804     6.3157     74.448  27.077491     27.388      6.157   308.6004     1.1563     1.3613     0.0204      0.098      3.200      4.642        376 1.2366e-01   997.2221 0.0000e+00
      3.286    24.1873     6.2602     73.776  27.028121     27.371      6.155   308.8654     1.1411     1.4334     0.0204      0.096      3.224      4.676        377 1.2373e-01   997.2404 0.0000e+00
      3.317    24.0712     6.2355     73.426  27.003947     27.412      6.157   308.9789     1.2021     1.2459     0.0204      0.093      3.251      4.716        378 1.2374e-01   997.2586 0.0000e+00
      3.343    23.9791     6.2269     73.230  26.900258     27.320      6.153   308.6761     1.2021     1.4622     0.0203      0.089      3.277      4.753        379 1.2350e-01   997.2819 0.0000e+00
      3.365    23.9166     6.2273     73.128  26.949852     27.473      6.158   309.0168     1.2173     1.3324     0.0204      0.086      3.299      4.785        380 1.2365e-01   997.3108 0.0000e+00
      3.384    23.8639     6.2373     73.142  26.942268     27.494      6.156   309.2439     1.1983     1.2892     0.0204      0.086      3.318      4.813        381 1.2376e-01   997.3336 0.0000e+00
      3.402    23.8159     6.2514     73.248  26.880109     27.473      6.158   309.2439     1.1906     1.2603     0.0203      0.089      3.338      4.842        382 1.2369e-01   997.3491 0.0000e+00
      3.426    23.7577     6.2718     73.410  26.879130     27.502      6.160   309.6604     1.2746     1.3180     0.0203      0.091      3.363      4.877        383 1.2375e-01   997.3622 0.0000e+00
      3.460    23.6855     6.2881     73.419  26.825025     27.472      6.158   310.1525     1.2402     1.3469     0.0203      0.093      3.392      4.919        384 1.2373e-01   997.3741 0.0000e+00
      3.491    23.6181     6.2986     73.344  26.769740     27.447      6.156   310.1147     1.2746     1.2892     0.0203      0.095      3.419      4.959        385 1.2380e-01   997.3884 0.0000e+00
      3.509    23.5829     6.2946     73.102  26.740610     27.460      6.154   310.2282     1.2631     1.3324     0.0203      0.095      3.439      4.989        386 1.2373e-01   997.4061 0.0000e+00
      3.522    23.5673     6.2771     72.705  26.713198     27.469      6.150   310.6447     1.4615     1.6497     0.0202      0.093      3.454      5.010        387 1.2368e-01   997.4226 0.0000e+00
      3.535    23.5255     6.2484     72.201  26.655775     27.432      6.153   310.8718     1.4386     1.7073     0.0202      0.090      3.469      5.031        388 1.2387e-01   997.4311 0.0000e+00
      3.556    23.4569     6.2168     71.667  26.663987     27.440      6.154   310.9854     1.4500     1.5631     0.0202      0.087      3.488      5.058        389 1.2377e-01   997.4350 0.0000e+00
      3.578    23.3796     6.1676     70.904  26.584508     27.407      6.151   310.9475     1.4653     1.6497     0.0202      0.083      3.509      5.089        390 1.2363e-01   997.4452 0.0000e+00
      3.600    23.3055     6.1189     70.142  26.488120     27.301      6.152   311.1747     1.5569     1.3613     0.0201      0.079      3.531      5.121        391 1.2364e-01   997.4619 0.0000e+00
      3.623    23.2625     6.0664     69.359  26.517385     27.432      6.150   311.2504     1.5683     1.3036     0.0202      0.075      3.554      5.155        392 1.2359e-01   997.4807 0.0000e+00
      3.648    23.2034     6.0304     68.791  26.429636     27.330      6.152   311.7425     1.5645     1.3324     0.0201      0.077      3.579      5.191        393 1.2365e-01   997.4985 0.0000e+00
      3.677    23.0775     6.0209     68.546  26.330768     27.296      6.147   311.8182     1.5836     1.3613     0.0201      0.083      3.606      5.230        394 1.2383e-01   997.5090 0.0000e+00
      3.705    22.9338     6.0500     68.728  26.255387     27.212      6.148   312.0075     1.6179     1.3613     0.0200      0.091      3.634      5.270        395 1.2379e-01   997.5232 0.0000e+00
      3.733    22.7940     6.0860     68.945  26.168035     27.227      6.152   312.0832     1.5836     1.3613     0.0200      0.097      3.660      5.308        396 1.2361e-01   997.5533 0.0000e+00
      3.758    22.6545     6.1243     69.163  26.143321     27.250      6.148   312.8025     1.5683     1.3613     0.0200      0.100      3.683      5.342        397 1.2359e-01   997.5875 0.0000e+00
      3.776    22.5296     6.1633     69.398  26.049237     27.272      6.149   312.6511     1.5988     1.3613     0.0199      0.101      3.702      5.370        398 1.2367e-01   997.6204 0.0000e+00
      3.793    22.4056     6.1901     69.534  25.959358     27.205      6.151   312.7268     1.5607     1.3613     0.0198      0.098      3.722      5.398        399 1.2381e-01   997.6531 0.0000e+00
      3.819    22.2627     6.2037     69.532  25.899791     27.277      6.151   312.9540     1.5759     1.3324     0.0198      0.096      3.745      5.433        400 1.2370e-01   997.6824 0.0000e+00
      3.847    22.1128     6.2182     69.507  25.738363     27.112      6.151   313.2947     1.5721     1.3757     0.0197      0.094      3.770      5.468        401 1.2356e-01   997.7111 0.0000e+00
      3.866    21.9770     6.2261     69.370  25.627155     27.135      6.150   313.4082     1.5797     1.2748     0.0197      0.091      3.790      5.497        402 1.2369e-01   997.7441 0.0000e+00
      3.883    21.8595     6.2228     69.106  25.534717     27.074      6.151   313.2190     1.5759     1.3901     0.0196      0.087      3.808      5.522        403 1.2380e-01   997.7785 0.0000e+00
      3.899    21.7561     6.2201     68.906  25.498027     27.152      6.150   313.5218     1.5263     1.4045     0.0196      0.083      3.823      5.545        404 1.2368e-01   997.8095 0.0000e+00
      3.914    21.6433     6.2127     68.674  25.465532     27.160      6.154   313.4082     1.5035     1.3757     0.0196      0.080      3.842      5.572        405 1.2371e-01   997.8360 0.0000e+00
      3.941    21.5009     6.2058     68.409  25.397487     27.161      6.154   314.0140     1.5035     1.3180     0.0196      0.080      3.867      5.610        406 1.2379e-01   997.8594 0.0000e+00
      3.977    21.3408     6.1878     67.980  25.286561     27.106      6.154   314.5061     1.5111     1.3324     0.0195      0.083      3.899      5.656        407 1.2377e-01   997.8848 0.0000e+00
      4.010    21.1896     6.1690     67.491  25.188963     27.070      6.150   314.8468     1.5263     1.4045     0.0194      0.087      3.930      5.700        408 1.2385e-01   997.9166 0.0000e+00
      4.034    21.0664     6.1277     66.785  25.163576     27.163      6.152   314.8847     1.4958     1.3324     0.0194      0.092      3.955      5.736        409 1.2364e-01   997.9521 0.0000e+00
      4.054    20.9524     6.0891     66.144  25.140498     27.192      6.152   315.1875     1.5187     1.4045     0.0194      0.098      3.977      5.768        410 1.2366e-01   997.9854 0.0000e+00
      4.079    20.8154     6.0578     65.645  25.099261     27.265      6.153   315.1118     1.5149     1.3613     0.0194      0.102      4.002      5.804        411 1.2376e-01   998.0124 0.0000e+00
      4.111    20.6503     6.0276     65.275  24.948376     27.119      6.152   315.5661     1.5035     1.4045     0.0193      0.107      4.031      5.846        412 1.2369e-01   998.0373 0.0000e+00
      4.140    20.4851     6.0019     64.976  24.854425     27.140      6.152   315.7175     1.5035     1.3613     0.0193      0.109      4.057      5.884        413 1.2367e-01   998.0669 0.0000e+00
      4.158    20.3590     5.9958     64.914  24.801577     27.146      6.151   315.7932     1.5111     1.3469     0.0192      0.105      4.078      5.915        414 1.2370e-01   998.1022 0.0000e+00
      4.177    20.2474     6.0226     65.084  24.747639     27.215      6.153   315.9447     1.5111     1.2748     0.0192      0.099      4.099      5.945        415 1.2368e-01   998.1374 0.0000e+00
      4.205    20.1101     6.0643     65.290  24.714280     27.229      6.153   316.1340     1.5759     1.0873     0.0191      0.097      4.126      5.985        416 1.2363e-01   998.1641 0.0000e+00
      4.240    19.9374     6.1029     65.457  24.635813     27.233      6.153   316.5125     1.5874     1.0585     0.0191      0.100      4.160      6.034        417 1.2366e-01   998.1876 0.0000e+00
      4.283    19.7304     6.1375     65.599  24.519538     27.162      6.152   317.4968     1.5797     1.1161     0.0190      0.106      4.198      6.089        418 1.2364e-01   998.2163 0.0000e+00
      4.320    19.5391     6.1539     65.559  24.444385     27.203      6.151   317.4590     1.5645     1.1594     0.0190      0.113      4.233      6.139        419 1.2372e-01   998.2521 0.0000e+00
      4.346    19.3722     6.1712     65.545  24.403607     27.269      6.149   317.4211     1.6942     1.2171     0.0190      0.117      4.259      6.178        420 1.2366e-01   998.2947 0.0000e+00
      4.366    19.2573     6.1861     65.532  24.363031     27.354      6.151   317.8754     1.6942     1.1017     0.0189      0.120      4.279      6.206        421 1.2366e-01   998.3335 0.0000e+00
      4.379    19.2170     6.1913     65.510  24.287624     27.362      6.153   317.7618     1.7171     1.0873     0.0189      0.118      4.293      6.226        422 1.2372e-01   998.3670 0.0000e+00
      4.388    19.2074     6.2067     65.669  24.290185     27.436      6.151   318.2161     1.6980     1.0585     0.0189      0.110      4.303      6.241        423 1.2373e-01   998.3899 0.0000e+00
      4.397    19.2045     6.2301     65.848  24.330265     27.520      6.155   318.2540     1.6904     1.0585     0.0189      0.095      4.316      6.259        424 1.2381e-01   998.3980 0.0000e+00
      4.418    19.1150     6.2636     66.030  24.296996     27.466      6.156   318.5947     1.8353     0.8566     0.0189      0.080      4.334      6.285        425 1.2376e-01   998.4000 0.0000e+00
      4.441    18.9305     6.2816     66.018  24.272358     27.464      6.156   317.9890     1.8010     0.8566     0.0189      0.069      4.354      6.315        426 1.2352e-01   998.4006 0.0000e+00
      4.459    18.7439     6.2966     65.957  24.183233     27.395      6.159   318.7083     1.8124     0.8854     0.0188      0.063      4.374      6.344        427 1.2356e-01   998.4184 0.0000e+00
      4.481    18.5719     6.2950     65.734  24.082154     27.415      6.158   318.4054     1.8315     0.9143     0.0187      0.064      4.397      6.377        428 1.2375e-01   998.4546 0.0000e+00
      4.511    18.4113     6.2813     65.435  23.983566     27.405      6.157   318.8975     2.0108     0.9575     0.0187      0.070      4.424      6.416        429 1.2364e-01   998.4909 0.0000e+00
      4.541    18.2625     6.2626     65.129  23.920967     27.449      6.155   319.2004     2.0070     0.9287     0.0186      0.080      4.451      6.456        430 1.2354e-01   998.5241 0.0000e+00
      4.565    18.1371     6.2528     64.907  23.923182     27.551      6.154   319.3897     1.9956     0.8710     0.0186      0.089      4.474      6.490        431 1.2362e-01   998.5548 0.0000e+00
      4.582    18.0791     6.2566     64.805  23.921628     27.645      6.154   319.3140     2.0108     0.8422     0.0186      0.094      4.491      6.514        432 1.2385e-01   998.5829 0.0000e+00
      4.592    18.0738     6.2718     64.815  23.922949     27.726      6.151   319.6547     2.1329     1.1161     0.0186      0.091      4.504      6.532        433 1.2381e-01   998.6064 0.0000e+00
      4.604    18.0226     6.3218     65.204  23.921577     27.764      6.156   320.0333     2.1405     1.0440     0.0186      0.085      4.517      6.552        434 1.2372e-01   998.6172 0.0000e+00
      4.624    17.8984     6.4001     65.891  23.923354     27.765      6.158   320.3361     2.1138     1.1161     0.0186      0.081      4.536      6.579        435 1.2357e-01   998.6184 0.0000e+00
      4.647    17.7482     6.5157     66.927  23.891130     27.766      6.162   320.4118     2.1176     1.1738     0.0186      0.076      4.560      6.614        436 1.2365e-01   998.6279 0.0000e+00
      4.679    17.5894     6.6651     68.260  23.872850     27.815      6.158   320.2604     2.0833     0.9287     0.0186      0.074      4.588      6.655        437 1.2381e-01   998.6510 0.0000e+00
      4.710    17.4381     6.8109     69.543  23.798057     27.847      6.159   320.6768     2.0909     0.8998     0.0185      0.077      4.615      6.694        438 1.2366e-01   998.6787 0.0000e+00
      4.729    17.3238     6.9209     70.558  23.628858     27.722      6.156   320.7525     2.0413     0.9431     0.0184      0.082      4.635      6.723        439 1.2376e-01   998.7075 0.0000e+00
      4.741    17.2399     6.9976     71.304  23.609603     27.821      6.153   321.2068     2.0528     0.8998     0.0184      0.086      4.652      6.747        440 1.2371e-01   998.7347 0.0000e+00
      4.763    17.1518     7.0535     71.687  23.614751     27.896      6.158   321.1690     2.1253     0.8998     0.0184      0.089      4.673      6.777        441 1.2357e-01   998.7551 0.0000e+00
      4.792    17.0470     7.0818     71.732  23.444793     27.753      6.156   321.8883     2.1672     0.8710     0.0183      0.092      4.700      6.815        442 1.2378e-01   998.7700 0.0000e+00
      4.821    16.9388     7.0719     71.394  23.288053     27.612      6.155   322.5318     2.1253     0.9575     0.0182      0.093      4.726      6.854        443 1.2380e-01   998.7856 0.0000e+00
      4.844    16.8446     7.0526     70.992  23.217520     27.615      6.156   322.3047     2.1329     0.8854     0.0182      0.092      4.748      6.887        444 1.2367e-01   998.8040 0.0000e+00
      4.860    16.7572     7.0265     70.539  23.147598     27.587      6.156   322.1533     2.1253     0.8277     0.0181      0.089      4.769      6.917        445 1.2378e-01   998.8229 0.0000e+00
      4.886    16.6468     7.0115     70.199  23.078947     27.582      6.160   322.3047     2.0528     0.9287     0.0181      0.089      4.794      6.953        446 1.2377e-01   998.8392 0.0000e+00
      4.921    16.5074     7.0038     69.933  23.154907     27.706      6.158   322.8726     2.0871     0.9431     0.0181      0.095      4.824      6.997        447 1.2372e-01   998.8544 0.0000e+00
      4.951    16.3644     7.0200     69.913  23.201176     27.880      6.157   323.0618     2.0604     0.8854     0.0181      0.101      4.851      7.036        448 1.2365e-01   998.8733 0.0000e+00
      4.968    16.2950     7.0357     69.905  23.110250     27.806      6.156   323.2890     2.0909     0.9719     0.0180      0.101      4.871      7.064        449 1.2356e-01   998.8970 0.0000e+00
      4.979    16.2629     7.0586     69.985  23.090412     27.936      6.155   323.3268     2.0833     0.9864     0.0180      0.096      4.887      7.089        450 1.2372e-01   998.9210 0.0000e+00
      5.006    16.1465     7.0957     70.203  22.929747     27.748      6.155   323.5918     2.0680     0.9575     0.0179      0.093      4.912      7.125        451 1.2378e-01   998.9327 0.0000e+00
      5.043    15.9840     7.1306     70.388  22.806755     27.629      6.157   324.1218     2.0909     0.7701     0.0179      0.096      4.946      7.174        452 1.2356e-01   998.9381 0.0000e+00
      5.082    15.8307     7.1666     70.582  22.917722     27.847      6.153   324.0083     2.0642     0.8566     0.0179      0.102      4.982      7.225        453 1.2369e-01   998.9575 0.0000e+00
      5.114    15.6917     7.1982     70.754  22.910145     27.956      6.154   324.1597     2.1176     1.1738     0.0179      0.106      5.013      7.270        454 1.2378e-01   998.9842 0.0000e+00
      5.139    15.5663     7.2297     70.953  22.757002     27.858      6.152   324.0083     2.1176     1.1450     0.0178      0.108      5.040      7.308        455 1.2365e-01   999.0090 0.0000e+00
      5.163    15.4403     7.2539     71.077  22.664128     27.849      6.153   324.0083     2.1176     1.0296     0.0178      0.111      5.065      7.346        456 1.2374e-01   999.0313 0.0000e+00
      5.193    15.3147     7.2850     71.252  22.611158     27.866      6.154   323.9326     2.1253     1.0873     0.0177      0.117      5.094      7.389        457 1.2378e-01   999.0512 0.0000e+00
      5.229    15.1934     7.2951     71.214  22.526810     27.850      6.154   324.5761     1.9956     1.1594     0.0177      0.122      5.127      7.435        458 1.2382e-01   999.0711 0.0000e+00
      5.259    15.0845     7.3022     71.160  22.443370     27.833      6.156   324.7276     2.0299     1.2171     0.0176      0.121      5.157      7.478        459 1.2383e-01   999.0907 0.0000e+00
      5.285    14.9869     7.2977     71.005  22.389273     27.847      6.154   324.7276     2.0261     1.1161     0.0176      0.117      5.184      7.518        460 1.2364e-01   999.1095 0.0000e+00
      5.313    14.8882     7.2801     70.701  22.386867     27.923      6.155   324.6140     1.9956     1.1161     0.0176      0.114      5.212      7.560        461 1.2369e-01   999.1263 0.0000e+00
      5.347    14.7831     7.2715     70.448  22.387170     27.991      6.158   324.6518     2.4838     1.4189     0.0175      0.115      5.244      7.606        462 1.2379e-01   999.1411 0.0000e+00
      5.383    14.6782     7.2546     70.106  22.329699     27.990      6.156   324.9926     2.4953     1.3613     0.0175      0.119      5.276      7.651        463 1.2363e-01   999.1561 0.0000e+00
      5.407    14.5880     7.2416     69.836  22.280731     27.994      6.155   324.9926     2.4953     1.2892     0.0175      0.120      5.301      7.688        464 1.2356e-01   999.1718 0.0000e+00
      5.426    14.5157     7.2434     69.751  22.329682     28.139      6.155   325.0683     2.5334     1.3180     0.0175      0.116      5.323      7.720        465 1.2348e-01   999.1874 0.0000e+00
      5.451    14.4427     7.2580     69.808  22.328041     28.203      6.155   325.0683     2.5029     1.3036     0.0175      0.111      5.347      7.756        466 1.2349e-01   999.2009 0.0000e+00
      5.482    14.3591     7.3234     70.349  22.282802     28.183      6.154   325.0683     3.2201     2.1111     0.0174      0.110      5.376      7.797        467 1.2366e-01   999.2115 0.0000e+00
      5.511    14.2715     7.3822     70.807  22.267548     28.236      6.156   325.4090     3.2354     2.0823     0.0174      0.109      5.403      7.836        468 1.2380e-01   999.2221 0.0000e+00
      5.535    14.1925     7.4458     71.371  22.228590     28.225      6.159   325.3333     3.2086     2.0246     0.0174      0.106      5.426      7.869        469 1.2377e-01   999.2342 0.0000e+00
      5.550    14.1201     7.5071     72.022  22.212851     28.288      6.155   325.2576     3.2201     2.0102     0.0174      0.100      5.445      7.896        470 1.2375e-01   999.2468 0.0000e+00
      5.570    14.0344     7.5630     72.659  22.227931     28.345      6.155   325.6361     3.0942     2.0390     0.0174      0.095      5.466      7.927        471 1.2369e-01   999.2581 0.0000e+00
      5.601    13.9255     7.6301     73.332  22.209848     28.397      6.156   325.7118     3.1133     2.0823     0.0174      0.096      5.495      7.970        472 1.2365e-01   999.2684 0.0000e+00
      5.640    13.8111     7.7163     74.015  22.116920     28.316      6.155   326.2797     3.1018     2.0534     0.0173      0.099      5.527      8.016        473 1.2370e-01   999.2806 0.0000e+00
      5.666    13.7178     7.7861     74.558  22.077074     28.360      6.154   326.3933     3.0980     2.0534     0.0173      0.101      5.552      8.052        474 1.2361e-01   999.2958 0.0000e+00
      5.679    13.6507     7.8423     75.011  22.081782     28.444      6.152   326.2418     2.7967     2.2409     0.0173      0.099      5.569      8.077        475 1.2363e-01   999.3116 0.0000e+00
      5.693    13.5967     7.8872     75.382  22.022250     28.441      6.152   325.9768     2.8348     2.2986     0.0172      0.095      5.585      8.100        476 1.2370e-01   999.3243 0.0000e+00
      5.713    13.5392     7.9123     75.639  21.973501     28.418      6.153   326.4311     2.8043     2.2120     0.0172      0.093      5.604      8.128        477 1.2363e-01   999.3335 0.0000e+00
      5.739    13.4718     7.9139     75.717  21.964785     28.457      6.154   326.4311     2.7738     2.2697     0.0172      0.092      5.627      8.161        478 1.2366e-01   999.3409 0.0000e+00
      5.762    13.4448     7.9294     75.721  21.973886     28.499      6.155   326.6961     2.5601     2.6014     0.0172      0.089      5.648      8.191        479 1.2383e-01   999.3486 0.0000e+00
      5.776    13.4813     7.9386     75.695  21.932579     28.514      6.156   326.2797     2.5373     2.5437     0.0171      0.081      5.663      8.214        480 1.2375e-01   999.3576 0.0000e+00
      5.789    13.5464     7.9434     75.626  21.927365     28.499      6.155   326.3554     2.5678     2.5870     0.0171      0.075      5.675      8.231        481 1.2358e-01   999.3613 0.0000e+00
      5.797    13.5575     7.9571     75.649  21.950767     28.542      6.155   326.2040     2.5716     2.4572     0.0172      0.070      5.682      8.241        482 1.2370e-01   999.3565 0.0000e+00
      5.796    13.4772     7.9576     75.616  21.933062     28.423      6.155   326.3933     2.5487     2.7456     0.0171      0.063      5.684      8.244        483 1.2372e-01   999.3478 0.0000e+00
      5.797    13.3959     7.9339     75.301  21.949386     28.482      6.155   326.2418     2.3236     2.6302     0.0172      0.053      5.687      8.247        484 1.2376e-01   999.3463 0.0000e+00
      5.803    13.3487     7.8664     74.605  21.930453     28.476      6.160   326.1283     2.3122     2.6590     0.0171      0.041      5.692      8.255        485 1.2379e-01   999.3571 0.0000e+00
      5.812    13.3094     7.7702     73.672  21.897414     28.532      6.160   326.1283     2.3007     2.7023     0.0171      0.030      5.700      8.267        486 1.2368e-01   999.3678 0.0000e+00
      5.821    13.3266     7.6501     72.513  21.872068     28.497      6.160   326.5068     2.3122     2.6158     0.0171      0.024      5.710      8.282        487 1.2372e-01   999.3741 0.0000e+00
      5.835    13.3509     7.5119     71.262  21.873170     28.560      6.161   326.6204     2.4877     2.9186     0.0171      0.024      5.723      8.300        488 1.2366e-01   999.3793 0.0000e+00
      5.851    13.2782     7.3968     70.221  21.866435     28.516      6.161   326.0526     2.5182     3.0051     0.0171      0.028      5.737      8.320        489 1.2375e-01   999.3771 0.0000e+00
      5.863    13.2031     7.3393     69.505  21.969288     28.634      6.163   326.1661     2.5029     2.8465     0.0171      0.034      5.749      8.337        490 1.2368e-01   999.3741 0.0000e+00
      5.871    13.1375     7.2945     68.930  22.219002     29.026      6.162   326.0904     2.4762     2.9474     0.0173      0.040      5.757      8.350        491 1.2368e-01   999.3836 0.0000e+00
      5.878    13.0763     7.2721     68.679  22.266434     29.150      6.164   326.6204     2.5449     2.8753     0.0173      0.043      5.765      8.362        492 1.2370e-01   999.3934 0.0000e+00
      5.888    13.0492     7.2492     68.396  22.295270     29.203      6.164   326.5826     2.5678     2.9474     0.0173      0.043      5.776      8.378        493 1.2357e-01   999.4019 0.0000e+00
      5.905    13.0005     7.1894     67.692  22.360824     29.398      6.165   326.1661     2.5640     2.8465     0.0173      0.044      5.791      8.399        494 1.2373e-01   999.4099 0.0000e+00
      5.922    12.9650     7.0309     66.057  22.125642     29.048      6.166   326.6204     2.5601     2.8177     0.0172      0.046      5.806      8.420        495 1.2366e-01   999.4133 0.0000e+00
      5.933    12.9522     6.7576     63.393  21.847600     28.758      6.167   326.3554     2.7890     2.6590     0.0171      0.046      5.817      8.435        496 1.2368e-01   999.4195 0.0000e+00
      5.936    12.9399     6.3764     59.687  21.877650     28.784      6.166   326.2418     2.8081     2.6735     0.0170      0.045      5.822      8.443        497 1.2374e-01   999.4240 0.0000e+00
      5.939    12.9799     5.8881     54.979  21.940183     28.941      6.164   326.2040     2.7814     2.6879     0.0171      0.042      5.826      8.449        498 1.2366e-01   999.4257 0.0000e+00
      5.946    13.0035     5.3628     49.973  21.888241     28.803      6.164   326.6204     2.8005     2.5581     0.0170      0.040      5.833      8.459        499 1.2375e-01   999.4272 0.0000e+00
      5.958    12.9028     4.7978     44.652  21.883062     28.848      6.164   326.2797     2.5983     2.9042     0.0171      0.038      5.845      8.477        500 1.2365e-01   999.4223 0.0000e+00
      5.977    12.8039     4.2304     39.344  22.005851     28.897      6.164   326.3554     2.6021     2.9186     0.0171      0.037      5.862      8.502        501 1.2361e-01   999.4194 0.0000e+00
      5.997    12.7763     3.6725     34.133  22.357340     29.533      6.166   326.6961     2.6097     2.8465     0.0173      0.039      5.880      8.528        502 1.2369e-01   999.4324 0.0000e+00
      6.014    12.7328     3.1575     29.326  22.541404     29.793      6.163   326.5447     2.6402     2.8321     0.0174      0.043      5.896      8.552        503 1.2373e-01   999.4449 0.0000e+00
      6.027    12.6413     2.7070     25.122  22.546795     29.851      6.166   326.5447     2.6059     2.8609     0.0174      0.049      5.911      8.573        504 1.2379e-01   999.4484 0.0000e+00
      6.042    12.5478     2.3506     21.798  22.765258     30.144      6.166   326.5826     2.4457     3.0772     0.0175      0.056      5.926      8.595        505 1.2373e-01   999.4539 0.0000e+00
      6.060    12.4767     2.0346     18.855  22.950702     30.514      6.167   326.8476     2.4266     3.1349     0.0176      0.062      5.944      8.621        506 1.2367e-01   999.4653 0.0000e+00
      6.082    12.3828     1.7820     16.514  22.997196     30.592      6.162   326.9990     2.4075     3.1349     0.0176      0.066      5.965      8.651        507 1.2365e-01   999.4768 0.0000e+00
      6.105    12.2723     1.5471     14.330  23.062814     30.796      6.162   326.4311     2.4190     3.0916     0.0177      0.069      5.986      8.682        508 1.2363e-01   999.4855 0.0000e+00
      6.124    12.1831     1.3074     12.098  23.046765     30.800      6.161   326.6204     2.5830     3.5819     0.0176      0.071      6.004      8.708        509 1.2376e-01   999.4969 0.0000e+00
      6.138    12.1277     1.0515      9.721  22.957967     30.817      6.157   326.1283     2.5449     3.6540     0.0176      0.071      6.018      8.728        510 1.2381e-01   999.5100 0.0000e+00
      6.146    12.0960     0.7759      7.170  22.936427     30.816      6.157   325.6361     2.5754     3.6108     0.0176      0.070      6.028      8.744        511 1.2364e-01   999.5204 0.0000e+00
      6.159    12.0682     0.4830      4.464  22.955135     30.937      6.155   325.7876     2.5411     3.5098     0.0176      0.068      6.042      8.764        512 1.2366e-01   999.5269 0.0000e+00
      6.180    12.0364     0.1692      1.564  22.993933     30.963      6.154   325.5604     3.6550     3.2214     0.0176      0.066      6.060      8.790        513 1.2369e-01   999.5307 0.0000e+00
      6.200    12.0036    -0.0703     -0.650  23.213930     31.325      6.153   325.7876     3.6817     3.4089     0.0177      0.064      6.078      8.817        514 1.2370e-01   999.5341 0.0000e+00
      6.214    11.9682    -0.2685     -2.481  23.451382     31.653      6.151   325.7876     3.6855     3.3512     0.0178      0.062      6.093      8.837        515 1.2375e-01   999.5380 0.0000e+00
      6.224    11.9425    -0.3878     -3.582  23.557312     31.833      6.153   325.7876     3.6550     3.2503     0.0179      0.059      6.103      8.852        516 1.2381e-01   999.5418 0.0000e+00
      6.232    11.9388    -0.4368     -4.034  23.615212     31.937      6.151   324.8790    14.5728     4.2020     0.0179      0.057      6.113      8.866        517 1.2364e-01   999.5460 0.0000e+00
      6.243    11.9183    -0.4247     -3.922  23.734740     32.113      6.150   324.0840    14.5652     4.2885     0.0180      0.055      6.123      8.882        518 1.2359e-01   999.5489 0.0000e+00
      6.258    11.8752    -0.3723     -3.437  23.793591     32.227      6.151   323.9326    14.5652     4.2452     0.0180      0.054      6.137      8.901        519 1.2378e-01   999.5495 0.0000e+00
      6.273    11.8386    -0.2989     -2.759  23.778913     32.170      6.148   323.7811    14.5614     4.2452     0.0180      0.052      6.151      8.921        520 1.2370e-01   999.5519 0.0000e+00
      6.286    11.8175    -0.2188     -2.020  23.841865     32.359      6.148   324.3868    25.8111     4.9085     0.0181      0.049      6.165      8.941        521 1.2380e-01   999.5568 0.0000e+00
      6.300    11.8205    -0.1425     -1.316  23.833730     32.316      6.146   325.1818    25.8149     4.9806     0.0180      0.048      6.180      8.963        522 1.2375e-01   999.5609 0.0000e+00
      6.319    11.8333    -0.0767     -0.708  23.789048     32.335      6.145   325.5604    25.8111     4.9806     0.0180      0.051      6.197      8.988        523 1.2347e-01   999.5635 0.0000e+00
      6.339    11.8297    -0.0206     -0.191  23.779008     32.256      6.144   325.7118    25.8073     4.9085     0.0180      0.056      6.217      9.017        524 1.2364e-01   999.5632 0.0000e+00
      6.361    11.8153     0.0229      0.211  23.816607     32.358      6.141   325.7497    25.8034     4.9374     0.0181      0.062      6.236      9.045        525 1.2381e-01   999.5619 0.0000e+00
      6.378    11.8033     0.0572      0.528  23.831107     32.324      6.140   326.3176    18.1472     4.7355     0.0180      0.066      6.252      9.068        526 1.2376e-01   999.5624 0.0000e+00
      6.388    11.7934     0.0876      0.809  23.849816     32.412      6.138   326.6961    18.1472     4.7643     0.0181      0.067      6.263      9.084        527 1.2371e-01   999.5640 0.0000e+00
      6.396    11.7846     0.1251      1.155  23.882177     32.423      6.136   326.6204    18.1625     4.7355     0.0181      0.065      6.272      9.097        528 1.2370e-01   999.5654 0.0000e+00
      6.403    11.7788     0.1569      1.447  23.909307     32.507      6.135   326.8476    18.1434     4.7067     0.0181      0.061      6.279      9.107        529 1.2378e-01   999.5666 0.0000e+00
      6.410    11.7761     0.1863      1.716  23.934527     32.515      6.136   327.0747    17.3690     5.3411     0.0181      0.054      6.286      9.118        530 1.2373e-01   999.5676 0.0000e+00
      6.418    11.7723     0.2161      1.988  23.969262     32.596      6.134   327.4911    17.3690     5.4709     0.0181      0.046      6.294      9.128        531 1.2378e-01   999.5683 0.0000e+00
      6.425    11.7702     0.2319      2.131  23.984551     32.598      6.132   327.6804    17.3766     5.4709     0.0181      0.039      6.301      9.138        532 1.2367e-01   999.5686 0.0000e+00
      6.431    11.7808     0.2425      2.226  23.974737     32.602      6.131   327.3019    17.3766     5.4565     0.0181      0.032      6.307      9.148        533 1.2369e-01   999.5691 0.0000e+00
      6.439    11.7990     0.2498      2.291  24.040711     32.679      6.130   327.7183    17.7238     4.9085     0.0182      0.029      6.315      9.159        534 1.2391e-01   999.5694 0.0000e+00
      6.450    11.7935     0.2349      2.152  24.169006     32.860      6.129   327.8319    17.7085     5.0095     0.0182      0.029      6.326      9.174        535 1.2389e-01   999.5683 0.0000e+00
      6.461    11.7884     0.2291      2.098  24.348192     33.070      6.132   327.6804    17.7581     4.9374     0.0183      0.031      6.336      9.189        536 1.2378e-01   999.5664 0.0000e+00
      6.471    11.7995     0.2147      1.964  24.380450     33.151      6.131   327.4911    17.7200     4.8076     0.0184      0.033      6.346      9.204        537 1.2375e-01   999.5671 0.0000e+00
      6.482    11.7816     0.1963      1.794  24.484275     33.234      6.128   327.9076    19.0628     5.1104     0.0184      0.035      6.359      9.223        538 1.2379e-01   999.5678 0.0000e+00
      6.500    11.7331     0.1886      1.721  24.692877     33.600      6.125   327.5669    19.1009     5.0383     0.0186      0.039      6.377      9.249        539 1.2367e-01   999.5667 0.0000e+00
      6.527    11.6691     0.1811      1.650  24.802071     33.657      6.127   327.6804    19.0513     5.2258     0.0186      0.047      6.400      9.283        540 1.2362e-01   999.5689 0.0000e+00
      6.553    11.6081     0.1697      1.543  25.088855     34.193      6.122   327.8319    19.0399     5.1969     0.0188      0.057      6.425      9.318        541 1.2377e-01   999.5745 0.0000e+00
      6.573    11.5630     0.1687      1.531  25.313417     34.483      6.122   327.4154    31.7049     6.4803     0.0189      0.066      6.445      9.348        542 1.2377e-01   999.5818 0.0000e+00
      6.591    11.5239     0.1764      1.599  25.381580     34.692      6.119   327.4533    31.7049     6.4370     0.0189      0.073      6.464      9.375        543 1.2364e-01   999.5887 0.0000e+00
      6.611    11.4838     0.1764      1.598  25.685294     35.079      6.114   326.8097    31.7430     6.5091     0.0191      0.078      6.482      9.401        544 1.2372e-01   999.5938 0.0000e+00
      6.627    11.4463     0.1872      1.695  26.268367     35.995      6.112   325.5983    31.7316     6.4226     0.0195      0.081      6.498      9.425        545 1.2362e-01   999.5983 0.0000e+00
      6.641    11.4110     0.1895      1.714  26.462810     36.264      6.112   319.7304    31.6858     6.2928     0.0196      0.080      6.514      9.448        546 1.2354e-01   999.6028 0.0000e+00
      6.660    11.3664     0.1955      1.766  26.924367     36.876      6.108   311.4018    28.0618     7.4320     0.0198      0.076      6.533      9.475        547 1.2374e-01   999.6071 0.0000e+00
      6.685    11.3148     0.1953      1.761  27.974872     38.483      6.108   306.1775    28.0542     7.3311     0.0205      0.073      6.555      9.508        548 1.2376e-01   999.6115 0.0000e+00
      6.710    11.2615     0.1927      1.737  28.532461     39.183      6.104   303.8682    28.0542     7.4032     0.0208      0.074      6.580      9.544        549 1.2368e-01   999.6167 0.0000e+00
      6.735    11.1961     0.1926      1.735  29.133570     40.122      6.102   302.1268    28.0809     7.4897     0.0211      0.077      6.605      9.579        550 1.2370e-01   999.6225 0.0000e+00
      6.759    11.1175     0.1909      1.719  30.218939     41.644      6.100   299.0603    21.5691     7.6195     0.0218      0.082      6.630      9.614        551 1.2384e-01   999.6288 0.0000e+00
      6.786    11.0369     0.1880      1.691  31.388672     43.377      6.096   295.1232    21.5385     7.6483     0.0225      0.087      6.654      9.649        552 1.2371e-01   999.6362 0.0000e+00
      6.806    10.9799     0.1843      1.656  32.062722     44.400      6.090   287.8925    21.5347     7.7060     0.0229      0.092      6.674      9.680        553 1.2353e-01   999.6448 0.0000e+00
      6.824    10.9603     0.1848      1.660  32.254071     44.731      6.090   278.5796    21.5538     7.7492     0.0230      0.093      6.693      9.708        554 1.2374e-01   999.6533 0.0000e+00
      6.846    10.9300     0.1876      1.685  32.572780     45.270      6.086   258.3638    14.4469     6.9417     0.0232      0.092      6.712      9.736        555 1.2363e-01   999.6593 0.0000e+00
      6.864    10.8719     0.1918      1.723  32.762425     45.563      6.084   245.3409    14.4469     6.9706     0.0233      0.088      6.729      9.761        556 1.2364e-01   999.6615 0.0000e+00
      6.877    10.8084     0.1945      1.746  32.521786     45.253      6.080   237.2394    14.4431     7.0138     0.0232      0.083      6.744      9.781        557 1.2385e-01   999.6646 0.0000e+00
      6.889    10.7522     0.1827      1.638  32.161148     44.821      6.075   232.3180    14.4507     7.0282     0.0230      0.076      6.757      9.800        558 1.2362e-01   999.6702 0.0000e+00
      6.905    10.7275     0.1833      1.643  31.966805     44.627      6.074   229.0623     5.5089     5.9179     0.0229      0.070      6.772      9.821        559 1.2357e-01   999.6765 0.0000e+00
      6.919    10.7157     0.1843      1.651  31.934043     44.660      6.070   226.5637     5.4861     5.8747     0.0228      0.065      6.786      9.842        560 1.2363e-01   999.6821 0.0000e+00
      6.933    10.6917     0.1798      1.610  31.935279     44.690      6.066   224.7087     5.4899     5.7593     0.0228      0.061      6.800      9.863        561 1.2372e-01   999.6845 0.0000e+00
      6.951    10.6560     0.1782      1.594  32.113425     44.938      6.061   222.6644     5.4899     5.8170     0.0230      0.060      6.815      9.886        562 1.2387e-01   999.6859 0.0000e+00
      6.966    10.6037     0.1708      1.527  32.334570     45.322      6.059   221.5665     3.6550     5.5863     0.0231      0.058      6.830      9.907        563 1.2375e-01   999.6884 0.0000e+00
      6.979    10.5773     0.1718      1.536  32.489708     45.521      6.055   220.1658     3.6817     5.5430     0.0232      0.058      6.845      9.928        564 1.2373e-01   999.6920 0.0000e+00
      6.995    10.5882     0.1695      1.515  32.572230     45.787      6.052   218.0837     3.6550     5.5863     0.0233      0.059      6.860      9.950        565 1.2375e-01   999.6972 0.0000e+00
      7.012    10.5911     0.1710      1.527  32.439302     45.547      6.050   216.3801     3.6550     5.6295     0.0232      0.060      6.875      9.971        566 1.2366e-01   999.6998 0.0000e+00
      7.023    10.5612     0.1693      1.511  32.447736     45.608      6.045   214.8280     3.6473     5.6007     0.0232      0.059      6.888      9.990        567 1.2370e-01   999.6988 0.0000e+00
      7.036    10.5200     0.1675      1.494  32.739517     45.960      6.043   212.7458     3.4757     5.4565     0.0233      0.058      6.902     10.010        568 1.2373e-01   999.6987 0.0000e+00
      7.054    10.4967     0.1678      1.495  32.905834     46.309      6.041   209.8308     3.4681     5.2834     0.0235      0.058      6.919     10.034        569 1.2367e-01   999.7018 0.0000e+00
      7.075    10.4738     0.1651      1.469  33.040788     46.447      6.036   208.2787     3.4833     5.4565     0.0235      0.059      6.937     10.062        570 1.2360e-01   999.7059 0.0000e+00
      7.093    10.4505     0.1736      1.543  33.341987     47.022      6.031   207.2944     3.4833     5.3267     0.0238      0.061      6.955     10.087        571 1.2357e-01   999.7083 0.0000e+00
      7.109    10.4151     0.1722      1.529  33.775522     47.530      6.031   204.7201     3.5329     4.8076     0.0240      0.063      6.970     10.110        572 1.2360e-01   999.7108 0.0000e+00
      7.122    10.3803     0.1646      1.460  34.871840     49.212      6.028   202.1458     3.5329     4.7355     0.0247      0.064      6.984     10.130        573 1.2376e-01   999.7136 0.0000e+00
      7.135    10.3669     0.1660      1.474  35.326153     49.933      6.024   200.0258     3.5443     4.6201     0.0250      0.064      6.998     10.150        574 1.2387e-01   999.7172 0.0000e+00
      7.149    10.3598     0.1595      1.417  35.906797     50.575      6.023   197.8679     3.5329     4.6490     0.0253      0.064      7.014     10.172        575 1.2377e-01   999.7208 0.0000e+00
      7.170    10.3370     0.1578      1.401  36.816407     52.289      6.021   195.6722     3.9602     3.7982     0.0260      0.064      7.035     10.202        576 1.2373e-01   999.7226 0.0000e+00
      7.200    10.2994     0.1498      1.330  38.550694     54.120      6.015   193.2115     3.9602     3.8126     0.0268      0.066      7.061     10.241        577 1.2376e-01   999.7243 0.0000e+00
      7.231    10.2755     0.1465      1.300  39.705746     56.757      6.011   191.3186     3.9602     3.7982     0.0279      0.072      7.091     10.284        578 1.2378e-01   999.7271 0.0000e+00
      7.261    10.2339     0.1399      1.240  39.291323     55.006      6.007   189.6150     3.9525     3.7694     0.0272      0.080      7.118     10.324        579 1.2357e-01   999.7305 0.0000e+00
      7.282    10.1696     0.1456      1.290  41.556359     59.390      6.001   188.1007     3.9983     3.5387     0.0291      0.088      7.140     10.356        580 1.2355e-01   999.7339 0.0000e+00
      7.299    10.1209     0.1430      1.267  42.993298     60.734      5.995   186.9650     4.0174     3.5675     0.0296      0.094      7.158     10.382        581 1.2383e-01   999.7386 0.0000e+00
      7.317    10.0795     0.1409      1.248  43.075973     61.399      5.989   185.0722     4.0021     3.5819     0.0299      0.095      7.174     10.405        582 1.2367e-01   999.7446 0.0000e+00
      7.332    10.0616     0.1380      1.222  43.706543     62.123      5.987   183.0279     4.0174     3.5675     0.0302      0.093      7.186     10.422        583 1.2355e-01   999.7494 0.0000e+00
      7.334    10.0843     0.1368      1.210  43.305491     61.834      5.983   181.6271     4.5057     3.7405     0.0301      0.082      7.190     10.428        584 1.2367e-01   999.7528 0.0000e+00
      7.330    10.0912     0.1283      1.135  42.152125     60.040      5.977   179.8857     4.4904     3.7838     0.0293      0.066      7.191     10.430        585 1.2369e-01   999.7539 0.0000e+00
      7.337    10.0813     0.1290      1.140  42.384881     60.311      5.976   176.7057     4.5133     3.8415     0.0294      0.050      7.198     10.440        586 1.2363e-01   999.7521 0.0000e+00
      7.354    10.0769     0.1256      1.109  43.845912     62.613      5.972   174.0557     4.4980     3.8703     0.0304      0.040      7.212     10.460        587 1.2368e-01   999.7522 0.0000e+00
      7.372    10.0421     0.1271      1.122  44.691843     63.545      5.969   172.2764     4.4828     3.7694     0.0308      0.037      7.229     10.485        588 1.2377e-01   999.7535 0.0000e+00
      7.388    10.0029     0.1327      1.171  45.245523     64.668      5.969   170.5728     4.5896     3.2791     0.0313      0.037      7.244     10.508        589 1.2375e-01   999.7543 0.0000e+00
      7.403    10.0024     0.1302      1.150  44.846807     63.853      5.963   169.7400     4.6010     3.3224     0.0309      0.040      7.257     10.526        590 1.2374e-01   999.7574 0.0000e+00
      7.410     9.9972     0.1299      1.147  44.535787     63.692      5.961   168.5285     4.5972     3.3512     0.0309      0.044      7.265     10.537        591 1.2370e-01   999.7607 0.0000e+00
      7.412     9.9696     0.1300      1.147  44.535613     63.567      5.958   166.8628     4.5896     3.2791     0.0308      0.047      7.268     10.542        592 1.2375e-01   999.7607 0.0000e+00
      7.413     9.9505     0.1317      1.162  44.402314     63.458      5.955   165.5757     4.8337     2.8465     0.0307      0.046      7.270     10.544        593 1.2385e-01   999.7611 0.0000e+00
      7.413     9.9460     0.1263      1.113  44.553442     63.669      5.954   163.7964     4.8452     2.8177     0.0308      0.038      7.272     10.547        594 1.2385e-01   999.7636 0.0000e+00
      7.419     9.9370     0.1262      1.112  44.495788     63.703      5.955   161.6385     4.8032     2.8321     0.0308      0.029      7.282     10.561        595 1.2369e-01   999.7653 0.0000e+00
      7.444     9.8966     0.1269      1.117  44.770554     63.952      5.953   159.8971     4.8757     2.9330     0.0309      0.027      7.302     10.590        596 1.2363e-01   999.7660 0.0000e+00
      7.472     9.8486     0.1276      1.122  45.960784     65.845      5.953   158.8749     4.4332     2.7600     0.0318      0.031      7.326     10.625        597 1.2383e-01   999.7674 0.0000e+00
      7.494     9.8268     0.1261      1.108  46.987594     67.284      5.951   157.5499     4.4484     2.5870     0.0324      0.041      7.349     10.658        598 1.2393e-01   999.7716 0.0000e+00
      7.515     9.8362     0.1280      1.123  47.080387     67.619      5.945   155.8464     4.4675     2.7600     0.0325      0.053      7.369     10.688        599 1.2375e-01   999.7760 0.0000e+00
      7.536     9.8556     0.1306      1.145  46.972058     67.339      5.943   154.9756     4.4484     2.6590     0.0324      0.066      7.389     10.718        600 1.2354e-01   999.7779 0.0000e+00
      7.556     9.8545     0.1274      1.116  47.774768     68.606      5.941   153.9914     4.5476     2.8465     0.0330      0.077      7.407     10.743        601 1.2368e-01   999.7776 0.0000e+00
      7.568     9.8354     0.1293      1.131  48.631538     69.766      5.940   152.8556     4.5553     2.8177     0.0335      0.082      7.419     10.761        602 1.2373e-01   999.7764 0.0000e+00
      7.573     9.8054     0.1249      1.092  48.693180     69.852      5.937   151.8335     4.5858     2.9474     0.0335      0.078      7.426     10.771        603 1.2367e-01   999.7765 0.0000e+00
      7.578     9.7779     0.1254      1.096  48.706268     69.888      5.936   150.0542     4.5705     2.9042     0.0335      0.067      7.433     10.780        604 1.2377e-01   999.7783 0.0000e+00
      7.586     9.7547     0.1258      1.099  49.060075     70.472      5.935   147.5556     4.6544     2.5293     0.0338      0.056      7.443     10.795        605 1.2358e-01   999.7811 0.0000e+00
      7.604     9.7259     0.1238      1.081  49.646652     71.371      5.934   144.6785     4.6621     2.6302     0.0342      0.049      7.460     10.820        606 1.2359e-01   999.7838 0.0000e+00
      7.631     9.6878     0.1218      1.064  50.111457     72.101      5.933   140.9306     4.6735     2.6302     0.0345      0.048      7.485     10.856        607 1.2384e-01   999.7861 0.0000e+00
      7.663     9.6321     0.1191      1.041  50.794797     73.088      5.929   139.1892     4.6773     2.6158     0.0349      0.053      7.514     10.898        608 1.2385e-01   999.7891 0.0000e+00
      7.692     9.5740     0.1167      1.020  51.939903     74.898      5.928   137.7127     4.6544     2.6158     0.0357      0.063      7.542     10.939        609 1.2362e-01   999.7931 0.0000e+00
      7.717     9.5279     0.1208      1.055  52.779218     76.191      5.924   136.2742     4.4637     2.9619     0.0362      0.076      7.568     10.975        610 1.2365e-01   999.7983 0.0000e+00
      7.742     9.4881     0.1239      1.083  53.339057     77.127      5.920   135.0249     4.4408     2.8465     0.0366      0.089      7.591     11.009        611 1.2385e-01   999.8035 0.0000e+00
      7.762     9.4576     0.1193      1.041  53.971976     78.161      5.916   133.7377     4.4256     2.9474     0.0371      0.097      7.611     11.038        612 1.2361e-01   999.8078 0.0000e+00
      7.778     9.4385     0.1258      1.098  54.334827     78.778      5.913   131.5799     4.4484     2.9330     0.0373      0.099      7.626     11.061        613 1.2361e-01   999.8113 0.0000e+00
      7.790     9.4222     0.1285      1.122  54.607907     79.214      5.912   129.1949     4.0632     2.7744     0.0375      0.094      7.638     11.078        614 1.2370e-01   999.8140 0.0000e+00
      7.797     9.4055     0.1189      1.037  54.818652     79.621      5.910   126.9234     4.0632     2.8898     0.0377      0.082      7.645     11.089        615 1.2366e-01   999.8157 0.0000e+00
      7.801     9.4011     0.1195      1.043  54.784479     79.539      5.908   125.1063     4.0822     2.8032     0.0376      0.069      7.651     11.097        616 1.2367e-01   999.8170 0.0000e+00
      7.808     9.4036     0.1182      1.032  54.858087     79.738      5.907   123.0998     4.0975     2.8609     0.0377      0.056      7.657     11.106        617 1.2362e-01   999.8184 0.0000e+00
      7.816     9.4108     0.1135      0.991  55.083015     80.036      5.908   121.8127     3.5405     2.6014     0.0379      0.045      7.665     11.117        618 1.2361e-01   999.8190 0.0000e+00
      7.823     9.4165     0.1147      1.002  55.068164     80.065      5.909   119.5413     3.5443     2.6590     0.0379      0.037      7.673     11.129        619 1.2363e-01   999.8188 0.0000e+00
      7.835     9.4016     0.1070      0.934  55.173200     80.097      5.910   117.8755     3.5367     2.7456     0.0379      0.032      7.683     11.144        620 1.2381e-01   999.8183 0.0000e+00
      7.846     9.3924     0.1060      0.925  55.545568     80.763      5.911   116.2098     3.5329     2.5725     0.0382      0.031      7.693     11.158        621 1.2371e-01   999.8181 0.0000e+00
      7.853     9.3859     0.1151      1.005  55.583659     80.728      5.913   114.6198     3.7198     2.6735     0.0382      0.032      7.701     11.169        622 1.2367e-01   999.8193 0.0000e+00
      7.860     9.3691     0.1086      0.949  55.570758     80.823      5.910   113.3705     3.7008     2.6590     0.0382      0.033      7.708     11.180        623 1.2368e-01   999.8201 0.0000e+00
      7.868     9.3558     0.1110      0.970  55.561631     80.761      5.912   112.1969     3.7198     2.6302     0.0382      0.034      7.716     11.191        624 1.2375e-01   999.8207 0.0000e+00
      7.876     9.3498     0.1116      0.975  55.654354     80.962      5.910   111.2505     3.7236     2.6446     0.0383      0.034      7.724     11.202        625 1.2383e-01   999.8222 0.0000e+00
      7.884     9.3601     0.1084      0.946  55.870677     81.319      5.909   110.0391     3.5100     2.6014     0.0384      0.033      7.732     11.214        626 1.2365e-01   999.8233 0.0000e+00
      7.894     9.3735     0.1118      0.973  55.529747     80.845      5.914   109.2819     3.5253     2.6302     0.0382      0.033      7.740     11.225        627 1.2364e-01   999.8237 0.0000e+00
      7.900     9.3772     0.1181      1.027  55.277709     80.374      5.911   108.1841     3.5253     2.6014     0.0380      0.031      7.745     11.233        628 1.2369e-01   999.8227 0.0000e+00
      7.901     9.3790     0.1200      1.043  55.442726     80.706      5.911   107.4269     3.5405     2.7023     0.0381      0.029      7.747     11.237        629 1.2364e-01   999.8217 0.0000e+00
      7.900     9.3736     0.1162      1.009  55.710008     80.945      5.910   106.3669     3.3803     2.6590     0.0383      0.026      7.748     11.237        630 1.2352e-01   999.8216 0.0000e+00
      7.902     9.3672     0.1217      1.056  55.627349     81.019      5.910   105.1555     3.3765     2.6879     0.0383      0.022      7.751     11.241        631 1.2367e-01   999.8214 0.0000e+00
      7.909     9.3708     0.1177      1.021  55.397275     80.423      5.912   104.2848     3.3422     2.6014     0.0380      0.018      7.758     11.253        632 1.2381e-01   999.8217 0.0000e+00
      7.924     9.4032     0.1147      0.995  54.602141     79.666      5.912   102.7326     3.3383     2.5870     0.0377      0.019      7.773     11.273        633 1.2368e-01   999.8219 0.0000e+00
      7.945     9.4263     0.1131      0.981  53.976883     78.193      5.911   101.6726     3.3498     2.7167     0.0370      0.023      7.793     11.302        634 1.2368e-01   999.8214 0.0000e+00
      7.968     9.3928     0.1052      0.914  55.018566     80.235      5.909   100.8776     3.4795     2.6735     0.0380      0.032      7.814     11.333        635 1.2368e-01   999.8194 0.0000e+00
      7.989     9.3358     0.1052      0.914  55.975435     81.063      5.910    99.8933     3.4871     2.5870     0.0383      0.044      7.836     11.365        636 1.2366e-01   999.8182 0.0000e+00
      8.014     9.2668     0.1061      0.922  57.235669     83.350      5.910    98.4169     3.4795     2.7023     0.0393      0.058      7.861     11.401        637 1.2356e-01   999.8217 0.0000e+00
      8.044     9.2105     0.1020      0.886  59.769207     86.856      5.907    97.5083     3.4719     2.5437     0.0409      0.073      7.893     11.448        638 1.2352e-01   999.8276 0.0000e+00
      8.089     9.1740     0.1084      0.941  62.850777     91.856      5.905    97.2055     3.1095     2.9186     0.0431      0.090      7.937     11.513        639 1.2365e-01   999.8350 0.0000e+00
      8.152     9.1341     0.1085      0.940  65.062002     95.026      5.896    96.4483     3.1247     2.9619     0.0445      0.112      7.991     11.590        640 1.2367e-01   999.8409 0.0000e+00
      8.204     9.0998     0.1123      0.973  65.593498     96.071      5.891    96.1076     3.1056     3.0051     0.0450      0.133      8.036     11.656        641 1.2377e-01   999.8442 0.0000e+00
      8.228     9.0877     0.1117      0.967  65.572572     95.936      5.887    95.4640     3.1056     2.8898     0.0449      0.146      8.061     11.691        642 1.2384e-01   999.8475 0.0000e+00
      8.229     9.0961     0.1127      0.976  65.473894     96.117      5.883    94.4040     2.1214     2.8177     0.0450      0.147      8.068     11.701        643 1.2375e-01   999.8501 0.0000e+00
      8.226     9.1233     0.1130      0.978  65.004048     95.247      5.882    92.8140     2.1443     2.8465     0.0446      0.136      8.068     11.701        644 1.2377e-01   999.8507 0.0000e+00
      8.227     9.1574     0.1108      0.959  64.346940     94.444      5.881    91.2997     2.1367     2.9042     0.0442      0.115      8.068     11.701        645 1.2383e-01   999.8496 0.0000e+00
      8.229     9.1667     0.1148      0.993  64.065829     93.757      5.881    90.5426     2.1481     2.8753     0.0439      0.087      8.070     11.704        646 1.2365e-01   999.8474 0.0000e+00
      8.231     9.1667     0.1121      0.968  64.463548     94.434      5.882    89.2555     1.9689     2.6879     0.0442      0.055      8.074     11.710        647 1.2366e-01   999.8451 0.0000e+00
      8.239     9.1707     0.1148      0.991  64.564207     94.455      5.884    87.8547     1.9193     2.7023     0.0442      0.028      8.085     11.727        648 1.2371e-01   999.8444 0.0000e+00
      8.265     9.1408     0.1106      0.954  64.563763     94.453      5.883    86.3404     1.9536     2.7023     0.0442      0.019      8.109     11.760        649 1.2357e-01   999.8445 0.0000e+00
      8.300     9.0908     0.1110      0.958  65.057651     95.219      5.882    85.6212     1.9460     2.6014     0.0446      0.028      8.140     11.805        650 1.2363e-01   999.8447 0.0000e+00
      8.333     9.0673     0.1121      0.967  65.463149     95.832      5.884    84.7883     1.9917     2.5725     0.0449      0.047      8.170     11.849        651 1.2373e-01   999.8474 0.0000e+00
      8.359     9.0451     0.1121      0.966  65.305631     95.859      5.880    84.3719     2.0032     2.6590     0.0448      0.067      8.198     11.889        652 1.2370e-01   999.8512 0.0000e+00
      8.385     9.0136     0.1086      0.937  65.609854     96.122      5.884    83.3497     2.0184     2.6158     0.0450      0.084      8.224     11.928        653 1.2361e-01   999.8534 0.0000e+00
      8.415     9.0001     0.1047      0.903  66.865352     98.365      5.884    82.7819     2.0261     2.6302     0.0460      0.099      8.253     11.970        654 1.2376e-01   999.8558 0.0000e+00
      8.448     8.9917     0.1082      0.933  66.859572     98.209      5.883    82.2519     1.9536     2.6590     0.0459      0.111      8.284     12.015        655 1.2370e-01   999.8584 0.0000e+00
      8.480     8.9647     0.1061      0.915  66.329366     97.550      5.883    81.1540     1.9536     2.6302     0.0456      0.117      8.314     12.058        656 1.2366e-01   999.8592 0.0000e+00
      8.506     8.9338     0.1048      0.903  66.189588     97.364      5.885    80.5104     1.9383     2.6446     0.0455      0.117      8.339     12.094        657 1.2360e-01   999.8599 0.0000e+00
      8.525     8.9120     0.1049      0.904  66.024417     97.157      5.880    80.1319     1.9536     2.6158     0.0454      0.113      8.359     12.123        658 1.2345e-01   999.8620 0.0000e+00
      8.540     8.8940     0.1010      0.870  65.941348     97.204      5.883    79.5261     1.9421     2.7311     0.0454      0.107      8.377     12.149        659 1.2379e-01   999.8643 0.0000e+00
      8.561     8.8781     0.0988      0.851  65.877480     97.060      5.883    78.9961     1.2593     3.1349     0.0453      0.102      8.399     12.181        660 1.2379e-01   999.8660 0.0000e+00
      8.592     8.8633     0.0970      0.835  65.985204     97.400      5.882    78.8068     1.2746     3.0484     0.0454      0.098      8.426     12.220        661 1.2364e-01   999.8676 0.0000e+00
      8.621     8.8518     0.0956      0.823  65.985381     97.322      5.882    78.0118     1.2784     3.1349     0.0454      0.095      8.452     12.259        662 1.2368e-01   999.8688 0.0000e+00
      8.643     8.8454     0.0934      0.804  66.055352     97.571      5.886    77.5576     1.2708     3.1349     0.0455      0.092      8.473     12.290        663 1.2361e-01   999.8701 0.0000e+00
      8.658     8.8445     0.0995      0.857  66.165255     97.687      5.883    77.3304     1.2784     3.1061     0.0456      0.089      8.491     12.316        664 1.2363e-01   999.8711 0.0000e+00
      8.678     8.8465     0.1036      0.892  66.175093     97.788      5.885    76.0811     1.2822     3.1493     0.0456      0.088      8.511     12.344        665 1.2376e-01   999.8716 0.0000e+00
      8.700     8.8426     0.1038      0.893  66.221194     97.791      5.887    75.3240     1.2822     3.1782     0.0456      0.089      8.532     12.375        666 1.2366e-01   999.8718 0.0000e+00
      8.724     8.8301     0.1018      0.877  66.375004     98.074      5.887    74.2640     1.2708     3.0340     0.0457      0.089      8.555     12.408        667 1.2365e-01   999.8719 0.0000e+00
      8.746     8.8177     0.1036      0.892  66.577278     98.332      5.888    73.3554     1.3203     3.1061     0.0458      0.087      8.576     12.439        668 1.2389e-01   999.8723 0.0000e+00
      8.766     8.8088     0.1093      0.941  66.741155     98.659      5.889    72.9390     1.3356     3.0916     0.0460      0.083      8.593     12.464        669 1.2371e-01   999.8735 0.0000e+00
      8.777     8.8024     0.1052      0.905  66.824040     98.778      5.890    72.2197     1.3432     3.1061     0.0460      0.079      8.606     12.483        670 1.2365e-01   999.8745 0.0000e+00
      8.785     8.7984     0.1045      0.900  66.859989     98.887      5.892    72.0683     1.3470     3.1061     0.0461      0.075      8.615     12.495        671 1.2375e-01   999.8752 0.0000e+00
      8.792     8.7954     0.1068      0.919  66.874510     98.905      5.893    71.3868     1.0953     3.1061     0.0461      0.069      8.623     12.506        672 1.2365e-01   999.8757 0.0000e+00
      8.803     8.7932     0.1009      0.868  66.865335     98.917      5.894    70.3268     1.1105     3.0340     0.0461      0.061      8.633     12.520        673 1.2364e-01   999.8760 0.0000e+00
      8.813     8.7903     0.1003      0.863  66.871411     98.926      5.898    69.4940     1.0762     3.0340     0.0461      0.052      8.643     12.534        674 1.2363e-01   999.8763 0.0000e+00
      8.822     8.7880     0.1042      0.897  66.926313     99.015      5.895    68.8504     1.0953     3.1782     0.0461      0.045      8.652     12.548        675 1.2370e-01   999.8765 0.0000e+00
      8.831     8.7874     0.1046      0.900  66.915735     99.023      5.898    68.3204     1.1601     2.9186     0.0461      0.039      8.662     12.564        676 1.2375e-01   999.8768 0.0000e+00
      8.846     8.7860     0.1006      0.866  66.884576     98.948      5.898    67.6390     1.1563     2.8465     0.0461      0.038      8.676     12.584        677 1.2366e-01   999.8770 0.0000e+00
      8.864     8.7847     0.0956      0.823  66.965094     99.114      5.901    66.8061     1.1449     2.7744     0.0462      0.041      8.691     12.607        678 1.2380e-01   999.8772 0.0000e+00
      8.878     8.7826     0.0985      0.849  66.993620     99.119      5.900    66.0490     1.1334     2.8177     0.0462      0.045      8.705     12.627        679 1.2378e-01   999.8774 0.0000e+00
      8.889     8.7791     0.0986      0.850  67.027161     99.206      5.901    65.5947     1.1601     3.1349     0.0462      0.048      8.716     12.643        680 1.2371e-01   999.8775 0.0000e+00
      8.899     8.7750     0.1007      0.868  67.101439     99.294      5.905    65.0647     1.1449     3.0340     0.0462      0.050      8.725     12.655        681 1.2384e-01   999.8777 0.0000e+00
      8.904     8.7746     0.0998      0.860  67.138633     99.388      5.903    64.4590     1.1525     3.1782     0.0463      0.048      8.729     12.661        682 1.2372e-01   999.8781 0.0000e+00
      8.902     8.7812     0.0946      0.815  67.069922     99.275      5.903    63.5504     1.1334     3.0916     0.0462      0.044      8.729     12.661        683 1.2373e-01   999.8783 0.0000e+00
      8.899     8.7847     0.0939      0.810  67.038547     99.236      5.906    62.9447     1.1601     3.0195     0.0462      0.035      8.728     12.660        684 1.2365e-01   999.8783 0.0000e+00
      8.900     8.7867     0.0922      0.796  66.969910     99.132      5.906    62.3389     1.0228     2.6302     0.0462      0.025      8.729     12.660        685 1.2366e-01   999.8778 0.0000e+00
      8.904     8.7932     0.0890      0.769  66.947569     99.040      5.908    61.2032     1.0304     2.7600     0.0461      0.016      8.730     12.662        686 1.2377e-01   999.8775 0.0000e+00
      8.904     8.8014     0.0905      0.782  67.006986     99.201      5.907    60.5218     1.0342     2.6879     0.0462      0.009      8.730     12.662        687 1.2363e-01   999.8775 0.0000e+00
      8.898     8.8115     0.0936      0.809  66.836603     98.849      5.912    59.5754     1.0686     2.6879     0.0461      0.003      8.727     12.658        688 1.2373e-01   999.8768 0.0000e+00
      8.898     8.8182     0.0917      0.793  66.803433     98.826      5.912    58.4396     1.0037     2.6735     0.0460     -0.001      8.727     12.658        689 1.2376e-01   999.8762 0.0000e+00
      8.903     8.8260     0.0954      0.825  66.929533     98.961      5.911    57.6068     1.0381     2.5581     0.0461     -0.001      8.729     12.660        690 1.2376e-01   999.8756 0.0000e+00
      8.901     8.8428     0.0912      0.789  66.857748     98.859      5.913    56.6225     1.0266     2.6302     0.0461     -0.000      8.729     12.660        691 1.2383e-01   999.8751 0.0000e+00
      8.898     8.8426     0.0928      0.802  66.744358     98.631      5.914    55.4868     1.0190     2.6735     0.0460     -0.001      8.728     12.659        692 1.2360e-01   999.8744 0.0000e+00
      8.901     8.8384     0.0965      0.834  66.803511     98.704      5.913    54.8054     1.6141     2.9042     0.0460     -0.001      8.728     12.659        693 1.2365e-01   999.8732 0.0000e+00
      8.901     8.8737     0.0965      0.833  66.813804     98.702      5.914    54.7675     1.5836     3.0051     0.0460     -0.001      8.728     12.659        694 1.2388e-01   999.8733 0.0000e+00
      8.898     8.9126     0.1005      0.867  66.612824     98.434      5.917    54.4646     1.5645     2.9330     0.0459     -0.001      8.727     12.657        695 1.2362e-01   999.8735 0.0000e+00
      8.897     8.9279     0.0958      0.826  66.578733     98.241      5.917    53.9725     1.5607     2.9474     0.0458     -0.000      8.726     12.656        696 1.2362e-01   999.8708 0.0000e+00
      8.899     8.9296     0.1011      0.871  66.648442     98.294      5.921    53.4803     1.6522     2.7744     0.0459     -0.001      8.727     12.658        697 1.2388e-01   999.8679 0.0000e+00
      8.901     8.9382     0.0985      0.849  66.674446     98.210      5.922    53.0639     1.6484     2.6735     0.0458     -0.001      8.728     12.659        698 1.2375e-01   999.8668 0.0000e+00
      8.901     8.9631     0.1008      0.868  66.576035     98.161      5.921    52.7232     1.6522     2.7456     0.0458      0.000      8.728     12.659        699 1.2374e-01   999.8666 0.0000e+00
      8.899     8.9725     0.0997      0.858  66.296024     97.608      5.923    52.8368     1.6408     2.6879     0.0456      0.000      8.728     12.659        700 1.2377e-01   999.8659 0.0000e+00
      8.900     8.9704     0.0986      0.848  66.280903     97.609      5.926    52.2311     1.9460     3.0628     0.0456     -0.000      8.729     12.660        701 1.2367e-01   999.8640 0.0000e+00
      8.903     8.9642     0.0997      0.857  66.416755     97.713      5.926    51.9282     1.9689     3.1061     0.0456      0.001      8.731     12.664        702 1.2378e-01   999.8634 0.0000e+00
      8.906     8.9378     0.0957      0.822  66.483109     97.879      5.929    51.3603     1.9383     3.0340     0.0457      0.003      8.738     12.674        703 1.2372e-01   999.8636 0.0000e+00
      8.923     8.8884     0.0970      0.833  66.762250     98.228      5.928    51.0575     1.9650     3.1349     0.0459      0.008      8.755     12.699        704 1.2369e-01   999.8643 0.0000e+00
      8.956     8.8548     0.0990      0.850  67.078514     98.879      5.929    50.9818     2.0451     3.1205     0.0461      0.020      8.782     12.738        705 1.2385e-01   999.8666 0.0000e+00
      8.987     8.8461     0.1014      0.870  66.950288     98.737      5.928    50.4518     2.0680     3.1493     0.0460      0.037      8.810     12.777        706 1.2382e-01   999.8703 0.0000e+00
      9.006     8.8327     0.0987      0.847  66.921862     98.839      5.926    50.3003     2.0833     3.0340     0.0461      0.053      8.834     12.812        707 1.2367e-01   999.8729 0.0000e+00
      9.032     8.8200     0.0968      0.830  67.024877     99.022      5.928    49.6946     2.0680     3.1061     0.0462      0.070      8.861     12.851        708 1.2359e-01   999.8737 0.0000e+00
      9.071     8.7999     0.0968      0.831  67.089230     99.110      5.929    49.1646     2.0757     3.1061     0.0462      0.087      8.895     12.901        709 1.2374e-01   999.8749 0.0000e+00
      9.109     8.7706     0.1029      0.882  67.376048     99.637      5.926    48.8618     1.6332     3.1782     0.0464      0.104      8.928     12.950        710 1.2367e-01   999.8762 0.0000e+00
      9.132     8.7465     0.1005      0.862  67.528709     99.865      5.928    48.9753     1.6675     3.1349     0.0465      0.114      8.954     12.987        711 1.2358e-01   999.8778 0.0000e+00
      9.152     8.7283     0.0978      0.838  67.611621    100.116      5.927    48.3696     1.6408     3.0772     0.0466      0.115      8.975     13.018        712 1.2381e-01   999.8801 0.0000e+00
      9.173     8.7130     0.0963      0.826  68.014938    100.728      5.926    48.3696     1.6751     3.1782     0.0469      0.111      8.996     13.048        713 1.2394e-01   999.8821 0.0000e+00
      9.197     8.6983     0.0946      0.810  68.689027    101.859      5.929    47.8775     1.6675     3.0772     0.0474      0.107      9.020     13.082        714 1.2386e-01   999.8839 0.0000e+00
      9.223     8.6839     0.0982      0.841  69.088013    102.445      5.925    47.9153     1.6484     3.1349     0.0476      0.105      9.045     13.118        715 1.2367e-01   999.8853 0.0000e+00
      9.250     8.6698     0.0974      0.834  69.477535    103.070      5.928    47.3475     1.6332     3.0628     0.0479      0.101      9.070     13.156        716 1.2366e-01   999.8867 0.0000e+00
      9.276     8.6585     0.0917      0.785  69.807239    103.655      5.928    47.3853     1.6408     3.1349     0.0482      0.096      9.095     13.192        717 1.2380e-01   999.8881 0.0000e+00
      9.298     8.6527     0.0926      0.792  70.696299    104.861      5.929    47.1582     1.3547     3.1205     0.0487      0.094      9.120     13.229        718 1.2371e-01   999.8896 0.0000e+00
      9.327     8.6471     0.0956      0.818  72.319432    107.557      5.930    46.4768     1.3509     3.1926     0.0499      0.097      9.149     13.270        719 1.2363e-01   999.8914 0.0000e+00
      9.364     8.6337     0.0932      0.797  72.923211    108.282      5.927    46.2875     1.3242     3.1637     0.0503      0.103      9.181     13.315        720 1.2361e-01   999.8924 0.0000e+00
      9.393     8.6172     0.0944      0.808  72.854351    108.298      5.926    45.7575     1.3318     3.1926     0.0503      0.107      9.209     13.357        721 1.2359e-01   999.8929 0.0000e+00
      9.416     8.6026     0.0958      0.820  72.850472    108.260      5.927    45.2275     1.2936     3.1205     0.0502      0.109      9.234     13.392        722 1.2369e-01   999.8940 0.0000e+00
      9.438     8.5907     0.0942      0.806  72.690533    108.146      5.926    44.8868     1.2898     3.1637     0.0502      0.109      9.257     13.426        723 1.2377e-01   999.8951 0.0000e+00
      9.464     8.5820     0.0924      0.791  72.370556    107.652      5.928    44.3189     1.2898     3.1637     0.0500      0.108      9.283     13.464        724 1.2375e-01   999.8961 0.0000e+00
      9.496     8.5739     0.0938      0.802  72.298644    107.607      5.924    43.9782     1.2822     3.0628     0.0499      0.108      9.313     13.508        725 1.2365e-01   999.8970 0.0000e+00
      9.531     8.5637     0.0937      0.801  73.017557    108.676      5.926    43.4860     1.1525     3.1349     0.0504      0.110      9.345     13.553        726 1.2361e-01   999.8982 0.0000e+00
      9.560     8.5524     0.0896      0.766  73.851069    110.036      5.927    43.2589     1.1449     2.9907     0.0510      0.110      9.372     13.592        727 1.2367e-01   999.8994 0.0000e+00
      9.578     8.5420     0.0956      0.817  74.289767    110.611      5.926    42.9560     1.1525     3.1493     0.0513      0.108      9.393     13.622        728 1.2368e-01   999.9003 0.0000e+00
      9.596     8.5361     0.0911      0.779  74.579675    111.190      5.927    42.7667     1.1487     3.1349     0.0515      0.105      9.413     13.651        729 1.2370e-01   999.9013 0.0000e+00
      9.621     8.5358     0.0898      0.768  76.103233    113.268      5.925    42.6910     1.1487     3.1493     0.0525      0.104      9.436     13.686        730 1.2362e-01   999.9031 0.0000e+00
      9.650     8.5335     0.0914      0.781  77.738651    116.168      5.928    42.3882     1.1487     3.1493     0.0538      0.102      9.463     13.724        731 1.2356e-01   999.9045 0.0000e+00
      9.677     8.5269     0.0891      0.761  77.651930    115.541      5.927    41.9339     1.1487     3.1782     0.0535      0.100      9.489     13.762        732 1.2355e-01   999.9046 0.0000e+00
      9.701     8.5201     0.0970      0.829  77.933489    116.343      5.926    41.8203     1.1601     3.1205     0.0539      0.097      9.514     13.799        733 1.2369e-01   999.9050 0.0000e+00
      9.727     8.5139     0.0986      0.842  78.130681    116.449      5.927    41.4796     1.1296     3.3224     0.0539      0.096      9.541     13.839        734 1.2381e-01   999.9057 0.0000e+00
      9.760     8.5070     0.0940      0.803  78.416233    116.932      5.927    41.1010     1.1754     3.3224     0.0541      0.099      9.573     13.884        735 1.2371e-01   999.9065 0.0000e+00
      9.798     8.5002     0.0916      0.782  78.766040    117.622      5.926    40.4953     1.1334     3.3512     0.0545      0.107      9.608     13.934        736 1.2383e-01   999.9072 0.0000e+00
      9.831     8.4959     0.0895      0.765  78.794180    117.396      5.924    40.0410     1.1830     3.3079     0.0543      0.114      9.639     13.980        737 1.2378e-01   999.9079 0.0000e+00
      9.858     8.4923     0.0913      0.780  79.717666    119.132      5.926    39.9653     1.1487     3.2358     0.0551      0.117      9.667     14.021        738 1.2373e-01   999.9090 0.0000e+00
      9.884     8.4849     0.0910      0.777  80.170908    119.565      5.924    39.6246     1.0190     3.3512     0.0553      0.118      9.695     14.061        739 1.2386e-01   999.9096 0.0000e+00
      9.917     8.4755     0.0903      0.771  80.635801    120.413      5.924    39.2839     1.0037     3.3224     0.0557      0.120      9.725     14.105        740 1.2373e-01   999.9103 0.0000e+00
      9.949     8.4679     0.0927      0.791  81.752809    122.028      5.926    38.7917     1.0533     3.3945     0.0565      0.122      9.755     14.149        741 1.2361e-01   999.9116 0.0000e+00
      9.979     8.4636     0.0909      0.776  82.523260    123.317      5.923    38.5646     1.0075     3.4233     0.0570      0.122      9.785     14.192        742 1.2366e-01   999.9128 0.0000e+00
     10.007     8.4607     0.0963      0.822  82.647265    123.429      5.925    38.0724     1.0304     3.3512     0.0571      0.119      9.814     14.234        743 1.2376e-01   999.9135 0.0000e+00
     10.037     8.4572     0.0879      0.751  82.875744    123.821      5.923    37.0124     1.0342     3.3224     0.0573      0.117      9.844     14.278        744 1.2384e-01   999.9141 0.0000e+00
     10.071     8.4528     0.0925      0.790  83.575628    124.877      5.922    36.2174     1.0571     3.3224     0.0577      0.118      9.874     14.322        745 1.2374e-01   999.9148 0.0000e+00
     10.099     8.4485     0.0937      0.800  84.122963    125.727      5.920    35.7253     1.0381     3.2791     0.0581      0.119      9.900     14.359        746 1.2363e-01   999.9155 0.0000e+00
     10.117     8.4458     0.0899      0.767  84.481922    126.245      5.924    35.2710     1.0876     3.3512     0.0584      0.116      9.919     14.386        747 1.2362e-01   999.9161 0.0000e+00
     10.128     8.4440     0.0906      0.773  84.525103    126.387      5.923    34.8924     1.0876     3.3512     0.0584      0.108      9.936     14.410        748 1.2362e-01   999.9165 0.0000e+00
     10.150     8.4414     0.0905      0.772  84.782187    126.649      5.922    33.6810     1.0838     3.2647     0.0586      0.100      9.957     14.442        749 1.2366e-01   999.9169 0.0000e+00
     10.183     8.4391     0.0922      0.786  85.231446    127.534      5.921    32.8481     1.0953     3.3224     0.0590      0.096      9.987     14.486        750 1.2370e-01   999.9173 0.0000e+00
     10.220     8.4378     0.0898      0.766  85.807875    128.131      5.924    32.4696     1.0915     3.4233     0.0592      0.096     10.020     14.533        751 1.2381e-01   999.9180 0.0000e+00
     10.249     8.4363     0.0923      0.788  86.887146    130.065      5.926    31.4853     1.0800     3.2647     0.0601      0.098     10.050     14.576        752 1.2366e-01   999.9189 0.0000e+00
     10.275     8.4365     0.0901      0.769  87.245464    130.363      5.923    30.3496     1.0724     3.4089     0.0603      0.100     10.078     14.616        753 1.2370e-01   999.9193 0.0000e+00
     10.306     8.4408     0.0898      0.766  87.768465    131.248      5.926    29.7439     1.0838     3.3079     0.0607      0.106     10.107     14.658        754 1.2391e-01   999.9199 0.0000e+00
     10.336     8.4452     0.0899      0.768  89.356021    133.593      5.924    29.1003     1.1868     3.6252     0.0617      0.113     10.134     14.698        755 1.2376e-01   999.9209 0.0000e+00
     10.357     8.4458     0.0854      0.729  90.796403    135.794      5.924    28.3810     1.1754     3.6973     0.0627      0.116     10.157     14.731        756 1.2374e-01   999.9214 0.0000e+00
     10.378     8.4410     0.0821      0.701  91.651384    136.989      5.924    27.2453     1.1830     3.5675     0.0633      0.113     10.179     14.763        757 1.2385e-01   999.9217 0.0000e+00
     10.404     8.4311     0.0878      0.749  92.690011    138.536      5.923    25.9203     1.1601     3.6396     0.0640      0.107     10.203     14.798        758 1.2377e-01   999.9224 0.0000e+00
     10.428     8.4220     0.0875      0.747  94.823484    141.738      5.924    24.8224     1.1525     3.5819     0.0655      0.102     10.225     14.829        759 1.2368e-01   999.9240 0.0000e+00
     10.444     8.4186     0.0888      0.758  96.931769    145.048      5.926    25.0496     1.1487     3.5387     0.0670      0.097     10.240     14.851        760 1.2370e-01   999.9259 0.0000e+00
     10.452     8.4190     0.0923      0.788  96.961875    145.088      5.926    24.7467     1.1525     3.5675     0.0670      0.089     10.250     14.866        761 1.2371e-01   999.9266 0.0000e+00
     10.461     8.4177     0.0904      0.772  97.371975    145.480      5.926    24.4060     1.1563     3.5963     0.0672      0.078     10.259     14.880        762 1.2379e-01   999.9271 0.0000e+00
     10.473     8.4172     0.0848      0.725  99.869741    149.585      5.926    23.6867     1.1601     3.5819     0.0691      0.068     10.270     14.896        763 1.2376e-01   999.9285 0.0000e+00
     10.485     8.4205     0.0904      0.772 101.166470    151.310      5.926    23.4595     1.1678     3.6396     0.0699      0.061     10.282     14.912        764 1.2375e-01   999.9293 0.0000e+00
     10.496     8.4206     0.0905      0.773 103.577189    154.792      5.928    22.6645     1.1372     3.5098     0.0715      0.054     10.292     14.928        765 1.2371e-01   999.9307 0.0000e+00
     10.505     8.4176     0.0867      0.741 110.726807    165.635      5.929    22.2103     1.1601     3.6540     0.0765      0.046     10.302     14.942        766 1.2380e-01   999.9345 0.0000e+00
     10.515     8.4177     0.0910      0.778 116.448774    174.526      5.931    21.9831     1.1372     3.5819     0.0807      0.042     10.313     14.957        767 1.2374e-01   999.9377 0.0000e+00
     10.528     8.4201 -9.990e-29 -9.990e-29 128.677441    191.328      5.928    21.4153     1.1296     3.4666     0.0885      0.041     10.324     14.974        768 1.2368e-01   999.9447 0.0000e+00
     10.541     8.4227 -9.990e-29 -9.990e-29 148.768751    223.959      5.929    20.9231     1.1830     3.5675     0.1038      0.043     10.336     14.991        769 1.2381e-01   999.9559 0.0000e+00
     10.551     8.4283 -9.990e-29 -9.990e-29 157.536966    235.078      5.933    20.0524     1.1449     3.5098     0.1090      0.044     10.346     15.005        770 1.2365e-01   999.9607 0.0000e+00
     10.557     8.4356 -9.990e-29 -9.990e-29 159.062741    238.381      5.928    19.3331     1.1449     3.4521     0.1106      0.042     10.352     15.014        771 1.2370e-01   999.9614 0.0000e+00
     10.560     8.4396 -9.990e-29 -9.990e-29 160.374155    239.603      5.927    18.5002     1.1449     3.5242     0.1111      0.039     10.356     15.019        772 1.2368e-01   999.9618 0.0000e+00
     10.563     8.4403 -9.990e-29 -9.990e-29 160.615827    240.347      5.926    17.8945     1.1449     3.5098     0.1115      0.035     10.358     15.023        773 1.2373e-01   999.9613 0.0000e+00
     10.565     8.4431 -9.990e-29 -9.990e-29 161.147378    240.824      5.929    17.4402     1.1411     3.5242     0.1117      0.030     10.360     15.026        774 1.2380e-01   999.9614 0.0000e+00
     10.566     8.4515 -9.990e-29 -9.990e-29 161.442109    241.447      5.928    16.6831     1.1449     3.4666     0.1120      0.024     10.361     15.028        775 1.2368e-01   999.9615 0.0000e+00
     10.566     8.4596 -9.990e-29 -9.990e-29 162.038182    242.187      5.930    15.5095     1.0686     3.5387     0.1124      0.017     10.362     15.029        776 1.2380e-01   999.9617 0.0000e+00
     10.567     8.4625 -9.990e-29 -9.990e-29 162.284207    242.627      5.928    15.0931     1.0762     3.5531     0.1126      0.011     10.363     15.030        777 1.2379e-01   999.9613 0.0000e+00
     10.567 -9.990e-29 -9.990e-29 -9.990e-29 162.567288    242.822      5.929    14.6388     1.0686     3.5242     0.1127      0.007     10.363     15.030        778 1.2358e-01   999.9609 0.0000e+00
     10.568 -9.990e-29 -9.990e-29 -9.990e-29 162.819065    243.386      5.934    14.3359     1.0991     3.5531     0.1130      0.005     10.363     15.030        779 1.2350e-01   999.9608 0.0000e+00
