* Sea-Bird SBE19plus  Data File:
* FileName = C:\DATA\0772919_fcr_0004.hex
* Software version 2.8.0.119
* Temperature SN = 7809
* Conductivity SN = 7809
* System UpLoad Time = Jul 29 2019 16:12:34
* <ApplicationData>
* <Seaterm232>
* <SoftwareVersion>2.8.0.119</SoftwareVersion>
* <BuildDate>07-Nov-2018</BuildDate>
* </Seaterm232>
* </ApplicationData>
* <InstrumentState>
* <HardwareData DeviceType='SBE19plus' SerialNumber='01907809'>
*
*    <Manufacturer>Sea-Bird Electronics, Inc.</Manufacturer>
*
*    <FirmwareVersion>3.1.8</FirmwareVersion>
*
*    <FirmwareDate>Mar  9 2016 16:22:29</FirmwareDate>
*
*    <CommandSetVersion>1.4</CommandSetVersion>
*
*    <PCBAssembly PCBSerialNum='120721' AssemblyNum='41054J'/>
*
*    <PCBAssembly PCBSerialNum='120715' AssemblyNum='41967A'/>
*
*    <PCBAssembly PCBSerialNum='116699' AssemblyNum='41606'/>
*
*    <PCBAssembly PCBSerialNum='120719' AssemblyNum='41059D'/>
*
*    <MfgDate>28-Apr-2017</MfgDate>
*
*    <InternalSensors>
*
*       <Sensor id='Main Temperature'>
*
*          <type>temperature0</type>
*
*          <SerialNumber>01907809</SerialNumber>
*
*       </Sensor>
*
*       <Sensor id='Main Conductivity'>
*
*          <type>conductivity-0</type>
*
*          <SerialNumber>01907809</SerialNumber>
*
*       </Sensor>
*
*       <Sensor id='Main Pressure'>
*
*          <type>strain-0</type>
*
*          <SerialNumber>10586018</SerialNumber>
*
*       </Sensor>
*
*    </InternalSensors>
*
*    <ExternalSensors>
*
*       <Sensor id='volt 0'>
*
*          <type>pH</type>
*
*          <SerialNumber>27-0363</SerialNumber>
*
*       </Sensor>
*
*       <Sensor id='volt 1'>
*
*          <type>ORP</type>
*
*          <SerialNumber>27-0363</SerialNumber>
*
*       </Sensor>
*
*       <Sensor id='volt 2'>
*
*          <type>OXY</type>
*
*          <SerialNumber>43-0434</SerialNumber>
*
*       </Sensor>
*
*       <Sensor id='volt 3'>
*
*          <type>PAR</type>
*
*          <SerialNumber>1122</SerialNumber>
*
*       </Sensor>
*
*       <Sensor id='volt 4'>
*
*          <type>ECO AFL/FL</type>
*
*          <SerialNumber>FLNTURT-2496</SerialNumber>
*
*       </Sensor>
*
*       <Sensor id='volt 5'>
*
*          <type>ECO-NTU</type>
*
*          <SerialNumber>FLNTURT-2496</SerialNumber>
*
*       </Sensor>
*
*       <Sensor id='serial'>
*
*          <type>not assigned</type>
*
*          <SerialNumber>not assigned</SerialNumber>
*
*       </Sensor>
*
*    </ExternalSensors>
*
* </HardwareData>
* <StatusData DeviceType='SBE19plus' SerialNumber='01907809'>
*
*    <DateTime>2019-07-29T16:10:52</DateTime>
*
*    <LoggingState>not logging</LoggingState>
*
*    <EventSummary numEvents='0'/>
*
*    <Power>
*
*       <vMain>12.3</vMain>
*
*       <vLith>9.0</vLith>
*
*       <iMain>63.1</iMain>
*
*       <iPump>39.9</iPump>
*
*       <iExt01>19.0</iExt01>
*
*       <iExt2345>36.2</iExt2345>
*
*    </Power>
*
*    <MemorySummary>
*
*       <Bytes>44160</Bytes>
*
*       <Samples>1920</Samples>
*
*       <SamplesFree>2858868</SamplesFree>
*
*       <SampleLength>23</SampleLength>
*
*       <Profiles>4</Profiles>
*
*    </MemorySummary>
*
* </StatusData>
* <ConfigurationData DeviceType='SBE19plus' SerialNumber='01907809'>
*
*    <ProfileMode>
*
*       <ScansToAverage>1</ScansToAverage>
*
*       <MinimumCondFreq>5</MinimumCondFreq>
*
*       <PumpDelay>45</PumpDelay>
*
*       <AutoRun>no</AutoRun>
*
*       <IgnoreSwitch>no</IgnoreSwitch>
*
*    </ProfileMode>
*
*    <Battery>
*
*       <Type>alkaline</Type>
*
*       <CutOff>7.5</CutOff>
*
*    </Battery>
*
*    <DataChannels>
*
*       <ExtVolt0>yes</ExtVolt0>
*
*       <ExtVolt1>yes</ExtVolt1>
*
*       <ExtVolt2>yes</ExtVolt2>
*
*       <ExtVolt3>yes</ExtVolt3>
*
*       <ExtVolt4>yes</ExtVolt4>
*
*       <ExtVolt5>yes</ExtVolt5>
*
*       <SBE38>no</SBE38>
*
*       <WETLABS>no</WETLABS>
*
*       <OPTODE>no</OPTODE>
*
*       <SBE63>no</SBE63>
*
*       <SeaFET>no</SeaFET>
*
*       <GTD>no</GTD>
*
*    </DataChannels>
*
*    <EchoCharacters>yes</EchoCharacters>
*
*    <OutputExecutedTag>yes</OutputExecutedTag>
*
*    <OutputFormat>raw HEX</OutputFormat>
*
* </ConfigurationData>
* <CalibrationCoefficients DeviceType='SBE19plus' SerialNumber='01907809'>
*
*    <Calibration format='TEMP1' id='Main Temperature'>
*
*       <SerialNum>01907809</SerialNum>
*
*       <CalDate>24-Mar-19</CalDate>
*
*       <TA0>1.217923e-03</TA0>
*
*       <TA1>2.816693e-04</TA1>
*
*       <TA2>-1.603333e-06</TA2>
*
*       <TA3>1.984146e-07</TA3>
*
*       <TOFFSET>0.000000e+00</TOFFSET>
*
*    </Calibration>
*
*    <Calibration format='WBCOND0' id='Main Conductivity'>
*
*       <SerialNum>01907809</SerialNum>
*
*       <CalDate>24-Mar-19</CalDate>
*
*       <G>-1.005893e+00</G>
*
*       <H>1.268163e-01</H>
*
*       <I>-1.515604e-04</I>
*
*       <J>2.671373e-05</J>
*
*       <CPCOR>-9.570000e-08</CPCOR>
*
*       <CTCOR>3.250000e-06</CTCOR>
*
*       <CSLOPE>1.000000e+00</CSLOPE>
*
*    </Calibration>
*
*    <Calibration format='STRAIN0' id='Main Pressure'>
*
*       <SerialNum>10586018</SerialNum>
*
*       <CalDate>11-Mar-19</CalDate>
*
*       <PA0>4.565618e-02</PA0>
*
*       <PA1>4.850951e-04</PA1>
*
*       <PA2>-2.883271e-12</PA2>
*
*       <PTCA0>5.252467e+05</PTCA0>
*
*       <PTCA1>1.223042e+01</PTCA1>
*
*       <PTCA2>-3.567450e-01</PTCA2>
*
*       <PTCB0>2.516687e+01</PTCB0>
*
*       <PTCB1>3.750000e-04</PTCB1>
*
*       <PTCB2>0.000000e+00</PTCB2>
*
*       <PTEMPA0>-5.487846e+01</PTEMPA0>
*
*       <PTEMPA1>5.537568e+01</PTEMPA1>
*
*       <PTEMPA2>-5.867271e-01</PTEMPA2>
*
*       <POFFSET>7.140000e-01</POFFSET>
*
*       <PRANGE>1.600000e+02</PRANGE>
*
*    </Calibration>
*
*    <Calibration format='VOLT0' id='Volt 0'>
*
*       <OFFSET>-4.920000e-02</OFFSET>
*
*       <SLOPE>1.248122e+00</SLOPE>
*
*    </Calibration>
*
*    <Calibration format='VOLT0' id='Volt 1'>
*
*       <OFFSET>-4.784000e-02</OFFSET>
*
*       <SLOPE>1.248871e+00</SLOPE>
*
*    </Calibration>
*
*    <Calibration format='VOLT0' id='Volt 2'>
*
*       <OFFSET>-4.864632e-02</OFFSET>
*
*       <SLOPE>1.248714e+00</SLOPE>
*
*    </Calibration>
*
*    <Calibration format='VOLT0' id='Volt 3'>
*
*       <OFFSET>-4.743790e-02</OFFSET>
*
*       <SLOPE>1.248571e+00</SLOPE>
*
*    </Calibration>
*
*    <Calibration format='VOLT0' id='Volt 4'>
*
*       <OFFSET>-4.671263e-02</OFFSET>
*
*       <SLOPE>1.248951e+00</SLOPE>
*
*    </Calibration>
*
*    <Calibration format='VOLT0' id='Volt 5'>
*
*       <OFFSET>-4.871053e-02</OFFSET>
*
*       <SLOPE>1.249136e+00</SLOPE>
*
*    </Calibration>
*
*    <Calibration format='FREQ0' id='external frequency channel'>
*
*       <EXTFREQSF>1.000014e+00</EXTFREQSF>
*
*    </Calibration>
*
* </CalibrationCoefficients>
* <EventCounters DeviceType='SBE19plus' SerialNumber='01907809'>
*
*    <EventSummary numEvents='0'/>
*
* </EventCounters></InstrumentState>
* <Headers>
*
* cast   4 29 Jul 2019 11:48:44 samples 1256 to 1920, avg = 1, stop = mag switch
*
# nquan = 18
# nvalues = 553                         
# units = specified
# name 0 = depFM: Depth [fresh water, m]
# name 1 = tv290C: Temperature [ITS-90, deg C]
# name 2 = sbeox0Mg/L: Oxygen, SBE 43 [mg/l]
# name 3 = sbeox0PS: Oxygen, SBE 43 [% saturation]
# name 4 = c0uS/cm: Conductivity [uS/cm]
# name 5 = specc: Specific Conductance [uS/cm]
# name 6 = ph: pH
# name 7 = orp: Oxidation Reduction Potential [mV]
# name 8 = flECO-AFL: Fluorescence, WET Labs ECO-AFL/FL [mg/m^3]
# name 9 = turbWETntu0: Turbidity, WET Labs ECO [NTU]
# name 10 = sal00: Salinity, Practical [PSU]
# name 11 = dz/dtM: Descent Rate [m/s]
# name 12 = prdM: Pressure, Strain Gauge [db]
# name 13 = prdE: Pressure, Strain Gauge [psi]
# name 14 = scan: Scan Count
# name 15 = par/sat/log: PAR/Logarithmic, Satlantic
# name 16 = density00: Density [density, kg/m^3]
# name 17 = flag:  0.000e+00
# span 0 =     -0.539,      6.647       
# span 1 =    11.0562,    26.0288       
# span 2 =    -0.0349,    11.8329       
# span 3 =     -0.333,    142.300       
# span 4 =   1.249210,  37.875654       
# span 5 =      1.364,     49.401       
# span 6 =      7.227,     11.226       
# span 7 =  -256.0405,   995.4823       
# span 8 =    -0.3467,    29.6945       
# span 9 =    -1.5948,    15.8387       
# span 10 =     0.0106,     0.0251      
# span 11 =     -0.028,      0.298      
# span 12 =     -0.528,      6.518      
# span 13 =     -0.766,      9.453      
# span 14 =          1,        553      
# span 15 = 1.2204e-01, 2.5360e+03      
# span 16 =   996.7971,   999.6498      
# span 17 = 0.0000e+00, 0.0000e+00      
# interval = seconds: 0.25
# start_time = Jul 29 2019 11:48:44 [Instrument's time stamp, header]
# bad_flag = -9.990e-29
# <Sensors count="9" >
#   <sensor Channel="1" >
#     <!-- Count, Temperature -->
#     <TemperatureSensor SensorID="58" >
#       <SerialNumber>7809</SerialNumber>
#       <CalibrationDate>24-Mar-19</CalibrationDate>
#       <A0>1.21792325e-003</A0>
#       <A1>2.81669265e-004</A1>
#       <A2>-1.60333336e-006</A2>
#       <A3>1.98414625e-007</A3>
#       <Slope>1.00000000</Slope>
#       <Offset>0.0000</Offset>
#     </TemperatureSensor>
#   </sensor>
#   <sensor Channel="2" >
#     <!-- Frequency 0, Conductivity -->
#     <ConductivitySensor SensorID="3" >
#       <SerialNumber>7809</SerialNumber>
#       <CalibrationDate>24-Mar-19</CalibrationDate>
#       <UseG_J>1</UseG_J>
#       <!-- Cell const and series R are applicable only for wide range sensors. -->
#       <SeriesR>0.0000</SeriesR>
#       <CellConst>2000.0000</CellConst>
#       <ConductivityType>0</ConductivityType>
#       <Coefficients equation="0" >
#         <A>0.00000000e+000</A>
#         <B>0.00000000e+000</B>
#         <C>0.00000000e+000</C>
#         <D>0.00000000e+000</D>
#         <M>0.0</M>
#         <CPcor>-9.57000000e-008</CPcor>
#       </Coefficients>
#       <Coefficients equation="1" >
#         <G>-1.00589325e+000</G>
#         <H>1.26816302e-001</H>
#         <I>-1.51560448e-004</I>
#         <J>2.67137274e-005</J>
#         <CPcor>-9.57000000e-008</CPcor>
#         <CTcor>3.2500e-006</CTcor>
#         <!-- WBOTC not applicable unless ConductivityType = 1. -->
#         <WBOTC>0.00000000e+000</WBOTC>
#       </Coefficients>
#       <Slope>1.00000000</Slope>
#       <Offset>0.00000</Offset>
#     </ConductivitySensor>
#   </sensor>
#   <sensor Channel="3" >
#     <!-- Count, Pressure, Strain Gauge -->
#     <PressureSensor SensorID="46" >
#       <SerialNumber>7809</SerialNumber>
#       <CalibrationDate>11-Mar-19</CalibrationDate>
#       <PA0>4.56561833e-002</PA0>
#       <PA1>4.85095118e-004</PA1>
#       <PA2>-2.88327090e-012</PA2>
#       <PTEMPA0>-5.48784562e+001</PTEMPA0>
#       <PTEMPA1>5.53756816e+001</PTEMPA1>
#       <PTEMPA2>-5.86727098e-001</PTEMPA2>
#       <PTCA0>5.25246745e+005</PTCA0>
#       <PTCA1>1.22304214e+001</PTCA1>
#       <PTCA2>-3.56745036e-001</PTCA2>
#       <PTCB0>2.51668750e+001</PTCB0>
#       <PTCB1>3.75000000e-004</PTCB1>
#       <PTCB2>0.00000000e+000</PTCB2>
#       <Offset>0.000000</Offset>
#     </PressureSensor>
#   </sensor>
#   <sensor Channel="4" >
#     <!-- A/D voltage 0, Oxygen, SBE 43 -->
#     <OxygenSensor SensorID="38" >
#       <SerialNumber>0434</SerialNumber>
#       <CalibrationDate>13-Apr-19</CalibrationDate>
#       <Use2007Equation>1</Use2007Equation>
#       <CalibrationCoefficients equation="0" >
#         <!-- Coefficients for Owens-Millard equation. -->
#         <Boc>0.0000</Boc>
#         <Soc>0.0000e+000</Soc>
#         <offset>0.0000</offset>
#         <Pcor>0.00e+000</Pcor>
#         <Tcor>0.0000</Tcor>
#         <Tau>0.0</Tau>
#       </CalibrationCoefficients>
#       <CalibrationCoefficients equation="1" >
#         <!-- Coefficients for Sea-Bird equation - SBE calibration in 2007 and later. -->
#         <Soc>4.2007e-001</Soc>
#         <offset>-0.6109</offset>
#         <A>-4.3656e-003</A>
#         <B> 1.7017e-004</B>
#         <C>-2.5341e-006</C>
#         <D0> 2.5826e+000</D0>
#         <D1> 1.92634e-004</D1>
#         <D2>-4.64803e-002</D2>
#         <E> 3.6000e-002</E>
#         <Tau20> 1.1800</Tau20>
#         <H1>-3.3000e-002</H1>
#         <H2> 5.0000e+003</H2>
#         <H3> 1.4500e+003</H3>
#       </CalibrationCoefficients>
#     </OxygenSensor>
#   </sensor>
#   <sensor Channel="5" >
#     <!-- A/D voltage 1, PAR/Logarithmic, Satlantic -->
#     <PARLog_SatlanticSensor SensorID="76" >
#       <SerialNumber>1122</SerialNumber>
#       <CalibrationDate>08-May-2019</CalibrationDate>
#       <a0>9.7456e-001</a0>
#       <a1>8.1640e-001</a1>
#       <Im>1.3589e+000</Im>
#       <Multiplier>1.0000e+000</Multiplier>
#     </PARLog_SatlanticSensor>
#   </sensor>
#   <sensor Channel="6" >
#     <!-- A/D voltage 2, pH -->
#     <pH_Sensor SensorID="43" >
#       <SerialNumber>0363</SerialNumber>
#       <CalibrationDate>15-Apr-19</CalibrationDate>
#       <Slope>4.5952</Slope>
#       <Offset>2.5370</Offset>
#     </pH_Sensor>
#   </sensor>
#   <sensor Channel="7" >
#     <!-- A/D voltage 3, Oxidation Reduction Potential -->
#     <OxidationReductionPotentialSensor SensorID="41" >
#       <SerialNumber>0363</SerialNumber>
#       <CalibrationDate>15-Apr-19</CalibrationDate>
#       <B>2.499480</B>
#       <M>-0.496195</M>
#       <Offset>0.0</Offset>
#     </OxidationReductionPotentialSensor>
#   </sensor>
#   <sensor Channel="8" >
#     <!-- A/D voltage 4, Fluorometer, WET Labs ECO-AFL/FL -->
#     <FluoroWetlabECO_AFL_FL_Sensor SensorID="20" >
#       <SerialNumber>FLNTURT-2496</SerialNumber>
#       <CalibrationDate>08-May-2019</CalibrationDate>
#       <ScaleFactor>5.00000000e+001</ScaleFactor>
#       <!-- Dark output -->
#       <Vblank>0.0550</Vblank>
#     </FluoroWetlabECO_AFL_FL_Sensor>
#   </sensor>
#   <sensor Channel="9" >
#     <!-- A/D voltage 5, Turbidity Meter, WET Labs, ECO-NTU -->
#     <TurbidityMeter SensorID="67" >
#       <SerialNumber>FLNTURT-2496</SerialNumber>
#       <CalibrationDate>08-May-2019</CalibrationDate>
#       <ScaleFactor>189.000000</ScaleFactor>
#       <!-- Dark output -->
#       <DarkVoltage>0.071000</DarkVoltage>
#     </TurbidityMeter>
#   </sensor>
# </Sensors>
# datcnv_date = Jul 29 2019 16:17:40, 7.26.7.129 [datcnv_vars = 17]
# datcnv_in = C:\DATA\0772919_fcr45.hex C:\DATA\SBE19plusV2_7809.xmlcon
# datcnv_skipover = 0
# datcnv_ox_hysteresis_correction = yes
# datcnv_ox_tau_correction = yes
# filter_date = Jul 29 2019 16:17:58, 7.26.7.129
# filter_in = C:\DATA\0772919_fcr45.cnv
# filter_low_pass_tc_A = 0.030
# filter_low_pass_tc_B = 0.150
# filter_low_pass_A_vars = tv290C c0uS/cm par/sat/log density00
# filter_low_pass_B_vars = prdM prdE
# alignctd_date = Jul 29 2019 16:18:22, 7.26.7.129
# alignctd_in = C:\DATA\0772919_fcr45.cnv
# alignctd_adv = tv290C 0.500, sbeox0Mg/L 3.000, sbeox0PS 3.000                                                                                                                                                                      
# file_type = ascii
*END*
     -0.538    21.6113     7.7522     92.630   1.342429      1.424     11.226   995.4823    -0.3467    -0.6142     0.0106 2.1053e-16     -0.527     -0.765          1 1.6393e+02   997.8655 0.0000e+00
     -0.538    21.6135     7.6839     92.668   1.361711      1.483     11.141   958.8744    -0.3009    -0.5854     0.0106     -0.000     -0.528     -0.765          2 1.2933e+02   997.8651 0.0000e+00
     -0.538    21.6112     7.6354     92.784   1.293988      1.364     10.934   655.6757    -0.3124    -0.6142     0.0106     -0.000     -0.528     -0.765          3 1.7309e+02   997.8650 0.0000e+00
     -0.538    21.6169     7.6123     93.019   1.249210      1.364      9.129   616.4177    -0.1178    -1.5948     0.0106     -0.000     -0.528     -0.765          4 6.8736e+01   997.8645 0.0000e+00
     -0.538    21.6099     7.6207     93.387   1.358271      1.424      8.297   647.7256    -0.1445    -1.4217     0.0106     -0.000     -0.528     -0.765          5 2.3313e+02   997.8650 0.0000e+00
     -0.538    21.6239     7.6473     93.877   1.335763      1.483      7.821   673.3928    -0.1407    -1.4506     0.0106     -0.000     -0.528     -0.766          6 1.1099e+03   997.8637 0.0000e+00
     -0.538    21.6039     7.6837     94.492   1.573054      1.603      7.600   687.4379    -0.1254    -1.4073     0.0106     -0.000     -0.528     -0.766          7 1.3102e+03   997.8652 0.0000e+00
     -0.538    21.6898     7.7150     94.992   3.429733      3.696      7.479   701.2179     0.0004    -1.2775     0.0111     -0.000     -0.527     -0.764          8 1.3712e+03   997.8627 0.0000e+00
     -0.539    22.4506     7.7582     95.565   5.090191      5.520      7.441   710.3794    -0.0034    -1.2920     0.0116     -0.000     -0.515     -0.747          9 1.5380e+03   997.8672 0.0000e+00
     -0.498    23.5525     7.7931     96.002  17.499696     17.945      7.227  -256.0405     0.0119    -1.2920     0.0159      0.010     -0.473     -0.685         10 6.6385e+02   997.8521 0.0000e+00
     -0.407    24.3049     7.8248     96.381  35.179707     38.268      7.555   114.1655     0.0233    -1.2343     0.0243      0.042     -0.399     -0.578         11 4.5075e+02   997.6843 0.0000e+00
     -0.320    24.8025     7.8425     96.663  37.875654     38.307      7.882   143.3913     0.0043    -1.2487     0.0246      0.088     -0.316     -0.458         12 1.6393e+03   997.4250 0.0000e+00
     -0.240    25.2160     7.8585     96.922  36.982366     37.901      8.107   154.4078     0.6985     3.8847     0.0247      0.141     -0.234     -0.340         13 2.0248e+03   997.2398 0.0000e+00
     -0.154    25.5164     7.8711     97.055  37.743124     37.661      8.261   153.8021     0.6871     3.7550     0.0247      0.196     -0.157     -0.228         14 2.0123e+03   997.1149 0.0000e+00
     -0.089    25.6758     7.8826     97.084  37.254621     37.213      8.342   156.5278     0.7176     3.9424     0.0246      0.243     -0.088     -0.128         15 1.9890e+03   997.0091 0.0000e+00
     -0.024    25.7719     7.8927     97.115  37.530818     37.072      8.397   159.8592     0.7100     4.0145     0.0246      0.279     -0.023     -0.033         16 2.2067e+03   996.9314 0.0000e+00
      0.046    25.8689     7.9614     97.916  37.280708     36.821      8.425   161.5249     4.0899     2.6302     0.0246      0.298      0.037      0.054         17 2.5360e+03   996.8897 0.0000e+00
      0.091    25.9343     8.0859     99.413  37.180524     36.586      8.442   164.3642     4.0479     2.5581     0.0245      0.291      0.083      0.120         18 1.3085e+03   996.8646 0.0000e+00
      0.116    25.9607     8.1281     99.881  37.033093     36.406      8.453   165.3107     4.0822     2.5725     0.0245      0.263      0.115      0.166         19 1.3746e+03   996.8391 0.0000e+00
      0.145    25.9616     8.1639    100.279  37.108513     36.414      8.454   166.7492     4.0593     2.6014     0.0245      0.232      0.144      0.208         20 1.6823e+03   996.8219 0.0000e+00
      0.177    25.9601     8.1654    100.321  37.086632     36.396      8.457   146.1170     4.4408     2.6302     0.0245      0.202      0.173      0.249         21 1.0629e+03   996.8151 0.0000e+00
      0.205    25.9929     8.1285     99.903  36.912135     36.202      8.454   139.2270     4.4523     2.6302     0.0244      0.173      0.196      0.283         22 1.4496e+03   996.8149 0.0000e+00
      0.216    26.0288     8.0974     99.535  36.673699     35.987      8.458   137.9777     4.4294     2.5870     0.0243      0.145      0.208      0.302         23 1.1449e+03   996.8152 0.0000e+00
      0.215    26.0142     8.0002     98.351  36.583214     35.852      8.464   137.2963     4.4294     2.5293     0.0243      0.115      0.213      0.310         24 1.1057e+03   996.8065 0.0000e+00
      0.222    25.9531     7.9100     97.283  36.817284     36.074      8.469   136.9556     4.3569     2.5293     0.0244      0.087      0.221      0.321         25 1.5379e+03   996.7971 0.0000e+00
      0.239    25.8994     7.8725     96.857  37.093631     36.356      8.473   136.5770     4.3683     2.3851     0.0245      0.071      0.235      0.341         26 1.6051e+03   996.8011 0.0000e+00
      0.257    25.8742     7.8720     96.878  37.157999     36.457      8.475   136.8420     4.3683     2.3562     0.0245      0.062      0.249      0.362         27 1.3984e+03   996.8174 0.0000e+00
      0.265    25.8554     7.8696     96.888  37.152096     36.495      8.476   137.0313     4.3683     2.3851     0.0245      0.052      0.258      0.374         28 1.1750e+03   996.8317 0.0000e+00
      0.267    25.8272     7.8673     96.900  37.160273     36.513      8.482   137.1449     4.5476     2.5293     0.0245      0.042      0.261      0.379         29 1.2878e+03   996.8384 0.0000e+00
      0.267    25.8061     7.8502     96.719  37.147838     36.526      8.481   137.3720     4.5743     2.4428     0.0245      0.035      0.264      0.382         30 1.2509e+03   996.8434 0.0000e+00
      0.274    25.8169     7.8150     96.291  37.167581     36.546      8.484   137.4856     4.5972     2.4572     0.0245      0.033      0.270      0.391         31 1.4558e+03   996.8509 0.0000e+00
      0.284    25.8371     7.7580     95.562  37.194986     36.617      8.488   137.4856     4.6010     2.4139     0.0245      0.032      0.278      0.402         32 1.4761e+03   996.8565 0.0000e+00
      0.291    25.8446     7.6717     94.454  37.173013     36.553      8.490   137.9777     4.5667     2.3562     0.0245      0.029      0.284      0.411         33 1.1472e+03   996.8537 0.0000e+00
      0.294    25.8519     7.5598     93.033  37.135653     36.539      8.494   138.2806     4.7574     2.5149     0.0245      0.024      0.286      0.415         34 1.1682e+03   996.8484 0.0000e+00
      0.291    25.8734     7.4229     91.332  37.122930     36.478      8.498   138.0156     4.7689     2.5004     0.0245      0.019      0.285      0.414         35 1.1590e+03   996.8464 0.0000e+00
      0.287    25.8938     7.3038     89.868  37.129571     36.529      8.502   138.5456     4.7841     2.4572     0.0245      0.015      0.284      0.411         36 1.0708e+03   996.8443 0.0000e+00
      0.288    25.9097     7.1923     88.506  37.127384     36.458      8.505   138.9242     4.7536     2.4860     0.0245      0.012      0.284      0.411         37 1.2055e+03   996.8387 0.0000e+00
      0.290    25.9320     7.1197     87.634  37.066371     36.443      8.508   139.2649     4.8185     2.5437     0.0245      0.009      0.285      0.413         38 1.1472e+03   996.8333 0.0000e+00
      0.292    25.9544     7.0958     87.354  36.879502     36.186      8.513   139.0377     4.8566     2.6735     0.0244      0.005      0.286      0.415         39 9.9791e+02   996.8291 0.0000e+00
      0.293    25.9711     7.1284     87.757  36.885768     36.224      8.515   139.6056     4.8337     2.5149     0.0244      0.002      0.286      0.415         40 1.0426e+03   996.8231 0.0000e+00
      0.290    25.9743     7.2141     88.810  36.999292     36.291      8.517   139.9842     4.8185     2.6302     0.0244     -0.000      0.284      0.412         41 1.1690e+03   996.8172 0.0000e+00
      0.285    25.9594     7.3300     90.238  37.034563     36.333      8.521   140.2870     4.9978     2.5581     0.0245     -0.001      0.280      0.406         42 1.2538e+03   996.8128 0.0000e+00
      0.281    25.9329     7.4727     91.994  37.108582     36.386      8.523   140.1356     5.0359     2.5293     0.0245     -0.002      0.276      0.401         43 1.1659e+03   996.8119 0.0000e+00
      0.280    25.9081     7.6147     93.740  37.144257     36.451      8.524   140.5520     4.9901     2.6735     0.0245     -0.004      0.274      0.398         44 1.0891e+03   996.8159 0.0000e+00
      0.280    25.8979     7.7615     95.556  37.108714     36.415      8.527   141.0063     5.0054     2.6014     0.0245     -0.006      0.274      0.398         45 1.0386e+03   996.8228 0.0000e+00
      0.281    25.8983     7.8911     97.162  37.093555     36.434      8.531   141.1199     4.9901     2.6590     0.0245     -0.007      0.275      0.399         46 1.0772e+03   996.8294 0.0000e+00
      0.282    25.9055     7.9865     98.345  37.044592     36.386      8.534   141.7256     5.0130     2.5870     0.0245     -0.007      0.277      0.401         47 1.2094e+03   996.8322 0.0000e+00
      0.283    25.9182     8.0586     99.242  36.991843     36.331      8.535   141.6877     5.0092     2.5581     0.0244     -0.005      0.278      0.403         48 1.1955e+03   996.8320 0.0000e+00
      0.284    25.9274     8.0971     99.726  37.040661     36.380      8.537   141.9149     5.0092     2.5725     0.0245     -0.002      0.279      0.404         49 1.2204e+03   996.8301 0.0000e+00
      0.285    25.9286     8.1079     99.865  37.043106     36.371      8.545   142.4827     5.0550     2.6302     0.0245      0.001      0.280      0.406         50 1.1928e+03   996.8268 0.0000e+00
      0.287    25.9270     8.1023     99.789  37.048065     36.365      8.545   142.2935     5.0321     2.6735     0.0245      0.003      0.282      0.409         51 1.0881e+03   996.8243 0.0000e+00
      0.289    25.9277     8.0804     99.506  37.093756     36.419      8.549   142.8613     5.0550     2.5870     0.0245      0.005      0.284      0.411         52 1.0831e+03   996.8240 0.0000e+00
      0.291    25.9269     8.0489     99.113  37.104783     36.420      8.554   142.7856     5.0550     2.6302     0.0245      0.005      0.285      0.414         53 1.0386e+03   996.8245 0.0000e+00
      0.293    25.9263     8.0079     98.612  37.093613     36.419      8.556   142.7099     5.0970     2.5437     0.0245      0.006      0.287      0.416         54 1.1010e+03   996.8243 0.0000e+00
      0.293    25.9312     7.9666     98.114  37.048386     36.365      8.560   143.3913     5.1847     2.4572     0.0245      0.006      0.287      0.416         55 1.2170e+03   996.8246 0.0000e+00
      0.293    25.9376     7.9374     97.766  37.042525     36.366      8.564   143.4670     5.1656     2.3995     0.0245      0.005      0.287      0.416         56 1.0862e+03   996.8247 0.0000e+00
      0.293    25.9420     7.9194     97.552  37.041637     36.362      8.563   143.7699     5.1923     2.3274     0.0245      0.005      0.287      0.416         57 1.0363e+03   996.8234 0.0000e+00
      0.293    25.9465     7.9052     97.378  37.049490     36.357      8.567   144.2242     5.1771     2.4572     0.0245      0.003      0.287      0.415         58 1.0771e+03   996.8217 0.0000e+00
      0.291    25.9522     7.8990     97.295  37.032749     36.354      8.569   144.5270     5.0207     2.4860     0.0245      0.002      0.286      0.414         59 1.0863e+03   996.8205 0.0000e+00
      0.291    25.9555     7.8906     97.182  37.003198     36.296      8.570   145.0192     5.0054     2.4572     0.0244      0.001      0.286      0.414         60 1.0713e+03   996.8193 0.0000e+00
      0.292    25.9519     7.8800     97.052  37.086263     36.402      8.575   145.0949     4.9978     2.5870     0.0245     -0.000      0.286      0.415         61 1.1622e+03   996.8178 0.0000e+00
      0.293    25.9447     7.8577     96.784  37.047915     36.345      8.577   145.1706     4.9825     2.5149     0.0245     -0.000      0.287      0.417         62 1.2006e+03   996.8170 0.0000e+00
      0.293    25.9413     7.8436     96.616  36.991652     36.292      8.578   145.2842     5.0130     2.4716     0.0244      0.000      0.287      0.417         63 1.1582e+03   996.8179 0.0000e+00
      0.293    25.9436     7.8288     96.442  37.037743     36.352      8.578   145.7763     4.9901     2.3851     0.0245      0.000      0.287      0.416         64 1.0892e+03   996.8198 0.0000e+00
      0.291    25.9499     7.8107     96.227  36.990558     36.300      8.582   145.3220     5.0016     2.5149     0.0244      0.000      0.286      0.415         65 1.1269e+03   996.8207 0.0000e+00
      0.291    25.9559     7.7966     96.056  36.991103     36.298      8.583   145.7385     5.0207     2.3851     0.0244     -0.000      0.285      0.414         66 1.3297e+03   996.8201 0.0000e+00
      0.289    25.9599     7.7740     95.770  37.037062     36.349      8.585   146.3063     5.0435     2.5293     0.0245     -0.001      0.284      0.412         67 1.1553e+03   996.8184 0.0000e+00
      0.289    25.9612     7.7535     95.503  36.992629     36.290      8.590   146.3063     5.0893     2.6302     0.0244     -0.001      0.283      0.411         68 1.1874e+03   996.8167 0.0000e+00
      0.289    25.9574     7.7247     95.131  36.987127     36.287      8.591   146.6092     5.0893     2.6158     0.0244     -0.002      0.283      0.411         69 1.2387e+03   996.8157 0.0000e+00
      0.289    25.9521     7.6934     94.728  37.043909     36.341      8.594   146.8742     5.1046     2.5870     0.0245     -0.003      0.283      0.411         70 1.1850e+03   996.8154 0.0000e+00
      0.289    25.9519     7.6590     94.283  37.040505     36.343      8.596   147.3663     4.9177     2.4139     0.0245     -0.002      0.283      0.411         71 1.3310e+03   996.8164 0.0000e+00
      0.288    25.9554     7.6251     93.832  36.991364     36.292      8.598   147.5178     4.9673     2.3851     0.0244     -0.002      0.284      0.411         72 1.1325e+03   996.8178 0.0000e+00
      0.290    25.9592     7.5937     93.411  36.986526     36.292      8.598   147.9342     4.9596     2.4716     0.0244     -0.001      0.284      0.412         73 9.9717e+02   996.8179 0.0000e+00
      0.290    25.9639     7.5569     92.929  36.987255     36.290      8.603   147.9342     4.9177     2.4572     0.0244     -0.000      0.284      0.412         74 1.1511e+03   996.8169 0.0000e+00
      0.290    25.9682     7.5244     92.507  36.990454     36.287      8.607   148.1613     4.9329     2.4716     0.0244      0.000      0.284      0.412         75 1.0562e+03   996.8159 0.0000e+00
      0.290    25.9697     7.4873     92.034  36.982543     36.284      8.605   148.3128     4.8757     2.6302     0.0244      0.001      0.285      0.413         76 9.9693e+02   996.8148 0.0000e+00
      0.291    25.9656     7.4468     91.524  36.997099     36.281      8.610   148.5020     4.8833     2.5581     0.0244      0.001      0.286      0.414         77 1.1135e+03   996.8136 0.0000e+00
      0.291    25.9573     7.4023     90.970  36.972339     36.280      8.613   148.9563     4.8910     2.6014     0.0244      0.001      0.286      0.414         78 1.2100e+03   996.8131 0.0000e+00
      0.291    25.9475     7.3534     90.382  36.924452     36.200      8.611   148.7292     4.9138     2.6735     0.0244      0.001      0.286      0.414         79 1.1362e+03   996.8142 0.0000e+00
      0.291    25.9374     7.2870     89.598  36.967789     36.289      8.615   149.5242     4.9215     2.7023     0.0244      0.001      0.285      0.414         80 1.0942e+03   996.8164 0.0000e+00
      0.290    25.9245     7.2247     88.853  36.918408     36.213      8.614   149.3349     4.8757     2.5581     0.0244      0.001      0.285      0.413         81 1.2304e+03   996.8190 0.0000e+00
      0.290    25.9048     7.1486     87.910  36.837736     36.166      8.616   149.7892     4.8948     2.6302     0.0244      0.000      0.285      0.413         82 1.1471e+03   996.8217 0.0000e+00
      0.290    25.8843     7.0931     87.217  36.801476     36.120      8.616   149.7892     4.8986     2.6158     0.0244     -0.000      0.284      0.413         83 1.1302e+03   996.8251 0.0000e+00
      0.290    25.8677     7.0350     86.500  36.726461     36.079      8.615   150.0163     4.8375     2.4572     0.0243     -0.001      0.284      0.412         84 1.0858e+03   996.8302 0.0000e+00
      0.289    25.8544     6.9771     85.747  36.694021     36.039      8.619   150.2056     4.8299     2.5293     0.0243     -0.001      0.284      0.412         85 1.1015e+03   996.8357 0.0000e+00
      0.289    25.8443     6.9264     85.080  36.634413     36.023      8.621   150.5842     4.8261     2.6014     0.0243     -0.001      0.284      0.412         86 1.1505e+03   996.8401 0.0000e+00
      0.289    25.8369     6.8899     84.614  36.533939     35.895      8.621   150.9249     4.8108     2.5581     0.0242     -0.001      0.283      0.411         87 1.0617e+03   996.8435 0.0000e+00
      0.289    25.8326     6.8692     84.362  36.493085     35.902      8.623   151.0763     4.7765     2.4716     0.0242     -0.001      0.283      0.411         88 1.1275e+03   996.8462 0.0000e+00
      0.288    25.8402     6.8776     84.481  36.388916     35.770      8.621   151.4171     4.7651     2.4572     0.0242     -0.001      0.281      0.408         89 1.2687e+03   996.8482 0.0000e+00
      0.282    25.8597     6.9104     84.883  36.248699     35.663      8.623   151.4928     4.7613     2.4716     0.0241     -0.003      0.276      0.399         90 1.2301e+03   996.8492 0.0000e+00
      0.272    25.8730     6.9561     85.437  36.163802     35.549      8.621   151.4549     4.7536     2.5149     0.0241     -0.006      0.268      0.387         91 1.1564e+03   996.8472 0.0000e+00
      0.264    25.8685     6.9903     85.867  36.168591     35.562      8.620   151.5685     4.7765     2.6446     0.0241     -0.011      0.260      0.376         92 1.2566e+03   996.8420 0.0000e+00
      0.259    25.8630     7.0072     86.097  36.153831     35.525      8.621   151.9849     4.7880     2.6158     0.0241     -0.016      0.254      0.368         93 1.2825e+03   996.8383 0.0000e+00
      0.255    25.8593     7.0028     86.063  36.093264     35.473      8.625   152.3635     4.7422     2.7167     0.0241     -0.019      0.248      0.360         94 1.3774e+03   996.8395 0.0000e+00
      0.244    25.8344     6.9778     85.783  36.095795     35.478      8.626   152.5149     4.7346     2.6158     0.0241     -0.023      0.240      0.347         95 1.3250e+03   996.8410 0.0000e+00
      0.232    25.8060     6.9388     85.325  36.091414     35.479      8.629   152.7799     4.7765     2.5437     0.0241     -0.028      0.233      0.337         96 1.1661e+03   996.8419 0.0000e+00
      0.235    25.7944     6.8966     84.812  36.069086     35.470      8.630   152.8178     4.7384     2.6735     0.0241     -0.028      0.235      0.340         97 1.1708e+03   996.8485 0.0000e+00
      0.250    25.7959     6.8595     84.340  36.212495     35.627      8.631   153.1585     4.7613     2.5725     0.0241     -0.021      0.248      0.360         98 1.0418e+03   996.8561 0.0000e+00
      0.274    25.8051     6.8433     84.144  36.416736     35.855      8.629   153.8399     4.8032     2.5581     0.0242     -0.007      0.272      0.394         99 1.1297e+03   996.8593 0.0000e+00
      0.307    25.8057     6.8558     84.322  36.585406     35.992      8.624   154.3699     4.7689     2.5437     0.0243      0.013      0.302      0.438        100 1.1826e+03   996.8591 0.0000e+00
      0.344    25.8006     6.9006     84.877  36.713813     36.150      8.614   154.8242     4.7384     2.6302     0.0243      0.037      0.335      0.486        101 9.8277e+02   996.8569 0.0000e+00
      0.373    25.8075     6.9526     85.533  36.701453     36.095      8.615   154.9378     4.7117     2.5581     0.0243      0.063      0.364      0.529        102 9.7384e+02   996.8568 0.0000e+00
      0.398    25.8211     6.9972     86.100  36.689692     36.126      8.614   155.5435     4.7117     2.5293     0.0243      0.086      0.389      0.564        103 9.4491e+02   996.8583 0.0000e+00
      0.418    25.8345     7.0208     86.413  36.580278     35.984      8.617   155.6949     4.7346     2.5581     0.0243      0.101      0.407      0.591        104 8.8654e+02   996.8566 0.0000e+00
      0.431    25.8516     7.0200     86.439  36.422730     35.836      8.625   156.0735     4.7536     2.7456     0.0242      0.105      0.422      0.613        105 8.4472e+02   996.8529 0.0000e+00
      0.444    25.8657     6.9953     86.154  36.381965     35.772      8.626   156.6792     4.7803     2.9042     0.0242      0.100      0.435      0.632        106 7.8373e+02   996.8494 0.0000e+00
      0.457    25.8686     6.9500     85.569  36.245756     35.650      8.629   156.9064     4.7689     2.8177     0.0241      0.089      0.447      0.649        107 8.1897e+02   996.8449 0.0000e+00
      0.467    25.8593     6.8931     84.802  36.266255     35.613      8.637   157.6256     4.7841     2.7023     0.0241      0.075      0.463      0.672        108 8.6404e+02   996.8412 0.0000e+00
      0.495    25.8620     6.8407     84.095  36.474985     35.885      8.638   157.8149     4.8185     2.5581     0.0242      0.067      0.487      0.706        109 7.4605e+02   996.8406 0.0000e+00
      0.526    25.8760     6.7980     83.538  36.460142     35.810      8.639   158.7614     4.8223     2.5437     0.0242      0.067      0.517      0.750        110 7.0506e+02   996.8433 0.0000e+00
      0.561    25.8805     6.7707     83.190  36.551437     35.945      8.640   158.9507     4.8299     2.5725     0.0243      0.074      0.548      0.795        111 7.3501e+02   996.8428 0.0000e+00
      0.591    25.8894     6.7618     83.084  36.628080     35.989      8.641   159.5564     4.8528     2.5149     0.0243      0.084      0.577      0.838        112 6.8715e+02   996.8392 0.0000e+00
      0.615    25.9016     6.7766     83.274  36.572200     35.932      8.643   159.7835     4.8261     2.5293     0.0243      0.094      0.603      0.875        113 6.7969e+02   996.8382 0.0000e+00
      0.642    25.9164     6.8117     83.695  36.591341     35.953      8.647   160.1621     4.8185     2.5870     0.0243      0.103      0.627      0.908        114 6.3095e+02   996.8359 0.0000e+00
      0.660    25.9386     6.8435     84.111  36.426449     35.780      8.648   160.2757     4.8223     2.6302     0.0242      0.107      0.643      0.932        115 5.7334e+02   996.8326 0.0000e+00
      0.664    25.9504     6.8616     84.342  36.155079     35.495      8.653   160.3892     4.8185     2.5870     0.0241      0.103      0.652      0.945        116 6.0419e+02   996.8286 0.0000e+00
      0.670    25.9331     6.8723     84.466  36.099290     35.425      8.659   160.8814     4.8261     2.5293     0.0241      0.089      0.658      0.954        117 6.1709e+02   996.8228 0.0000e+00
      0.680    25.8907     6.8710     84.453  36.199528     35.526      8.664   160.7299     4.9825     2.4860     0.0241      0.074      0.668      0.969        118 5.7762e+02   996.8198 0.0000e+00
      0.696    25.8502     6.8722     84.480  36.208136     35.538      8.665   160.9949     4.9940     2.5725     0.0241      0.061      0.681      0.989        119 5.6440e+02   996.8245 0.0000e+00
      0.708    25.8292     6.8753     84.502  36.177487     35.541      8.668   161.5628     4.9978     2.5870     0.0241      0.052      0.695      1.008        120 5.6465e+02   996.8358 0.0000e+00
      0.722    25.8203     6.8767     84.517  36.208055     35.596      8.671   161.6385     5.0016     2.5725     0.0241      0.047      0.709      1.028        121 5.8103e+02   996.8465 0.0000e+00
      0.738    25.8236     6.8773     84.532  36.259016     35.666      8.669   162.2821     5.0779     2.6302     0.0241      0.045      0.726      1.052        122 5.4533e+02   996.8521 0.0000e+00
      0.759    25.8260     6.8667     84.411  36.321516     35.727      8.671   162.7742     5.0702     2.5149     0.0242      0.049      0.747      1.083        123 4.9764e+02   996.8546 0.0000e+00
      0.788    25.8235     6.8473     84.187  36.367351     35.780      8.669   163.0392     5.0550     2.6014     0.0242      0.059      0.770      1.116        124 4.8525e+02   996.8539 0.0000e+00
      0.804    25.8369     6.8288     83.963  36.231611     35.640      8.671   163.1149     5.0550     2.6302     0.0241      0.067      0.785      1.139        125 4.8752e+02   996.8533 0.0000e+00
      0.808    25.8446     6.8083     83.709  36.105200     35.506      8.676   163.3799     5.0702     2.6302     0.0241      0.068      0.795      1.153        126 4.8646e+02   996.8539 0.0000e+00
      0.821    25.8378     6.7950     83.532  36.198692     35.605      8.679   163.5692     5.0702     2.6014     0.0241      0.066      0.807      1.171        127 4.5984e+02   996.8505 0.0000e+00
      0.840    25.8413     6.7864     83.399  36.322695     35.710      8.687   163.7964     5.0626     2.5437     0.0242      0.066      0.825      1.196        128 4.5974e+02   996.8485 0.0000e+00
      0.861    25.8475     6.7769     83.264  36.425022     35.824      8.687   163.8721     5.0512     2.5581     0.0242      0.066      0.845      1.226        129 4.4906e+02   996.8504 0.0000e+00
      0.887    25.8391     6.7681     83.158  36.515862     35.905      8.689   164.3264     5.2419     2.5870     0.0242      0.067      0.868      1.259        130 4.3025e+02   996.8496 0.0000e+00
      0.907    25.8363     6.7505     82.952  36.565258     35.954      8.691   164.5157     5.2801     2.6014     0.0243      0.068      0.888      1.289        131 4.1751e+02   996.8480 0.0000e+00
      0.924    25.8414     6.7286     82.681  36.570990     35.962      8.694   164.4021     5.2419     2.6014     0.0243      0.069      0.906      1.314        132 4.0471e+02   996.8504 0.0000e+00
      0.940    25.8472     6.7075     82.412  36.568000     35.963      8.696   164.8942     5.2572     2.6302     0.0243      0.073      0.922      1.338        133 3.9906e+02   996.8513 0.0000e+00
      0.956    25.8566     6.6817     82.086  36.628250     36.014      8.696   165.1971     5.5395     2.5581     0.0243      0.076      0.939      1.362        134 3.8553e+02   996.8500 0.0000e+00
      0.977    25.8592     6.6635     81.858  36.673817     36.065      8.696   165.3864     5.5356     2.5725     0.0243      0.076      0.958      1.390        135 3.7936e+02   996.8486 0.0000e+00
      0.998    25.8578     6.6493     81.677  36.659462     36.031      8.698   165.7650     5.5471     2.6302     0.0243      0.075      0.978      1.420        136 3.6780e+02   996.8462 0.0000e+00
      1.019    25.8493     6.6434     81.596  36.675744     36.057      8.695   165.8028     5.5242     2.5437     0.0243      0.075      0.998      1.449        137 3.6339e+02   996.8456 0.0000e+00
      1.037    25.8314     6.6213     81.319  36.623919     36.003      8.694   165.9164     5.5395     2.5149     0.0243      0.073      1.016      1.474        138 3.5770e+02   996.8460 0.0000e+00
      1.052    25.8193     6.6119     81.196  36.516518     35.899      8.695   166.4464     5.9057     2.5581     0.0242      0.073      1.032      1.496        139 3.4927e+02   996.8483 0.0000e+00
      1.066    25.8204     6.6040     81.087  36.424159     35.829      8.695   166.4464     5.9400     2.5437     0.0242      0.072      1.045      1.516        140 3.5095e+02   996.8530 0.0000e+00
      1.078    25.8267     6.5965     80.986  36.323983     35.728      8.691   166.7114     5.9171     2.6590     0.0242      0.070      1.057      1.534        141 3.4612e+02   996.8563 0.0000e+00
      1.091    25.8264     6.6052     81.085  36.285578     35.700      8.693   167.0900     5.8981     2.6014     0.0242      0.066      1.071      1.554        142 3.4043e+02   996.8561 0.0000e+00
      1.109    25.8195     6.6164     81.214  36.264515     35.667      8.695   167.2792     6.3329     2.6446     0.0241      0.062      1.088      1.578        143 3.3660e+02   996.8544 0.0000e+00
      1.130    25.8136     6.6305     81.396  36.320561     35.723      8.698   167.2414     6.3291     2.5870     0.0242      0.061      1.107      1.606        144 3.2831e+02   996.8546 0.0000e+00
      1.149    25.8106     6.6579     81.750  36.304734     35.728      8.702   167.2414     6.3024     2.5725     0.0242      0.061      1.124      1.632        145 3.2457e+02   996.8565 0.0000e+00
      1.162    25.8063     6.7063     82.346  36.224947     35.622      8.712   167.6200     6.3177     2.5725     0.0241      0.062      1.139      1.652        146 3.2232e+02   996.8580 0.0000e+00
      1.175    25.8006     6.7596     82.965  36.242052     35.679      8.719   167.3550     6.6763     2.8465     0.0241      0.063      1.152      1.670        147 3.1640e+02   996.8589 0.0000e+00
      1.186    25.7970     6.7999     83.431  36.194546     35.599      8.730   167.8850     6.6686     2.7023     0.0241      0.062      1.162      1.686        148 3.1529e+02   996.8601 0.0000e+00
      1.195    25.7919     6.8199     83.672  36.195167     35.631      8.739   168.1878     6.6839     2.8321     0.0241      0.060      1.172      1.700        149 3.1033e+02   996.8616 0.0000e+00
      1.205    25.7836     6.8114     83.569  36.211647     35.633      8.747   168.1500     6.6839     2.9474     0.0241      0.056      1.182      1.714        150 3.0826e+02   996.8627 0.0000e+00
      1.217    25.7776     6.7777     83.160  36.262942     35.692      8.756   168.3771     7.1607     2.7600     0.0241      0.051      1.194      1.732        151 3.0519e+02   996.8641 0.0000e+00
      1.232    25.7720     6.7219     82.485  36.427677     35.863      8.762   167.3928     7.1455     2.7600     0.0242      0.047      1.209      1.754        152 2.9455e+02   996.8664 0.0000e+00
      1.250    25.7673     6.6594     81.714  36.510423     35.950      8.767   168.2635     7.1417     2.7744     0.0242      0.047      1.225      1.777        153 2.9250e+02   996.8681 0.0000e+00
      1.265    25.7726     6.5852     80.797  36.515581     35.953      8.774   166.7492     7.1378     2.8609     0.0242      0.049      1.243      1.802        154 2.8625e+02   996.8697 0.0000e+00
      1.288    25.7847     6.5201     79.985  36.569433     36.012      8.779   166.2571     7.8321     2.8465     0.0243      0.054      1.265      1.833        155 2.7456e+02   996.8710 0.0000e+00
      1.316    25.7844     6.4647     79.288  36.680484     36.118      8.782   167.0900     7.7825     2.7744     0.0243      0.062      1.290      1.871        156 2.6664e+02   996.8698 0.0000e+00
      1.344    25.7625     6.4240     78.776  36.732994     36.165      8.784   166.7492     7.8054     2.7600     0.0243      0.072      1.316      1.909        157 2.6005e+02   996.8667 0.0000e+00
      1.367    25.7433     6.4021     78.495  36.681889     36.109      8.790   167.0900     7.7978     2.8321     0.0243      0.081      1.338      1.942        158 2.5453e+02   996.8668 0.0000e+00
      1.386    25.7402     6.3976     78.425  36.595911     36.043      8.797   167.3171     8.2632     3.2503     0.0243      0.086      1.358      1.970        159 2.4927e+02   996.8727 0.0000e+00
      1.403    25.7411     6.4037     78.481  36.573289     36.029      8.804   167.4685     8.5150     3.3079     0.0243      0.088      1.376      1.995        160 2.4444e+02   996.8779 0.0000e+00
      1.420    25.7449     6.4175     78.625  36.621144     36.086      8.811   167.5442     8.5302     3.1782     0.0243      0.088      1.392      2.019        161 2.4001e+02   996.8788 0.0000e+00
      1.437    25.7498     6.4373     78.837  36.506724     35.975      8.815   167.5064     8.4997     3.1926     0.0242      0.085      1.408      2.043        162 2.3617e+02   996.8785 0.0000e+00
      1.451    25.7485     6.4649     79.143  36.448974     35.890      8.822   167.6578     8.4997     3.2070     0.0242      0.079      1.424      2.066        163 2.3225e+02   996.8775 0.0000e+00
      1.469    25.7431     6.4993     79.538  36.485571     35.969      8.827   167.8850     9.0071     3.5531     0.0242      0.073      1.441      2.090        164 2.2758e+02   996.8764 0.0000e+00
      1.487    25.7340     6.5242     79.826  36.461179     35.888      8.835   167.6578     8.9994     3.5675     0.0242      0.068      1.458      2.115        165 2.2260e+02   996.8768 0.0000e+00
      1.505    25.7228     6.5519     80.151  36.538600     36.029      8.835   168.5664     8.9918     3.4954     0.0243      0.067      1.476      2.141        166 2.1853e+02   996.8783 0.0000e+00
      1.526    25.7132     6.5701     80.361  36.596666     36.035      8.840   168.5664     8.9689     3.5819     0.0243      0.068      1.496      2.169        167 2.1250e+02   996.8808 0.0000e+00
      1.546    25.7041     6.5780     80.446  36.537093     36.044      8.844   169.0207     9.7281     3.3368     0.0243      0.069      1.514      2.196        168 2.0915e+02   996.8838 0.0000e+00
      1.560    25.6942     6.5753     80.401  36.464569     35.913      8.846   169.2100     9.7204     3.3368     0.0242      0.070      1.530      2.219        169 2.0625e+02   996.8864 0.0000e+00
      1.576    25.6810     6.5656     80.262  36.568387     36.084      8.850   169.4371     9.7586     3.4089     0.0243      0.070      1.546      2.242        170 2.0117e+02   996.8889 0.0000e+00
      1.593    25.6631     6.6030     80.532  36.585705     36.064      8.855   169.4371     9.7433     3.3079     0.0243      0.070      1.562      2.266        171 1.9795e+02   996.8916 0.0000e+00
      1.609    25.6419     6.8204     82.846  36.561560     36.073      8.859   169.4371    10.3194     3.3079     0.0243      0.069      1.579      2.291        172 1.9323e+02   996.8951 0.0000e+00
      1.631    25.6204     7.3793     89.376  36.568808     36.086      8.861   169.9293    10.3422     3.2791     0.0243      0.069      1.599      2.318        173 1.8841e+02   996.8999 0.0000e+00
      1.649    25.6020     8.1897     98.990  36.517427     36.046      8.865   170.0807    10.3270     3.2358     0.0243      0.069      1.617      2.344        174 1.8499e+02   996.9055 0.0000e+00
      1.664    25.5903     9.1728    110.721  36.566245     36.116      8.867   170.4971    10.3117     3.1637     0.0243      0.068      1.633      2.368        175 1.8100e+02   996.9113 0.0000e+00
      1.683    25.5811    10.0430    121.094  36.596969     36.157      8.868   170.3078    11.0175     3.0916     0.0243      0.068      1.650      2.393        176 1.7671e+02   996.9162 0.0000e+00
      1.700    25.5730    10.7927    130.043  36.568105     36.138      8.870   170.4214    10.9984     2.9186     0.0243      0.070      1.667      2.417        177 1.7313e+02   996.9193 0.0000e+00
      1.716    25.5639    11.3442    136.631  36.572537     36.144      8.874   170.6485    10.9946     3.0628     0.0243      0.070      1.683      2.441        178 1.6953e+02   996.9218 0.0000e+00
      1.732    25.5575    11.6898    140.705  36.561823     36.151      8.874   170.7621    10.9946     3.0051     0.0243      0.069      1.698      2.463        179 1.6680e+02   996.9240 0.0000e+00
      1.747    25.5409    11.8329    142.300  36.522175     36.101      8.878   171.2164    10.9907     3.0340     0.0243      0.067      1.713      2.484        180 1.6383e+02   996.9264 0.0000e+00
      1.762    25.4128    11.7667    141.376  36.562614     36.162      8.881   171.2921    12.2344     2.9907     0.0243      0.064      1.729      2.507        181 1.6013e+02   996.9282 0.0000e+00
      1.779    25.1981    11.5714    138.882  36.570770     36.172      8.880   171.5950    12.2153     3.0628     0.0243      0.064      1.745      2.530        182 1.5728e+02   996.9327 0.0000e+00
      1.796    25.0356    11.3388    135.962  36.571314     36.263      8.882   171.7843    12.2572     3.1061     0.0243      0.063      1.762      2.555        183 1.5360e+02   996.9662 0.0000e+00
      1.815    24.9287    11.1170    133.225  36.562000     36.423      8.884   172.5793    12.2382     2.9907     0.0243      0.064      1.779      2.580        184 1.4994e+02   997.0219 0.0000e+00
      1.832    24.8515    10.9232    130.824  36.523185     36.482      8.882   172.8443    13.4742     3.0628     0.0243      0.064      1.796      2.605        185 1.4719e+02   997.0638 0.0000e+00
      1.848    24.7948    10.7599    128.805  36.501163     36.562      8.882   172.7685    13.5047     3.0772     0.0243      0.065      1.811      2.627        186 1.4420e+02   997.0913 0.0000e+00
      1.862    24.7562    10.6241    127.144  36.411655     36.505      8.885   172.9957    13.5085     3.0340     0.0242      0.065      1.825      2.648        187 1.4197e+02   997.1110 0.0000e+00
      1.874    24.7337    10.5123    125.746  36.427173     36.576      8.887   173.4121    13.5009     2.9763     0.0242      0.064      1.840      2.668        188 1.3904e+02   997.1255 0.0000e+00
      1.893    24.6994    10.4147    124.503  36.363344     36.548      8.885   174.2071    15.8775     3.1061     0.0242      0.064      1.857      2.693        189 1.3533e+02   997.1354 0.0000e+00
      1.912    24.6518    10.3210    123.301  36.165134     36.339      8.883   174.5478    15.8698     3.0484     0.0241      0.064      1.874      2.718        190 1.3274e+02   997.1411 0.0000e+00
      1.928    24.6021    10.2318    122.113  36.140440     36.364      8.880   174.9643    15.8584     2.9763     0.0241      0.063      1.890      2.742        191 1.3040e+02   997.1499 0.0000e+00
      1.944    24.5451    10.1690    121.216  36.127385     36.372      8.874   176.1378    15.8736     3.0628     0.0241      0.063      1.906      2.765        192 1.2775e+02   997.1620 0.0000e+00
      1.959    24.4949    10.1477    120.843  36.033233     36.323      8.872   176.0243    16.4878     2.8465     0.0241      0.063      1.921      2.787        193 1.2509e+02   997.1746 0.0000e+00
      1.975    24.4630    10.1519    120.788  35.961295     36.281      8.867   176.2514    16.4497     2.7888     0.0241      0.064      1.937      2.810        194 1.2234e+02   997.1890 0.0000e+00
      1.993    24.4313    10.1787    120.979  35.950233     36.318      8.866   176.5543    16.4344     2.7600     0.0241      0.065      1.954      2.834        195 1.1978e+02   997.2018 0.0000e+00
      2.009    24.4051    10.2147    121.292  35.958123     36.341      8.858   177.2357    16.4458     2.7456     0.0241      0.065      1.970      2.857        196 1.1786e+02   997.2099 0.0000e+00
      2.024    24.3890    10.2690    121.797  35.951493     36.364      8.860   177.6900    19.2230     2.6735     0.0241      0.064      1.986      2.880        197 1.1538e+02   997.2179 0.0000e+00
      2.041    24.3637    10.3263    122.342  35.958497     36.384      8.853   178.3714    19.2726     2.5149     0.0241      0.063      2.002      2.903        198 1.1271e+02   997.2246 0.0000e+00
      2.058    24.3313    10.3714    122.795  35.890152     36.338      8.846   178.6743    19.2306     2.5725     0.0240      0.064      2.018      2.927        199 1.1053e+02   997.2286 0.0000e+00
      2.073    24.2950    10.4161    123.307  35.799491     36.244      8.842   179.0907    19.2268     2.5725     0.0240      0.064      2.033      2.949        200 1.0867e+02   997.2351 0.0000e+00
      2.089    24.2414    10.4753    123.959  35.775000     36.268      8.837   179.6586    19.2459     2.8465     0.0240      0.064      2.049      2.972        201 1.0678e+02   997.2432 0.0000e+00
      2.105    24.1766    10.5292    124.508  35.683576     36.181      8.832   179.8857    22.9538     2.9474     0.0240      0.064      2.065      2.996        202 1.0415e+02   997.2523 0.0000e+00
      2.124    24.1242    10.5792    124.980  35.616951     36.164      8.823   180.3021    22.9119     2.9186     0.0239      0.064      2.083      3.021        203 1.0163e+02   997.2657 0.0000e+00
      2.143    24.0758    10.6080    125.132  35.650507     36.240      8.817   180.7943    22.9233     2.7888     0.0239      0.065      2.100      3.046        204 9.9690e+01   997.2820 0.0000e+00
      2.158    24.0215    10.5966    124.802  35.552948     36.194      8.811   181.0971    22.9233     2.8753     0.0239      0.066      2.116      3.070        205 9.7850e+01   997.2951 0.0000e+00
      2.174    23.9693    10.5540    124.146  35.442058     36.086      8.807   182.3086    25.9255     2.9474     0.0239      0.066      2.134      3.095        206 9.5239e+01   997.3071 0.0000e+00
      2.197    23.9095    10.4913    123.320  35.344035     36.071      8.800   183.9743    25.9331     2.9042     0.0238      0.068      2.155      3.124        207 9.2616e+01   997.3206 0.0000e+00
      2.218    23.8497    10.4301    122.469  35.230465     35.937      8.792   184.2014    25.9446     2.7744     0.0238      0.070      2.175      3.154        208 9.0500e+01   997.3334 0.0000e+00
      2.237    23.8157    10.3752    121.637  35.227825     36.039      8.784   184.3529    25.9103     2.8465     0.0238      0.072      2.193      3.181        209 8.8528e+01   997.3482 0.0000e+00
      2.254    23.8065    10.3214    120.842  35.228817     36.025      8.780   185.2614    27.4056     2.7600     0.0238      0.073      2.210      3.206        210 8.6742e+01   997.3631 0.0000e+00
      2.271    23.7857    10.2807    120.336  35.229257     36.109      8.772   184.5043    27.4095     2.8177     0.0238      0.073      2.227      3.231        211 8.4839e+01   997.3715 0.0000e+00
      2.289    23.7483    10.2733    120.235  35.168030     36.000      8.768   184.3907    27.4247     2.7888     0.0237      0.074      2.246      3.257        212 8.3081e+01   997.3738 0.0000e+00
      2.308    23.6962    10.2362    119.676  35.067959     35.958      8.761   184.6936    27.4400     2.7888     0.0237      0.074      2.266      3.286        213 8.0871e+01   997.3790 0.0000e+00
      2.334    23.6180    10.2417    119.459  34.968579     35.843      8.751   185.9050    27.5620     2.6735     0.0237      0.075      2.290      3.321        214 7.7721e+01   997.3881 0.0000e+00
      2.364    23.5333    10.2126    118.787  34.936135     35.880      8.739   187.2679    27.5582     2.7311     0.0237      0.078      2.317      3.360        215 7.4997e+01   997.4010 0.0000e+00
      2.389    23.4699    10.1726    118.027  34.900936     35.882      8.730   187.1922    27.5697     2.7888     0.0236      0.082      2.340      3.394        216 7.3494e+01   997.4201 0.0000e+00
      2.405    23.4287    10.1007    117.044  34.893891     35.944      8.720   188.4036    27.6040     2.7167     0.0236      0.085      2.358      3.420        217 7.2018e+01   997.4407 0.0000e+00
      2.422    23.3733    10.0317    116.131  34.944941     36.050      8.714   191.1293    28.5043     2.5581     0.0237      0.087      2.375      3.444        218 7.0188e+01   997.4562 0.0000e+00
      2.439    23.2902     9.9657    115.139  34.955966     36.078      8.705   191.8865    28.4890     2.5004     0.0237      0.086      2.389      3.465        219 6.9197e+01   997.4663 0.0000e+00
      2.449    23.2224     9.8936    114.010  34.998725     36.179      8.698   192.5300    28.5005     2.6590     0.0237      0.081      2.399      3.480        220 6.8761e+01   997.4796 0.0000e+00
      2.453    23.2057     9.8389    113.061  34.980654     36.211      8.690   193.1357    28.4509     2.5004     0.0237      0.072      2.406      3.490        221 6.8160e+01   997.4996 0.0000e+00
      2.461    23.2002     9.7443    111.730  34.948856     36.236      8.687   193.9686    28.9850     2.4139     0.0237      0.061      2.415      3.503        222 6.7018e+01   997.5159 0.0000e+00
      2.476    23.1430     9.6358    110.298  35.008692     36.303      8.681   195.0665    28.9850     2.3562     0.0237      0.052      2.430      3.524        223 6.5232e+01   997.5199 0.0000e+00
      2.497    23.0222     9.5072    108.577  35.143263     36.453      8.673   195.7100    28.9888     2.4139     0.0238      0.048      2.450      3.553        224 6.3128e+01   997.5214 0.0000e+00
      2.522    22.8732     9.3743    106.830  35.196251     36.553      8.665   196.9215    28.9659     2.4139     0.0238      0.051      2.473      3.587        225 6.0860e+01   997.5352 0.0000e+00
      2.549    22.7444     9.2364    105.145  35.150207     36.589      8.656   197.2622    29.0040     2.5437     0.0238      0.057      2.497      3.621        226 5.9381e+01   997.5640 0.0000e+00
      2.568    22.6763     9.1379    103.873  35.141355     36.702      8.649   197.7922    29.4694     2.6879     0.0238      0.065      2.517      3.651        227 5.8049e+01   997.5993 0.0000e+00
      2.585    22.6231     9.0623    102.841  35.207336     36.861      8.642   198.0572    29.5038     2.5725     0.0238      0.073      2.536      3.677        228 5.6480e+01   997.6298 0.0000e+00
      2.604    22.5214     8.9977    101.974  35.245949     36.971      8.636   198.7386    29.4885     2.5725     0.0238      0.079      2.553      3.702        229 5.5375e+01   997.6458 0.0000e+00
      2.619    22.3846     8.9209    101.007  35.271136     37.011      8.629   199.5715    29.4465     2.6735     0.0238      0.081      2.568      3.724        230 5.4436e+01   997.6583 0.0000e+00
      2.632    22.2401     8.8355     99.919  35.413089     37.268      8.623   199.7608    29.6487     2.3995     0.0239      0.078      2.582      3.745        231 5.3447e+01   997.6821 0.0000e+00
      2.647    22.1258     8.7503     98.830  35.484202     37.434      8.619   199.8743    29.6678     2.4860     0.0239      0.073      2.596      3.766        232 5.2399e+01   997.7138 0.0000e+00
      2.662    22.0355     8.6858     98.004  35.479032     37.550      8.615   199.7608    29.6945     2.3274     0.0239      0.067      2.611      3.787        233 5.1415e+01   997.7471 0.0000e+00
      2.678    21.9171     8.6341     97.286  35.360325     37.522      8.611   200.5936    29.6144     2.2986     0.0239      0.062      2.626      3.808        234 5.0519e+01   997.7734 0.0000e+00
      2.692    21.8096     8.5906     96.689  35.276390     37.474      8.608   200.7451    29.6220     2.4716     0.0239      0.060      2.639      3.827        235 4.9704e+01   997.7940 0.0000e+00
      2.702    21.7492     8.5770     96.419  35.346471     37.688      8.604   201.0479    29.5953     2.4860     0.0239      0.057      2.651      3.845        236 4.9048e+01   997.8209 0.0000e+00
      2.716    21.6765     8.5784     96.166  35.391695     37.777      8.600   201.6915    29.6106     2.3851     0.0239      0.055      2.665      3.865        237 4.8093e+01   997.8453 0.0000e+00
      2.735    21.5890     8.5908     96.038  35.457224     37.942      8.595   202.3729    29.6068     2.4716     0.0240      0.056      2.682      3.891        238 4.6654e+01   997.8589 0.0000e+00
      2.755    21.5224     8.6301     96.242  35.442758     37.943      8.590   202.9408    29.1871     2.2265     0.0239      0.058      2.701      3.917        239 4.5733e+01   997.8753 0.0000e+00
      2.771    21.4719     8.6396     96.114  35.409734     38.014      8.583   203.2436    29.1757     2.1688     0.0239      0.060      2.716      3.940        240 4.5054e+01   997.8949 0.0000e+00
      2.784    21.4101     8.6430     95.980  35.379827     38.009      8.580   204.0386    29.1986     2.2986     0.0239      0.060      2.731      3.961        241 4.4153e+01   997.9097 0.0000e+00
      2.800    21.3458     8.6489     95.862  35.361478     38.049      8.573   204.5686    29.1757     2.1688     0.0239      0.061      2.746      3.982        242 4.3325e+01   997.9211 0.0000e+00
      2.814    21.2922     8.6738     95.849  35.373331     38.100      8.568   205.1744    29.1681     2.2409     0.0239      0.062      2.760      4.002        243 4.2576e+01   997.9348 0.0000e+00
      2.827    21.2228     8.6932     95.765  35.365104     38.154      8.562   205.5151    26.7571     1.9381     0.0239      0.062      2.772      4.020        244 4.2068e+01   997.9491 0.0000e+00
      2.837    21.1671     8.6919     95.570  35.253214     38.076      8.558   206.0829    26.7609     1.9236     0.0239      0.059      2.784      4.037        245 4.1451e+01   997.9610 0.0000e+00
      2.852    21.1007     8.6772     95.249  35.216274     38.074      8.552   206.8022    26.7762     1.9525     0.0239      0.056      2.799      4.059        246 4.0347e+01   997.9762 0.0000e+00
      2.873    20.9626     8.6170     94.447  35.114774     38.060      8.547   207.7108    26.7915     1.9525     0.0238      0.056      2.817      4.086        247 3.9151e+01   997.9884 0.0000e+00
      2.892    20.8192     8.5469     93.566  34.875802     37.778      8.538   207.9758    23.1179     1.6208     0.0237      0.058      2.835      4.111        248 3.8469e+01   998.0030 0.0000e+00
      2.906    20.6945     8.4636     92.455  34.802527     37.895      8.534   208.6951    23.1026     1.7650     0.0237      0.060      2.851      4.135        249 3.7784e+01   998.0329 0.0000e+00
      2.924    20.5723     8.4080     91.670  34.643005     37.769      8.530   209.6415    23.1102     1.7362     0.0236      0.062      2.868      4.160        250 3.6752e+01   998.0639 0.0000e+00
      2.945    20.4804     8.3675     91.157  34.511376     37.780      8.527   209.8308    23.1255     1.7939     0.0236      0.065      2.887      4.186        251 3.5864e+01   998.0907 0.0000e+00
      2.960    20.3829     8.3720     91.029  34.492283     37.821      8.519   210.5501    17.6589     1.7939     0.0236      0.068      2.902      4.208        252 3.5308e+01   998.1168 0.0000e+00
      2.974    20.2308     8.4098     91.228  34.459397     37.897      8.515   210.3987    17.6856     1.8227     0.0236      0.068      2.916      4.228        253 3.4865e+01   998.1364 0.0000e+00
      2.986    20.0773     8.4458     91.519  34.374558     37.854      8.514   210.3229    17.6742     1.7073     0.0235      0.066      2.929      4.248        254 3.4295e+01   998.1570 0.0000e+00
      3.001    19.9788     8.4712     91.689  34.331228     37.951      8.511   210.8908    17.6513     1.7218     0.0235      0.063      2.943      4.269        255 3.3708e+01   998.1889 0.0000e+00
      3.017    19.8958     8.4727     91.458  34.305964     38.052      8.507   210.7394    13.6153     1.6208     0.0235      0.061      2.958      4.290        256 3.3134e+01   998.2209 0.0000e+00
      3.030    19.8218     8.4489     90.913  34.139381     37.947      8.505   210.9287    13.6077     1.4622     0.0234      0.060      2.972      4.310        257 3.2716e+01   998.2413 0.0000e+00
      3.044    19.7588     8.4019     90.134  33.945959     37.800      8.502   211.0801    13.6000     1.4622     0.0233      0.057      2.985      4.329        258 3.2255e+01   998.2583 0.0000e+00
      3.057    19.6520     8.3334     89.162  33.717035     37.614      8.499   211.4587    13.6306     1.4910     0.0232      0.055      2.996      4.346        259 3.1942e+01   998.2735 0.0000e+00
      3.064    19.5583     8.2654     88.236  33.476112     37.384      8.495   211.3829    11.5096     1.2603     0.0231      0.053      3.008      4.362        260 3.1594e+01   998.2864 0.0000e+00
      3.080    19.5132     8.2093     87.472  33.416156     37.412      8.493   212.3672    11.5096     1.2748     0.0231      0.052      3.023      4.384        261 3.0807e+01   998.3080 0.0000e+00
      3.103    19.4200     8.1873     87.111  33.465756     37.556      8.489   213.0487    11.4638     1.2892     0.0231      0.054      3.042      4.412        262 3.0151e+01   998.3271 0.0000e+00
      3.122    19.3053     8.1988     87.097  33.473687     37.589      8.489   213.1622    11.4790     1.2459     0.0231      0.056      3.061      4.440        263 2.9530e+01   998.3364 0.0000e+00
      3.140    19.2501     8.2421     87.394  33.406316     37.608      8.486   213.9951     9.5564     1.2459     0.0231      0.059      3.079      4.465        264 2.8949e+01   998.3551 0.0000e+00
      3.157    19.1902     8.2863     87.703  33.312594     37.580      8.484   214.1087     9.5488     1.2748     0.0231      0.063      3.096      4.490        265 2.8583e+01   998.3781 0.0000e+00
      3.172    19.0595     8.3192     87.933  33.294063     37.626      8.479   214.6008     9.5373     1.2748     0.0231      0.066      3.111      4.512        266 2.8190e+01   998.3892 0.0000e+00
      3.187    18.9016     8.3274     87.954  33.162737     37.516      8.478   214.5630     9.5259     1.2748     0.0230      0.068      3.126      4.534        267 2.7737e+01   998.4011 0.0000e+00
      3.204    18.7531     8.3328     87.951  32.883460     37.314      8.474   214.8658     9.5564     1.2171     0.0229      0.069      3.141      4.555        268 2.7452e+01   998.4268 0.0000e+00
      3.216    18.6224     8.3118     87.568  32.634256     37.161      8.473   215.0172     8.0915     1.0873     0.0228      0.066      3.154      4.574        269 2.7236e+01   998.4576 0.0000e+00
      3.227    18.5112     8.2671     86.941  32.465526     37.097      8.468   214.9415     8.1182     1.0585     0.0227      0.062      3.165      4.591        270 2.6927e+01   998.4865 0.0000e+00
      3.240    18.4193     8.2222     86.283  32.412030     37.143      8.469   215.5851     8.1144     0.9864     0.0227      0.058      3.178      4.609        271 2.6588e+01   998.5117 0.0000e+00
      3.254    18.3474     8.1510     85.273  32.345337     37.174      8.464   215.8501     8.1068     1.0873     0.0226      0.055      3.191      4.629        272 2.6228e+01   998.5329 0.0000e+00
      3.269    18.2714     8.0293     83.826  32.252284     37.125      8.462   216.0394     7.7597     1.0873     0.0226      0.054      3.206      4.650        273 2.5933e+01   998.5505 0.0000e+00
      3.284    18.1795     7.8958     82.424  32.231584     37.185      8.461   216.7587     7.7482     1.0296     0.0226      0.053      3.220      4.671        274 2.5592e+01   998.5641 0.0000e+00
      3.299    18.0920     7.7928     81.310  32.163729     37.154      8.460   216.8722     7.7558     1.0152     0.0225      0.054      3.235      4.692        275 2.5226e+01   998.5785 0.0000e+00
      3.313    18.0255     7.7167     80.354  31.981219     37.039      8.458   217.2887     7.7635     1.0873     0.0225      0.054      3.249      4.712        276 2.4988e+01   998.5957 0.0000e+00
      3.327    17.9907     7.6744     79.723  31.955066     37.051      8.453   217.5158     6.9929     1.1450     0.0224      0.055      3.264      4.734        277 2.4660e+01   998.6120 0.0000e+00
      3.346    17.9529     7.6523     79.327  32.077799     37.301      8.453   218.3487     6.9776     1.0440     0.0225      0.058      3.282      4.760        278 2.4129e+01   998.6246 0.0000e+00
      3.369    17.8680     7.6722     79.360  32.035910     37.236      8.448   218.8408     6.9967     1.1017     0.0225      0.061      3.302      4.790        279 2.3745e+01   998.6311 0.0000e+00
      3.389    17.7786     7.6963     79.424  31.977587     37.232      8.445   219.1815     6.9738     1.0729     0.0225      0.065      3.322      4.818        280 2.3473e+01   998.6382 0.0000e+00
      3.404    17.6739     7.7376     79.640  31.943002     37.245      8.443   219.8630     6.7907     1.0152     0.0225      0.067      3.338      4.841        281 2.3210e+01   998.6539 0.0000e+00
      3.418    17.5264     7.7430     79.502  31.753069     37.125      8.441   219.4844     6.8212     1.0440     0.0224      0.068      3.352      4.862        282 2.3002e+01   998.6702 0.0000e+00
      3.432    17.4287     7.6817     78.708  31.473288     36.856      8.439   219.7494     6.8136     1.0152     0.0222      0.068      3.366      4.882        283 2.2803e+01   998.6892 0.0000e+00
      3.446    17.4203     7.5412     77.121  31.402392     36.920      8.437   220.2415     6.7716     1.0008     0.0222      0.067      3.379      4.901        284 2.2635e+01   998.7159 0.0000e+00
      3.458    17.3967     7.3221     74.754  31.367307     36.974      8.435   220.3930     5.9743     0.8422     0.0222      0.064      3.391      4.918        285 2.2447e+01   998.7334 0.0000e+00
      3.470    17.3008     7.0243     71.615  31.102201     36.648      8.433   220.2037     5.9667     0.7412     0.0220      0.059      3.402      4.935        286 2.2307e+01   998.7349 0.0000e+00
      3.480    17.1870     6.7300     68.546  30.873129     36.405      8.429   220.5444     5.9591     0.8710     0.0219      0.054      3.415      4.953        287 2.2090e+01   998.7391 0.0000e+00
      3.497    17.0847     6.4346     65.481  30.822836     36.423      8.428   221.4530     5.9782     0.8710     0.0219      0.052      3.430      4.975        288 2.1810e+01   998.7562 0.0000e+00
      3.517    16.9815     6.1555     62.596  30.809301     36.522      8.424   221.6044     5.9667     0.7412     0.0219      0.053      3.448      5.001        289 2.1553e+01   998.7764 0.0000e+00
      3.534    16.8688     5.9116     60.034  30.830765     36.610      8.425   221.7180     5.2381     0.7845     0.0219      0.055      3.465      5.026        290 2.1307e+01   998.7944 0.0000e+00
      3.549    16.7442     5.7010     57.792  31.033187     36.967      8.422   222.0587     5.2534     0.9287     0.0220      0.057      3.480      5.048        291 2.1145e+01   998.8125 0.0000e+00
      3.563    16.6278     5.5070     55.734  31.090726     37.132      8.422   222.6644     5.2648     0.8133     0.0221      0.059      3.495      5.069        292 2.0909e+01   998.8322 0.0000e+00
      3.581    16.5282     5.3673     54.281  30.996225     37.110      8.422   223.3458     5.2495     0.8998     0.0220      0.062      3.511      5.092        293 2.0656e+01   998.8536 0.0000e+00
      3.597    16.4378     5.2559     53.109  31.032331     37.281      8.418   223.5351     5.0779     0.7845     0.0220      0.064      3.526      5.114        294 2.0472e+01   998.8735 0.0000e+00
      3.609    16.3571     5.1547     51.983  31.045840     37.370      8.418   223.8380     5.0512     0.8422     0.0220      0.064      3.539      5.133        295 2.0298e+01   998.8903 0.0000e+00
      3.622    16.2931     5.0439     50.743  31.038713     37.452      8.418   223.8758     5.0741     0.7845     0.0220      0.061      3.552      5.152        296 2.0147e+01   998.9056 0.0000e+00
      3.636    16.2442     4.9343     49.525  31.100496     37.592      8.415   224.0273     5.0779     0.8998     0.0221      0.058      3.566      5.172        297 1.9957e+01   998.9192 0.0000e+00
      3.649    16.2055     4.8058     48.115  31.146750     37.719      8.412   224.4437     5.0702     0.7412     0.0221      0.057      3.579      5.191        298 1.9766e+01   998.9299 0.0000e+00
      3.662    16.1689     4.6568     46.538  31.099686     37.694      8.413   224.5951     5.0512     0.7989     0.0221      0.055      3.591      5.209        299 1.9590e+01   998.9381 0.0000e+00
      3.674    16.1070     4.4593     44.498  31.099833     37.731      8.409   224.7844     5.0512     0.7845     0.0221      0.054      3.603      5.226        300 1.9474e+01   998.9446 0.0000e+00
      3.686    16.0210     4.2232     42.073  31.028076     37.695      8.408   225.2008     5.0702     0.8422     0.0220      0.051      3.615      5.244        301 1.9336e+01   998.9506 0.0000e+00
      3.701    15.9467     3.9482     39.290  30.951986     37.617      8.405   225.6173     4.9749     1.0008     0.0220      0.051      3.631      5.266        302 1.9073e+01   998.9608 0.0000e+00
      3.721    15.9103     3.6717     36.533  31.076042     37.900      8.403   226.3744     4.9405     1.0152     0.0221      0.053      3.651      5.296        303 1.8808e+01   998.9750 0.0000e+00
      3.748    15.8694     3.3897     33.760  31.110744     37.970      8.400   226.9423     4.9558     1.0008     0.0221      0.058      3.676      5.331        304 1.8436e+01   998.9871 0.0000e+00
      3.776    15.7763     3.1619     31.531  31.027340     37.934      8.397   227.9266     4.9558     0.9864     0.0221      0.065      3.702      5.370        305 1.8100e+01   998.9931 0.0000e+00
      3.802    15.6648     3.0039     29.972  30.942836     37.835      8.392   228.2673     5.3182     1.1161     0.0220      0.074      3.728      5.408        306 1.7853e+01   998.9999 0.0000e+00
      3.827    15.5538     2.9141     29.072  31.038165     38.059      8.388   228.9866     5.2953     1.1306     0.0221      0.083      3.752      5.443        307 1.7605e+01   999.0149 0.0000e+00
      3.850    15.4398     2.8998     28.881  31.145762     38.301      8.386   229.5923     5.3106     1.0729     0.0221      0.091      3.774      5.475        308 1.7350e+01   999.0329 0.0000e+00
      3.871    15.3537     2.9426     29.226  31.164509     38.405      8.381   229.8573     5.3182     1.0296     0.0221      0.095      3.793      5.502        309 1.7153e+01   999.0506 0.0000e+00
      3.884    15.2827     3.0002     29.712  31.192648     38.584      8.377   229.4030     5.2915     0.9864     0.0222      0.094      3.807      5.522        310 1.7085e+01   999.0684 0.0000e+00
      3.890    15.2079     3.0617     30.238  31.170046     38.596      8.375   230.5766     5.4632     1.0296     0.0221      0.086      3.815      5.534        311 1.6984e+01   999.0819 0.0000e+00
      3.898    15.1568     3.0755     30.308  31.192676     38.733      8.370   230.3873     5.4365     1.0585     0.0222      0.075      3.821      5.543        312 1.6977e+01   999.0930 0.0000e+00
      3.902    15.1498     3.0266     29.766  31.223773     38.806      8.365   230.3873     5.4021     0.9719     0.0222      0.062      3.826      5.549        313 1.6962e+01   999.1045 0.0000e+00
      3.905    15.1958     2.9148     28.573  31.190631     38.855      8.361   230.8416     5.4250     1.0873     0.0222      0.049      3.831      5.556        314 1.6878e+01   999.1123 0.0000e+00
      3.912    15.2517     2.7466     26.837  31.174686     38.793      8.357   230.9930     4.9978     1.2459     0.0221      0.038      3.838      5.567        315 1.6719e+01   999.1135 0.0000e+00
      3.925    15.2789     2.5336     24.709  31.184363     38.818      8.353   231.1066     4.9901     1.2027     0.0222      0.031      3.850      5.583        316 1.6522e+01   999.1064 0.0000e+00
      3.938    15.2716     2.2614     22.032  31.178573     38.692      8.352   231.5609     5.0207     1.3036     0.0221      0.029      3.861      5.600        317 1.6424e+01   999.0978 0.0000e+00
      3.946    15.1948     1.9704     19.181  31.181872     38.738      8.350   231.9016     4.9978     1.2748     0.0222      0.030      3.871      5.613        318 1.6306e+01   999.0937 0.0000e+00
      3.955    15.0668     1.6958     16.501  31.180245     38.673      8.346   232.2801     5.0245     1.5920     0.0221      0.033      3.881      5.628        319 1.6150e+01   999.0949 0.0000e+00
      3.970    14.9323     1.4471     14.063  31.180603     38.818      8.341   232.8480     5.0207     1.4910     0.0222      0.036      3.895      5.649        320 1.5887e+01   999.1068 0.0000e+00
      3.990    14.8044     1.2320     11.949  31.181457     38.873      8.337   233.1887     5.0130     1.5343     0.0221      0.043      3.913      5.676        321 1.5579e+01   999.1264 0.0000e+00
      4.012    14.7057     1.0300      9.968  31.238488     39.143      8.337   233.8323     5.0168     1.4910     0.0222      0.050      3.934      5.707        322 1.5329e+01   999.1468 0.0000e+00
      4.034    14.6081     0.8737      8.437  31.317081     39.305      8.332   234.2487     5.0626     1.7506     0.0222      0.057      3.957      5.739        323 1.5035e+01   999.1661 0.0000e+00
      4.059    14.4621     0.7385      7.119  31.617007     39.825      8.329   235.0437     5.0741     1.7794     0.0224      0.065      3.979      5.772        324 1.4764e+01   999.1810 0.0000e+00
      4.079    14.3135     0.6157      5.928  32.050413     40.449      8.327   235.1573     5.0893     1.7506     0.0226      0.072      3.997      5.798        325 1.4624e+01   999.1956 0.0000e+00
      4.091    14.2272     0.5003      4.809  32.140678     40.742      8.326   234.9302     5.0779     1.7939     0.0227      0.077      4.011      5.818        326 1.4529e+01   999.2169 0.0000e+00
      4.103    14.1779     0.3756      3.605  31.949166     40.613      8.322   235.0437     5.0626     1.8660     0.0226      0.077      4.023      5.836        327 1.4356e+01   999.2383 0.0000e+00
      4.116    14.1436     0.2459      2.359  32.259177     41.094      8.316   235.6494     4.7651     2.0102     0.0228      0.074      4.035      5.853        328 1.4239e+01   999.2507 0.0000e+00
      4.126    14.1195     0.1420      1.361  32.851207     41.963      8.314   235.8766     4.7765     1.9669     0.0231      0.067      4.047      5.869        329 1.4178e+01   999.2580 0.0000e+00
      4.138    14.0639     0.0565      0.540  33.079091     42.217      8.309   236.7094     4.7880     2.0102     0.0232      0.060      4.061      5.890        330 1.3877e+01   999.2629 0.0000e+00
      4.160    13.9744    -0.0015     -0.014  33.575632     42.917      8.304   236.8609     4.7841     1.9813     0.0235      0.056      4.079      5.917        331 1.3570e+01   999.2666 0.0000e+00
      4.180    13.8737    -0.0349     -0.333  34.248205     43.838      8.303   237.0502     4.5896     1.9381     0.0239      0.055      4.098      5.945        332 1.3357e+01   999.2748 0.0000e+00
      4.198    13.7757    -0.0332     -0.316  34.731178     44.546      8.299   237.6937     4.6087     2.0102     0.0241      0.058      4.117      5.972        333 1.3113e+01   999.2877 0.0000e+00
      4.219    13.7007    -0.0224     -0.214  34.959992     44.987      8.293   238.2237     4.6048     1.9525     0.0243      0.063      4.136      5.999        334 1.2914e+01   999.3018 0.0000e+00
      4.235    13.6409     0.0032      0.031  34.911752     44.991      8.289   239.1323     4.5934     1.9236     0.0243      0.067      4.154      6.024        335 1.2674e+01   999.3153 0.0000e+00
      4.254    13.5637     0.0334      0.318  34.820891     45.008      8.283   239.1702     4.4484     2.2697     0.0242      0.070      4.170      6.048        336 1.2443e+01   999.3255 0.0000e+00
      4.268    13.4980     0.0626      0.597  34.806404     45.003      8.273   239.1323     4.4332     2.4860     0.0242      0.072      4.183      6.067        337 1.2373e+01   999.3336 0.0000e+00
      4.275    13.4693     0.0875      0.833  34.811278     45.167      8.269   239.1323     4.4256     2.4283     0.0243      0.069      4.192      6.080        338 1.2323e+01   999.3440 0.0000e+00
      4.282    13.4150     0.1132      1.075  34.814857     45.173      8.262   238.9809     4.4561     2.5004     0.0242      0.062      4.201      6.092        339 1.2154e+01   999.3529 0.0000e+00
      4.294    13.3129     0.1438      1.361  34.801979     45.277      8.257   239.2459     4.3226     2.5725     0.0243      0.056      4.211      6.107        340 1.2011e+01   999.3567 0.0000e+00
      4.303    13.2177     0.1858      1.755  34.442101     44.795      8.251   239.4730     4.3149     2.5149     0.0240      0.050      4.221      6.122        341 1.1940e+01   999.3638 0.0000e+00
      4.315    13.1750     0.2540      2.397  34.255233     44.698      8.246   240.0409     4.3149     2.4572     0.0240      0.045      4.232      6.139        342 1.1833e+01   999.3771 0.0000e+00
      4.330    13.1779     0.3578      3.374  34.412287     45.028      8.242   240.7602     4.3264     2.6590     0.0241      0.043      4.246      6.158        343 1.1652e+01   999.3897 0.0000e+00
      4.344    13.2026     0.5056      4.762  34.483750     45.153      8.233   241.0630     4.3226     2.7311     0.0241      0.042      4.260      6.178        344 1.1476e+01   999.3954 0.0000e+00
      4.356    13.2191     0.6937      6.527  34.344114     45.001      8.229   241.6309     4.3187     2.7888     0.0240      0.044      4.274      6.198        345 1.1311e+01   999.3949 0.0000e+00
      4.374    13.2220     0.9152      8.599  34.111946     44.608      8.223   242.7666     4.3035     2.7888     0.0239      0.049      4.291      6.223        346 1.1009e+01   999.3917 0.0000e+00
      4.398    13.2192     1.1269     10.580  34.180024     44.732      8.222   243.6752     4.3035     2.7311     0.0239      0.055      4.312      6.253        347 1.0761e+01   999.3897 0.0000e+00
      4.418    13.1531     1.3272     12.462  34.051958     44.550      8.216   244.3188     4.2577     3.2358     0.0239      0.060      4.332      6.282        348 1.0626e+01   999.3894 0.0000e+00
      4.434    13.0141     1.4994     14.085  33.352737     43.635      8.211   244.3188     4.2386     3.2791     0.0235      0.065      4.350      6.308        349 1.0358e+01   999.3895 0.0000e+00
      4.454    12.8744     1.6483     15.477  32.531548     42.615      8.205   245.2273     4.2119     3.2070     0.0230      0.069      4.369      6.336        350 1.0048e+01   999.3977 0.0000e+00
      4.477    12.7853     1.7574     16.484  32.318293     42.477      8.203   245.6059     4.2615     3.2791     0.0229      0.073      4.389      6.365        351 9.7559e+00   999.4155 0.0000e+00
      4.494    12.7407     1.8265     17.107  32.432975     42.857      8.201   245.6059     4.2386     3.1349     0.0230      0.076      4.405      6.389        352 9.5715e+00   999.4333 0.0000e+00
      4.504    12.7045     1.8737     17.519  32.388884     42.810      8.196   246.3630     4.5629     4.6778     0.0229      0.075      4.417      6.407        353 9.4279e+00   999.4445 0.0000e+00
      4.517    12.6620     1.9137     17.866  32.373202     42.934      8.191   247.0445     4.5591     4.5913     0.0230      0.071      4.431      6.427        354 9.1780e+00   999.4501 0.0000e+00
      4.535    12.6096     1.9728     18.388  32.274737     42.752      8.188   246.8930     4.5514     4.5769     0.0229      0.067      4.447      6.449        355 8.9552e+00   999.4546 0.0000e+00
      4.550    12.5500     2.0591     19.165  32.215147     42.801      8.186   247.3095     4.5438     4.6778     0.0229      0.064      4.462      6.470        356 8.7552e+00   999.4598 0.0000e+00
      4.564    12.5113     2.1868     20.331  32.180716     42.749      8.184   247.8395     4.0670     5.8170     0.0228      0.062      4.475      6.490        357 8.5725e+00   999.4663 0.0000e+00
      4.574    12.5173     2.3673     21.992  32.228720     42.929      8.178   248.1045     4.0784     5.8170     0.0229      0.058      4.487      6.507        358 8.4136e+00   999.4737 0.0000e+00
      4.587    12.5359     2.5898     24.042  32.303577     43.048      8.176   248.2181     4.0746     5.7449     0.0229      0.055      4.500      6.526        359 8.1421e+00   999.4784 0.0000e+00
      4.604    12.5190     2.8348     26.306  32.146830     42.855      8.172   248.7102     4.0212     5.8602     0.0228      0.055      4.516      6.550        360 7.8675e+00   999.4777 0.0000e+00
      4.624    12.4716     3.1033     28.793  31.949720     42.534      8.171   248.8238     3.3689     6.4803     0.0227      0.057      4.536      6.579        361 7.6226e+00   999.4755 0.0000e+00
      4.648    12.4050     3.3522     31.094  31.748887     42.332      8.169   249.2402     3.4299     6.5380     0.0226      0.060      4.559      6.613        362 7.2748e+00   999.4776 0.0000e+00
      4.677    12.3315     3.5727     33.134  31.478278     41.975      8.167   249.4673     3.3803     6.3505     0.0224      0.066      4.584      6.649        363 6.9609e+00   999.4833 0.0000e+00
      4.699    12.2639     3.7507     34.779  31.368021     41.938      8.163   249.5052     3.3841     6.4947     0.0224      0.073      4.608      6.683        364 6.7399e+00   999.4914 0.0000e+00
      4.721    12.1936     3.9037     36.169  31.293558     41.909      8.160   249.8459     2.2855     7.2157     0.0223      0.080      4.629      6.713        365 6.5194e+00   999.5001 0.0000e+00
      4.740    12.1289     3.9848     36.889  31.096927     41.721      8.161   249.7702     2.2969     7.2301     0.0222      0.086      4.649      6.742        366 6.3118e+00   999.5081 0.0000e+00
      4.760    12.0808     4.0266     37.242  30.931314     41.577      8.158   249.8459     2.2969     7.1580     0.0221      0.088      4.668      6.771        367 6.1112e+00   999.5164 0.0000e+00
      4.780    12.0459     4.0478     37.407  30.877508     41.573      8.154   249.6945     2.3084     7.0859     0.0221      0.088      4.686      6.797        368 5.9479e+00   999.5239 0.0000e+00
      4.795    12.0165     4.0481     37.391  30.926892     41.704      8.153   249.8459     2.2473     7.3743     0.0222      0.084      4.701      6.819        369 5.8423e+00   999.5297 0.0000e+00
      4.808    11.9988     4.0653     37.558  30.899505     41.704      8.149   250.1488     2.2283     7.3166     0.0221      0.078      4.714      6.836        370 5.7360e+00   999.5338 0.0000e+00
      4.817    11.9912     4.1002     37.903  30.881980     41.700      8.147   250.1488     2.2397     7.4897     0.0221      0.070      4.724      6.851        371 5.6747e+00   999.5371 0.0000e+00
      4.827    11.9794     4.1329     38.208  30.919086     41.795      8.142   250.0731     2.2359     7.3455     0.0222      0.063      4.734      6.866        372 5.6255e+00   999.5392 0.0000e+00
      4.837    11.9726     4.1615     38.457  30.882963     41.728      8.137   250.3759     2.2244     7.3743     0.0221      0.057      4.747      6.884        373 5.4893e+00   999.5401 0.0000e+00
      4.856    11.9629     4.1959     38.755  30.926940     41.817      8.136   250.4895     2.2244     7.4032     0.0222      0.053      4.764      6.909        374 5.2631e+00   999.5415 0.0000e+00
      4.880    11.9314     4.2087     38.852  30.864363     41.750      8.137   250.4138     2.2206     7.3743     0.0221      0.053      4.787      6.943        375 5.0850e+00   999.5424 0.0000e+00
      4.907    11.8926     4.2002     38.769  30.694195     41.494      8.135   250.9816     2.2359     7.2878     0.0220      0.058      4.812      6.980        376 4.8668e+00   999.5436 0.0000e+00
      4.936    11.8531     4.1730     38.509  30.664678     41.532      8.132   251.5116     2.2244     7.3743     0.0220      0.066      4.837      7.016        377 4.6030e+00   999.5473 0.0000e+00
      4.956    11.8162     4.1274     38.069  30.634464     41.498      8.130   251.7009     1.9231     7.7781     0.0220      0.075      4.857      7.044        378 4.4902e+00   999.5518 0.0000e+00
      4.966    11.7949     4.0724     37.539  30.613302     41.544      8.128   251.8523     1.9536     7.9655     0.0220      0.080      4.869      7.062        379 4.4417e+00   999.5563 0.0000e+00
      4.974    11.8036     4.0036     36.879  30.691030     41.661      8.125   251.9659     1.9536     7.8213     0.0220      0.081      4.878      7.075        380 4.3656e+00   999.5604 0.0000e+00
      4.983    11.8291     3.9509     36.369  30.715512     41.762      8.123   252.4581     1.9193     7.8357     0.0221      0.076      4.888      7.089        381 4.2607e+00   999.5629 0.0000e+00
      4.996    11.8322     3.8899     35.789  30.760605     41.752      8.121   253.1016     1.2975     7.8357     0.0221      0.068      4.900      7.106        382 4.1664e+00   999.5620 0.0000e+00
      5.010    11.8159     3.8448     35.358  30.812673     41.873      8.119   253.2909     1.3051     7.7925     0.0221      0.059      4.914      7.126        383 4.0496e+00   999.5593 0.0000e+00
      5.024    11.7922     3.8128     35.045  30.769217     41.718      8.118   253.7452     1.3203     7.8502     0.0221      0.052      4.929      7.149        384 3.8475e+00   999.5589 0.0000e+00
      5.046    11.7699     3.8043     34.944  30.844313     41.927      8.113   254.2374     1.3394     7.7348     0.0221      0.049      4.947      7.175        385 3.7055e+00   999.5610 0.0000e+00
      5.064    11.7633     3.8163     35.040  30.837734     41.877      8.110   254.3509     1.1830     7.5185     0.0221      0.052      4.964      7.200        386 3.6486e+00   999.5637 0.0000e+00
      5.076    11.7540     3.8651     35.483  30.866295     41.981      8.109   254.2374     1.1754     7.5618     0.0221      0.056      4.977      7.219        387 3.5570e+00   999.5662 0.0000e+00
      5.086    11.7317     3.9293     36.061  30.927286     42.062      8.107   254.5781     1.2250     7.5906     0.0222      0.059      4.990      7.238        388 3.4668e+00   999.5671 0.0000e+00
      5.104    11.7051     4.0171     36.844  30.909974     42.035      8.104   254.5024     1.1945     7.6050     0.0222      0.060      5.007      7.263        389 3.3030e+00   999.5681 0.0000e+00
      5.129    11.6747     4.1241     37.803  30.917473     42.099      8.103   255.0324     1.2975     7.1724     0.0222      0.063      5.031      7.297        390 3.0862e+00   999.5707 0.0000e+00
      5.160    11.6453     4.2254     38.711  30.829079     41.977      8.098   255.1838     1.3165     7.0715     0.0221      0.069      5.058      7.336        391 2.9562e+00   999.5738 0.0000e+00
      5.185    11.6225     4.3077     39.447  30.723715     41.898      8.094   255.0702     1.3089     7.2445     0.0221      0.075      5.082      7.371        392 2.8356e+00   999.5772 0.0000e+00
      5.203    11.6035     4.3681     39.985  30.633828     41.780      8.091   255.3352     1.3432     7.1869     0.0220      0.079      5.101      7.398        393 2.7561e+00   999.5804 0.0000e+00
      5.216    11.5798     4.4332     40.573  30.615055     41.805      8.091   255.6759     1.3280     7.1003     0.0220      0.081      5.116      7.420        394 2.7113e+00   999.5830 0.0000e+00
      5.233    11.5513     4.4692     40.912  30.569323     41.751      8.085   255.4109     1.4844     7.2157     0.0220      0.083      5.131      7.443        395 2.6343e+00   999.5852 0.0000e+00
      5.248    11.5332     4.4931     41.143  30.512987     41.701      8.082   255.4866     1.5149     7.0571     0.0219      0.082      5.145      7.463        396 2.5902e+00   999.5879 0.0000e+00
      5.258    11.5272     4.4969     41.185  30.507414     41.734      8.081   256.0166     1.5073     7.1003     0.0219      0.075      5.157      7.480        397 2.5318e+00   999.5910 0.0000e+00
      5.272    11.5129     4.4856     41.080  30.457762     41.679      8.079   256.3574     1.5111     7.1869     0.0219      0.067      5.171      7.499        398 2.4856e+00   999.5930 0.0000e+00
      5.289    11.4866     4.4446     40.702  30.456276     41.685      8.079   256.8116     1.1258     6.9129     0.0219      0.060      5.185      7.520        399 2.4255e+00   999.5937 0.0000e+00
      5.301    11.4601     4.3963     40.273  30.450012     41.701      8.075   257.1902     1.1411     6.9129     0.0219      0.056      5.198      7.539        400 2.3698e+00   999.5953 0.0000e+00
      5.313    11.4367     4.3477     39.833  30.465564     41.732      8.075   257.3038     1.1449     6.9561     0.0219      0.054      5.212      7.559        401 2.3193e+00   999.5982 0.0000e+00
      5.330    11.4173     4.3072     39.461  30.436933     41.762      8.069   257.3038     1.1449     6.9273     0.0219      0.054      5.229      7.584        402 2.2167e+00   999.6011 0.0000e+00
      5.352    11.4011     4.2621     39.051  30.426401     41.712      8.068   257.5688     1.0991     7.4032     0.0219      0.056      5.250      7.614        403 2.0953e+00   999.6037 0.0000e+00
      5.377    11.3937     4.2311     38.777  30.597191     42.041      8.067   257.9852     1.0762     7.4032     0.0220      0.061      5.273      7.648        404 1.9688e+00   999.6059 0.0000e+00
      5.402    11.4026     4.2152     38.628  30.698429     42.136      8.066   258.0988     1.0571     7.4320     0.0220      0.069      5.296      7.681        405 1.8936e+00   999.6079 0.0000e+00
      5.422    11.4153     4.2157     38.617  30.655942     42.146      8.063   258.3259     1.1105     7.3743     0.0220      0.074      5.316      7.710        406 1.8255e+00   999.6088 0.0000e+00
      5.439    11.4228     4.2206     38.635  30.590813     41.981      8.059   258.9695     1.2021     7.5906     0.0220      0.078      5.334      7.736        407 1.7477e+00   999.6078 0.0000e+00
      5.457    11.4213     4.2281     38.673  30.601715     42.043      8.060   259.0074     1.2021     7.5474     0.0220      0.081      5.350      7.759        408 1.6918e+00   999.6066 0.0000e+00
      5.470    11.4208     4.2254     38.629  30.583116     41.958      8.055   259.3481     1.2059     7.5618     0.0220      0.080      5.363      7.778        409 1.6759e+00   999.6058 0.0000e+00
      5.476    11.4326     4.2244     38.606  30.554703     41.959      8.053   259.4238     1.2021     7.6483     0.0220      0.074      5.370      7.789        410 1.6630e+00   999.6060 0.0000e+00
      5.481    11.4397     4.2266     38.608  30.577821     41.961      8.051   259.4995     0.8969     7.4176     0.0220      0.064      5.375      7.796        411 1.6699e+00   999.6061 0.0000e+00
      5.486    11.4380     4.2286     38.608  30.613600     42.022      8.047   260.1431     0.9007     7.3311     0.0220      0.053      5.381      7.805        412 1.6566e+00   999.6049 0.0000e+00
      5.495    11.4428     4.2235     38.547  30.628682     42.015      8.040   260.2188     0.8816     7.2734     0.0220      0.044      5.390      7.818        413 1.5849e+00   999.6042 0.0000e+00
      5.507    11.4521     4.2148     38.459  30.618303     42.017      8.038   260.2188     0.8855     7.4032     0.0220      0.038      5.401      7.834        414 1.5612e+00   999.6044 0.0000e+00
      5.521    11.4489     4.2108     38.423  30.567261     41.936      8.037   259.9917     0.8740     7.3166     0.0220      0.035      5.414      7.852        415 1.5393e+00   999.6040 0.0000e+00
      5.533    11.4320     4.2109     38.426  30.573694     41.923      8.036   260.4081     0.9541     6.9129     0.0220      0.035      5.427      7.871        416 1.4760e+00   999.6030 0.0000e+00
      5.548    11.4016     4.2116     38.430  30.610296     42.005      8.032   260.6352     0.9618     6.8552     0.0220      0.038      5.442      7.892        417 1.4485e+00   999.6034 0.0000e+00
      5.563    11.3669     4.2172     38.480  30.521711     41.870      8.030   260.2188     0.9694     6.9129     0.0219      0.044      5.457      7.915        418 1.4333e+00   999.6053 0.0000e+00
      5.582    11.3458     4.2228     38.530  30.506181     41.905      8.029   260.6352     0.9732     6.8119     0.0219      0.050      5.476      7.942        419 1.3632e+00   999.6087 0.0000e+00
      5.607    11.3294     4.2327     38.620  30.570380     42.023      8.030   260.3324     0.9160     6.7831     0.0220      0.058      5.498      7.975        420 1.2760e+00   999.6125 0.0000e+00
      5.631    11.3091     4.2471     38.744  30.560337     42.047      8.026   260.7867     0.8969     6.6533     0.0220      0.065      5.520      8.006        421 1.2387e+00   999.6148 0.0000e+00
      5.647    11.2889     4.2539     38.796  30.518690     41.989      8.022   260.9759     0.9198     6.5812     0.0219      0.070      5.537      8.030        422 1.2146e+00   999.6166 0.0000e+00
      5.661    11.2722     4.2663     38.903  30.503709     42.012      8.023   261.1652     0.8816     6.6533     0.0220      0.073      5.550      8.050        423 1.1833e+00   999.6188 0.0000e+00
      5.671    11.2634     4.2703     38.934  30.519734     42.036      8.020   261.7331     0.7977     6.5956     0.0220      0.072      5.561      8.066        424 1.1680e+00   999.6210 0.0000e+00
      5.681    11.2640     4.2756     38.979  30.498755     42.055      8.017   261.4302     0.7634     6.6533     0.0220      0.069      5.572      8.081        425 1.1530e+00   999.6228 0.0000e+00
      5.693    11.2647     4.2752     38.971  30.470571     41.989      8.016   261.5059     0.7863     6.7110     0.0219      0.064      5.582      8.096        426 1.1141e+00   999.6236 0.0000e+00
      5.701    11.2633     4.2669     38.890  30.495559     42.065      8.013   261.3545     0.7748     6.5956     0.0220      0.056      5.591      8.109        427 1.0954e+00   999.6237 0.0000e+00
      5.710    11.2619     4.2676     38.891  30.467658     41.987      8.009   261.7331     0.7519     7.1292     0.0219      0.048      5.600      8.123        428 1.0802e+00   999.6236 0.0000e+00
      5.723    11.2607     4.2576     38.796  30.446039     41.989      8.010   262.3388     0.8015     7.1436     0.0219      0.043      5.611      8.139        429 1.0631e+00   999.6238 0.0000e+00
      5.734    11.2602     4.2384     38.617  30.463210     41.990      8.005   262.3388     0.7596     7.1003     0.0219      0.041      5.623      8.155        430 1.0520e+00   999.6241 0.0000e+00
      5.745    11.2525     4.2129     38.382  30.446290     41.992      8.005   263.0202     0.7977     7.0715     0.0219      0.041      5.636      8.174        431 1.0210e+00   999.6242 0.0000e+00
      5.763    11.2413     4.1897     38.169  30.467097     41.992      8.004   262.9824     0.6795     7.1292     0.0219      0.043      5.653      8.199        432 9.8614e-01   999.6244 0.0000e+00
      5.785    11.2336     4.1684     37.976  30.555824     42.155      8.001   263.1717     0.6718     7.1724     0.0220      0.048      5.673      8.228        433 8.9947e-01   999.6254 0.0000e+00
      5.805    11.2281     4.1533     37.841  30.513634     42.091      7.999   263.3610     0.6909     7.2734     0.0220      0.054      5.692      8.257        434 8.8950e-01   999.6266 0.0000e+00
      5.824    11.2240     4.1580     37.889  30.460352     42.023      7.998   263.8152     0.6795     7.1580     0.0219      0.061      5.712      8.285        435 8.7699e-01   999.6275 0.0000e+00
      5.845    11.2191     4.1698     38.000  30.562883     42.184      7.996   263.8910     0.6909     7.1436     0.0220      0.067      5.732      8.313        436 8.0199e-01   999.6282 0.0000e+00
      5.864    11.2135     4.1821     38.111  30.623057     42.265      7.993   263.7017     0.7710     6.8696     0.0220      0.072      5.750      8.340        437 7.8184e-01   999.6287 0.0000e+00
      5.880    11.2077     4.1960     38.234  30.622486     42.271      7.990   264.0424     0.7634     6.9706     0.0220      0.075      5.766      8.362        438 7.5897e-01   999.6293 0.0000e+00
      5.894    11.2023     4.2106     38.365  30.563594     42.201      7.989   264.1938     0.7863     6.9417     0.0220      0.075      5.779      8.382        439 7.3957e-01   999.6299 0.0000e+00
      5.905    11.1986     4.2088     38.347  30.459333     42.053      7.986   264.4588     0.7901     6.8696     0.0219      0.071      5.792      8.400        440 7.3693e-01   999.6305 0.0000e+00
      5.920    11.1957     4.2115     38.364  30.396716     41.982      7.982   264.7238     0.8549     6.9273     0.0219      0.066      5.807      8.421        441 7.1381e-01   999.6310 0.0000e+00
      5.938    11.1938     4.2166     38.402  30.404506     41.987      7.980   265.1024     0.8321     6.9994     0.0219      0.063      5.822      8.444        442 6.8523e-01   999.6316 0.0000e+00
      5.951    11.1951     4.2061     38.299  30.449640     42.067      7.977   264.7995     0.8321     6.9129     0.0219      0.060      5.835      8.462        443 6.8626e-01   999.6320 0.0000e+00
      5.959    11.1982     4.1995     38.234  30.459056     42.069      7.975   265.1402     0.8321     6.9129     0.0219      0.056      5.845      8.477        444 6.7287e-01   999.6322 0.0000e+00
      5.972    11.2036     4.1838     38.086  30.511296     42.145      7.973   265.1024     0.7748     6.8119     0.0220      0.053      5.857      8.495        445 6.5238e-01   999.6322 0.0000e+00
      5.987    11.2079     4.1650     37.914  30.562390     42.218      7.973   264.9510     0.7786     6.9417     0.0220      0.052      5.872      8.517        446 6.2618e-01   999.6320 0.0000e+00
      6.004    11.2064     4.1410     37.694  30.513978     42.135      7.967   264.8374     0.7939     6.9273     0.0220      0.053      5.888      8.540        447 5.8295e-01   999.6314 0.0000e+00
      6.022    11.2021     4.1155     37.459  30.453034     42.053      7.966   265.1024     0.7786     6.7831     0.0219      0.055      5.903      8.562        448 6.0266e-01   999.6310 0.0000e+00
      6.033    11.1995     4.0895     37.219  30.460469     42.055      7.964   265.1024     0.7748     6.5812     0.0219      0.055      5.916      8.581        449 6.2547e-01   999.6312 0.0000e+00
      6.046    11.1969     4.0702     37.043  30.504726     42.137      7.962   265.2160     0.7825     6.8119     0.0220      0.055      5.929      8.599        450 6.0019e-01   999.6318 0.0000e+00
      6.058    11.1900     4.0630     36.976  30.575723     42.217      7.960   265.5188     0.7825     6.7254     0.0220      0.055      5.940      8.615        451 6.0052e-01   999.6322 0.0000e+00
      6.067    11.1799     4.0406     36.769  30.609134     42.297      7.957   265.2160     0.7901     6.7831     0.0220      0.055      5.953      8.634        452 5.6683e-01   999.6326 0.0000e+00
      6.085    11.1710     4.0315     36.682  30.581656     42.228      7.955   265.5945     0.6947     6.6389     0.0220      0.054      5.972      8.661        453 5.1453e-01   999.6333 0.0000e+00
      6.114    11.1650     4.0188     36.562  30.609921     42.317      7.951   265.7460     0.6833     6.7687     0.0220      0.057      5.997      8.697        454 5.0014e-01   999.6346 0.0000e+00
      6.144    11.1611     4.0045     36.427  30.633218     42.328      7.949   266.0110     0.6833     6.7254     0.0220      0.063      6.023      8.736        455 4.6706e-01   999.6356 0.0000e+00
      6.168    11.1596     4.0028     36.404  30.611923     42.334      7.948   265.9731     0.7024     6.6966     0.0220      0.071      6.047      8.771        456 4.8761e-01   999.6363 0.0000e+00
      6.187    11.1581     3.9791     36.182  30.577170     42.262      7.947   266.3138     0.6566     6.6822     0.0220      0.079      6.068      8.801        457 4.7869e-01   999.6367 0.0000e+00
      6.210    11.1546     3.9635     36.032  30.617214     42.341      7.943   266.2381     0.6604     7.1436     0.0220      0.085      6.090      8.833        458 4.3105e-01   999.6370 0.0000e+00
      6.234    11.1510     3.9388     35.803  30.621345     42.342      7.942   266.0867     0.6833     7.2013     0.0220      0.091      6.114      8.867        459 4.3148e-01   999.6373 0.0000e+00
      6.258    11.1490     3.9153     35.581  30.631285     42.346      7.937   266.4652     0.7100     7.2301     0.0220      0.094      6.135      8.899        460 3.7941e-01   999.6378 0.0000e+00
      6.277    11.1477     3.8740     35.197  30.664101     42.428      7.936   266.5410     0.6871     7.1724     0.0221      0.093      6.154      8.926        461 3.6998e-01   999.6383 0.0000e+00
      6.292    11.1443     3.8236     34.733  30.639761     42.353      7.935   266.6545     0.6680     6.7254     0.0220      0.087      6.171      8.950        462 3.7927e-01   999.6385 0.0000e+00
      6.310    11.1389     3.7488     34.050  30.661574     42.432      7.932   266.8438     0.6566     6.6533     0.0221      0.082      6.188      8.975        463 3.6647e-01   999.6388 0.0000e+00
      6.329    11.1340     3.6442     33.096  30.755465     42.513      7.930   266.8438     0.6833     6.6533     0.0221      0.080      6.205      9.000        464 3.7127e-01   999.6393 0.0000e+00
      6.345    11.1278     3.5087     31.864  30.789564     42.635      7.929   266.6545     0.6718     6.6533     0.0221      0.077      6.222      9.024        465 3.6543e-01   999.6399 0.0000e+00
      6.360    11.1194     3.3553     30.471  30.767279     42.525      7.926   266.8060     0.8206     6.8840     0.0221      0.072      6.237      9.046        466 3.6147e-01   999.6405 0.0000e+00
      6.376    11.1109     3.1860     28.937  30.901712     42.803      7.921   267.0710     0.8435     6.9417     0.0222      0.068      6.253      9.069        467 3.4146e-01   999.6412 0.0000e+00
      6.393    11.1028     3.0080     27.326  31.007425     42.890      7.921   266.8817     0.8321     6.9273     0.0222      0.066      6.269      9.094        468 3.3885e-01   999.6422 0.0000e+00
      6.410    11.0960     2.8470     25.868  31.139395     43.132      7.916   266.7681     0.8473     6.9706     0.0223      0.066      6.288      9.121        469 3.3795e-01   999.6432 0.0000e+00
      6.434    11.0869     2.7113     24.636  31.270784     43.297      7.916   266.6167     0.9045     6.9561     0.0224      0.067      6.311      9.153        470 2.9849e-01   999.6443 0.0000e+00
      6.462    11.0759     2.6134     23.746  31.584622     43.730      7.915   266.5410     0.8893     6.8119     0.0226      0.071      6.334      9.185        471 2.9482e-01   999.6452 0.0000e+00
      6.478    11.0681     2.5671     23.327  31.963604     44.322      7.910   266.5410     0.8816     6.8408     0.0228      0.074      6.349      9.209        472 2.9809e-01   999.6464 0.0000e+00
      6.484    11.0625     2.5575     23.239  31.954673     44.258      7.904   266.4652     0.8893     6.8696     0.0228      0.073      6.358      9.223        473 2.5693e-01   999.6476 0.0000e+00
      6.492    11.0583     2.5774     23.418  32.040175     44.422      7.907   266.1624     0.8473     6.8840     0.0229      0.070      6.366      9.233        474 2.8033e-01   999.6485 0.0000e+00
      6.499    11.0562     2.6253     23.850  32.153496     44.584      7.902   266.3517     0.8473     6.9417     0.0230      0.064      6.373      9.243        475 2.8906e-01   999.6491 0.0000e+00
      6.504    11.0565     2.6812     24.356  32.139573     44.550      7.898   265.8974     0.8244     6.9129     0.0229      0.055      6.378      9.251        476 2.4995e-01   999.6496 0.0000e+00
      6.508    11.0619     2.7324     24.821  32.087132     44.514      7.896   266.2002     0.8206     6.8696     0.0229      0.045      6.382      9.256        477 2.7588e-01   999.6498 0.0000e+00
      6.511    11.0706     2.7737     25.198  31.952095     44.282      7.895   266.0867     0.8130     6.9561     0.0228      0.034      6.385      9.261        478 2.7468e-01   999.6497 0.0000e+00
      6.514    11.0774     2.7889     25.337  31.922444     44.275      7.890   266.1245     0.6833     6.7110     0.0228      0.024      6.388      9.266        479 2.5191e-01   999.6491 0.0000e+00
      6.519    11.0801     2.7676     25.143  31.946253     44.264      7.887   266.0867     0.6757     6.6245     0.0228      0.020      6.393      9.272        480 2.5617e-01   999.6483 0.0000e+00
      6.523    11.0807     2.7229     24.738  31.922461     44.256      7.885   265.9731     0.6718     6.6966     0.0228      0.018      6.397      9.278        481 2.6304e-01   999.6476 0.0000e+00
      6.528    11.0823     2.6621     24.188  31.892793     44.175      7.880   266.0488     0.6757     6.7254     0.0228      0.016      6.401      9.284        482 2.3753e-01   999.6473 0.0000e+00
      6.532    11.0822     2.5923     23.551  31.894286     44.213      7.877   266.3517     0.7100     6.8840     0.0228      0.016      6.406      9.291        483 2.4174e-01   999.6473 0.0000e+00
      6.537    11.0773     2.5369     23.046  32.009489     44.327      7.880   265.9731     0.7138     6.8264     0.0228      0.016      6.411      9.298        484 2.6909e-01   999.6472 0.0000e+00
      6.542    11.0709     2.5006     22.721  32.282752     44.753      7.874   265.8595     0.7100     6.9417     0.0230      0.017      6.415      9.303        485 2.3464e-01   999.6473 0.0000e+00
      6.544    11.0673     2.4921     22.650  32.472731     44.991      7.874   265.7838     0.7291     7.0282     0.0231      0.017      6.417      9.307        486 2.4340e-01   999.6479 0.0000e+00
      6.546    11.0682     2.4867     22.606  32.573069     45.154      7.869   265.8217     0.7100     7.2734     0.0232      0.016      6.419      9.310        487 2.5076e-01   999.6487 0.0000e+00
      6.547    11.0714     2.4871     22.612  32.513444     45.081      7.864   265.8974     0.7291     7.1003     0.0232      0.015      6.420      9.312        488 2.2942e-01   999.6490 0.0000e+00
      6.549    11.0735     2.4947     22.682  32.546934     45.080      7.864   266.0110     0.7024     7.0427     0.0232      0.013      6.422      9.315        489 2.3570e-01   999.6489 0.0000e+00
      6.551    11.0734     2.5362     23.060  32.472131     45.076      7.863   266.0867     0.7176     7.2445     0.0232      0.011      6.424      9.318        490 2.4233e-01   999.6485 0.0000e+00
      6.553    11.0744     2.5813     23.470  32.488014     44.918      7.859   265.8217     0.7405     7.1724     0.0231      0.009      6.426      9.321        491 2.2909e-01   999.6483 0.0000e+00
      6.556    11.0766     2.6282     23.896  31.964201     44.493      7.858   265.8974     0.7062     7.1580     0.0229      0.008      6.428      9.324        492 2.1010e-01   999.6481 0.0000e+00
      6.557    11.0731     2.6622     24.203  32.738820     44.995      7.856   265.8595     0.7214     7.2013     0.0231      0.008      6.430      9.327        493 2.2212e-01   999.6484 0.0000e+00
      6.560    11.0699     2.6645     24.221  35.109465     49.094      7.851   266.5410     0.7100     7.0859     0.0249      0.008      6.433      9.330        494 1.9323e-01   999.6494 0.0000e+00
      6.562    11.0781     2.6449     24.043  34.258772     47.241      7.854   266.7302     0.6795     7.8357     0.0241      0.008      6.436      9.334        495 1.4333e-01   999.6493 0.0000e+00
      6.566    11.0911     2.5915     23.565  32.434354     45.078      7.848   267.3360     0.7024     7.8069     0.0232      0.009      6.439      9.339        496 1.2820e-01   999.6488 0.0000e+00
      6.568    11.0998     2.5243     22.959  32.401791     44.758      7.850   267.4495     0.6833     7.8934     0.0230      0.009      6.441      9.342        497 1.3293e-01   999.6480 0.0000e+00
      6.569    11.1044     2.4268     22.072  32.669580     45.399      7.847   267.7524     0.6757     7.8069     0.0233      0.009      6.441      9.343        498 1.4177e-01   999.6468 0.0000e+00
      6.568    11.1071     2.3466     21.343  33.108518     45.698      7.845   267.3738     0.6566     7.8790     0.0235      0.009      6.441      9.343        499 1.2865e-01   999.6461 0.0000e+00
      6.569    11.1076     2.2846     20.781  34.611253     48.012      7.846   267.6010     0.6489     7.8934     0.0245      0.007      6.442      9.344        500 1.3039e-01   999.6463 0.0000e+00
      6.569    11.1071     2.2639     20.594  35.629517     49.362      7.843   267.7145     0.6375     7.8934     0.0250      0.006      6.443      9.345        501 1.2782e-01   999.6465 0.0000e+00
      6.572    11.1064     2.2761     20.706  35.515789     49.129      7.844   267.5631     0.6184     7.8934     0.0249      0.005      6.444      9.347        502 1.2204e-01   999.6464 0.0000e+00
      6.573    11.1027     2.3015     20.938  35.641797     49.401      7.837   267.7145     0.5879     7.7492     0.0251      0.004      6.446      9.349        503 1.2497e-01   999.6465 0.0000e+00
      6.574    11.0976     2.3519     21.397  35.591239     49.247      7.838   267.7524     0.7329     8.4414     0.0250      0.003      6.447      9.350        504 1.2330e-01   999.6465 0.0000e+00
      6.575    11.0993     2.4035     21.867  35.608344     49.330      7.835   267.7145     0.7100     8.5423     0.0250      0.003      6.448      9.353        505 1.2458e-01   999.6470 0.0000e+00
      6.579    11.1114     2.4495     22.287  35.057462     48.601      7.834   267.5252     0.7138     8.5856     0.0247      0.005      6.452      9.358        506 1.2356e-01   999.6472 0.0000e+00
      6.585    11.1212     2.4878     22.635  33.935757     46.937      7.833   267.5252     0.7062     8.4702     0.0240      0.007      6.457      9.365        507 1.2365e-01   999.6465 0.0000e+00
      6.588    11.1213     2.5098     22.835  33.448329     46.340      7.831   267.2981     0.7024     8.5856     0.0237      0.009      6.461      9.371        508 1.2355e-01   999.6451 0.0000e+00
      6.593    11.1212     2.5187     22.918  33.441623     46.250      7.830   267.2224     0.7138     8.5856     0.0237      0.011      6.465      9.377        509 1.2372e-01   999.6442 0.0000e+00
      6.597    11.1255     2.5302     23.025  33.381098     46.250      7.828   267.5252     0.7100     8.4846     0.0237      0.013      6.468      9.382        510 1.2367e-01   999.6441 0.0000e+00
      6.597    11.1292     2.5214     22.945  33.405126     46.174      7.828   268.1310     0.7176     8.4991     0.0237      0.014      6.470      9.385        511 1.2355e-01   999.6441 0.0000e+00
      6.601    11.1310     2.5156     22.892  33.708036     46.709      7.826   268.3960     0.7252     8.5567     0.0239      0.014      6.473      9.389        512 1.2349e-01   999.6438 0.0000e+00
      6.604    11.1332     2.5085     22.828  33.863447     46.820      7.824   268.0174     0.7062     8.3981     0.0240      0.014      6.476      9.393        513 1.2353e-01   999.6435 0.0000e+00
      6.605    11.1349     2.5001     22.750  33.863615     46.895      7.823   267.8281     0.7138     8.4991     0.0240      0.013      6.479      9.397        514 1.2360e-01   999.6434 0.0000e+00
      6.611    11.1353     2.4935     22.693  33.796720     46.738      7.823   268.2824     0.7405     8.5423     0.0239      0.012      6.483      9.403        515 1.2357e-01   999.6431 0.0000e+00
      6.616    11.1362     2.4968     22.728  33.709640     46.658      7.819   268.2445     0.6757     9.8834     0.0239      0.012      6.487      9.409        516 1.2349e-01   999.6429 0.0000e+00
      6.617    11.1363     2.5005     22.763  33.794194     46.735      7.817   268.0553     0.7252     9.8834     0.0239      0.012      6.490      9.412        517 1.2355e-01   999.6429 0.0000e+00
      6.618    11.1378     2.5018     22.773  34.017446     47.081      7.814   268.1310     0.7443     9.8545     0.0241      0.012      6.490      9.413        518 1.2359e-01   999.6429 0.0000e+00
      6.619    11.1416     2.5336     23.057  33.994814     47.043      7.815   268.0174     0.7214     9.8401     0.0241      0.012      6.491      9.415        519 1.2361e-01   999.6429 0.0000e+00
      6.622    11.1440     2.5414     23.125  33.911254     46.886      7.812   268.2445     0.7100     9.9410     0.0240      0.011      6.494      9.419        520 1.2355e-01   999.6428 0.0000e+00
      6.625    11.1446     2.5682     23.367  33.973273     47.036      7.809   268.1688     1.1258    10.9648     0.0241      0.010      6.498      9.424        521 1.2352e-01   999.6424 0.0000e+00
      6.631    11.1449     2.5885     23.549  33.917632     46.878      7.807   268.6988     1.1029    10.9793     0.0240      0.011      6.503      9.432        522 1.2348e-01   999.6421 0.0000e+00
      6.636    11.1450     2.5996     23.646  33.861971     46.877      7.808   268.8503     1.1525    11.0514     0.0240      0.011      6.508      9.438        523 1.2331e-01   999.6421 0.0000e+00
      6.640    11.1445     2.6030     23.674  33.953647     46.916      7.805   269.3045     1.1792    11.0802     0.0240      0.012      6.511      9.443        524 1.2345e-01   999.6421 0.0000e+00
      6.642    11.1493     2.6007     23.652  34.010967     47.108      7.802   269.0395     0.7901    13.7190     0.0241      0.014      6.513      9.446        525 1.2363e-01   999.6421 0.0000e+00
      6.642    11.1579     2.5859     23.519  33.879533     46.800      7.805   269.1910     0.7825    13.6181     0.0239      0.014      6.514      9.448        526 1.2365e-01   999.6421 0.0000e+00
      6.644    11.1613     2.5660     23.340  33.850524     46.871      7.800   269.7210     0.7710    13.7767     0.0240      0.013      6.515      9.450        527 1.2364e-01   999.6417 0.0000e+00
      6.644    11.1571     2.5342     23.052  33.987800     46.937      7.800   269.6453     0.7977    13.7479     0.0240      0.011      6.515      9.450        528 1.2351e-01   999.6408 0.0000e+00
      6.644    11.1477     2.5129     22.858  34.212442     47.357      7.798   269.6831     1.1487    14.8149     0.0242      0.008      6.515      9.450        529 1.2340e-01   999.6406 0.0000e+00
      6.645    11.1402     2.5090     22.824  34.608097     47.788      7.796   270.1374     1.1372    14.8293     0.0244      0.006      6.516      9.451        530 1.2352e-01   999.6412 0.0000e+00
      6.645    11.1370     2.5146     22.881  34.947427     48.418      7.796   270.3267     1.1411    14.8293     0.0247      0.004      6.516      9.451        531 1.2371e-01   999.6424 0.0000e+00
      6.645    11.1325     2.5231     22.963  35.064383     48.429      7.795   270.4024     1.1411    14.8870     0.0247      0.002      6.517      9.451        532 1.2358e-01   999.6433 0.0000e+00
      6.645    11.1259     2.5478     23.188  35.203387     48.780      7.792   270.3645     1.0228    12.6087     0.0248      0.002      6.517      9.451        533 1.2347e-01   999.6436 0.0000e+00
      6.645    11.1199     2.5862     23.538  35.307849     48.786      7.793   270.4024     1.0075    12.5366     0.0248      0.001      6.517      9.451        534 1.2342e-01   999.6441 0.0000e+00
      6.645    11.1178     2.6550     24.162  35.141820     48.718      7.792   270.2131     1.0266    12.5366     0.0248      0.001      6.517      9.451        535 1.2347e-01   999.6447 0.0000e+00
      6.645    11.1200     2.7519     25.042  34.846970     48.146      7.791   270.7431     0.9961    12.5222     0.0245      0.001      6.517      9.451        536 1.2366e-01   999.6451 0.0000e+00
      6.645    11.1241     2.8688     26.104  34.726511     48.149      7.790   270.6674     0.9045    12.6952     0.0245      0.000      6.517      9.451        537 1.2356e-01   999.6453 0.0000e+00
      6.645    11.1265     3.0030     27.328  34.847226     48.146      7.785   270.4403     0.8931    12.7529     0.0245      0.000      6.517      9.451        538 1.2346e-01   999.6452 0.0000e+00
      6.645    11.1268     3.1358     28.540  35.319049     48.952      7.788   270.8567     0.8931    12.5222     0.0249      0.000      6.517      9.451        539 1.2347e-01   999.6450 0.0000e+00
      6.645    11.1298     3.2732     29.791  35.650661     49.297      7.785   270.7810     0.9045    12.5078     0.0250     -0.000      6.517      9.451        540 1.2360e-01   999.6448 0.0000e+00
      6.645    11.1401     3.3850     30.805  34.967952     48.485      7.784   270.6295     0.8969    12.5510     0.0247     -0.000      6.517      9.451        541 1.2344e-01   999.6444 0.0000e+00
      6.645    11.1498 -9.990e-29 -9.990e-29  33.590583     46.394      7.783   271.1217     0.9732    12.5654     0.0238      0.000      6.517      9.451        542 1.2342e-01   999.6436 0.0000e+00
      6.645    11.1512 -9.990e-29 -9.990e-29  32.801358     45.415      7.781   271.0081     0.9656    12.7241     0.0233      0.000      6.517      9.451        543 1.2358e-01   999.6421 0.0000e+00
      6.645    11.1505 -9.990e-29 -9.990e-29  32.601744     45.055      7.781   271.7653     0.9618    12.5510     0.0232      0.000      6.517      9.451        544 1.2346e-01   999.6411 0.0000e+00
      6.645    11.1478 -9.990e-29 -9.990e-29  32.327837     44.745      7.779   271.7274     0.9694    12.5799     0.0231      0.000      6.517      9.452        545 1.2356e-01   999.6408 0.0000e+00
      6.645    11.1435 -9.990e-29 -9.990e-29  32.401476     44.745      7.778   272.2195     1.4539    15.8387     0.0231      0.000      6.517      9.452        546 1.2341e-01   999.6408 0.0000e+00
      6.645    11.1423 -9.990e-29 -9.990e-29  32.776773     45.406      7.780   272.1438     1.4691    15.8243     0.0233      0.000      6.517      9.452        547 1.2346e-01   999.6413 0.0000e+00
      6.646    11.1455 -9.990e-29 -9.990e-29  32.542279     44.986      7.775   272.4845     1.4729    15.8387     0.0232      0.000      6.517      9.452        548 1.2376e-01   999.6416 0.0000e+00
      6.646    11.1506 -9.990e-29 -9.990e-29  32.485888     44.911      7.773   272.6360     1.4386    15.6657     0.0231      0.000      6.518      9.453        549 1.2365e-01   999.6417 0.0000e+00
      6.646    11.1501 -9.990e-29 -9.990e-29  32.906212     45.563      7.772   272.7117     1.6217    12.7241     0.0234      0.000      6.518      9.453        550 1.2357e-01   999.6416 0.0000e+00
      6.646    11.1473 -9.990e-29 -9.990e-29  33.085884     45.711      7.771   272.7874     1.6408    12.8394     0.0235      0.000      6.518      9.453        551 1.2347e-01   999.6412 0.0000e+00
      6.646 -9.990e-29 -9.990e-29 -9.990e-29  33.003050     45.711      7.770   272.6738     1.6408    12.8538     0.0235      0.001      6.518      9.453        552 1.2347e-01   999.6412 0.0000e+00
      6.647 -9.990e-29 -9.990e-29 -9.990e-29  32.831516     45.330      7.770   272.8631     1.6255    12.8538     0.0233      0.001      6.518      9.453        553 1.2359e-01   999.6414 0.0000e+00
