* Sea-Bird SBE19plus  Data File:
* FileName = C:\DATA\060619_fcr50_3.hex
* Software version 2.8.0.119
* Temperature SN = 7809
* Conductivity SN = 7809
* System UpLoad Time = Jun 06 2019 16:26:59
* <ApplicationData>
* <Seaterm232>
* <SoftwareVersion>2.8.0.119</SoftwareVersion>
* <BuildDate>07-Nov-2018</BuildDate>
* </Seaterm232>
* </ApplicationData>
* <InstrumentState>
* <HardwareData DeviceType='SBE19plus' SerialNumber='01907809'>
*
*    <Manufacturer>Sea-Bird Electronics, Inc.</Manufacturer>
*
*    <FirmwareVersion>3.1.8</FirmwareVersion>
*
*    <FirmwareDate>Mar  9 2016 16:22:29</FirmwareDate>
*
*    <CommandSetVersion>1.4</CommandSetVersion>
*
*    <PCBAssembly PCBSerialNum='120721' AssemblyNum='41054J'/>
*
*    <PCBAssembly PCBSerialNum='120715' AssemblyNum='41967A'/>
*
*    <PCBAssembly PCBSerialNum='116699' AssemblyNum='41606'/>
*
*    <PCBAssembly PCBSerialNum='120719' AssemblyNum='41059D'/>
*
*    <MfgDate>28-Apr-2017</MfgDate>
*
*    <InternalSensors>
*
*       <Sensor id='Main Temperature'>
*
*          <type>temperature0</type>
*
*          <SerialNumber>01907809</SerialNumber>
*
*       </Sensor>
*
*       <Sensor id='Main Conductivity'>
*
*          <type>conductivity-0</type>
*
*          <SerialNumber>01907809</SerialNumber>
*
*       </Sensor>
*
*       <Sensor id='Main Pressure'>
*
*          <type>strain-0</type>
*
*          <SerialNumber>10586018</SerialNumber>
*
*       </Sensor>
*
*    </InternalSensors>
*
*    <ExternalSensors>
*
*       <Sensor id='volt 0'>
*
*          <type>pH</type>
*
*          <SerialNumber>27-0363</SerialNumber>
*
*       </Sensor>
*
*       <Sensor id='volt 1'>
*
*          <type>ORP</type>
*
*          <SerialNumber>27-0363</SerialNumber>
*
*       </Sensor>
*
*       <Sensor id='volt 2'>
*
*          <type>OXY</type>
*
*          <SerialNumber>43-0434</SerialNumber>
*
*       </Sensor>
*
*       <Sensor id='volt 3'>
*
*          <type>PAR</type>
*
*          <SerialNumber>1122</SerialNumber>
*
*       </Sensor>
*
*       <Sensor id='volt 4'>
*
*          <type>ECO AFL/FL</type>
*
*          <SerialNumber>FLNTURT-2496</SerialNumber>
*
*       </Sensor>
*
*       <Sensor id='volt 5'>
*
*          <type>ECO-NTU</type>
*
*          <SerialNumber>FLNTURT-2496</SerialNumber>
*
*       </Sensor>
*
*       <Sensor id='serial'>
*
*          <type>not assigned</type>
*
*          <SerialNumber>not assigned</SerialNumber>
*
*       </Sensor>
*
*    </ExternalSensors>
*
* </HardwareData>
* <StatusData DeviceType='SBE19plus' SerialNumber='01907809'>
*
*    <DateTime>2019-06-06T16:26:25</DateTime>
*
*    <LoggingState>not logging</LoggingState>
*
*    <EventSummary numEvents='0'/>
*
*    <Power>
*
*       <vMain>13.4</vMain>
*
*       <vLith>8.7</vLith>
*
*       <iMain>63.2</iMain>
*
*       <iPump>51.7</iPump>
*
*       <iExt01>19.1</iExt01>
*
*       <iExt2345>34.6</iExt2345>
*
*    </Power>
*
*    <MemorySummary>
*
*       <Bytes>38410</Bytes>
*
*       <Samples>1670</Samples>
*
*       <SamplesFree>2859118</SamplesFree>
*
*       <SampleLength>23</SampleLength>
*
*       <Profiles>2</Profiles>
*
*    </MemorySummary>
*
* </StatusData>
* <ConfigurationData DeviceType='SBE19plus' SerialNumber='01907809'>
*
*    <ProfileMode>
*
*       <ScansToAverage>1</ScansToAverage>
*
*       <MinimumCondFreq>5</MinimumCondFreq>
*
*       <PumpDelay>45</PumpDelay>
*
*       <AutoRun>no</AutoRun>
*
*       <IgnoreSwitch>no</IgnoreSwitch>
*
*    </ProfileMode>
*
*    <Battery>
*
*       <Type>alkaline</Type>
*
*       <CutOff>7.5</CutOff>
*
*    </Battery>
*
*    <DataChannels>
*
*       <ExtVolt0>yes</ExtVolt0>
*
*       <ExtVolt1>yes</ExtVolt1>
*
*       <ExtVolt2>yes</ExtVolt2>
*
*       <ExtVolt3>yes</ExtVolt3>
*
*       <ExtVolt4>yes</ExtVolt4>
*
*       <ExtVolt5>yes</ExtVolt5>
*
*       <SBE38>no</SBE38>
*
*       <WETLABS>no</WETLABS>
*
*       <OPTODE>no</OPTODE>
*
*       <SBE63>no</SBE63>
*
*       <SeaFET>no</SeaFET>
*
*       <GTD>no</GTD>
*
*    </DataChannels>
*
*    <EchoCharacters>yes</EchoCharacters>
*
*    <OutputExecutedTag>yes</OutputExecutedTag>
*
*    <OutputFormat>raw HEX</OutputFormat>
*
* </ConfigurationData>
* <CalibrationCoefficients DeviceType='SBE19plus' SerialNumber='01907809'>
*
*    <Calibration format='TEMP1' id='Main Temperature'>
*
*       <SerialNum>01907809</SerialNum>
*
*       <CalDate>24-Mar-19</CalDate>
*
*       <TA0>1.217923e-03</TA0>
*
*       <TA1>2.816693e-04</TA1>
*
*       <TA2>-1.603333e-06</TA2>
*
*       <TA3>1.984146e-07</TA3>
*
*       <TOFFSET>0.000000e+00</TOFFSET>
*
*    </Calibration>
*
*    <Calibration format='WBCOND0' id='Main Conductivity'>
*
*       <SerialNum>01907809</SerialNum>
*
*       <CalDate>24-Mar-19</CalDate>
*
*       <G>-1.005893e+00</G>
*
*       <H>1.268163e-01</H>
*
*       <I>-1.515604e-04</I>
*
*       <J>2.671373e-05</J>
*
*       <CPCOR>-9.570000e-08</CPCOR>
*
*       <CTCOR>3.250000e-06</CTCOR>
*
*       <CSLOPE>1.000000e+00</CSLOPE>
*
*    </Calibration>
*
*    <Calibration format='STRAIN0' id='Main Pressure'>
*
*       <SerialNum>10586018</SerialNum>
*
*       <CalDate>11-Mar-19</CalDate>
*
*       <PA0>4.565618e-02</PA0>
*
*       <PA1>4.850951e-04</PA1>
*
*       <PA2>-2.883271e-12</PA2>
*
*       <PTCA0>5.252467e+05</PTCA0>
*
*       <PTCA1>1.223042e+01</PTCA1>
*
*       <PTCA2>-3.567450e-01</PTCA2>
*
*       <PTCB0>2.516687e+01</PTCB0>
*
*       <PTCB1>3.750000e-04</PTCB1>
*
*       <PTCB2>0.000000e+00</PTCB2>
*
*       <PTEMPA0>-5.487846e+01</PTEMPA0>
*
*       <PTEMPA1>5.537568e+01</PTEMPA1>
*
*       <PTEMPA2>-5.867271e-01</PTEMPA2>
*
*       <POFFSET>7.140000e-01</POFFSET>
*
*       <PRANGE>1.600000e+02</PRANGE>
*
*    </Calibration>
*
*    <Calibration format='VOLT0' id='Volt 0'>
*
*       <OFFSET>-4.920000e-02</OFFSET>
*
*       <SLOPE>1.248122e+00</SLOPE>
*
*    </Calibration>
*
*    <Calibration format='VOLT0' id='Volt 1'>
*
*       <OFFSET>-4.784000e-02</OFFSET>
*
*       <SLOPE>1.248871e+00</SLOPE>
*
*    </Calibration>
*
*    <Calibration format='VOLT0' id='Volt 2'>
*
*       <OFFSET>-4.864632e-02</OFFSET>
*
*       <SLOPE>1.248714e+00</SLOPE>
*
*    </Calibration>
*
*    <Calibration format='VOLT0' id='Volt 3'>
*
*       <OFFSET>-4.743790e-02</OFFSET>
*
*       <SLOPE>1.248571e+00</SLOPE>
*
*    </Calibration>
*
*    <Calibration format='VOLT0' id='Volt 4'>
*
*       <OFFSET>-4.671263e-02</OFFSET>
*
*       <SLOPE>1.248951e+00</SLOPE>
*
*    </Calibration>
*
*    <Calibration format='VOLT0' id='Volt 5'>
*
*       <OFFSET>-4.871053e-02</OFFSET>
*
*       <SLOPE>1.249136e+00</SLOPE>
*
*    </Calibration>
*
*    <Calibration format='FREQ0' id='external frequency channel'>
*
*       <EXTFREQSF>1.000014e+00</EXTFREQSF>
*
*    </Calibration>
*
* </CalibrationCoefficients>
* <EventCounters DeviceType='SBE19plus' SerialNumber='01907809'>
*
*    <EventSummary numEvents='0'/>
*
* </EventCounters></InstrumentState>
* <Headers>
*
* cast   2 06 Jun 2019 15:56:07 samples 792 to 1670, avg = 1, stop = mag switch
*
# nquan = 18
# nvalues = 771                         
# units = specified
# name 0 = depFM: Depth [fresh water, m]
# name 1 = tv290C: Temperature [ITS-90, deg C]
# name 2 = sbeox0Mg/L: Oxygen, SBE 43 [mg/l]
# name 3 = sbeox0PS: Oxygen, SBE 43 [% saturation]
# name 4 = c0uS/cm: Conductivity [uS/cm]
# name 5 = specc: Specific Conductance [uS/cm]
# name 6 = ph: pH
# name 7 = orp: Oxidation Reduction Potential [mV]
# name 8 = flECO-AFL: Fluorescence, WET Labs ECO-AFL/FL [mg/m^3]
# name 9 = turbWETntu0: Turbidity, WET Labs ECO [NTU]
# name 10 = sal00: Salinity, Practical [PSU]
# name 11 = dz/dtM: Descent Rate [m/s]
# name 12 = prdM: Pressure, Strain Gauge [db]
# name 13 = prdE: Pressure, Strain Gauge [psi]
# name 14 = scan: Scan Count
# name 15 = par/sat/log: PAR/Logarithmic, Satlantic
# name 16 = density00: Density [density, kg/m^3]
# name 17 = flag:  0.000e+00
# span 0 =     -0.647,      9.534       
# span 1 =     9.5498,    32.1822       
# span 2 =     4.2701,    13.7960       
# span 3 =     37.609,    148.458       
# span 4 =  -0.314977,  37.281934       
# span 5 =      0.283,     35.624       
# span 6 =     -2.115,     10.748       
# span 7 = -1240.7455,  1240.2295       
# span 8 =    -1.2279,     6.6610       
# span 9 =    -2.0130,    22.0681       
# span 10 =     0.0142,     0.0245      
# span 11 =     -0.171,      0.163      
# span 12 =     -0.634,      9.349      
# span 13 =     -0.919,     13.559      
# span 14 =          1,        771      
# span 15 = 1.2292e-01, 2.2150e+03      
# span 16 =   994.9764,   999.7992      
# span 17 = 0.0000e+00, 0.0000e+00      
# interval = seconds: 0.25
# start_time = Jun 06 2019 15:56:07 [Instrument's time stamp, header]
# bad_flag = -9.990e-29
# <Sensors count="9" >
#   <sensor Channel="1" >
#     <!-- Count, Temperature -->
#     <TemperatureSensor SensorID="58" >
#       <SerialNumber>7809</SerialNumber>
#       <CalibrationDate>24-Mar-19</CalibrationDate>
#       <A0>1.21792325e-003</A0>
#       <A1>2.81669265e-004</A1>
#       <A2>-1.60333336e-006</A2>
#       <A3>1.98414625e-007</A3>
#       <Slope>1.00000000</Slope>
#       <Offset>0.0000</Offset>
#     </TemperatureSensor>
#   </sensor>
#   <sensor Channel="2" >
#     <!-- Frequency 0, Conductivity -->
#     <ConductivitySensor SensorID="3" >
#       <SerialNumber>7809</SerialNumber>
#       <CalibrationDate>24-Mar-19</CalibrationDate>
#       <UseG_J>1</UseG_J>
#       <!-- Cell const and series R are applicable only for wide range sensors. -->
#       <SeriesR>0.0000</SeriesR>
#       <CellConst>2000.0000</CellConst>
#       <ConductivityType>0</ConductivityType>
#       <Coefficients equation="0" >
#         <A>0.00000000e+000</A>
#         <B>0.00000000e+000</B>
#         <C>0.00000000e+000</C>
#         <D>0.00000000e+000</D>
#         <M>0.0</M>
#         <CPcor>-9.57000000e-008</CPcor>
#       </Coefficients>
#       <Coefficients equation="1" >
#         <G>-1.00589325e+000</G>
#         <H>1.26816302e-001</H>
#         <I>-1.51560448e-004</I>
#         <J>2.67137274e-005</J>
#         <CPcor>-9.57000000e-008</CPcor>
#         <CTcor>3.2500e-006</CTcor>
#         <!-- WBOTC not applicable unless ConductivityType = 1. -->
#         <WBOTC>0.00000000e+000</WBOTC>
#       </Coefficients>
#       <Slope>1.00000000</Slope>
#       <Offset>0.00000</Offset>
#     </ConductivitySensor>
#   </sensor>
#   <sensor Channel="3" >
#     <!-- Count, Pressure, Strain Gauge -->
#     <PressureSensor SensorID="46" >
#       <SerialNumber>7809</SerialNumber>
#       <CalibrationDate>11-Mar-19</CalibrationDate>
#       <PA0>4.56561833e-002</PA0>
#       <PA1>4.85095118e-004</PA1>
#       <PA2>-2.88327090e-012</PA2>
#       <PTEMPA0>-5.48784562e+001</PTEMPA0>
#       <PTEMPA1>5.53756816e+001</PTEMPA1>
#       <PTEMPA2>-5.86727098e-001</PTEMPA2>
#       <PTCA0>5.25246745e+005</PTCA0>
#       <PTCA1>1.22304214e+001</PTCA1>
#       <PTCA2>-3.56745036e-001</PTCA2>
#       <PTCB0>2.51668750e+001</PTCB0>
#       <PTCB1>3.75000000e-004</PTCB1>
#       <PTCB2>0.00000000e+000</PTCB2>
#       <Offset>0.000000</Offset>
#     </PressureSensor>
#   </sensor>
#   <sensor Channel="4" >
#     <!-- A/D voltage 0, Oxygen, SBE 43 -->
#     <OxygenSensor SensorID="38" >
#       <SerialNumber>0434</SerialNumber>
#       <CalibrationDate>13-Apr-19</CalibrationDate>
#       <Use2007Equation>1</Use2007Equation>
#       <CalibrationCoefficients equation="0" >
#         <!-- Coefficients for Owens-Millard equation. -->
#         <Boc>0.0000</Boc>
#         <Soc>0.0000e+000</Soc>
#         <offset>0.0000</offset>
#         <Pcor>0.00e+000</Pcor>
#         <Tcor>0.0000</Tcor>
#         <Tau>0.0</Tau>
#       </CalibrationCoefficients>
#       <CalibrationCoefficients equation="1" >
#         <!-- Coefficients for Sea-Bird equation - SBE calibration in 2007 and later. -->
#         <Soc>4.2007e-001</Soc>
#         <offset>-0.6109</offset>
#         <A>-4.3656e-003</A>
#         <B> 1.7017e-004</B>
#         <C>-2.5341e-006</C>
#         <D0> 2.5826e+000</D0>
#         <D1> 1.92634e-004</D1>
#         <D2>-4.64803e-002</D2>
#         <E> 3.6000e-002</E>
#         <Tau20> 1.1800</Tau20>
#         <H1>-3.3000e-002</H1>
#         <H2> 5.0000e+003</H2>
#         <H3> 1.4500e+003</H3>
#       </CalibrationCoefficients>
#     </OxygenSensor>
#   </sensor>
#   <sensor Channel="5" >
#     <!-- A/D voltage 1, PAR/Logarithmic, Satlantic -->
#     <PARLog_SatlanticSensor SensorID="76" >
#       <SerialNumber>1122</SerialNumber>
#       <CalibrationDate>08-May-2019</CalibrationDate>
#       <a0>9.7456e-001</a0>
#       <a1>8.1640e-001</a1>
#       <Im>1.3589e+000</Im>
#       <Multiplier>1.0000e+000</Multiplier>
#     </PARLog_SatlanticSensor>
#   </sensor>
#   <sensor Channel="6" >
#     <!-- A/D voltage 2, pH -->
#     <pH_Sensor SensorID="43" >
#       <SerialNumber>0363</SerialNumber>
#       <CalibrationDate>15-Apr-19</CalibrationDate>
#       <Slope>4.5952</Slope>
#       <Offset>2.5370</Offset>
#     </pH_Sensor>
#   </sensor>
#   <sensor Channel="7" >
#     <!-- A/D voltage 3, Oxidation Reduction Potential -->
#     <OxidationReductionPotentialSensor SensorID="41" >
#       <SerialNumber>0363</SerialNumber>
#       <CalibrationDate>15-Apr-19</CalibrationDate>
#       <B>2.499480</B>
#       <M>-0.496195</M>
#       <Offset>0.0</Offset>
#     </OxidationReductionPotentialSensor>
#   </sensor>
#   <sensor Channel="8" >
#     <!-- A/D voltage 4, Fluorometer, WET Labs ECO-AFL/FL -->
#     <FluoroWetlabECO_AFL_FL_Sensor SensorID="20" >
#       <SerialNumber>FLNTURT-2496</SerialNumber>
#       <CalibrationDate>08-May-2019</CalibrationDate>
#       <ScaleFactor>5.00000000e+001</ScaleFactor>
#       <!-- Dark output -->
#       <Vblank>0.0550</Vblank>
#     </FluoroWetlabECO_AFL_FL_Sensor>
#   </sensor>
#   <sensor Channel="9" >
#     <!-- A/D voltage 5, Turbidity Meter, WET Labs, ECO-NTU -->
#     <TurbidityMeter SensorID="67" >
#       <SerialNumber>FLNTURT-2496</SerialNumber>
#       <CalibrationDate>08-May-2019</CalibrationDate>
#       <ScaleFactor>189.000000</ScaleFactor>
#       <!-- Dark output -->
#       <DarkVoltage>0.071000</DarkVoltage>
#     </TurbidityMeter>
#   </sensor>
# </Sensors>
# datcnv_date = Jun 06 2019 16:30:09, 7.26.7.129 [datcnv_vars = 17]
# datcnv_in = C:\DATA\060619_fcr50_3.hex C:\DATA\SBE19plusV2_7809.xmlcon
# datcnv_skipover = 0
# datcnv_ox_hysteresis_correction = yes
# datcnv_ox_tau_correction = yes
# filter_date = Jun 06 2019 16:31:02, 7.26.7.129
# filter_in = C:\DATA\060619_fcr50_3.cnv
# filter_low_pass_tc_A = 0.030
# filter_low_pass_tc_B = 0.150
# filter_low_pass_A_vars = tv290C c0uS/cm par/sat/log density00
# filter_low_pass_B_vars = prdM prdE
# alignctd_date = Jun 06 2019 16:31:29, 7.26.7.129
# alignctd_in = C:\DATA\060619_fcr50_3.cnv
# alignctd_adv = tv290C 0.500, sbeox0Mg/L 3.000, sbeox0PS 3.000                                                                                                                                                                      
# file_type = ascii
*END*
     -0.646    32.1822     6.8995     94.656   0.593691      0.527     -2.113 -1240.7455    -0.1140    -0.0519     0.0142      0.000     -0.634     -0.919          1 2.2068e+02   994.9764 0.0000e+00
     -0.647    32.1806     6.9014     94.682   0.616633      0.527     -2.113 -1240.7455    -0.1293    -0.1528     0.0142     -0.000     -0.634     -0.919          2 2.6565e+02   994.9769 0.0000e+00
     -0.646    32.1783     6.9013     94.682   0.520039      0.478     -0.594 -1240.7455    -0.1483    -0.0807     0.0142      0.000     -0.634     -0.919          3 1.6651e+02   994.9773 0.0000e+00
     -0.646    32.1750     6.9002     94.667   0.358931      0.283      0.568 -1240.7455    -0.0453     0.8854     0.0143      0.000     -0.634     -0.919          4 3.4381e+02   994.9779 0.0000e+00
     -0.646    32.1665     6.8968     94.621   0.521321      0.478      0.135 -1240.7455    -0.0606     0.7845     0.0142      0.000     -0.634     -0.919          5 2.0574e+02   994.9786 0.0000e+00
     -0.646    32.1531     6.8975     94.630   0.554594      0.478     -1.462 -1240.7455    -0.0759     0.7268     0.0142      0.000     -0.634     -0.919          6 8.1186e+02   994.9797 0.0000e+00
     -0.646    32.1428     6.8947     94.588   0.554170      0.478     -2.113 -1240.7455    -0.0682     0.7845     0.0142      0.000     -0.634     -0.919          7 1.6207e+03   994.9824 0.0000e+00
     -0.646    32.1367     6.8975     94.623   0.640173      0.576     -2.114 -1240.7455    -0.0453     0.8854     0.0142      0.000     -0.634     -0.919          8 6.6015e+02   994.9867 0.0000e+00
     -0.646    32.1317     6.8969     94.612   0.506727      0.429     -2.114 -1240.7455    -0.0224    -0.0230     0.0142      0.000     -0.634     -0.919          9 1.7128e+03   994.9900 0.0000e+00
     -0.646    32.1279     6.9055     94.635   0.483593      0.430     -2.114 -1240.7455    -0.0224    -0.1240     0.0142      0.000     -0.634     -0.919         10 1.8401e+03   994.9920 0.0000e+00
     -0.646    32.1278     7.0494     94.814   0.491477      0.430     -2.114 -1240.7455     0.0386    -0.0663     0.0142     -0.000     -0.634     -0.919         11 8.5233e+02   994.9935 0.0000e+00
     -0.646    32.1269     7.2428     95.056   0.437755      0.381     -2.114 -1240.7455     0.0271    -0.1816     0.0142     -0.000     -0.634     -0.919         12 1.6283e+03   994.9948 0.0000e+00
     -0.646    32.1292     7.3661     95.188   0.609611      0.527     -2.115 -1240.7455    -0.1903     1.9813     0.0142     -0.000     -0.634     -0.919         13 1.9599e+03   994.9947 0.0000e+00
     -0.646    32.1267     7.4600     95.310   0.514252      0.478     -2.115 -1240.7455    -0.1827     1.9381     0.0142     -0.000     -0.634     -0.919         14 1.5643e+03   994.9950 0.0000e+00
     -0.645    32.1318     7.5287     95.400   0.556427      0.430     -2.115 -1240.7455    -0.1827     2.0102     0.0142      0.000     -0.633     -0.918         15 4.0028e+02   994.9943 0.0000e+00
     -0.645    32.1229     7.5828     95.478   0.379639      0.430     -2.114 -1240.7455    -0.1941     2.0246     0.0142      0.000     -0.633     -0.918         16 1.0091e+02   994.9951 0.0000e+00
     -0.646    32.1338     7.6410     95.530   0.734262      0.478     -2.114 -1240.7455    -1.2241    -1.9985     0.0142      0.000     -0.633     -0.918         17 3.1792e+02   994.9935 0.0000e+00
     -0.645    32.1103     7.6961     95.649   0.174268      0.430     -2.115 -1240.7455    -1.2279    -2.0130     0.0142      0.000     -0.633     -0.918         18 1.5899e+02   994.9963 0.0000e+00
     -0.645    32.1440     7.7558     95.962   1.017380      0.430     -2.115 -1240.7455    -1.2165    -1.9409     0.0142      0.001     -0.633     -0.918         19 3.3630e+02   994.9930 0.0000e+00
     -0.645    32.0231     7.8080     96.326  -0.314977      0.478     -2.115 -1240.7455    -1.1974    -1.9120     0.0142      0.000     -0.632     -0.916         20 1.2645e+02   995.0003 0.0000e+00
     -0.645    30.9600     7.8485     96.700   1.950686      0.478     -2.115 -1240.7455    -0.0606     2.0102     0.0142      0.000     -0.618     -0.896         21 4.8779e+02   994.9896 0.0000e+00
     -0.594    29.5466     7.8827     97.061   8.849567      9.225     -0.196  1240.2295    -0.0453     1.9525     0.0159      0.014     -0.581     -0.843         22 1.7301e+03   995.0297 0.0000e+00
     -0.540    28.6422     7.9231     97.509  13.942159     10.802      3.903  1240.2295    -0.0644     1.9957     0.0161      0.038     -0.539     -0.782         23 2.0648e+03   995.3644 0.0000e+00
     -0.521    28.0019     7.9460     97.902  25.213435     24.643      6.344   389.0849    -0.0720     2.0102     0.0207      0.060     -0.508     -0.737         24 1.2224e+03   995.7980 0.0000e+00
     -0.491    27.5360     7.9658     98.272  29.021134     26.065      7.890   364.5534    -0.0377     1.9525     0.0210      0.082     -0.477     -0.692         25 6.6475e+02   996.0646 0.0000e+00
     -0.447    27.1740     7.9995     98.691  31.917416     30.571      9.228   354.6726     1.5149     8.6577     0.0226      0.105     -0.436     -0.631         26 1.7513e+03   996.2497 0.0000e+00
     -0.394    26.7853     8.0321     99.093  37.281934     35.412      9.875   350.8491     1.5187     8.6865     0.0245      0.130     -0.387     -0.561         27 2.1204e+03   996.3828 0.0000e+00
     -0.343    26.4515     8.0437     99.364  36.122886     34.637     10.256   335.0247     1.5187     8.7442     0.0241      0.151     -0.340     -0.493         28 1.9022e+03   996.4835 0.0000e+00
     -0.304    26.2074     8.0489     99.500  35.641429     34.389     10.461   325.2197     1.5187     8.8019     0.0239      0.163     -0.301     -0.437         29 2.0390e+03   996.5904 0.0000e+00
     -0.276    26.0446     8.0435     99.367  35.243874     34.257     10.573   318.7083    -0.3658    21.9815     0.0237      0.159     -0.270     -0.391         30 1.9660e+03   996.6811 0.0000e+00
     -0.243    25.9744     8.0434     99.186  35.284309     34.422     10.661   319.8818    -0.3620    21.9239     0.0237      0.157     -0.240     -0.348         31 1.4845e+03   996.7469 0.0000e+00
     -0.218    25.9358     7.8500     96.618  35.591229     34.887     10.704   317.0804    -0.3429    22.0681     0.0239      0.156     -0.212     -0.308         32 6.4010e+02   996.7906 0.0000e+00
     -0.187    25.9151     7.6566     94.094  35.869515     35.155     10.727   314.0518    -0.3734    22.0681     0.0240      0.149     -0.182     -0.264         33 4.0064e+02   996.8095 0.0000e+00
     -0.152    25.9723     7.6779     94.252  36.004823     35.370     10.734   311.9697     0.7062     1.0873     0.0241      0.138     -0.150     -0.219         34 6.4739e+02   996.8199 0.0000e+00
     -0.124    26.0434     7.7668     95.262  35.985898     35.307     10.732   308.8275     0.7100     1.1306     0.0240      0.127     -0.118     -0.171         35 8.2887e+02   996.8255 0.0000e+00
     -0.083    26.0441     7.7909     95.486  36.011606     35.346     10.728   305.6475     0.7100     1.1161     0.0241      0.123     -0.078     -0.114         36 1.1844e+03   996.8106 0.0000e+00
     -0.031    26.0491     7.8246     95.843  36.032078     35.269     10.748   303.9061     0.7176     1.1450     0.0240      0.129     -0.037     -0.055         37 1.0247e+03   996.7919 0.0000e+00
     -0.002    26.1145     7.8622     96.272  36.197466     35.460     10.738   302.2782     0.7825     1.0873     0.0241      0.135     -0.011     -0.016         38 8.6256e+02   996.7918 0.0000e+00
     -0.002    26.1565     7.8692     96.350  36.368819     35.624     10.728   301.8239     0.7863     1.0585     0.0242      0.130     -0.003     -0.004         39 1.1167e+03   996.7906 0.0000e+00
     -0.003    26.1174     7.8907     96.612  36.144796     35.356     10.702   301.3696     0.7634     1.1306     0.0241      0.118     -0.003     -0.004         40 8.3114e+02   996.7730 0.0000e+00
     -0.003    26.0208     7.8937     96.684  35.616857     34.810     10.673   300.0825     0.7786     1.0440     0.0239      0.098     -0.003     -0.004         41 9.5775e+02   996.7616 0.0000e+00
     -0.002    25.9156     7.8336     95.965  35.158913     34.371     10.648   299.6661     0.7710     1.0008     0.0237      0.075     -0.002     -0.003         42 6.4750e+02   996.7719 0.0000e+00
     -0.002    25.8322     7.7338     94.723  35.025638     34.328     10.614   300.9153     0.7825     1.1017     0.0237      0.051     -0.002     -0.003         43 9.0822e+02   996.7976 0.0000e+00
     -0.002    25.7714     7.6299     93.425  34.953045     34.316     10.585   299.4389     0.7825     1.0296     0.0236      0.027     -0.002     -0.003         44 1.4606e+03   996.8256 0.0000e+00
     -0.002    25.7246     7.5128     91.979  34.952977     34.373     10.559   298.4546     0.7596     1.1450     0.0236      0.008     -0.002     -0.003         45 9.9843e+02   996.8476 0.0000e+00
     -0.002    25.6840     7.3835     90.409  34.996131     34.469     10.533   295.6910     0.6833     1.0440     0.0236      0.000     -0.002     -0.002         46 1.4119e+03   996.8637 0.0000e+00
     -0.001    25.6516     7.2434     88.717  34.958637     34.446     10.505   295.3882     0.6833     0.9287     0.0236      0.001     -0.001     -0.001         47 2.0658e+03   996.8760 0.0000e+00
     -0.001    25.6347     7.0856     86.804  34.940397     34.473     10.475   300.0068     0.6718     1.0873     0.0236      0.001     -0.001     -0.001         48 1.2952e+03   996.8867 0.0000e+00
     -0.001    25.6287     6.9300     84.911  34.900321     34.440     10.456   299.5146     0.6680     1.0585     0.0236      0.001     -0.001     -0.001         49 1.0451e+03   996.8953 0.0000e+00
      0.000    25.6300     6.7980     83.301  34.889996     34.452     10.439   299.2118     0.6528     1.0008     0.0236      0.001     -0.001     -0.001         50 1.4033e+03   996.8998 0.0000e+00
     -0.001    25.6480     6.7142     82.275  34.953254     34.511     10.420   298.5682     0.7024     1.1450     0.0236      0.001     -0.001     -0.001         51 1.1958e+03   996.9013 0.0000e+00
     -0.000    25.6577     6.7296     82.462  34.999394     34.566     10.400   295.1610     0.6871     1.0008     0.0236      0.001     -0.001     -0.001         52 1.2501e+03   996.9009 0.0000e+00
     -0.001    25.6469     6.8493     83.927  35.158528     34.690     10.377   294.1010     0.6718     1.0008     0.0237      0.001     -0.001     -0.001         53 1.3575e+03   996.8962 0.0000e+00
     -0.000    25.6322     7.0630     86.544  35.229327     34.794     10.356   295.2368     0.6642     1.0152     0.0237      0.000     -0.000     -0.000         54 1.1344e+03   996.8937 0.0000e+00
      0.001    25.6252     7.2814     89.221  35.118710     34.636     10.338   294.3282     0.6833     0.8422     0.0237      0.000      0.000      0.001         55 1.0379e+03   996.8966 0.0000e+00
      0.001    25.6325     7.5126     92.056  35.059132     34.647     10.333   293.1546     0.6833     0.8277     0.0237      0.001      0.001      0.001         56 1.2365e+03   996.9003 0.0000e+00
      0.001    25.6475     7.7235     94.640  35.036785     34.569     10.318   291.8675     0.6909     0.6980     0.0236      0.001      0.001      0.001         57 1.3757e+03   996.9022 0.0000e+00
      0.001    25.6597     7.8998     96.801  35.057626     34.646     10.310   290.9210     0.6566     0.7845     0.0237      0.001      0.001      0.002         58 1.1827e+03   996.9003 0.0000e+00
      0.002    25.6683     7.9976     98.002  35.033193     34.553     10.297   290.2775     0.7138     1.1017     0.0236      0.001      0.001      0.002         59 1.5060e+03   996.8963 0.0000e+00
      0.001    25.6732     8.0259     98.356  35.067186     34.628     10.285   289.2932     0.6947     1.0873     0.0237      0.001      0.001      0.002         60 1.3028e+03   996.8932 0.0000e+00
      0.001    25.6741     8.0063     98.122  35.104214     34.622     10.273   289.0282     0.6909     1.0296     0.0237      0.001      0.001      0.002         61 8.5255e+02   996.8909 0.0000e+00
      0.001    25.6727     7.9613     97.575  35.076005     34.618     10.262   289.0282     0.6680     1.0585     0.0237      0.001      0.001      0.002         62 1.1911e+03   996.8896 0.0000e+00
      0.002    25.6709     7.9066     96.911  35.102287     34.618     10.249   288.1575     0.6642     1.0729     0.0237      0.000      0.001      0.002         63 5.9433e+02   996.8894 0.0000e+00
      0.001    25.6706     7.8426     96.131  35.130771     34.674     10.235   287.4382     0.7252     1.0585     0.0237      0.000      0.001      0.002         64 1.2034e+03   996.8898 0.0000e+00
      0.002    25.6714     7.7751     95.309  35.099825     34.620     10.225   286.7567     0.6718     1.0873     0.0237      0.000      0.002      0.002         65 1.7549e+03   996.8902 0.0000e+00
      0.002    25.6721     7.7007     94.402  35.081536     34.620     10.220   289.5582     0.7024     1.1017     0.0237      0.000      0.002      0.003         66 1.2574e+03   996.8903 0.0000e+00
      0.003    25.6723     7.6288     93.524  35.094267     34.620     10.210   287.8925     0.7405     1.0008     0.0237      0.000      0.002      0.003         67 1.3576e+03   996.8901 0.0000e+00
      0.002    25.6727     7.5574     92.651  35.083980     34.619     10.197   288.1953     0.7252     1.0729     0.0237      0.000      0.002      0.003         68 1.3011e+03   996.8899 0.0000e+00
      0.002    25.6744     7.4943     91.881  35.094338     34.619     10.183   287.6653     0.7367     1.1594     0.0237      0.000      0.002      0.003         69 1.1040e+03   996.8899 0.0000e+00
      0.003    25.6779     7.4446     91.275  35.081377     34.619     10.167   284.9017     0.7214     1.1306     0.0237      0.001      0.002      0.003         70 1.3297e+03   996.8898 0.0000e+00
      0.002    25.6812     7.3984     90.712  35.100108     34.618     10.155   289.5960     0.7024     1.0152     0.0237      0.000      0.002      0.003         71 1.6004e+03   996.8893 0.0000e+00
      0.002    25.6840     7.3703     90.374  35.130292     34.670     10.145   289.3310     0.7214     1.1017     0.0237      0.000      0.002      0.003         72 1.2809e+03   996.8884 0.0000e+00
      0.002    25.6872     7.3477     90.102  35.103078     34.613     10.135   289.0282     0.7100     1.1161     0.0237      0.000      0.002      0.003         73 1.5792e+03   996.8875 0.0000e+00
      0.003    25.6905     7.3266     89.850  35.133972     34.666     10.126   288.9525     0.7176     1.0585     0.0237      0.000      0.003      0.004         74 1.7550e+03   996.8868 0.0000e+00
      0.003    25.6933     7.2941     89.456  35.151107     34.664     10.121   286.7567     0.7405     0.9719     0.0237      0.000      0.003      0.004         75 1.4670e+03   996.8860 0.0000e+00
      0.003    25.6956     7.2495     88.911  35.141019     34.662     10.115   286.3403     0.7748     0.9719     0.0237      0.000      0.003      0.004         76 1.3754e+03   996.8851 0.0000e+00
      0.003    25.6976     7.1931     88.221  35.146526     34.660     10.102   287.0217     0.7825     1.1306     0.0237      0.000      0.003      0.004         77 1.3154e+03   996.8844 0.0000e+00
      0.002    25.6991     7.1203     87.335  35.144252     34.658     10.092   287.1732     0.7977     1.0873     0.0237      0.000      0.003      0.004         78 1.6585e+03   996.8838 0.0000e+00
      0.003    25.7010     7.0359     86.316  35.143847     34.657     10.083   287.2489     0.7748     0.9864     0.0237      0.000      0.003      0.004         79 1.5342e+03   996.8833 0.0000e+00
      0.003    25.7032     6.9343     85.085  35.147028     34.656     10.074   287.6653     0.8168     1.0585     0.0237      0.000      0.003      0.004         80 1.3964e+03   996.8828 0.0000e+00
      0.003    25.7059     6.8407     83.949  35.140292     34.655     10.067   287.0217     0.8435     0.9719     0.0237      0.000      0.003      0.004         81 1.4425e+03   996.8823 0.0000e+00
      0.003    25.7093     6.7368     82.676  35.092965     34.598     10.062   286.6053     0.8473     0.9287     0.0237      0.000      0.003      0.004         82 9.4488e+02   996.8817 0.0000e+00
      0.003    25.7132     6.6517     81.626  35.146660     34.651     10.053   284.2582     0.8740     1.0440     0.0237      0.000      0.003      0.004         83 9.5600e+02   996.8810 0.0000e+00
      0.003    25.7167     6.5764     80.696  35.191998     34.704     10.048   284.5610     0.9122     1.0008     0.0237      0.000      0.003      0.004         84 1.3085e+03   996.8802 0.0000e+00
      0.003    25.7194     6.5103     79.882  35.155072     34.646     10.042   284.5610     0.9045     1.0008     0.0237      0.000      0.003      0.004         85 1.1165e+03   996.8792 0.0000e+00
      0.003    25.7207     6.4567     79.224  35.192612     34.699     10.036   284.4096     0.9045     0.9864     0.0237      0.000      0.003      0.004         86 1.2057e+03   996.8782 0.0000e+00
      0.003    25.7217     6.4044     78.584  35.204542     34.697     10.028   284.3339     0.9084     1.0296     0.0237      0.000      0.003      0.005         87 1.1336e+03   996.8775 0.0000e+00
      0.003    25.7267     6.3571     78.009  35.199488     34.696     10.019   283.1603     0.9312     1.0008     0.0237      0.000      0.003      0.005         88 8.4287e+02   996.8772 0.0000e+00
      0.003    25.7364     6.3180     77.534  35.258166     34.751     10.010   283.7282     0.9351     0.9287     0.0237      0.000      0.003      0.005         89 1.1929e+03   996.8769 0.0000e+00
      0.004    25.7468     6.2747     77.009  35.250047     34.747     10.003   284.1824     0.9122     1.0585     0.0237      0.000      0.004      0.005         90 1.7344e+03   996.8756 0.0000e+00
      0.004    25.7546     6.2285     76.448  35.209588     34.685      9.993   284.0689     0.8969     1.0585     0.0237      0.000      0.004      0.005         91 1.9511e+03   996.8730 0.0000e+00
      0.004    25.7558     6.1816     75.881  35.249248     34.733      9.988   284.1446     0.8969     1.1017     0.0237      0.001      0.004      0.006         92 1.2738e+03   996.8703 0.0000e+00
      0.004    25.7519     6.1311     75.269  35.259954     34.728      9.976   283.1603     0.8549     0.9431     0.0237      0.001      0.004      0.006         93 1.1409e+03   996.8682 0.0000e+00
      0.003    25.7483     6.0776     74.621  35.255527     34.727      9.965   283.8417     0.8473     1.0008     0.0237      0.000      0.004      0.006         94 1.1253e+03   996.8679 0.0000e+00
      0.004    25.7462     6.0252     73.988  35.254755     34.730      9.957   283.5767     0.8473     1.0585     0.0237      0.000      0.004      0.006         95 3.8137e+02   996.8689 0.0000e+00
      0.004    25.7461     5.9794     73.437  35.260915     34.732      9.951   283.6146     0.8321     1.1017     0.0237      0.000      0.004      0.006         96 6.6250e+02   996.8699 0.0000e+00
      0.004    25.7476     5.9224     72.748  35.307129     34.789      9.942   283.5010     0.7710     1.0585     0.0238      0.000      0.004      0.006         97 1.1888e+03   996.8704 0.0000e+00
      0.004    25.7504     5.8708     72.125  35.315775     34.789      9.934   282.9710     0.7825     0.9864     0.0238      0.000      0.004      0.006         98 1.1553e+03   996.8705 0.0000e+00
      0.004    25.7544     5.8212     71.527  35.309421     34.788      9.928   283.0467     0.7863     1.0008     0.0238      0.000      0.004      0.006         99 1.2514e+03   996.8701 0.0000e+00
      0.004    25.7588     5.7839     71.078  35.374302     34.841      9.919   280.7374     0.7634     1.0585     0.0238     -0.000      0.004      0.006        100 1.3843e+03   996.8694 0.0000e+00
      0.004    25.7639     5.7558     70.744  35.412826     34.893      9.911   281.7596     0.7329     1.1161     0.0238      0.000      0.004      0.006        101 1.3800e+03   996.8684 0.0000e+00
      0.004    25.7698     5.7376     70.529  35.380006     34.835      9.906   281.4946     0.7214     1.1017     0.0238      0.000      0.004      0.006        102 1.3573e+03   996.8673 0.0000e+00
      0.004    25.7756     5.7191     70.313  35.415143     34.887      9.903   281.2674     0.6947     1.0008     0.0238      0.000      0.004      0.006        103 1.5428e+03   996.8659 0.0000e+00
      0.005    25.7821     5.7103     70.214  35.428362     34.883      9.901   282.9710     0.7176     1.0440     0.0238      0.000      0.004      0.006        104 1.4046e+03   996.8643 0.0000e+00
      0.004    25.7894     5.7116     70.241  35.482085     34.934      9.899   283.1982     0.7100     0.8133     0.0238      0.000      0.004      0.006        105 1.1469e+03   996.8628 0.0000e+00
      0.005    25.7977     5.7152     70.296  35.526081     34.984      9.897   277.8981     0.7252     0.7701     0.0239      0.000      0.004      0.006        106 1.1575e+03   996.8611 0.0000e+00
      0.003    25.8060     5.7250     70.427  35.492139     34.924      9.894   278.7310     0.7405     0.8133     0.0238      0.000      0.004      0.006        107 9.9203e+02   996.8592 0.0000e+00
      0.004    25.8140     5.7357     70.570  35.553955     35.001      9.893   278.3146     0.7100     0.7989     0.0239     -0.000      0.004      0.006        108 1.2214e+03   996.8570 0.0000e+00
      0.005    25.8226     5.7472     70.721  35.567681     34.995      9.889   280.4346     0.6985     1.0729     0.0239      0.000      0.005      0.007        109 1.8233e+03   996.8548 0.0000e+00
      0.005    25.8307     5.7610     70.903  35.563951     34.990      9.887   280.2831     0.7329     1.0296     0.0239      0.000      0.005      0.007        110 1.5954e+03   996.8527 0.0000e+00
      0.005    25.8385     5.7782     71.127  35.588223     35.011      9.884   276.5353     0.7367     1.0873     0.0239      0.000      0.005      0.007        111 1.8081e+03   996.8504 0.0000e+00
      0.005    25.8465     5.7919     71.308  35.626370     35.033      9.883   276.0431     0.7329     1.0440     0.0239      0.000      0.005      0.007        112 1.5922e+03   996.8483 0.0000e+00
      0.004    25.8545     5.8036     71.463  35.664641     35.083      9.877   276.1188     0.7100     1.0008     0.0239      0.000      0.004      0.006        113 1.2656e+03   996.8462 0.0000e+00
      0.004    25.8623     5.8167     71.635  35.629491     35.022      9.875   276.8760     0.6718     1.1306     0.0239      0.000      0.004      0.006        114 2.2150e+03   996.8442 0.0000e+00
      0.005    25.8704     5.8276     71.781  35.610844     35.017      9.869   276.8381     0.7024     1.1161     0.0239      0.000      0.005      0.007        115 1.5357e+03   996.8420 0.0000e+00
      0.005    25.8790     5.8389     71.931  35.628577     35.011      9.865   276.9896     0.7252     1.0585     0.0239      0.000      0.005      0.007        116 1.0454e+03   996.8399 0.0000e+00
      0.005    25.8873     5.8555     72.149  35.696318     35.088      9.858   278.6553     0.6833     1.0585     0.0239      0.000      0.005      0.007        117 1.4929e+03   996.8378 0.0000e+00
      0.005    25.8955     5.8653     72.280  35.674703     35.055      9.852   276.8381     0.7863     1.0440     0.0239      0.000      0.005      0.007        118 1.4073e+03   996.8355 0.0000e+00
      0.005    25.9042     5.8763     72.426  35.625840     34.994      9.846   277.1031     0.7939     1.1161     0.0239      0.000      0.005      0.007        119 1.3563e+03   996.8334 0.0000e+00
      0.005    25.9133     5.8832     72.521  35.668225     35.043      9.839   277.2546     0.7710     1.0873     0.0239      0.000      0.005      0.007        120 1.4509e+03   996.8312 0.0000e+00
      0.005    25.9224     5.8944     72.669  35.681218     35.037      9.834   276.1188     0.8092     1.0008     0.0239      0.000      0.005      0.007        121 1.4694e+03   996.8289 0.0000e+00
      0.005    25.9314     5.8928     72.659  35.728198     35.086      9.824   276.5731     0.7786     0.7989     0.0239      0.000      0.005      0.007        122 1.1180e+03   996.8265 0.0000e+00
      0.005    25.9402     5.8962     72.709  35.757920     35.107      9.819   280.1317     0.7519     0.8133     0.0239      0.000      0.005      0.007        123 1.1569e+03   996.8241 0.0000e+00
      0.006    25.9492     5.8934     72.683  35.733124     35.073      9.814   278.9203     0.7901     0.8566     0.0239      0.000      0.005      0.008        124 1.3835e+03   996.8217 0.0000e+00
      0.005    25.9580     5.8869     72.609  35.729417     35.067      9.807   279.0339     0.7825     0.9143     0.0239      0.000      0.005      0.008        125 1.4916e+03   996.8194 0.0000e+00
      0.005    25.9667     5.8780     72.504  35.732894     35.061      9.803   277.1788     0.7329     1.0585     0.0239      0.000      0.005      0.008        126 1.5546e+03   996.8170 0.0000e+00
      0.005    25.9758     5.8664     72.366  35.728792     35.055      9.796   277.4060     0.7291     1.0585     0.0239      0.000      0.005      0.008        127 1.2876e+03   996.8146 0.0000e+00
      0.006    25.9840     5.8500     72.168  35.764153     35.077      9.786   280.5860     0.7214     1.0152     0.0239      0.000      0.006      0.008        128 1.1514e+03   996.8123 0.0000e+00
      0.006    25.9920     5.8322     71.955  35.777787     35.098      9.779   280.7753     0.7329     1.0440     0.0240      0.000      0.006      0.008        129 1.1244e+03   996.8099 0.0000e+00
      0.006    25.9999     5.8146     71.740  35.741453     35.037      9.773   280.2074     0.7214     1.0729     0.0239      0.000      0.006      0.008        130 1.4466e+03   996.8077 0.0000e+00
      0.005    26.0071     5.7930     71.475  35.779730     35.086      9.765   280.2074     0.7252     0.9719     0.0240      0.000      0.006      0.008        131 1.1485e+03   996.8056 0.0000e+00
      0.006    26.0142     5.7712     71.210  35.789416     35.081      9.760   278.7689     0.7291     1.0296     0.0240      0.000      0.006      0.008        132 1.2468e+03   996.8035 0.0000e+00
      0.005    26.0207     5.7490     70.940  35.788662     35.076      9.753   279.0339     0.7405     1.0873     0.0240      0.000      0.006      0.008        133 2.0953e+03   996.8016 0.0000e+00
      0.006    26.0266     5.7251     70.650  35.780664     35.071      9.746   279.6396     0.7252     1.1017     0.0240      0.000      0.006      0.009        134 1.6351e+03   996.7997 0.0000e+00
      0.006    26.0317     5.7059     70.419  35.740101     35.012      9.739   279.8289     0.7214     1.1594     0.0239      0.000      0.006      0.009        135 1.3872e+03   996.7979 0.0000e+00
      0.006    26.0353     5.6854     70.169  35.779872     35.063      9.729   279.7153     0.7367     1.0296     0.0240      0.000      0.006      0.009        136 1.3157e+03   996.7964 0.0000e+00
      0.007    26.0386     5.6636     69.903  35.790432     35.059      9.723   280.0939     0.7519     0.8998     0.0240      0.000      0.007      0.010        137 1.3454e+03   996.7951 0.0000e+00
      0.007    26.0429     5.6414     69.633  35.726957     35.002      9.722   279.5260     0.7100     1.0585     0.0239      0.001      0.007      0.010        138 1.3473e+03   996.7941 0.0000e+00
      0.008    26.0470     5.6212     69.386  35.740331     35.000      9.714   279.7910     0.7062     1.0440     0.0239      0.001      0.007      0.011        139 1.2388e+03   996.7932 0.0000e+00
      0.007    26.0490     5.6020     69.152  35.773786     35.052      9.707   278.3524     0.7252     1.0008     0.0239      0.001      0.008      0.011        140 1.1587e+03   996.7921 0.0000e+00
      0.009    26.0505     5.5745     68.814  35.744588     34.994      9.702   278.3146     0.7291     1.0152     0.0239      0.001      0.009      0.012        141 1.3557e+03   996.7910 0.0000e+00
      0.010    26.0534     5.5554     68.580  35.776667     35.047      9.695   278.3903     0.7062     1.1017     0.0239      0.002      0.009      0.013        142 2.0441e+03   996.7905 0.0000e+00
      0.009    26.0568     5.5327     68.300  35.733865     34.992      9.691   278.8067     0.7024     0.8710     0.0239      0.002      0.009      0.013        143 1.6111e+03   996.7901 0.0000e+00
      0.010    26.0607     5.5090     68.008  35.738587     34.990      9.685   278.3146     0.7138     0.8133     0.0239      0.002      0.010      0.014        144 1.3169e+03   996.7893 0.0000e+00
      0.010    26.0643     5.4849     67.710  35.830054     35.097      9.678   278.0496     0.7405     0.7556     0.0240      0.002      0.010      0.014        145 1.0683e+03   996.7884 0.0000e+00
      0.010    26.0673     5.4616     67.421  35.797832     35.039      9.673   277.8603     0.7214     0.7989     0.0239      0.001      0.010      0.014        146 4.2288e+02   996.7873 0.0000e+00
      0.010    26.0700     5.4344     67.085  35.778684     35.037      9.665   277.7467     0.7138     1.1017     0.0239      0.001      0.010      0.014        147 3.0181e+02   996.7864 0.0000e+00
      0.010    26.0725     5.4146     66.839  35.794616     35.035      9.660   277.7467     0.6833     1.0729     0.0239      0.001      0.010      0.014        148 6.3800e+02   996.7856 0.0000e+00
      0.010    26.0747     5.3875     66.502  35.778004     35.033      9.655   277.6710     0.6680     1.0873     0.0239      0.000      0.010      0.014        149 9.7300e+02   996.7849 0.0000e+00
      0.010    26.0765     5.3636     66.205  35.799356     35.031      9.649   277.6331     0.6642     0.9719     0.0239      0.000      0.010      0.014        150 1.0989e+03   996.7842 0.0000e+00
      0.010    26.0781     5.3418     65.934  35.827310     35.084      9.641   277.9360     0.6718     0.9719     0.0240      0.000      0.010      0.014        151 1.0887e+03   996.7836 0.0000e+00
      0.010    26.0794     5.3190     65.650  35.802481     35.028      9.636   278.1253     0.7024     1.0296     0.0239      0.000      0.010      0.015        152 1.2844e+03   996.7831 0.0000e+00
      0.010    26.0800     5.2962     65.366  35.830253     35.082      9.626   278.1631     0.6871     1.0008     0.0240      0.000      0.010      0.015        153 1.8753e+03   996.7826 0.0000e+00
      0.010    26.0802     5.2762     65.116  35.792747     35.026      9.619   278.4281     0.6528     1.0008     0.0239      0.000      0.010      0.015        154 1.1154e+03   996.7824 0.0000e+00
      0.010    26.0798     5.2549     64.852  35.789890     35.026      9.612   278.0874     0.6909     1.1450     0.0239      0.000      0.010      0.015        155 2.6553e+02   996.7822 0.0000e+00
      0.011    26.0794     5.2351     64.606  35.833809     35.080      9.605   277.9360     0.7214     1.0440     0.0240      0.000      0.010      0.015        156 5.2664e+02   996.7821 0.0000e+00
      0.010    26.0786     5.2172     64.383  35.797357     35.026      9.597   277.6710     0.7100     1.1450     0.0239      0.000      0.010      0.015        157 9.1167e+02   996.7823 0.0000e+00
      0.010    26.0774     5.1949     64.106  35.775988     35.026      9.591   278.0117     0.7367     1.0873     0.0239      0.000      0.010      0.015        158 1.3068e+03   996.7823 0.0000e+00
      0.010    26.0759     5.1795     63.915  35.801135     35.027      9.583   278.0117     0.7405     1.0008     0.0239      0.000      0.010      0.015        159 1.2638e+03   996.7826 0.0000e+00
      0.011    26.0739     5.1592     63.664  35.825327     35.082      9.580   278.7689     0.7024     1.1017     0.0240      0.000      0.011      0.015        160 1.2719e+03   996.7829 0.0000e+00
      0.011    26.0718     5.1331     63.339  35.805149     35.029      9.572   278.5039     0.6871     1.0152     0.0239      0.000      0.011      0.015        161 1.1768e+03   996.7833 0.0000e+00
      0.011    26.0698     5.1226     63.210  35.766981     35.030      9.566   276.3838     0.6604     1.1161     0.0239      0.000      0.011      0.016        162 1.2116e+03   996.7838 0.0000e+00
      0.012    26.0676     5.1073     63.020  35.754294     34.977      9.561   276.5353     0.6871     1.0440     0.0239      0.000      0.011      0.016        163 1.2365e+03   996.7844 0.0000e+00
      0.011    26.0657     5.0923     62.833  35.820938     35.088      9.554   276.3081     0.7329     1.0873     0.0240      0.001      0.011      0.016        164 1.3154e+03   996.7850 0.0000e+00
      0.012    26.0639     5.0786     62.663  35.802577     35.034      9.550   277.2924     0.7329     1.1450     0.0239      0.001      0.012      0.017        165 1.8645e+03   996.7855 0.0000e+00
      0.012    26.0624     5.0628     62.467  35.777145     35.036      9.542   277.2546     0.7138     1.0873     0.0239      0.001      0.012      0.017        166 1.5050e+03   996.7860 0.0000e+00
      0.012    26.0612     5.0460     62.258  35.793324     35.037      9.540   277.0274     0.7176     1.0585     0.0239      0.001      0.012      0.017        167 1.6418e+03   996.7865 0.0000e+00
      0.012    26.0598     5.0316     62.080  35.782445     35.038      9.534   275.0210     0.7176     1.0440     0.0239      0.001      0.012      0.017        168 1.4967e+03   996.7869 0.0000e+00
      0.012    26.0586     5.0194     61.927  35.790684     35.039      9.530   274.8317     0.7481     1.0873     0.0239      0.000      0.012      0.017        169 1.1637e+03   996.7872 0.0000e+00
      0.012    26.0573     4.9949     61.624  35.783071     35.040      9.525   274.6046     0.7291     1.0585     0.0239      0.000      0.012      0.017        170 1.8541e+03   996.7876 0.0000e+00
      0.013    26.0562     5.0575     62.313  35.791920     35.041      9.521   274.5667     0.7443     1.0152     0.0239      0.000      0.012      0.018        171 1.6385e+03   996.7879 0.0000e+00
      0.012    26.0554     5.5735     68.433  35.779673     35.042      9.515   274.7181     0.6680     1.0008     0.0239      0.000      0.012      0.018        172 1.2935e+03   996.7883 0.0000e+00
      0.012    26.0543     6.6282     81.162  35.739046     34.988      9.512   274.5667     0.6871     1.1594     0.0239      0.000      0.012      0.017        173 1.5177e+03   996.7885 0.0000e+00
      0.012    26.0533     7.6809     93.911  35.783212     35.043      9.505   276.0431     0.6871     1.0729     0.0239      0.000      0.012      0.017        174 1.5209e+03   996.7888 0.0000e+00
      0.013    26.0522     8.6244    105.354  35.783976     35.044      9.500   274.9074     0.6795     1.1161     0.0239      0.000      0.012      0.018        175 1.2912e+03   996.7891 0.0000e+00
      0.012    26.0515     9.3839    114.577  35.797363     35.044      9.493   274.8696     0.7519     1.0873     0.0239      0.000      0.012      0.018        176 1.3146e+03   996.7893 0.0000e+00
      0.012    26.0502     9.9201    121.105  35.766553     35.045      9.487   274.7560     0.7367     1.0152     0.0239      0.000      0.012      0.018        177 1.3016e+03   996.7896 0.0000e+00
      0.012    26.0492    10.2436    125.025  35.763052     34.991      9.481   274.4153     0.6985     1.0729     0.0239      0.000      0.012      0.018        178 1.3873e+03   996.7898 0.0000e+00
      0.013    26.0480    10.3582    126.362  35.742453     35.046      9.476   277.3681     0.7329     1.0008     0.0239      0.000      0.012      0.018        179 1.4800e+03   996.7901 0.0000e+00
      0.013    26.0466    10.2281    124.737  35.792189     34.992      9.469   276.6110     0.7214     1.0008     0.0239      0.000      0.012      0.018        180 1.3257e+03   996.7904 0.0000e+00
      0.013    25.9686     9.9951    121.876  35.641891     34.993      9.463   276.3838     0.7481     0.9287     0.0239      0.000      0.012      0.018        181 1.3031e+03   996.7908 0.0000e+00
      0.013    25.7866     9.7834    119.294  34.921986     34.119      9.460   276.5731     0.7252     1.0585     0.0236      0.000      0.012      0.018        182 1.1136e+03   996.7909 0.0000e+00
      0.013    25.6337     9.6218    117.335  34.673091     34.059      9.455   274.6046     0.7329     1.0440     0.0235      0.000      0.013      0.018        183 1.1672e+03   996.8116 0.0000e+00
      0.013    25.5523     9.4948    115.802  34.707115     34.131      9.453   274.7181     0.7329     1.1306     0.0235      0.000      0.013      0.018        184 1.2542e+03   996.8598 0.0000e+00
      0.013    25.5033     9.4018    114.682  34.642662     34.232      9.448   278.2767     0.7443     1.0152     0.0235      0.000      0.013      0.018        185 1.2336e+03   996.9000 0.0000e+00
      0.013    25.4777     9.3301    113.816  34.634842     34.233      9.443   277.9360     0.7329     1.0585     0.0235      0.000      0.013      0.019        186 1.1589e+03   996.9212 0.0000e+00
      0.013    25.4683     9.2748    113.143  34.598362     34.265      9.440   278.0874     0.7100     1.0008     0.0235      0.000      0.013      0.019        187 1.3110e+03   996.9340 0.0000e+00
      0.013    25.4552     9.2339    112.646  34.628822     34.283      9.435   278.1631     0.7214     1.0873     0.0235      0.000      0.013      0.019        188 1.3569e+03   996.9408 0.0000e+00
      0.013    25.4299     9.1942    112.164  34.596949     34.289      9.430   276.6110     0.7519     1.0585     0.0235      0.000      0.013      0.019        189 1.2252e+03   996.9432 0.0000e+00
      0.013    25.4123     9.1669    111.832  34.549139     34.214      9.426   277.0274     0.7252     1.0152     0.0235      0.000      0.013      0.019        190 1.3642e+03   996.9466 0.0000e+00
      0.013    25.4046     9.1574    111.712  34.599433     34.315      9.422   277.6710     0.7252     1.0440     0.0235      0.000      0.013      0.019        191 1.4798e+03   996.9532 0.0000e+00
      0.013    25.4039     9.1548    111.674  34.623264     34.327      9.416   277.9360     0.7024     1.0729     0.0235     -0.000      0.013      0.019        192 1.2863e+03   996.9578 0.0000e+00
      0.014    25.4092     9.1521    111.625  34.608385     34.332      9.413   277.8603     0.7100     1.1017     0.0235      0.000      0.013      0.019        193 1.6092e+03   996.9598 0.0000e+00
      0.013    25.4166     9.1494    111.576  34.617953     34.333      9.405   278.2010     0.7405     1.0585     0.0235      0.000      0.013      0.019        194 2.1775e+03   996.9600 0.0000e+00
      0.013    25.4231     9.1437    111.500  34.611357     34.329      9.399   278.2010     0.7062     1.0152     0.0235      0.000      0.013      0.019        195 1.4049e+03   996.9585 0.0000e+00
      0.014    25.4270     9.1451    111.510  34.616591     34.324      9.397   278.2767     0.7100     1.0008     0.0235      0.000      0.013      0.019        196 1.0325e+03   996.9567 0.0000e+00
      0.013    25.4284     9.1479    111.541  34.611437     34.320      9.389   274.5667     0.7024     1.0152     0.0235      0.000      0.013      0.019        197 1.3725e+03   996.9549 0.0000e+00
      0.014    25.4288     9.1342    111.372  34.617768     34.317      9.385   275.6267     0.7405     1.0585     0.0235      0.000      0.013      0.019        198 1.4577e+03   996.9539 0.0000e+00
      0.012    25.4303     9.1213    111.216  34.608708     34.316      9.383   275.3617     0.7405     1.1017     0.0235     -0.000      0.013      0.019        199 1.2718e+03   996.9536 0.0000e+00
      0.013    25.4307     9.1145    111.128  34.533817     34.233      9.376   277.4817     0.7100     1.0008     0.0235     -0.000      0.013      0.019        200 1.4199e+03   996.9535 0.0000e+00
      0.014    25.4289     9.1163    111.142  34.533180     34.232      9.372   277.6331     0.6947     1.0873     0.0235      0.000      0.014      0.020        201 1.2852e+03   996.9531 0.0000e+00
      0.014    25.4251     9.1288    111.293  34.550236     34.259      9.367   273.2417     0.7672     1.0296     0.0235      0.000      0.014      0.020        202 1.0922e+03   996.9530 0.0000e+00
      0.014    25.4175     9.1385    111.412  34.482959     34.177      9.363   273.3553     0.8168     1.1161     0.0234      0.000      0.014      0.020        203 1.4583e+03   996.9534 0.0000e+00
      0.014    25.4103     9.1339    111.351  34.468749     34.180      9.358   273.9610     0.7825     1.0296     0.0234      0.000      0.014      0.020        204 1.2468e+03   996.9544 0.0000e+00
      0.014    25.4066     9.1308    111.307  34.479028     34.185      9.354   273.9231     0.7748     0.9719     0.0234      0.001      0.014      0.020        205 1.2632e+03   996.9564 0.0000e+00
      0.015    25.4036     9.1371    111.382  34.470169     34.190      9.350   273.7717     0.7367     1.0585     0.0234      0.001      0.014      0.020        206 1.3318e+03   996.9582 0.0000e+00
      0.014    25.4013     9.1387    111.395  34.479776     34.192      9.350   275.7781     0.7100     0.9719     0.0234      0.001      0.014      0.020        207 1.2491e+03   996.9592 0.0000e+00
      0.014    25.4007     9.1341    111.335  34.496707     34.222      9.347   273.5067     0.7405     1.1017     0.0234      0.000      0.014      0.020        208 1.4423e+03   996.9600 0.0000e+00
      0.014    25.4012     9.1169    111.127  34.478731     34.196      9.339   273.1281     0.7291     1.0585     0.0234     -0.000      0.014      0.020        209 1.3476e+03   996.9607 0.0000e+00
      0.014    25.3986     9.1095    111.032  34.472516     34.196      9.339   272.9767     0.7252     1.1017     0.0234     -0.000      0.014      0.020        210 1.3203e+03   996.9608 0.0000e+00
      0.014    25.3950     9.1121    111.054  34.474812     34.196      9.335   272.9010     0.7252     1.0873     0.0234      0.000      0.014      0.020        211 1.2722e+03   996.9606 0.0000e+00
      0.014    25.3946     9.1206    111.152  34.475874     34.198      9.332   272.6360     0.7024     1.1161     0.0234     -0.000      0.014      0.020        212 1.1076e+03   996.9613 0.0000e+00
      0.014    25.3947     9.1298    111.284  34.471194     34.200      9.327   273.0524     0.7329     0.9719     0.0234     -0.000      0.014      0.020        213 1.2698e+03   996.9623 0.0000e+00
      0.015    25.3924     9.1306    111.318  34.451006     34.173      9.322   275.5888     0.7176     0.9143     0.0234      0.000      0.014      0.021        214 1.3924e+03   996.9624 0.0000e+00
      0.015    25.3894     9.1254    111.258  34.471368     34.200      9.321   274.7560     0.7329     1.0585     0.0234      0.000      0.014      0.021        215 1.2249e+03   996.9623 0.0000e+00
      0.014    25.3877     9.1304    111.303  34.416223     34.146      9.314   274.9453     0.7024     1.0873     0.0234      0.000      0.014      0.020        216 1.2530e+03   996.9629 0.0000e+00
      0.014    25.3849     9.1416    111.422  34.371477     34.093      9.311   274.7560     0.7176     1.0585     0.0234      0.000      0.014      0.020        217 1.3242e+03   996.9637 0.0000e+00
      0.014    25.3834     9.1421    111.421  34.408528     34.150      9.307   273.1660     0.7252     1.0008     0.0234      0.000      0.014      0.020        218 1.3066e+03   996.9642 0.0000e+00
      0.015    25.3838     9.1502    111.528  34.429376     34.152      9.302   273.2417     0.6985     0.9864     0.0234      0.000      0.014      0.020        219 1.2964e+03   996.9649 0.0000e+00
      0.014    25.3817     9.1605    111.658  34.434428     34.180      9.297   278.2010     0.7214     0.9719     0.0234      0.000      0.014      0.020        220 1.1324e+03   996.9652 0.0000e+00
      0.014    25.3768     9.1540    111.588  34.431873     34.152      9.292   277.5953     0.7367     1.1017     0.0234     -0.000      0.014      0.020        221 1.0298e+03   996.9651 0.0000e+00
      0.015    25.3749     9.1428    111.459  34.462187     34.209      9.292   277.8224     0.7176     1.0008     0.0234      0.000      0.014      0.021        222 1.2353e+03   996.9657 0.0000e+00
      0.015    25.3837     9.1341    111.356  34.426336     34.157      9.287   275.6646     0.7596     1.0585     0.0234      0.000      0.014      0.021        223 1.2905e+03   996.9670 0.0000e+00
      0.015    25.3957     9.1299    111.290  34.417229     34.159      9.284   276.0053     0.7596     1.0440     0.0234      0.000      0.014      0.021        224 1.0604e+03   996.9675 0.0000e+00
      0.015    25.3969     9.1316    111.292  34.473521     34.208      9.279   276.1188     0.7863     1.0585     0.0234      0.000      0.014      0.021        225 1.2576e+03   996.9652 0.0000e+00
      0.015    25.3896     9.1380    111.352  34.445172     34.172      9.276   277.9360     0.7901     1.0873     0.0234      0.000      0.014      0.021        226 1.2499e+03   996.9621 0.0000e+00
      0.014    25.3810     9.1459    111.435  34.422873     34.143      9.275   278.5417     0.8740     1.0585     0.0234      0.000      0.014      0.020        227 1.2567e+03   996.9618 0.0000e+00
      0.014    25.3780     9.1507    111.492  34.412376     34.148      9.271   278.5796     0.8359     1.0585     0.0234     -0.000      0.014      0.020        228 1.4127e+03   996.9635 0.0000e+00
      0.015    25.3814     9.1512    111.526  34.369342     34.099      9.266   278.2010     0.8359     1.1017     0.0234      0.000      0.015      0.021        229 1.2638e+03   996.9658 0.0000e+00
      0.015    25.3844     9.1469    111.513  34.357906     34.101      9.262   278.7310     0.8473     1.0296     0.0234      0.000      0.015      0.021        230 1.2613e+03   996.9667 0.0000e+00
      0.015    25.3881     9.1380    111.431  34.367348     34.098      9.257   277.4817     0.7634     1.0585     0.0234      0.000      0.015      0.022        231 1.1712e+03   996.9658 0.0000e+00
      0.015    25.3927     9.1320    111.381  34.387222     34.125      9.252   275.3996     0.7825     0.9864     0.0234      0.000      0.015      0.022        232 1.1559e+03   996.9650 0.0000e+00
      0.015    25.3930     9.1354    111.415  34.422065     34.149      9.250   277.4438     0.7672     1.0873     0.0234      0.000      0.014      0.021        233 1.0844e+03   996.9640 0.0000e+00
      0.015    25.3865     9.1365    111.399  34.412879     34.147      9.249   277.4817     0.7672     1.0729     0.0234      0.000      0.014      0.021        234 1.0207e+03   996.9628 0.0000e+00
      0.015    25.3771     9.1430    111.452  34.369022     34.090      9.244   277.1410     0.8435     0.8422     0.0234      0.000      0.015      0.021        235 1.0683e+03   996.9627 0.0000e+00
      0.015    25.3683     9.1537    111.559  34.417383     34.151      9.242   278.9960     0.8397     0.8277     0.0234      0.000      0.015      0.021        236 1.4124e+03   996.9644 0.0000e+00
      0.015    25.3615     9.1584    111.604  34.441592     34.184      9.239   274.0367     0.8359     0.7701     0.0234     -0.000      0.015      0.021        237 1.4359e+03   996.9669 0.0000e+00
      0.015    25.3614     9.1581    111.598  34.427793     34.163      9.235   274.6803     0.8244     0.6835     0.0234     -0.000      0.015      0.021        238 1.2035e+03   996.9692 0.0000e+00
      0.015    25.3749     9.1584    111.598  34.404929     34.167      9.229   274.6046     0.8549     0.8998     0.0234      0.000      0.015      0.021        239 1.3974e+03   996.9709 0.0000e+00
      0.015    25.3934     9.1593    111.607  34.381153     34.112      9.228   274.3396     0.8435     0.8566     0.0234      0.000      0.015      0.021        240 1.4512e+03   996.9709 0.0000e+00
      0.015    25.4073     9.1527    111.524  34.398116     34.158      9.226   276.6110     0.8359     0.7701     0.0234      0.000      0.015      0.021        241 1.1530e+03   996.9675 0.0000e+00
      0.016    25.4179     9.1561    111.560  34.383813     34.090      9.223   276.3838     0.8435     0.7556     0.0234      0.000      0.015      0.021        242 1.3292e+03   996.9626 0.0000e+00
      0.014    25.4144     9.1503    111.485  34.428578     34.164      9.219   273.2796     0.8282     0.8710     0.0234     -0.000      0.015      0.021        243 1.7744e+03   996.9590 0.0000e+00
      0.015    25.4001     9.1467    111.433  34.431295     34.129      9.216   272.5981     0.8321     1.0296     0.0234     -0.000      0.015      0.022        244 1.1233e+03   996.9564 0.0000e+00
      0.016    25.3873     9.1503    111.471  34.410058     34.131      9.215   272.9767     0.8511     1.0296     0.0234      0.000      0.015      0.022        245 1.1141e+03   996.9571 0.0000e+00
      0.015    25.3763     9.1498    111.469  34.425375     34.141      9.213   272.7874     0.8282     1.0873     0.0234      0.000      0.015      0.022        246 1.4733e+03   996.9609 0.0000e+00
      0.016    25.3704     9.1566    111.557  34.412238     34.150      9.209   273.1660     0.8244     1.0152     0.0234      0.000      0.015      0.022        247 1.4972e+03   996.9643 0.0000e+00
      0.016    25.3686     9.1536    111.518  34.367149     34.102      9.206   273.1281     0.7863     1.0729     0.0234      0.000      0.015      0.022        248 1.6516e+03   996.9670 0.0000e+00
      0.015    25.3672     9.1529    111.501  34.392598     34.134      9.203   275.5888     0.7596     1.1882     0.0234      0.000      0.015      0.022        249 1.2227e+03   996.9686 0.0000e+00
      0.015    25.3662     9.1495    111.452  34.410203     34.163      9.198   274.6046     0.8015     1.0008     0.0234      0.000      0.015      0.022        250 1.2353e+03   996.9691 0.0000e+00
      0.015    25.3647     9.1427    111.366  34.374873     34.108      9.196   274.7560     0.7786     1.0152     0.0234      0.000      0.015      0.022        251 1.4355e+03   996.9694 0.0000e+00
      0.015    25.3623     9.1247    111.146  34.406934     34.164      9.190   273.4310     0.7977     1.0585     0.0234     -0.000      0.015      0.022        252 1.0757e+03   996.9697 0.0000e+00
      0.015    25.3597     9.1186    111.070  34.370306     34.110      9.191   273.3553     0.8092     1.0729     0.0234     -0.000      0.015      0.022        253 9.3278e+02   996.9702 0.0000e+00
      0.016    25.3558     9.1184    111.069  34.361196     34.112      9.185   273.0524     0.7748     0.9864     0.0234     -0.000      0.015      0.022        254 9.9166e+02   996.9708 0.0000e+00
      0.016    25.3535     9.1316    111.229  34.388641     34.141      9.183   278.6174     0.8015     1.0585     0.0234      0.000      0.016      0.023        255 9.4043e+02   996.9714 0.0000e+00
      0.016    25.3551     9.1402    111.340  34.365784     34.116      9.179   276.9517     0.8816     1.0873     0.0234      0.000      0.016      0.023        256 5.8955e+02   996.9724 0.0000e+00
      0.016    25.3576     9.1492    111.470  34.360012     34.117      9.178   276.8381     0.9160     1.1017     0.0234      0.000      0.015      0.022        257 5.5539e+02   996.9730 0.0000e+00
      0.015    25.3562     9.1491    111.476  34.366193     34.116      9.173   276.9517     0.9312     1.1306     0.0234      0.000      0.015      0.022        258 8.8681e+02   996.9726 0.0000e+00
      0.016    25.3522     9.1428    111.391  34.358090     34.115      9.171   274.5667     0.8816     1.0440     0.0234      0.000      0.015      0.022        259 7.2023e+02   996.9719 0.0000e+00
      0.015    25.3489     9.1312    111.243  34.370094     34.116      9.167   274.8317     0.9045     1.0873     0.0234     -0.000      0.015      0.022        260 6.7397e+02   996.9724 0.0000e+00
      0.016    25.3473     9.1146    111.050  34.440150     34.202      9.164   278.5417     0.8969     0.9431     0.0234     -0.000      0.015      0.022        261 8.7076e+02   996.9734 0.0000e+00
      0.015    25.3465     9.0964    110.844  34.419067     34.176      9.162   278.9203     0.9045     1.0152     0.0234     -0.000      0.015      0.022        262 6.6774e+02   996.9742 0.0000e+00
      0.016    25.3460     9.0842    110.716  34.366702     34.122      9.161   278.7310     0.8931     1.0585     0.0234     -0.000      0.015      0.022        263 4.2910e+02   996.9746 0.0000e+00
      0.016    25.3469     9.0909    110.810  34.357161     34.122      9.156   278.8824     0.9007     1.0440     0.0234      0.000      0.015      0.022        264 4.3567e+02   996.9748 0.0000e+00
      0.015    25.3465     9.1038    110.957  34.371678     34.123      9.152   277.6331     0.8969     1.0008     0.0234      0.000      0.015      0.022        265 3.1555e+02   996.9750 0.0000e+00
      0.016    25.3500     9.1193    111.128  34.378267     34.150      9.146   276.3081     0.8969     1.0729     0.0234      0.000      0.016      0.023        266 3.9876e+02   996.9747 0.0000e+00
      0.016    25.3589     9.1301    111.229  34.319329     34.067      9.141   277.5196     0.8893     1.0729     0.0234      0.000      0.016      0.023        267 7.5801e+02   996.9748 0.0000e+00
      0.016    25.3622     9.1330    111.241  34.356130     34.120      9.136   277.2546     0.9236     1.0873     0.0234      0.000      0.016      0.023        268 4.9849e+02   996.9739 0.0000e+00
      0.016    25.3584     9.1220    111.094  34.362097     34.114      9.128   277.1788     0.8893     0.9719     0.0234      0.000      0.016      0.023        269 3.7142e+02   996.9716 0.0000e+00
      0.016    25.3558     9.1076    110.915  34.371163     34.112      9.123   278.3903     0.8778     1.0729     0.0234      0.000      0.016      0.023        270 8.9853e+02   996.9707 0.0000e+00
      0.016    25.3597     9.0940    110.755  34.404110     34.170      9.117   278.3903     0.9312     1.0873     0.0234      0.000      0.016      0.023        271 8.4032e+02   996.9717 0.0000e+00
      0.016    25.3676     9.0870    110.680  34.350729     34.088      9.111   272.9767     0.9236     1.0729     0.0234      0.000      0.015      0.022        272 5.1204e+02   996.9724 0.0000e+00
      0.015    25.3779     9.0897    110.720  34.348701     34.113      9.106   273.8474     0.8969     1.0008     0.0234     -0.000      0.015      0.022        273 6.7800e+02   996.9714 0.0000e+00
      0.016    25.3837     9.1053    110.920  34.376999     34.108      9.101   273.8096     0.9007     1.0008     0.0234     -0.000      0.015      0.022        274 9.5764e+02   996.9694 0.0000e+00
      0.016    25.3797     9.1306    111.230  34.404402     34.156      9.099   273.6203     0.8931     1.1017     0.0234     -0.000      0.016      0.023        275 1.1325e+03   996.9667 0.0000e+00
      0.016    25.3698     9.1525    111.490  34.373858     34.097      9.095   276.3081     0.9312     1.0440     0.0234     -0.000      0.016      0.023        276 8.6891e+02   996.9651 0.0000e+00
      0.016    25.3556     9.1693    111.688  34.355748     34.100      9.094   276.2703     0.9045     1.0152     0.0234     -0.000      0.016      0.023        277 8.7381e+02   996.9662 0.0000e+00
      0.016    25.3434     9.1830    111.851  34.397311     34.134      9.089   271.7653     0.8740     1.0296     0.0234     -0.000      0.016      0.023        278 1.1183e+03   996.9688 0.0000e+00
      0.016    25.3375     9.1811    111.833  34.411031     34.172      9.089   271.9545     0.9007     1.0729     0.0234      0.000      0.016      0.023        279 1.1719e+03   996.9724 0.0000e+00
      0.016    25.3359     9.1777    111.804  34.368309     34.124      9.086   271.6517     0.9312     1.1017     0.0234      0.000      0.016      0.023        280 1.3201e+03   996.9755 0.0000e+00
      0.017    25.3389     9.1753    111.783  34.361589     34.128      9.083   272.2574     0.9694     1.0296     0.0234      0.000      0.016      0.023        281 1.2683e+03   996.9771 0.0000e+00
      0.016    25.3434     9.1694    111.711  34.360136     34.129      9.081   272.5603     0.9656     0.9431     0.0234      0.000      0.016      0.023        282 1.4079e+03   996.9776 0.0000e+00
      0.016    25.3472     9.1689    111.708  34.310857     34.072      9.076   272.5603     0.9618     1.0585     0.0234      0.000      0.016      0.023        283 1.4378e+03   996.9767 0.0000e+00
      0.016    25.3512     9.1682    111.703  34.334022     34.096      9.070   273.9231     0.9579     1.0440     0.0234     -0.000      0.016      0.023        284 1.3058e+03   996.9756 0.0000e+00
      0.016    25.3523     9.1583    111.571  34.360936     34.122      9.063   272.3710     0.9198     0.8566     0.0234      0.000      0.016      0.023        285 1.2289e+03   996.9747 0.0000e+00
      0.015    25.3497     9.1522    111.484  34.306991     34.063      9.056   272.2195     0.9274     0.8133     0.0234     -0.000      0.016      0.023        286 1.1931e+03   996.9736 0.0000e+00
      0.016    25.3462     9.1553    111.519  34.312259     34.063      9.046   272.4467     0.9045     0.6835     0.0234     -0.000      0.016      0.023        287 1.2181e+03   996.9733 0.0000e+00
      0.017    25.3442     9.1448    111.401  34.354379     34.120      9.038   271.3867     0.9198     0.7989     0.0234     -0.000      0.016      0.023        288 1.2754e+03   996.9740 0.0000e+00
      0.016    25.3466     9.1420    111.379  34.313837     34.067      9.027   271.5760     0.9236     0.7845     0.0234 9.3977e-07      0.016      0.023        289 1.4197e+03   996.9749 0.0000e+00
      0.016    25.3527     9.1389    111.345  34.333082     34.096      9.018   276.6867     0.9694     1.1738     0.0234      0.000      0.016      0.023        290 1.3849e+03   996.9754 0.0000e+00
      0.016    25.3565     9.1377    111.325  34.300798     34.067      9.010   275.1724     0.9770     1.0440     0.0234      0.000      0.016      0.023        291 1.1507e+03   996.9747 0.0000e+00
      0.017    25.3565     9.1380    111.326  34.265120     34.007      9.003   275.3996     0.9846     1.0152     0.0233      0.000      0.016      0.024        292 1.2916e+03   996.9732 0.0000e+00
      0.017    25.3584     9.1457    111.427  34.347851     34.115      8.995   275.8917     0.9694     1.0296     0.0234      0.000      0.016      0.024        293 1.3572e+03   996.9723 0.0000e+00
      0.016    25.3598     9.1425    111.388  34.375628     34.115      8.991   273.0903     0.9694     1.0873     0.0234      0.000      0.016      0.023        294 1.3852e+03   996.9722 0.0000e+00
      0.016    25.3548     9.1361    111.298  34.319445     34.086      8.984   278.3146     0.9694     1.0873     0.0234      0.000      0.016      0.023        295 1.6506e+03   996.9717 0.0000e+00
      0.016    25.3483     9.1331    111.246  34.269611     34.002      8.982   278.0874     0.9885     1.1306     0.0233     -0.000      0.016      0.023        296 1.3384e+03   996.9714 0.0000e+00
      0.017    25.3472     9.1330    111.235  34.289488     34.061      8.975   278.1253     0.9808     1.0296     0.0234      0.000      0.016      0.023        297 1.3171e+03   996.9727 0.0000e+00
      0.016    25.3516     9.1340    111.245  34.324342     34.066      8.974   278.4660     0.8931     1.0440     0.0234     -0.000      0.016      0.023        298 1.3448e+03   996.9743 0.0000e+00
      0.016    25.3576     9.1396    111.310  34.344763     34.122      8.970   276.6110     0.8969     1.0008     0.0234     -0.000      0.016      0.023        299 1.0981e+03   996.9746 0.0000e+00
      0.016    25.3596     9.1330    111.224  34.323339     34.063      8.966   276.4217     0.9122     1.0440     0.0234     -0.000      0.016      0.023        300 1.2226e+03   996.9735 0.0000e+00
      0.016    25.3568     9.1321    111.212  34.321371     34.087      8.963   276.6867     0.9045     1.0296     0.0234     -0.000      0.016      0.023        301 1.4418e+03   996.9719 0.0000e+00
      0.016    25.3557     9.1339    111.242  34.317576     34.058      8.958   277.6331     0.9503     1.0008     0.0234     -0.000      0.016      0.023        302 1.2367e+03   996.9713 0.0000e+00
      0.016    25.3587     9.1426    111.357  34.298431     34.060      8.953   277.5953     0.9541     1.0873     0.0234     -0.000      0.016      0.023        303 1.2510e+03   996.9722 0.0000e+00
      0.017    25.3588     9.1477    111.419  34.315569     34.061      8.951   277.8224     0.9694     1.0729     0.0234      0.000      0.016      0.024        304 1.6800e+03   996.9725 0.0000e+00
      0.017    25.3529     9.1411    111.341  34.355510     34.114      8.944   278.6553     0.9694     1.0585     0.0234      0.000      0.016      0.024        305 1.5712e+03   996.9716 0.0000e+00
      0.016    25.3455     9.1420    111.371  34.367246     34.114      8.939   278.6553     0.9656     1.0585     0.0234      0.000      0.016      0.024        306 1.4990e+03   996.9716 0.0000e+00
      0.017    25.3410     9.1463    111.495  34.330594     34.090      8.936   272.7874     0.8816     0.9575     0.0234      0.000      0.016      0.024        307 1.5188e+03   996.9732 0.0000e+00
      0.016    25.3396     9.1532    111.689  34.312233     34.067      8.930   274.1881     0.9045     1.0440     0.0234      0.000      0.016      0.024        308 1.4679e+03   996.9751 0.0000e+00
      0.017    25.3380     9.1599    111.887  34.301207     34.071      8.927   274.1124     0.9007     1.0873     0.0234      0.000      0.016      0.024        309 1.2856e+03   996.9763 0.0000e+00
      0.016    25.3356     9.1719    112.082  34.314687     34.071      8.919   276.8003     0.8931     1.1017     0.0234      0.000      0.016      0.023        310 1.1665e+03   996.9766 0.0000e+00
      0.016    25.3346     9.1685    112.048  34.295459     34.072      8.916   276.7624     0.8969     1.0008     0.0234     -0.000      0.016      0.023        311 1.2076e+03   996.9770 0.0000e+00
      0.017    25.3390     9.1632    111.985  34.325137     34.074      8.914   276.3460     0.9122     1.0873     0.0234     -0.000      0.016      0.024        312 1.1764e+03   996.9776 0.0000e+00
      0.017    25.3431     9.1589    111.921  34.366648     34.158      8.913   271.3110     0.9236     1.1017     0.0234      0.000      0.017      0.025        313 1.1636e+03   996.9780 0.0000e+00
      0.018    25.3436     9.1548    111.836  34.332693     34.072      8.913   272.0303     0.9236     1.0873     0.0234      0.001      0.017      0.026        314 1.1399e+03   996.9768 0.0000e+00
      0.020    25.3439     9.1428    111.657  34.337759     34.124      8.915   271.9545     0.9312     0.9719     0.0234      0.001      0.014      0.021        315 1.1985e+03   996.9757 0.0000e+00
      0.008    25.3548     9.1203    111.359  34.330710     34.069      8.897   271.9924     0.8816     1.0440     0.0234     -0.001     -0.005     -0.006        316 1.4114e+03   996.9755 0.0000e+00
     -0.042    25.3887     9.0904    110.968  34.341466     34.124      8.911   272.7874     0.8931     1.0008     0.0234     -0.016     -0.050     -0.072        317 1.5691e+03   996.9752 0.0000e+00
     -0.120    25.4433     9.0670    110.657  34.383633     34.117      8.944   272.8631     0.9274     1.0585     0.0234     -0.048     -0.115     -0.167        318 1.4883e+03   996.9720 0.0000e+00
     -0.191    25.4980     9.0623    110.586  34.544906     34.287      8.976   271.1974     0.7901     0.4096     0.0235     -0.089     -0.176     -0.255        319 1.5455e+03   996.9630 0.0000e+00
     -0.226    25.5228     9.0744    110.732  34.674115     34.362      8.998   270.4781     0.8015     0.3086     0.0235     -0.126     -0.217     -0.315        320 1.5771e+03   996.9487 0.0000e+00
     -0.251    25.5261     9.0925    110.949  34.608023     34.268      8.992   270.0238     0.7786     0.4961     0.0235     -0.154     -0.245     -0.355        321 1.5556e+03   996.9343 0.0000e+00
     -0.274    25.5275     9.1200    111.269  34.538240     34.169      8.991   270.0617     0.7901     0.3086     0.0235     -0.170     -0.268     -0.388        322 1.5561e+03   996.9277 0.0000e+00
     -0.293    25.5213     9.1362    111.456  34.523892     34.166      8.988   269.7967     0.7596     0.3086     0.0235     -0.171     -0.288     -0.418        323 1.5499e+03   996.9267 0.0000e+00
     -0.316    25.5048     9.1582    111.702  34.536980     34.166      8.980   270.4403     0.7672     0.3519     0.0235     -0.158     -0.310     -0.449        324 1.5540e+03   996.9263 0.0000e+00
     -0.339    25.4888     9.1699    111.813  34.492321     34.142      8.973   274.0746     0.7825     0.2942     0.0234     -0.133     -0.330     -0.478        325 1.5351e+03   996.9278 0.0000e+00
     -0.354    25.4775     9.1755    111.875  34.431313     34.071      8.969   272.2574     0.7825     0.3807     0.0234     -0.105     -0.345     -0.500        326 1.5439e+03   996.9320 0.0000e+00
     -0.363    25.4649     9.1690    111.791  34.464750     34.137      8.974   272.3331     0.7786     0.8422     0.0234     -0.084     -0.353     -0.511        327 1.5578e+03   996.9361 0.0000e+00
     -0.361    25.4522     9.1514    111.561  34.421085     34.089      8.979   270.5538     0.7901     0.7845     0.0234     -0.071     -0.354     -0.513        328 1.4784e+03   996.9391 0.0000e+00
     -0.360    25.4453     9.1367    111.368  34.367135     34.042      8.972   270.7431     0.7825     0.6835     0.0234     -0.057     -0.353     -0.512        329 1.0645e+03   996.9423 0.0000e+00
     -0.358    25.4451     9.1286    111.282  34.383738     34.078      8.968   275.8160     0.7710     0.7124     0.0234     -0.043     -0.351     -0.509        330 5.2522e+02   996.9457 0.0000e+00
     -0.355    25.4427     9.1322    111.350  34.370796     34.055      8.970   274.9453     0.7481     0.7556     0.0234     -0.028     -0.348     -0.506        331 2.9828e+02   996.9475 0.0000e+00
     -0.353    25.4352     9.1331    111.358  34.412877     34.111      8.973   274.7181     0.8664     1.1017     0.0234     -0.013     -0.346     -0.502        332 2.9911e+02   996.9476 0.0000e+00
     -0.352    25.4299     9.1399    111.416  34.420265     34.112      8.970   274.6046     0.8588     1.0296     0.0234     -0.002     -0.345     -0.499        333 3.7729e+02   996.9482 0.0000e+00
     -0.349    25.4190     9.1485    111.510  34.361602     34.062      8.970   273.2796     0.8473     1.0296     0.0234      0.005     -0.342     -0.496        334 4.6120e+02   996.9502 0.0000e+00
     -0.346    25.4044     9.1517    111.547  34.367359     34.066      8.966   273.0903     0.8473     1.1017     0.0234      0.008     -0.339     -0.492        335 4.9297e+02   996.9516 0.0000e+00
     -0.344    25.4004     9.1370    111.386  34.383473     34.101      8.961   273.2417     0.8626     1.1738     0.0234      0.009     -0.337     -0.489        336 5.0539e+02   996.9544 0.0000e+00
     -0.341    25.3984     9.1246    111.252  34.371186     34.083      8.958   272.5603     0.8435     1.0296     0.0234      0.009     -0.334     -0.485        337 4.0353e+02   996.9582 0.0000e+00
     -0.339    25.3904     9.1262    111.279  34.353026     34.085      8.958   272.3331     0.8282     0.8998     0.0234      0.009     -0.332     -0.482        338 2.4472e+02   996.9592 0.0000e+00
     -0.336    25.3844     9.1208    111.218  34.376445     34.087      8.957   272.1438     0.8397     1.0008     0.0234      0.009     -0.330     -0.479        339 4.3720e+02   996.9598 0.0000e+00
     -0.333    25.3903     9.1225    111.242  34.401304     34.148      8.952   271.6138     0.7863     1.0873     0.0234      0.010     -0.327     -0.475        340 5.2887e+02   996.9619 0.0000e+00
     -0.331    25.4020     9.1267    111.288  34.440617     34.152      8.944   271.5381     0.7977     1.0729     0.0234      0.010     -0.325     -0.471        341 4.8806e+02   996.9635 0.0000e+00
     -0.328    25.4002     9.1419    111.458  34.475680     34.231      8.939   273.1281     0.7825     1.0440     0.0234      0.010     -0.322     -0.467        342 7.0333e+02   996.9620 0.0000e+00
     -0.326    25.3889     9.1550    111.599  34.387296     34.085      8.933   271.5381     0.7596     1.0296     0.0234      0.010     -0.320     -0.464        343 4.1897e+02   996.9589 0.0000e+00
     -0.325    25.3823     9.1510    111.523  34.343186     34.086      8.929   271.8410     0.7100     0.8710     0.0234      0.010     -0.319     -0.462        344 2.4232e+02   996.9593 0.0000e+00
     -0.322    25.3824     9.1460    111.438  34.382420     34.094      8.925   271.9167     0.7138     0.8710     0.0234      0.009     -0.316     -0.458        345 3.2918e+02   996.9623 0.0000e+00
     -0.317    25.3905     9.1355    111.289  34.397737     34.153      8.922   270.3267     0.7252     0.7845     0.0234      0.010     -0.311     -0.451        346 2.9597e+02   996.9641 0.0000e+00
     -0.311    25.3994     9.1317    111.211  34.383389     34.098      8.916   270.3267     0.7100     0.8277     0.0234      0.011     -0.306     -0.443        347 2.7806e+02   996.9641 0.0000e+00
     -0.306    25.4033     9.1307    111.169  34.429907     34.175      8.908   275.5510     0.7176     0.7701     0.0234      0.013     -0.301     -0.436        348 3.2176e+02   996.9620 0.0000e+00
     -0.302    25.4056     9.1220    111.052  34.428739     34.142      8.900   274.6046     0.7291     0.8422     0.0234      0.014     -0.297     -0.431        349 4.8977e+02   996.9596 0.0000e+00
     -0.301    25.4070     9.1102    110.924  34.414473     34.139      8.898   274.6803     0.7367     0.8422     0.0234      0.015     -0.294     -0.427        350 6.0179e+02   996.9587 0.0000e+00
     -0.297    25.4043     9.0984    110.831  34.418028     34.138      8.897   271.9924     0.7062     0.7701     0.0234      0.016     -0.291     -0.422        351 6.0938e+02   996.9581 0.0000e+00
     -0.292    25.3969     9.1005    110.900  34.365050     34.081      8.896   271.8410     0.7214     0.7412     0.0234      0.016     -0.286     -0.415        352 6.9760e+02   996.9577 0.0000e+00
     -0.286    25.3872     9.1059    110.979  34.421140     34.138      8.889   272.1438     0.7443     0.8710     0.0234      0.017     -0.278     -0.403        353 1.1614e+03   996.9584 0.0000e+00
     -0.272    25.3747     9.1095    111.000  34.437120     34.171      8.881   275.4753     0.7329     0.8422     0.0234      0.019     -0.265     -0.385        354 1.5090e+03   996.9605 0.0000e+00
     -0.255    25.3627     9.1187    111.082  34.315533     34.039      8.874   275.0588     0.7252     0.7989     0.0234      0.024     -0.249     -0.362        355 1.5069e+03   996.9630 0.0000e+00
     -0.236    25.3522     9.1296    111.186  34.246512     33.992      8.870   274.1124     0.7062     0.7412     0.0233      0.032     -0.230     -0.334        356 1.5675e+03   996.9664 0.0000e+00
     -0.213    25.3369     9.1385    111.255  34.315602     34.056      8.871   272.9767     0.6146     1.0585     0.0234      0.043     -0.208     -0.301        357 1.5185e+03   996.9696 0.0000e+00
     -0.187    25.3225     9.1525    111.390  34.348082     34.118      8.871   272.6738     0.6337     1.0729     0.0234      0.056     -0.183     -0.265        358 1.6086e+03   996.9725 0.0000e+00
     -0.160    25.3169     9.1486    111.333  34.294991     34.045      8.870   272.1817     0.6451     1.0873     0.0234      0.068     -0.156     -0.226        359 1.4541e+03   996.9765 0.0000e+00
     -0.131    25.3249     9.1434    111.264  34.352051     34.139      8.867   271.6138     0.6413     1.1738     0.0234      0.081     -0.130     -0.187        360 7.4513e+02   996.9804 0.0000e+00
     -0.106    25.3488     9.1421    111.237  34.365973     34.142      8.864   271.5760     0.6070     0.9719     0.0234      0.090     -0.105     -0.152        361 1.5293e+03   996.9820 0.0000e+00
     -0.085    25.3709     9.1438    111.254  34.307298     34.082      8.863   271.1595     0.6184     1.0729     0.0234      0.095     -0.084     -0.122        362 1.4365e+03   996.9800 0.0000e+00
     -0.066    25.3764     9.1520    111.345  34.365804     34.120      8.856   270.4403     0.6528     1.0440     0.0234      0.097     -0.065     -0.095        363 6.4803e+02   996.9739 0.0000e+00
     -0.050    25.3660     9.1560    111.376  34.411680     34.161      8.854   269.9481     0.6489     1.0296     0.0234      0.094     -0.049     -0.071        364 1.4502e+03   996.9683 0.0000e+00
     -0.036    25.3511     9.1672    111.326  34.339092     34.074      8.848   272.3331     0.6947     1.0008     0.0234      0.089     -0.034     -0.051        365 1.5351e+03   996.9668 0.0000e+00
     -0.022    25.3367     9.1699    111.047  34.307979     34.054      8.844   271.6138     0.6757     1.0152     0.0234      0.081     -0.019     -0.028        366 1.2907e+03   996.9696 0.0000e+00
     -0.002    25.3176     9.1571    110.712  34.302246     34.064      8.841   271.4245     0.6757     1.0729     0.0234      0.074     -0.001     -0.002        367 1.1692e+03   996.9736 0.0000e+00
      0.020    25.3007     9.1708    110.622  34.257340     34.018      8.834   269.6074     0.7062     1.0296     0.0233      0.070      0.019      0.027        368 1.3447e+03   996.9773 0.0000e+00
      0.039    25.2957     9.1880    110.423  34.245347     34.031      8.826   269.7210     0.7176     0.7701     0.0233      0.069      0.039      0.056        369 1.1895e+03   996.9824 0.0000e+00
      0.058    25.2928     9.2217    110.201  34.257916     34.043      8.822   268.9260     0.7291     0.6835     0.0233      0.069      0.060      0.086        370 7.5566e+02   996.9869 0.0000e+00
      0.086    25.2878     9.2437    109.993  34.271336     34.073      8.815   273.4310     0.7252     0.7701     0.0234      0.073      0.082      0.118        371 7.3011e+02   996.9882 0.0000e+00
      0.103    25.2851     9.2919    110.285  34.258281     34.047      8.806   272.7496     0.7138     0.8710     0.0233      0.077      0.097      0.141        372 4.2583e+02   996.9891 0.0000e+00
      0.107    25.2817     9.3629    110.839  34.244534     34.051      8.800   272.9010     0.7214     0.7412     0.0233      0.076      0.106      0.154        373 1.1715e+03   996.9904 0.0000e+00
      0.114    25.2723     9.4418    111.428  34.258816     34.053      8.799   272.9010     0.7100     0.9719     0.0233      0.071      0.119      0.172        374 1.8317e+03   996.9911 0.0000e+00
      0.144    25.1774     9.5059    111.924  34.240509     34.055      8.799   270.1374     0.7024     1.0585     0.0233      0.069      0.145      0.211        375 9.9710e+02   996.9921 0.0000e+00
      0.187    25.0347     9.5578    112.372  34.059901     33.867      8.801   270.0238     0.7405     1.1161     0.0233      0.073      0.180      0.262        376 7.4526e+02   996.9947 0.0000e+00
      0.220    24.9365     9.6074    112.847  33.920603     33.789      8.807   272.6360     0.7252     1.0873     0.0232      0.081      0.212      0.308        377 1.0033e+03   997.0193 0.0000e+00
      0.244    24.8192     9.6371    113.124  33.821285     33.809      8.808   272.7117     0.7100     1.1017     0.0232      0.088      0.237      0.344        378 6.1939e+02   997.0561 0.0000e+00
      0.262    24.6112     9.6474    113.196  33.679838     33.700      8.804   272.9767     0.6871     1.0008     0.0231      0.093      0.260      0.376        379 9.3208e+02   997.0814 0.0000e+00
      0.288    24.3172     9.6470    113.157  33.504078     33.645      8.804   272.9010     0.7291     1.1450     0.0231      0.101      0.287      0.416        380 1.6907e+03   997.1113 0.0000e+00
      0.328    24.0824     9.6518    113.186  33.269693     33.498      8.801   272.7117     0.7405     1.0296     0.0229      0.111      0.321      0.466        381 9.2010e+02   997.1642 0.0000e+00
      0.366    23.9468     9.6587    113.249  33.230870     33.706      8.799   272.4088     0.7825     1.0008     0.0229      0.118      0.356      0.517        382 5.5349e+02   997.2383 0.0000e+00
      0.396    23.8052     9.6628    113.285  33.167324     33.778      8.797   269.3045     0.7939     0.9719     0.0229      0.118      0.389      0.564        383 9.0117e+02   997.2968 0.0000e+00
      0.430    23.6446     9.6601    113.243  32.993324     33.701      8.795   270.6295     0.7672     1.0873     0.0228      0.118      0.423      0.613        384 9.3347e+02   997.3304 0.0000e+00
      0.469    23.5190     9.6494    113.105  32.943780     33.740      8.795   270.1374     0.7748     1.0873     0.0228      0.124      0.460      0.667        385 1.0472e+03   997.3653 0.0000e+00
      0.508    23.4421     9.6497    113.090  32.932751     33.854      8.791   271.3488     0.8969     1.1161     0.0228      0.133      0.496      0.719        386 7.9204e+02   997.4047 0.0000e+00
      0.540    23.3911     9.6492    113.061  32.888599     33.883      8.786   269.9481     0.8893     1.0296     0.0228      0.138      0.529      0.767        387 8.4288e+02   997.4353 0.0000e+00
      0.570    23.3577     9.6396    112.924  32.821007     33.879      8.783   269.4938     0.9045     1.1017     0.0228      0.139      0.560      0.812        388 7.9590e+02   997.4540 0.0000e+00
      0.603    23.3347     9.6362    112.854  32.839130     33.915      8.782   264.8374     0.9007     1.1017     0.0228      0.136      0.590      0.855        389 7.3640e+02   997.4664 0.0000e+00
      0.630    23.3183     9.6488    112.961  32.866068     33.996      8.783   265.0267     1.1563     1.1882     0.0228      0.133      0.617      0.895        390 8.3409e+02   997.4746 0.0000e+00
      0.654    23.3057     9.6630    113.080  32.787499     33.897      8.781   265.1781     1.1411     1.0296     0.0228      0.128      0.641      0.930        391 8.6205e+02   997.4802 0.0000e+00
      0.677    23.2976     9.6826    113.267  32.818403     33.966      8.779   266.6924     1.1487     0.9864     0.0228      0.121      0.662      0.960        392 9.2229e+02   997.4843 0.0000e+00
      0.694    23.2922     9.7115    113.586  32.827618     33.975      8.778   266.9952     1.1601     1.0296     0.0228      0.111      0.682      0.989        393 6.1901e+02   997.4874 0.0000e+00
      0.715    23.2870     9.7392    113.893  32.776036     33.923      8.775   266.8060     1.1411     1.1161     0.0228      0.102      0.704      1.022        394 5.9611e+02   997.4894 0.0000e+00
      0.748    23.2807     9.7716    114.246  32.823340     33.984      8.773   265.8595     1.3394     1.0440     0.0228      0.098      0.734      1.065        395 5.2380e+02   997.4909 0.0000e+00
      0.782    23.2722     9.8051    114.602  32.828012     33.988      8.773   265.8974     1.3318     1.1306     0.0228      0.098      0.766      1.110        396 5.3258e+02   997.4923 0.0000e+00
      0.813    23.2619     9.8324    114.861  32.829485     33.992      8.772   266.6167     1.3356     1.0008     0.0228      0.099      0.796      1.153        397 5.8083e+02   997.4939 0.0000e+00
      0.839    23.2504     9.8455    114.937  32.821510     33.998      8.768   266.8438     1.3280     1.0008     0.0228      0.103      0.822      1.192        398 5.3701e+02   997.4960 0.0000e+00
      0.863    23.2358     9.8405    114.802  32.778682     33.948      8.767   267.2981     1.2746     1.1306     0.0228      0.106      0.846      1.227        399 7.7284e+02   997.4986 0.0000e+00
      0.888    23.2166     9.8167    114.450  32.764273     33.956      8.765   267.4495     1.2975     1.0296     0.0228      0.109      0.870      1.262        400 5.3032e+02   997.5014 0.0000e+00
      0.912    23.1944     9.7834    113.986  32.720929     33.908      8.763   267.2602     1.3013     1.1450     0.0227      0.110      0.894      1.296        401 4.3133e+02   997.5050 0.0000e+00
      0.934    23.1755     9.7376    113.372  32.714112     33.922      8.761   267.9417     1.2593     1.0008     0.0227      0.106      0.915      1.327        402 5.5973e+02   997.5098 0.0000e+00
      0.953    23.1660     9.6970    112.819  32.713508     33.937      8.760   268.2067     1.4424     1.1450     0.0227      0.100      0.935      1.357        403 4.3775e+02   997.5152 0.0000e+00
      0.975    23.1584     9.6865    112.624  32.721689     33.951      8.753   268.5095     1.4539     1.0873     0.0227      0.094      0.956      1.387        404 4.0192e+02   997.5197 0.0000e+00
      0.998    23.1468     9.7159    112.854  32.703937     33.957      8.752   269.4560     1.4424     0.9719     0.0227      0.090      0.978      1.419        405 3.6063e+02   997.5221 0.0000e+00
      1.018    23.1300     9.7716    113.330  32.646720     33.876      8.749   269.2288     1.4729     0.9719     0.0227      0.088      0.998      1.449        406 4.5970e+02   997.5240 0.0000e+00
      1.039    23.1023     9.8647    114.220  32.704014     33.971      8.745   266.0867     1.6217     1.2315     0.0227      0.086      1.021      1.481        407 7.2539e+02   997.5269 0.0000e+00
      1.066    23.0671     9.9655    115.210  32.721528     33.983      8.744   266.7302     1.6408     1.3757     0.0227      0.086      1.046      1.518        408 5.3593e+02   997.5310 0.0000e+00
      1.095    23.0317    10.0793    116.375  32.713819     34.002      8.743   266.3517     1.6599     1.3901     0.0227      0.088      1.074      1.558        409 4.1580e+02   997.5378 0.0000e+00
      1.125    22.9975    10.2162    117.822  32.772878     34.085      8.741   266.4652     1.6332     1.3324     0.0228      0.092      1.103      1.600        410 5.7633e+02   997.5463 0.0000e+00
      1.155    22.9628    10.3554    119.319  32.707305     34.052      8.739   268.6610     1.6866     1.2748     0.0227      0.098      1.132      1.642        411 4.8618e+02   997.5548 0.0000e+00
      1.184    22.9248    10.4689    120.511  32.588036     33.931      8.738   268.5095     1.7209     1.3613     0.0227      0.103      1.161      1.684        412 4.1047e+02   997.5630 0.0000e+00
      1.214    22.8876    10.5655    121.496  32.506514     33.897      8.734   263.9288     1.6980     1.2315     0.0226      0.108      1.190      1.725        413 4.4644e+02   997.5713 0.0000e+00
      1.242    22.8531    10.6374    122.202  32.482854     33.866      8.731   264.3831     1.6904     1.2603     0.0226      0.112      1.218      1.765        414 5.1541e+02   997.5805 0.0000e+00
      1.267    22.8008    10.6961    122.759  32.439723     33.893      8.731   264.3831     1.6827     1.2603     0.0226      0.114      1.244      1.803        415 4.7225e+02   997.5893 0.0000e+00
      1.295    22.7225    10.7415    123.216  32.323178     33.742      8.729   266.5410     1.6980     1.2459     0.0226      0.113      1.270      1.842        416 4.1784e+02   997.5975 0.0000e+00
      1.322    22.6355    10.7760    123.606  32.272367     33.778      8.725   266.6545     1.7018     1.3613     0.0226      0.111      1.297      1.881        417 4.3508e+02   997.6099 0.0000e+00
      1.350    22.5552    10.8142    124.028  32.117810     33.630      8.722   267.1088     1.6942     1.3324     0.0225      0.110      1.324      1.920        418 4.9717e+02   997.6284 0.0000e+00
      1.377    22.4868    10.8731    124.624  31.952617     33.544      8.724   267.0331     1.7094     1.2603     0.0224      0.108      1.351      1.959        419 5.1607e+02   997.6488 0.0000e+00
      1.403    22.4287    10.9085    124.891  31.944675     33.572      8.723   267.0331     1.8620     1.2027     0.0224      0.107      1.379      2.001        420 4.5036e+02   997.6676 0.0000e+00
      1.440    22.3803    10.9152    124.831  31.979588     33.679      8.721   267.4495     1.8620     1.3613     0.0224      0.109      1.412      2.048        421 4.2771e+02   997.6837 0.0000e+00
      1.476    22.3301    10.9013    124.554  31.998085     33.721      8.719   267.1088     1.8926     1.3613     0.0224      0.113      1.444      2.095        422 3.9977e+02   997.6973 0.0000e+00
      1.503    22.2761    10.8741    124.046  31.862427     33.637      8.717   267.5252     1.8811     1.2459     0.0224      0.116      1.473      2.136        423 4.3806e+02   997.7085 0.0000e+00
      1.527    22.2239    10.8444    123.488  31.704016     33.466      8.716   268.0553     2.0795     1.3469     0.0223      0.117      1.500      2.175        424 4.4852e+02   997.7202 0.0000e+00
      1.559    22.1750    10.8458    123.259  31.691573     33.534      8.714   271.2353     2.0451     1.2748     0.0223      0.118      1.528      2.216        425 4.0732e+02   997.7327 0.0000e+00
      1.588    22.1480    10.8881    123.419  31.581658     33.423      8.711   270.6295     2.0566     1.3469     0.0222      0.118      1.555      2.256        426 4.1232e+02   997.7448 0.0000e+00
      1.612    22.1451    10.9525    123.853  31.574177     33.458      8.709   270.6295     2.0680     1.3324     0.0222      0.117      1.580      2.291        427 3.7920e+02   997.7561 0.0000e+00
      1.632    22.1380    11.0831    125.074  31.760157     33.684      8.710   270.4403     1.8697     1.4334     0.0223      0.112      1.600      2.320        428 3.5765e+02   997.7625 0.0000e+00
      1.649    22.1049    11.2979    127.204  31.765008     33.686      8.707   270.9703     1.8849     1.5487     0.0223      0.104      1.620      2.349        429 3.6112e+02   997.7632 0.0000e+00
      1.672    22.0468    11.6037    130.175  31.686655     33.602      8.704   271.8031     1.8964     1.5487     0.0223      0.097      1.642      2.381        430 3.5110e+02   997.7649 0.0000e+00
      1.700    21.9913    11.9159    133.144  31.768788     33.715      8.703   271.2731     1.8811     1.4910     0.0223      0.095      1.669      2.421        431 3.0827e+02   997.7726 0.0000e+00
      1.734    21.9398    12.2211    135.996  31.662810     33.667      8.699   271.3110     1.8353     1.4334     0.0223      0.095      1.702      2.468        432 2.8565e+02   997.7860 0.0000e+00
      1.771    21.8593    12.5032    138.699  31.433408     33.411      8.697   271.3110     1.8124     1.4622     0.0222      0.098      1.735      2.516        433 2.8326e+02   997.7987 0.0000e+00
      1.800    21.7673    12.7721    141.531  31.313611     33.386      8.695   271.0838     1.7896     1.4910     0.0221      0.103      1.764      2.558        434 2.8816e+02   997.8104 0.0000e+00
      1.825    21.6634    13.0424    144.299  31.189748     33.236      8.694   272.4845     1.8315     1.5920     0.0221      0.108      1.790      2.597        435 3.0362e+02   997.8287 0.0000e+00
      1.854    21.5324    13.3202    146.696  30.935791     33.123      8.694   272.8631     1.8010     1.4045     0.0220      0.114      1.818      2.637        436 2.8999e+02   997.8494 0.0000e+00
      1.882    21.4075    13.5193    148.000  30.503882     32.627      8.693   270.4024     1.6026     1.5055     0.0217      0.117      1.846      2.678        437 2.9357e+02   997.8727 0.0000e+00
      1.912    21.3041    13.6295    148.378  30.216355     32.511      8.692   269.7967     1.5759     1.5776     0.0217      0.118      1.876      2.721        438 3.0342e+02   997.9019 0.0000e+00
      1.945    21.1817    13.6990    148.458  30.138252     32.417      8.692   270.0617     1.5759     1.4910     0.0216      0.117      1.906      2.765        439 2.9788e+02   997.9297 0.0000e+00
      1.974    21.0002    13.7495    148.425  30.038243     32.490      8.692   269.6831     1.5988     1.4910     0.0216      0.115      1.936      2.807        440 2.8211e+02   997.9526 0.0000e+00
      2.003    20.7942    13.7814    148.246  29.540981     31.939      8.694   270.1374     1.5836     1.2315     0.0213      0.114      1.966      2.851        441 2.8001e+02   997.9795 0.0000e+00
      2.037    20.5871    13.7859    147.817  29.127772     31.673      8.694   270.4024     1.5645     1.2171     0.0212      0.117      1.998      2.897        442 2.7636e+02   998.0190 0.0000e+00
      2.070    20.4299    13.7774    147.299  28.982442     31.631      8.697   270.1753     1.5912     1.3469     0.0211      0.120      2.029      2.942        443 2.8100e+02   998.0635 0.0000e+00
      2.098    20.3733    13.7707    146.806  28.951695     31.746      8.698   273.2038     1.5607     1.3036     0.0211      0.121      2.056      2.982        444 2.7992e+02   998.1078 0.0000e+00
      2.122    20.2894    13.7798    146.462  29.017996     31.949      8.700   272.4088     1.5797     1.2603     0.0211      0.120      2.081      3.019        445 2.5452e+02   998.1413 0.0000e+00
      2.149    20.0615    13.7960    146.180  28.840743     31.772      8.701   272.4845     1.5836     1.2171     0.0210      0.117      2.109      3.059        446 2.4866e+02   998.1533 0.0000e+00
      2.183    19.7607    13.7844    145.641  28.490974     31.458      8.701   270.8188     1.5683     1.2892     0.0208      0.116      2.139      3.101        447 2.5115e+02   998.1709 0.0000e+00
      2.208    19.4837    13.7565    145.003  28.209139     31.279      8.701   271.1595     1.5759     1.3180     0.0207      0.115      2.164      3.138        448 2.4951e+02   998.2184 0.0000e+00
      2.225    19.2556    13.7160    144.379  28.125133     31.427      8.702   271.7653     1.5378     1.3180     0.0207      0.110      2.184      3.168        449 2.3112e+02   998.2802 0.0000e+00
      2.251    19.0624    13.6996    143.990  28.092037     31.561      8.704   277.5196     1.5263     1.3036     0.0206      0.105      2.208      3.202        450 2.2034e+02   998.3364 0.0000e+00
      2.278    18.8872    13.6961    143.635  28.013449     31.660      8.703   276.8760     1.4920     1.1882     0.0206      0.102      2.234      3.241        451 2.1755e+02   998.3821 0.0000e+00
      2.306    18.7289    13.6708    143.374  27.897175     31.641      8.707   277.2546     1.5187     1.3324     0.0205      0.101      2.262      3.282        452 2.0571e+02   998.4203 0.0000e+00
      2.338    18.5855    13.6472    143.371  27.822098     31.703      8.706   277.2924     1.4195     1.0585     0.0205      0.103      2.291      3.323        453 2.0362e+02   998.4547 0.0000e+00
      2.364    18.4450    13.6244    143.388  27.781101     31.755      8.709   276.2703     1.3966     1.0296     0.0205      0.103      2.318      3.361        454 1.9610e+02   998.4855 0.0000e+00
      2.388    18.2969    13.6272    143.594  27.770524     31.858      8.709   276.9517     1.3890     1.0440     0.0205      0.102      2.343      3.398        455 1.8465e+02   998.5132 0.0000e+00
      2.417    18.1464    13.6701    143.593  27.716831     31.897      8.710   278.3903     1.3776     1.0873     0.0204      0.105      2.370      3.438        456 1.8319e+02   998.5401 0.0000e+00
      2.447    18.0062    13.6787    143.110  27.610999     31.877      8.705   279.2610     1.3852     1.0873     0.0204      0.109      2.398      3.478        457 1.8535e+02   998.5681 0.0000e+00
      2.471    17.8926    13.6513    142.345  27.606064     31.989      8.712   278.9960     1.4653     1.1306     0.0204      0.109      2.422      3.513        458 1.7633e+02   998.5964 0.0000e+00
      2.490    17.8254    13.5813    141.384  27.604539     32.093      8.709   279.2231     1.4729     0.9719     0.0204      0.106      2.443      3.543        459 1.6945e+02   998.6225 0.0000e+00
      2.513    17.7498    13.4756    140.072  27.553704     32.114      8.710   279.1474     1.4653     1.0008     0.0203      0.102      2.464      3.574        460 1.6905e+02   998.6435 0.0000e+00
      2.537    17.6482    13.3566    138.319  27.550880     32.164      8.710   279.4503     1.4386     1.0873     0.0203      0.098      2.483      3.602        461 1.6333e+02   998.6561 0.0000e+00
      2.546    17.6488    13.2332    136.546  27.548840     32.219      8.707   280.9646     1.5149     1.1161     0.0203      0.092      2.493      3.617        462 1.5908e+02   998.6699 0.0000e+00
      2.547    17.7261    13.1023    134.690  27.615519     32.365      8.706   282.4789     1.5035     1.1161     0.0203      0.081      2.497      3.623        463 1.5726e+02   998.6884 0.0000e+00
      2.549    17.8215    12.9707    132.819  27.645660     32.429      8.700   282.7060     1.5149     1.0873     0.0204      0.067      2.502      3.629        464 1.5708e+02   998.6883 0.0000e+00
      2.558    17.8658    12.8291    130.889  27.629819     32.301      8.702   280.9267     1.5302     1.0152     0.0203      0.054      2.513      3.646        465 1.5924e+02   998.6743 0.0000e+00
      2.583    17.7276    12.7003    129.134  27.575964     32.236      8.700   281.2296     1.7094     0.8422     0.0203      0.048      2.535      3.678        466 1.6218e+02   998.6571 0.0000e+00
      2.615    17.5269    12.5486    127.255  27.386811     31.898      8.701   281.2674     1.7094     0.7845     0.0202      0.050      2.563      3.717        467 1.5889e+02   998.6490 0.0000e+00
      2.639    17.3704    12.3995    125.524  27.272773     31.947      8.699   280.4724     1.6637     0.7701     0.0202      0.054      2.588      3.754        468 1.5754e+02   998.6743 0.0000e+00
      2.664    17.2896    12.2520    123.880  27.214353     31.961      8.699   281.3810     1.7094     0.7556     0.0201      0.063      2.612      3.789        469 1.5822e+02   998.7107 0.0000e+00
      2.689    17.2114    12.1276    122.373  27.192986     32.116      8.699   286.4539     1.7743     0.9575     0.0201      0.076      2.637      3.824        470 1.5575e+02   998.7388 0.0000e+00
      2.713    17.0400    12.0355    121.104  27.151313     32.077      8.695   286.8703     1.7476     1.0585     0.0201      0.088      2.663      3.861        471 1.5395e+02   998.7532 0.0000e+00
      2.743    16.8622    11.9614    119.964  27.058900     32.066      8.695   286.8324     1.7705     1.0152     0.0201      0.098      2.690      3.901        472 1.5211e+02   998.7670 0.0000e+00
      2.772    16.6857    11.9050    119.097  26.952572     32.036      8.693   287.4760     1.7476     1.1161     0.0200      0.103      2.717      3.941        473 1.5072e+02   998.7972 0.0000e+00
      2.796    16.5000    11.8587    118.500  26.868994     32.102      8.693   284.8639     2.2511     1.0873     0.0200      0.103      2.742      3.977        474 1.4907e+02   998.8281 0.0000e+00
      2.820    16.3258    11.8141    118.016  26.777901     32.106      8.694   285.0910     2.2550     0.9864     0.0199      0.102      2.768      4.014        475 1.4811e+02   998.8584 0.0000e+00
      2.850    16.1660    11.8018    117.713  26.651307     32.115      8.694   285.4696     2.2321     0.9719     0.0198      0.104      2.796      4.055        476 1.4738e+02   998.8901 0.0000e+00
      2.883    16.0403    11.8026    117.457  26.523049     32.081      8.696   290.7317     2.2359     1.0873     0.0197      0.106      2.824      4.097        477 1.4791e+02   998.9193 0.0000e+00
      2.906    15.9598    11.8174    117.337  26.404405     32.071      8.692   290.2396     2.2244     1.0729     0.0197      0.107      2.849      4.132        478 1.4659e+02   998.9457 0.0000e+00
      2.927    15.8986    11.8422    117.279  26.354705     32.101      8.691   290.7317     2.6670     1.0008     0.0197      0.106      2.870      4.162        479 1.4374e+02   998.9664 0.0000e+00
      2.946    15.8061    11.8732    117.268  26.229501     32.029      8.692   290.5046     2.6670     1.1017     0.0196      0.102      2.890      4.190        480 1.4227e+02   998.9795 0.0000e+00
      2.965    15.6723    11.8915    117.187  26.204807     32.006      8.690   289.5203     2.6822     0.9719     0.0196      0.097      2.910      4.220        481 1.4025e+02   998.9894 0.0000e+00
      2.990    15.5222    11.9073    117.101  26.148500     32.080      8.692   289.7475     2.6784     1.0296     0.0196      0.094      2.931      4.252        482 1.3769e+02   999.0044 0.0000e+00
      3.011    15.4024    11.9196    116.973  25.914547     31.807      8.690   289.7475     2.4953     0.8710     0.0194      0.091      2.953      4.283        483 1.3550e+02   999.0258 0.0000e+00
      3.032    15.3516    11.9230    116.772  25.903602     31.996      8.690   290.0882     2.4953     0.8566     0.0194      0.086      2.974      4.313        484 1.3257e+02   999.0495 0.0000e+00
      3.054    15.3319    11.9292    116.609  25.895589     32.021      8.688   290.5046     2.5029     0.9287     0.0194      0.083      2.994      4.343        485 1.2908e+02   999.0684 0.0000e+00
      3.074    15.2637    11.9198    116.271  25.865319     32.062      8.686   290.6560     2.4953     0.8133     0.0194      0.083      3.014      4.372        486 1.2685e+02   999.0763 0.0000e+00
      3.094    15.1588    11.9195    116.021  25.822817     32.005      8.686   290.6939     2.6212     0.9143     0.0193      0.083      3.035      4.402        487 1.2419e+02   999.0794 0.0000e+00
      3.117    15.0534    11.9102    115.714  25.711538     31.923      8.685   290.5803     2.6364     0.9287     0.0193      0.084      3.058      4.437        488 1.2087e+02   999.0900 0.0000e+00
      3.146    14.9331    11.8847    115.255  25.589149     31.867      8.684   290.3153     2.6250     0.7701     0.0192      0.086      3.086      4.477        489 1.1698e+02   999.1063 0.0000e+00
      3.179    14.8093    11.8702    114.831  25.471630     31.777      8.684   290.1639     2.6021     0.8422     0.0191      0.090      3.116      4.520        490 1.1208e+02   999.1224 0.0000e+00
      3.207    14.7053    11.8328    114.139  25.383920     31.802      8.685   291.8675     2.5830     0.8277     0.0191      0.095      3.145      4.562        491 1.0912e+02   999.1406 0.0000e+00
      3.235    14.6103    11.7869    113.364  25.254059     31.692      8.684   290.8832     2.5373     0.8133     0.0190      0.100      3.173      4.602        492 1.0850e+02   999.1592 0.0000e+00
      3.263    14.5126    11.7131    112.344  25.218615     31.774      8.684   292.0189     2.5640     0.7556     0.0190      0.105      3.200      4.641        493 1.0776e+02   999.1748 0.0000e+00
      3.289    14.4210    11.6451    111.405  25.191114     31.780      8.683   291.2996     2.5830     0.7845     0.0190      0.109      3.225      4.678        494 1.0699e+02   999.1888 0.0000e+00
      3.313    14.3320    11.5746    110.471  25.110604     31.788      8.683   290.1639     2.4838     0.4817     0.0189      0.110      3.250      4.713        495 1.0577e+02   999.2031 0.0000e+00
      3.340    14.2362    11.4987    109.516  24.993034     31.685      8.681   290.1639     2.5029     0.5826     0.0189      0.109      3.276      4.751        496 1.0415e+02   999.2164 0.0000e+00
      3.370    14.1389    11.4196    108.585  24.922798     31.685      8.681   290.1260     2.4953     0.5826     0.0188      0.107      3.305      4.794        497 1.0380e+02   999.2293 0.0000e+00
      3.402    14.0538    11.3265    107.568  24.901859     31.728      8.681   296.2589     2.5067     0.6403     0.0188      0.107      3.336      4.839        498 1.0299e+02   999.2431 0.0000e+00
      3.433    13.9693    11.2360    106.559  24.871032     31.771      8.681   294.6689     2.5296     0.5682     0.0188      0.109      3.367      4.884        499 1.0062e+02   999.2569 0.0000e+00
      3.465    13.8583    11.1345    105.420  24.872337     31.840      8.683   295.2746     2.6059     0.3663     0.0188      0.112      3.399      4.931        500 9.9069e+01   999.2690 0.0000e+00
      3.503    13.7270    11.0245    104.191  24.811410     31.837      8.681   295.4639     2.6364     0.3519     0.0187      0.117      3.434      4.981        501 9.7537e+01   999.2810 0.0000e+00
      3.538    13.5952    10.8854    102.798  24.709939     31.785      8.680   292.7382     2.6326     0.2798     0.0187      0.123      3.467      5.029        502 9.5587e+01   999.2963 0.0000e+00
      3.566    13.4702    10.7593    101.475  24.702471     31.892      8.683   293.0032     2.5983     0.3807     0.0187      0.127      3.497      5.071        503 9.4277e+01   999.3144 0.0000e+00
      3.594    13.3542    10.6265     99.980  24.702274     32.002      8.680   292.9653     2.7432     0.6403     0.0187      0.127      3.525      5.112        504 9.2551e+01   999.3323 0.0000e+00
      3.625    13.2487    10.4702     98.374  24.650992     32.033      8.681   297.5461     2.7127     0.5249     0.0186      0.126      3.554      5.154        505 9.0591e+01   999.3491 0.0000e+00
      3.654    13.1542    10.3145     96.823  24.647860     32.130      8.681   297.3189     2.7471     0.6259     0.0186      0.124      3.581      5.194        506 8.8532e+01   999.3646 0.0000e+00
      3.675    13.0820    10.1335     94.912  24.646974     32.219      8.680   297.1675     2.7623     0.5393     0.0186      0.120      3.604      5.227        507 8.6433e+01   999.3784 0.0000e+00
      3.696    13.0252     9.9559     93.013  24.563276     32.189      8.682   297.1675     2.7051     0.5826     0.0186      0.113      3.625      5.258        508 8.4547e+01   999.3907 0.0000e+00
      3.720    12.9640     9.7703     91.159  24.574343     32.250      8.682   296.2589     2.7547     0.6547     0.0185      0.106      3.649      5.293        509 8.2374e+01   999.4001 0.0000e+00
      3.748    12.8872     9.5706     89.309  24.544371     32.297      8.679   296.1832     2.7394     0.6259     0.0185      0.102      3.678      5.334        510 8.0415e+01   999.4074 0.0000e+00
      3.783    12.8109     9.3759     87.441  24.482123     32.204      8.676   295.9939     2.7623     0.5682     0.0185      0.102      3.710      5.380        511 7.8448e+01   999.4153 0.0000e+00
      3.815    12.7733     9.1720     85.381  24.562978     32.451      8.677   295.1989     2.7318     0.5538     0.0186      0.104      3.741      5.426        512 7.6136e+01   999.4252 0.0000e+00
      3.846    12.7148     8.9779     83.402  24.532631     32.409      8.676   295.8425     2.7432     0.5970     0.0185      0.107      3.771      5.470        513 7.4139e+01   999.4348 0.0000e+00
      3.876    12.6105     8.7846     81.430  24.490296     32.439      8.678   295.6910     2.7432     0.5538     0.0185      0.111      3.800      5.512        514 7.2699e+01   999.4396 0.0000e+00
      3.901    12.5485     8.6192     79.729  24.467590     32.414      8.675   295.6910     2.7471     0.5970     0.0185      0.115      3.825      5.548        515 7.1483e+01   999.4470 0.0000e+00
      3.923    12.5049     8.4592     78.092  24.501673     32.581      8.675   295.8803     3.0179     0.4817     0.0185      0.116      3.849      5.582        516 7.0072e+01   999.4598 0.0000e+00
      3.951    12.4087     8.2896     76.375  24.447909     32.560      8.674   295.5396     3.0294     0.5682     0.0185      0.114      3.876      5.621        517 6.8457e+01   999.4675 0.0000e+00
      3.982    12.2967     8.1187     74.663  24.416050     32.521      8.677   295.6153     3.0332     0.5682     0.0184      0.112      3.904      5.663        518 6.6812e+01   999.4729 0.0000e+00
      4.011    12.2407     7.9360     72.874  24.452487     32.719      8.672   298.1139     3.0637     0.5682     0.0185      0.109      3.933      5.704        519 6.4995e+01   999.4846 0.0000e+00
      4.039    12.2436     7.7503     71.084  24.432211     32.705      8.672   297.9246     3.0408     0.5682     0.0184      0.108      3.961      5.744        520 6.3639e+01   999.4980 0.0000e+00
      4.067    12.2183     7.5438     69.125  24.470933     32.906      8.669   298.4168     3.9411     0.5826     0.0185      0.108      3.990      5.786        521 6.3116e+01   999.5047 0.0000e+00
      4.099    12.1380     7.3551     67.346  24.374699     32.675      8.669   299.4389     3.9411     0.5970     0.0184      0.110      4.023      5.835        522 6.2292e+01   999.5046 0.0000e+00
      4.142    12.0464     7.1818     65.717  24.374270     32.772      8.666   297.5461     3.9602     0.6259     0.0184      0.116      4.061      5.892        523 6.1241e+01   999.5077 0.0000e+00
      4.185    11.9518     7.0468     64.444  24.353006     32.769      8.670   297.5461     3.9602     0.5393     0.0184      0.125      4.101      5.949        524 6.0708e+01   999.5173 0.0000e+00
      4.219    11.8593     6.9510     63.529  24.282716     32.774      8.667   297.5461     4.9367     0.5249     0.0183      0.131      4.136      6.000        525 5.9984e+01   999.5280 0.0000e+00
      4.251    11.7716     6.9008     63.029  24.254451     32.821      8.668   302.5054     4.9634     0.6547     0.0183      0.135      4.168      6.047        526 5.9199e+01   999.5389 0.0000e+00
      4.284    11.6844     6.8822     62.820  24.180887     32.790      8.670   303.4896     4.9634     0.5826     0.0183      0.138      4.201      6.094        527 5.8552e+01   999.5495 0.0000e+00
      4.320    11.6047     6.8854     62.815  24.166970     32.868      8.666   304.2089     4.9825     0.6403     0.0182      0.141      4.236      6.144        528 5.7686e+01   999.5594 0.0000e+00
      4.355    11.5394     6.8864     62.800  24.094094     32.832      8.664   304.6254     5.5013     0.5682     0.0182      0.142      4.270      6.192        529 5.6922e+01   999.5692 0.0000e+00
      4.386    11.4873     6.8647     62.600  23.975435     32.751      8.664   303.3004     5.4975     0.5682     0.0181      0.139      4.300      6.237        530 5.6498e+01   999.5780 0.0000e+00
      4.413    11.4465     6.7933     61.969  23.929639     32.733      8.664   303.6032     5.5089     0.6259     0.0181      0.133      4.327      6.277        531 5.6148e+01   999.5853 0.0000e+00
      4.440    11.4141     6.6726     60.867  23.914168     32.780      8.663   303.7168     5.4822     0.6547     0.0181      0.127      4.355      6.317        532 5.5534e+01   999.5911 0.0000e+00
      4.472    11.3861     6.5311     59.553  23.846618     32.702      8.662   303.2246     5.3525     0.7989     0.0180      0.124      4.385      6.360        533 5.4871e+01   999.5956 0.0000e+00
      4.503    11.3608     6.3827     58.168  23.865631     32.769      8.662   303.5275     5.3754     0.6835     0.0180      0.122      4.416      6.405        534 5.4139e+01   999.5992 0.0000e+00
      4.534    11.3340     6.2423     56.870  23.920137     32.871      8.661   305.0418     5.3754     0.7845     0.0181      0.120      4.447      6.450        535 5.3142e+01   999.6023 0.0000e+00
      4.568    11.3052     6.1140     55.707  23.926882     32.894      8.657   305.1932     5.3678     0.8566     0.0181      0.119      4.478      6.495        536 5.2185e+01   999.6052 0.0000e+00
      4.597    11.2785     6.0319     54.928  24.034949     33.072      8.658   304.7389     5.2190     0.8710     0.0181      0.119      4.505      6.534        537 5.1416e+01   999.6082 0.0000e+00
      4.616    11.2552     5.9966     54.511  24.170688     33.290      8.655   304.2846     5.1923     0.8133     0.0182      0.117      4.525      6.563        538 5.0771e+01   999.6114 0.0000e+00
      4.631    11.2380     5.9964     54.401  24.231849     33.392      8.658   304.0196     5.1961     0.9287     0.0182      0.112      4.539      6.583        539 5.0382e+01   999.6143 0.0000e+00
      4.638    11.2375     6.0156     54.482  24.195783     33.375      8.654   302.6568     5.2038     0.7845     0.0182      0.102      4.546      6.594        540 5.0139e+01   999.6167 0.0000e+00
      4.638    11.2505     6.0296     54.528  24.097107     33.237      8.652   302.9218     5.2038     0.7268     0.0182      0.086      4.551      6.600        541 4.9581e+01   999.6185 0.0000e+00
      4.646    11.2506     6.0107     54.297  24.088097     33.238      8.650   302.7704     5.1504     0.7412     0.0182      0.069      4.559      6.612        542 4.8686e+01   999.6186 0.0000e+00
      4.662    11.2332     5.9261     53.473  24.177381     33.340      8.648   303.3004     5.1237     0.7556     0.0182      0.055      4.574      6.634        543 4.7502e+01   999.6173 0.0000e+00
      4.683    11.2097     5.7842     52.097  24.163699     33.340      8.647   302.7325     5.1389     0.9143     0.0182      0.047      4.594      6.663        544 4.6280e+01   999.6174 0.0000e+00
      4.708    11.1965     5.5918     50.285  24.045887     33.164      8.644   302.1646     5.1618     0.8710     0.0181      0.047      4.616      6.695        545 4.5554e+01   999.6193 0.0000e+00
      4.729    11.1995     5.3687     48.261  24.087057     33.262      8.645   301.7482     5.3831     0.7412     0.0182      0.052      4.638      6.727        546 4.5216e+01   999.6219 0.0000e+00
      4.751    11.1747     5.1449     46.248  24.082852     33.275      8.646   301.2182     5.3792     0.7989     0.0182      0.061      4.662      6.763        547 4.4709e+01   999.6233 0.0000e+00
      4.784    11.0999     4.9439     44.421  23.991891     33.117      8.644   306.4046     5.3831     0.7556     0.0181      0.074      4.694      6.808        548 4.3678e+01   999.6231 0.0000e+00
      4.827    11.0140     4.7691     42.781  24.081790     33.294      8.641   305.8368     5.3564     0.7124     0.0182      0.091      4.731      6.862        549 4.2710e+01   999.6259 0.0000e+00
      4.862    10.9402     4.6175     41.227  24.178307     33.480      8.640   306.1775     5.7912     0.8566     0.0182      0.105      4.765      6.910        550 4.2189e+01   999.6339 0.0000e+00
      4.886    10.8764     4.5130     40.085  24.227212     33.637      8.637   307.0104     5.7798     0.7845     0.0182      0.113      4.792      6.950        551 4.1678e+01   999.6429 0.0000e+00
      4.913    10.8291     4.4447     39.364  24.287516     33.784      8.640   303.9818     5.8065     0.7845     0.0183      0.117      4.818      6.987        552 4.0918e+01   999.6504 0.0000e+00
      4.940    10.7790     4.3745     38.684  24.280992     33.844      8.636   304.3225     5.7836     0.7845     0.0183      0.119      4.844      7.026        553 4.0199e+01   999.6569 0.0000e+00
      4.966    10.7018     4.3247     38.179  24.235353     33.811      8.635   304.3604     5.8103     0.7845     0.0182      0.120      4.872      7.067        554 3.9290e+01   999.6617 0.0000e+00
      5.001    10.6356     4.2882     37.809  24.314712     33.974      8.633   307.5782     5.8103     0.7989     0.0183      0.119      4.903      7.111        555 3.8113e+01   999.6669 0.0000e+00
      5.032    10.6189     4.2701     37.609  24.389575     34.166      8.636   308.6761     5.7836     0.7989     0.0183      0.116      4.931      7.152        556 3.7391e+01   999.6747 0.0000e+00
      5.051    10.6161     4.2760     37.628  24.290302     34.074      8.633   308.2597     5.8141     0.8566     0.0182      0.111      4.952      7.183        557 3.6831e+01   999.6812 0.0000e+00
      5.068    10.5994     4.2925     37.755  24.290185     34.089      8.630   308.0325     5.9667     0.8710     0.0182      0.106      4.970      7.208        558 3.6140e+01   999.6829 0.0000e+00
      5.086    10.5240     4.3247     38.035  24.389726     34.247      8.628   307.5782     5.9858     0.7845     0.0183      0.102      4.990      7.237        559 3.5327e+01   999.6832 0.0000e+00
      5.112    10.3283     4.3635     38.377  24.344136     34.187      8.629   307.6918     5.9896     0.7845     0.0183      0.097      5.015      7.274        560 3.4175e+01   999.6849 0.0000e+00
      5.144    10.1078     4.4199     38.880  24.287698     34.176      8.626   308.4111     5.9705     0.8133     0.0182      0.096      5.045      7.317        561 3.3059e+01   999.6923 0.0000e+00
      5.177     9.9838     4.4553     39.194  24.311903     34.409      8.628   306.2532     5.9476     0.7989     0.0182      0.096      5.076      7.362        562 3.2094e+01   999.7108 0.0000e+00
      5.206     9.9177     4.5040     39.603  24.284452     34.587      8.627   307.0482     6.3787     1.1017     0.0182      0.097      5.105      7.403        563 3.1187e+01   999.7310 0.0000e+00
      5.232     9.8494     4.5299     39.808  24.233071     34.629      8.631   307.3132     6.3978     1.0008     0.0182      0.101      5.130      7.440        564 3.0390e+01   999.7421 0.0000e+00
      5.255     9.7932     4.5669     40.122  24.227801     34.692      8.627   307.6161     6.3825     1.0296     0.0182      0.105      5.154      7.475        565 2.9672e+01   999.7480 0.0000e+00
      5.280     9.7493     4.5853     40.278  24.231802     34.763      8.627   307.4647     6.3749     1.0152     0.0182      0.108      5.179      7.512        566 2.8859e+01   999.7540 0.0000e+00
      5.309     9.7120     4.6038     40.433  24.228114     34.817      8.624   307.0861     6.2795     1.0585     0.0182      0.109      5.205      7.549        567 2.8110e+01   999.7591 0.0000e+00
      5.332     9.6927     4.6151     40.526  24.232409     34.862      8.622   307.3132     6.2643     1.0873     0.0182      0.106      5.227      7.582        568 2.7666e+01   999.7630 0.0000e+00
      5.351     9.6887     4.6282     40.638  24.256090     34.939      8.622   309.9254     6.2757     1.0585     0.0182      0.101      5.246      7.609        569 2.7176e+01   999.7662 0.0000e+00
      5.367     9.6894     4.6444     40.778  24.228273     34.919      8.621   309.3575     6.2528     0.8854     0.0182      0.095      5.264      7.635        570 2.6698e+01   999.7678 0.0000e+00
      5.386     9.6966     4.6487     40.815  24.237415     34.922      8.620   309.6604     6.6610     1.5055     0.0182      0.090      5.286      7.665        571 2.6188e+01   999.7683 0.0000e+00
      5.417     9.6990     4.6589     40.902  24.274332     35.003      8.616   311.0611     6.6305     1.5343     0.0182      0.088      5.312      7.703        572 2.5687e+01   999.7684 0.0000e+00
      5.444     9.6787     4.6608     40.919  24.241565     34.915      8.613   311.4775     6.6229     1.5343     0.0182      0.089      5.338      7.741        573 2.5402e+01   999.7679 0.0000e+00
      5.467     9.6545     4.6776     41.069  24.218958     34.911      8.610   308.9032     6.6267     1.5487     0.0182      0.089      5.363      7.778        574 2.5058e+01   999.7678 0.0000e+00
      5.494     9.6429     4.6869     41.150  24.243233     34.933      8.610   308.8654     6.2337     1.5343     0.0182      0.090      5.389      7.817        575 2.4614e+01   999.7696 0.0000e+00
      5.526     9.6365     4.6970     41.236  24.240977     34.997      8.607   314.8468     6.2261     1.5199     0.0182      0.096      5.419      7.860        576 2.4175e+01   999.7718 0.0000e+00
      5.558     9.6290     4.7084     41.332  24.251390     34.969      8.607   315.1497     6.2147     1.4910     0.0182      0.103      5.452      7.908        577 2.3604e+01   999.7730 0.0000e+00
      5.596     9.6227     4.7073     41.321  24.259897     35.056      8.605   314.8468     6.1918     1.5487     0.0182      0.111      5.488      7.960        578 2.2831e+01   999.7737 0.0000e+00
      5.635     9.6196     4.7131     41.370  24.200775     34.902      8.604   315.4147     5.7455     2.5725     0.0181      0.119      5.524      8.011        579 2.2270e+01   999.7744 0.0000e+00
      5.665     9.6173     4.7062     41.305  24.265734     35.070      8.602   315.4904     4.7002     2.6158     0.0182      0.123      5.554      8.055        580 2.1963e+01   999.7752 0.0000e+00
      5.689     9.6154     4.7142     41.371  24.238295     34.992      8.600   313.5597     4.6506     2.5149     0.0182      0.126      5.579      8.091        581 2.1584e+01   999.7755 0.0000e+00
      5.712     9.6139     4.7051     41.291  24.175687     34.914      8.599   313.1432     4.6735     2.5149     0.0181      0.126      5.602      8.125        582 2.1222e+01   999.7758 0.0000e+00
      5.735     9.6141     4.7072     41.310  24.254797     35.037      8.597   314.0897     4.6506     2.5870     0.0182      0.121      5.622      8.155        583 2.1002e+01   999.7761 0.0000e+00
      5.752     9.6161     4.7097     41.333  24.228700     34.998      8.596   315.4904     3.2048     2.9042     0.0182      0.113      5.641      8.182        584 2.0733e+01   999.7763 0.0000e+00
      5.772     9.6162     4.7091     41.328  24.237782     34.998      8.597   314.9225     3.2315     2.8465     0.0182      0.103      5.663      8.213        585 2.0266e+01   999.7763 0.0000e+00
      5.800     9.6126     4.7107     41.340  24.273113     35.076      8.593   314.6575     3.2354     2.7888     0.0182      0.095      5.689      8.251        586 1.9644e+01   999.7763 0.0000e+00
      5.832     9.6091     4.7085     41.318  24.243967     34.996      8.593   314.8090     3.2354     2.7456     0.0182      0.091      5.719      8.294        587 1.9038e+01   999.7764 0.0000e+00
      5.862     9.6080     4.7123     41.351  24.274052     35.080      8.590   314.3547     2.8005     3.2935     0.0182      0.093      5.747      8.335        588 1.8534e+01   999.7769 0.0000e+00
      5.887     9.6060     4.7018     41.260  24.235673     35.003      8.588   314.2032     2.8157     3.3512     0.0182      0.097      5.772      8.372        589 1.8020e+01   999.7773 0.0000e+00
      5.910     9.6011     4.7083     41.319  24.232495     35.004      8.586   313.2568     2.8043     3.2503     0.0182      0.100      5.797      8.407        590 1.7501e+01   999.7775 0.0000e+00
      5.935     9.5971     4.7070     41.310  24.248391     35.046      8.584   312.4997     2.7852     3.2935     0.0182      0.103      5.822      8.444        591 1.6857e+01   999.7778 0.0000e+00
      5.964     9.5967     4.7073     41.316  24.186275     34.930      8.580   312.8025     2.3732     3.4233     0.0181      0.106      5.849      8.483        592 1.6180e+01   999.7783 0.0000e+00
      5.992     9.5976     4.7044     41.294  24.220947     35.015      8.578   312.7647     2.3656     3.4521     0.0182      0.107      5.876      8.523        593 1.5624e+01   999.7787 0.0000e+00
      6.020     9.5987     4.7031     41.285  24.234861     35.015      8.577   312.3861     2.3770     3.4233     0.0182      0.106      5.901      8.559        594 1.5173e+01   999.7789 0.0000e+00
      6.040     9.5991     4.7002     41.267  24.228194     35.015      8.575   311.4018     2.3465     3.4521     0.0182      0.103      5.923      8.590        595 1.4795e+01   999.7790 0.0000e+00
      6.060     9.5968     4.6976     41.250  24.229243     35.013      8.574   311.1747     2.1481     3.6829     0.0182      0.100      5.942      8.618        596 1.4426e+01   999.7790 0.0000e+00
      6.078     9.5941     4.7011     41.273  24.233556     35.013      8.574   310.4932     2.1253     3.6829     0.0182      0.097      5.959      8.642        597 1.4174e+01   999.7790 0.0000e+00
      6.091     9.5935     4.6977     41.234  24.252446     35.056      8.571   315.8311     2.1291     3.7550     0.0182      0.091      5.972      8.661        598 1.4066e+01   999.7793 0.0000e+00
      6.100     9.5944     4.6917     41.180  24.176117     34.938      8.571   315.2632     2.1367     3.7261     0.0181      0.082      5.983      8.677        599 1.3989e+01   999.7795 0.0000e+00
      6.111     9.5966     4.6950     41.210  24.180457     34.938      8.568   315.6418     2.1253     3.7117     0.0181      0.071      5.996      8.696        600 1.3675e+01   999.7796 0.0000e+00
      6.130     9.5993     4.6950     41.209  24.217427     35.018      8.570   313.5218     2.1977     3.8126     0.0182      0.064      6.015      8.725        601 1.3147e+01   999.7797 0.0000e+00
      6.162     9.6024     4.6949     41.201  24.248579     35.016      8.564   313.9382     2.1825     3.7405     0.0182      0.063      6.040      8.761        602 1.2650e+01   999.7796 0.0000e+00
      6.185     9.6058     4.6909     41.159  24.260161     35.093      8.563   313.5597     2.1825     3.6540     0.0182      0.066      6.061      8.791        603 1.2481e+01   999.7795 0.0000e+00
      6.194     9.6088     4.6869     41.120  24.203013     34.929      8.562   313.2190     2.1748     3.7261     0.0181      0.067      6.075      8.811        604 1.2356e+01   999.7793 0.0000e+00
      6.206     9.6160     4.6810     41.066  24.230843     35.046      8.561   314.9982     2.1748     3.6540     0.0182      0.068      6.088      8.831        605 1.2000e+01   999.7791 0.0000e+00
      6.226     9.6216     4.6721     40.986  24.255145     35.003      8.558   315.9825     2.1863     3.7405     0.0182      0.070      6.107      8.858        606 1.1601e+01   999.7789 0.0000e+00
      6.250     9.6144     4.6673     40.939  24.261624     35.077      8.556   315.8311     2.2283     3.7405     0.0182      0.074      6.132      8.893        607 1.1083e+01   999.7785 0.0000e+00
      6.282     9.6049     4.6681     40.942  24.252396     34.990      8.555   316.0961     2.1863     3.6829     0.0182      0.078      6.162      8.937        608 1.0558e+01   999.7781 0.0000e+00
      6.317     9.6034     4.6693     40.953  24.266627     35.078      8.555   315.5661     2.1634     3.6540     0.0182      0.083      6.194      8.984        609 9.9979e+00   999.7789 0.0000e+00
      6.350     9.6047     4.6721     40.980  24.243915     35.007      8.552   315.1118     2.1329     3.7405     0.0182      0.089      6.224      9.027        610 9.5947e+00   999.7798 0.0000e+00
      6.371     9.6032     4.6834     41.077  24.221427     35.009      8.551   315.1875     2.1481     3.7261     0.0182      0.097      6.247      9.060        611 9.3975e+00   999.7800 0.0000e+00
      6.388     9.5967     4.6940     41.169  24.205760     34.967      8.550   313.9382     2.1481     3.7261     0.0181      0.104      6.268      9.091        612 9.0223e+00   999.7800 0.0000e+00
      6.418     9.5896     4.7002     41.223  24.233795     35.009      8.549   313.8625     2.1901     3.6252     0.0182      0.108      6.296      9.131        613 8.5377e+00   999.7803 0.0000e+00
      6.453     9.5856     4.7060     41.274  24.275393     35.096      8.546   314.3168     2.1863     3.6829     0.0182      0.110      6.328      9.178        614 8.1585e+00   999.7810 0.0000e+00
      6.486     9.5831     4.7150     41.354  24.183613     34.942      8.544   314.7332     2.2168     3.7838     0.0181      0.111      6.359      9.223        615 7.8513e+00   999.7817 0.0000e+00
      6.515     9.5805     4.7184     41.384  24.170307     34.946      8.543   314.5061     2.1977     3.7550     0.0181      0.111      6.389      9.265        616 7.4757e+00   999.7822 0.0000e+00
      6.542     9.5761     4.7236     41.429  24.232717     35.029      8.541   314.3168     2.1291     3.7405     0.0182      0.111      6.415      9.303        617 7.1557e+00   999.7825 0.0000e+00
      6.565     9.5720     4.7267     41.456  24.224420     35.032      8.539   313.5975     2.1405     3.7838     0.0182      0.111      6.438      9.338        618 6.9657e+00   999.7828 0.0000e+00
      6.588     9.5724     4.7303     41.490  24.210253     34.996      8.539   316.2854     2.1520     3.7838     0.0181      0.112      6.463      9.374        619 6.7036e+00   999.7833 0.0000e+00
      6.618     9.5742     4.7284     41.477  24.279967     35.121      8.536   316.2854     2.1596     3.6396     0.0182      0.112      6.491      9.414        620 6.4150e+00   999.7837 0.0000e+00
      6.650     9.5731     4.7287     41.478  24.226516     35.040      8.535   316.7018     2.1100     3.6973     0.0182      0.110      6.522      9.459        621 6.1430e+00   999.7839 0.0000e+00
      6.685     9.5716     4.7256     41.454  24.247152     35.038      8.534   316.9668     2.0490     3.7838     0.0182      0.109      6.556      9.509        622 5.8580e+00   999.7839 0.0000e+00
      6.723     9.5707     4.7200     41.406  24.254286     35.120      8.532   317.2318     2.0719     3.7261     0.0182      0.113      6.591      9.560        623 5.6139e+00   999.7841 0.0000e+00
      6.756     9.5710     4.7193     41.398  24.128786     34.839      8.533   315.8311     2.0757     3.7550     0.0181      0.118      6.624      9.607        624 5.4154e+00   999.7844 0.0000e+00
      6.784     9.5723     4.7230     41.427  24.196010     35.042      8.531   315.6040     2.0566     3.7838     0.0182      0.123      6.655      9.652        625 5.2379e+00   999.7846 0.0000e+00
      6.819     9.5721     4.7271     41.460  24.229863     35.001      8.526   319.8061     1.8697     3.7117     0.0181      0.128      6.686      9.697        626 5.0390e+00   999.7848 0.0000e+00
      6.850     9.5718     4.7337     41.518  24.205129     35.040      8.526   319.8818     1.8735     3.7117     0.0182      0.130      6.714      9.737        627 4.8879e+00   999.7849 0.0000e+00
      6.869     9.5722     4.7289     41.475  24.197174     34.960      8.523   320.1090     1.8964     3.7550     0.0181      0.126      6.734      9.767        628 4.8252e+00   999.7850 0.0000e+00
      6.882     9.5749     4.7342     41.518  24.210145     35.041      8.521   320.3740     1.8811     3.6540     0.0182      0.117      6.752      9.792        629 4.7185e+00   999.7850 0.0000e+00
      6.904     9.5772     4.7368     41.537  24.188987     34.960      8.521   319.4275     1.8086     3.7550     0.0181      0.107      6.773      9.823        630 4.5026e+00   999.7851 0.0000e+00
      6.934     9.5773     4.7281     41.461  24.164269     34.957      8.521   319.6168     1.8201     3.7838     0.0181      0.100      6.800      9.861        631 4.3160e+00   999.7850 0.0000e+00
      6.962     9.5795     4.7209     41.401  24.181669     34.954      8.519   319.8818     1.8468     3.8703     0.0181      0.096      6.825      9.898        632 4.2103e+00   999.7849 0.0000e+00
      6.980     9.5810     4.7095     41.309  24.226567     35.035      8.518   319.4654     1.8277     3.6829     0.0182      0.093      6.846      9.929        633 4.1567e+00   999.7851 0.0000e+00
      7.000     9.5789     4.7052     41.274  24.256484     35.073      8.516   317.9133     1.9498     3.8703     0.0182      0.089      6.868      9.962        634 4.0253e+00   999.7850 0.0000e+00
      7.032     9.5748     4.7022     41.246  24.233293     35.031      8.512   318.7461     1.9612     3.9568     0.0182      0.090      6.898     10.006        635 3.8030e+00   999.7850 0.0000e+00
      7.071     9.5725     4.7096     41.307  24.225812     35.033      8.513   318.8597     1.9841     3.9857     0.0182      0.098      6.933     10.056        636 3.6397e+00   999.7853 0.0000e+00
      7.106     9.5727     4.7067     41.277  24.236177     35.038      8.511   319.6168     1.9612     3.9857     0.0182      0.107      6.967     10.105        637 3.5121e+00   999.7859 0.0000e+00
      7.138     9.5711     4.7033     41.244  24.279630     35.121      8.511   319.5033     2.0413     3.6973     0.0182      0.113      6.997     10.149        638 3.3614e+00   999.7862 0.0000e+00
      7.163     9.5677     4.7092     41.295  24.230971     35.040      8.509   318.8975     2.0680     3.6973     0.0182      0.115      7.022     10.185        639 3.2524e+00   999.7863 0.0000e+00
      7.181     9.5651     4.7157     41.351  24.178259     34.961      8.507   318.4811     2.0909     3.7838     0.0181      0.116      7.043     10.216        640 3.2017e+00   999.7865 0.0000e+00
      7.204     9.5645     4.7174     41.365  24.197140     35.004      8.506   316.1340     2.0871     3.7405     0.0181      0.115      7.066     10.249        641 3.0889e+00   999.7869 0.0000e+00
      7.231     9.5681     4.7198     41.386  24.237094     35.048      8.506   316.7397     2.0528     3.7405     0.0182      0.112      7.092     10.286        642 2.9487e+00   999.7873 0.0000e+00
      7.259     9.5750     4.7105     41.304  24.217392     35.048      8.502   316.6640     2.1863     3.9424     0.0182      0.106      7.119     10.325        643 2.8245e+00   999.7874 0.0000e+00
      7.287     9.5788     4.7107     41.304  24.192041     34.964      8.501   316.5504     2.2016     3.9568     0.0181      0.102      7.145     10.363        644 2.7209e+00   999.7873 0.0000e+00
      7.310     9.5771     4.7085     41.284  24.209407     35.037      8.502   316.7775     2.1939     3.9568     0.0182      0.099      7.169     10.398        645 2.6558e+00   999.7868 0.0000e+00
      7.334     9.5727     4.7072     41.273  24.195780     34.953      8.497   315.4904     2.1634     3.9136     0.0181      0.098      7.195     10.436        646 2.5382e+00   999.7866 0.0000e+00
      7.367     9.5684     4.6963     41.178  24.208999     35.035      8.497   314.9982     2.1214     3.6684     0.0182      0.101      7.226     10.481        647 2.3833e+00   999.7869 0.0000e+00
      7.405     9.5652     4.6972     41.187  24.222574     35.000      8.494   318.9354     2.1138     3.7550     0.0181      0.107      7.260     10.529        648 2.2828e+00   999.7874 0.0000e+00
      7.435     9.5637     4.6968     41.182  24.208504     35.044      8.494   319.1247     2.1062     3.7838     0.0182      0.111      7.290     10.573        649 2.2065e+00   999.7879 0.0000e+00
      7.461     9.5633     4.6976     41.189  24.196892     34.967      8.493   319.0490     2.1291     3.7261     0.0181      0.114      7.317     10.613        650 2.1528e+00   999.7884 0.0000e+00
      7.489     9.5627     4.7005     41.214  24.207409     35.049      8.490   319.3140     2.1748     3.8992     0.0182      0.115      7.343     10.650        651 2.0729e+00   999.7886 0.0000e+00
      7.513     9.5620     4.7057     41.259  24.195416     34.968      8.490   319.6547     2.2054     4.0289     0.0181      0.115      7.367     10.684        652 2.0088e+00   999.7887 0.0000e+00
      7.534     9.5612     4.7117     41.312  24.211817     35.050      8.487   317.2318     2.1901     4.0145     0.0182      0.113      7.387     10.714        653 1.9826e+00   999.7889 0.0000e+00
      7.551     9.5602     4.7175     41.362  24.186998     34.970      8.485   317.4211     2.2016     3.8992     0.0181      0.107      7.407     10.742        654 1.8974e+00   999.7890 0.0000e+00
      7.572     9.5596     4.7151     41.341  24.196684     35.011      8.484   319.6925     1.9536     3.7261     0.0181      0.099      7.429     10.775        655 1.7959e+00   999.7892 0.0000e+00
      7.604     9.5594     4.7134     41.326  24.229382     35.052      8.485   320.8661     1.9269     3.6973     0.0182      0.094      7.457     10.815        656 1.7245e+00   999.7894 0.0000e+00
      7.634     9.5606     4.7151     41.342  24.175926     34.972      8.484   320.5254     1.9383     3.7838     0.0181      0.094      7.484     10.855        657 1.6845e+00   999.7896 0.0000e+00
      7.656     9.5612     4.7139     41.331  24.174357     34.973      8.484   320.6011     1.9460     3.7982     0.0181      0.094      7.507     10.889        658 1.6507e+00   999.7897 0.0000e+00
      7.675     9.5600     4.7171     41.360  24.231336     35.052      8.479   320.7525     2.0451     3.6252     0.0182      0.093      7.526     10.917        659 1.5977e+00   999.7897 0.0000e+00
      7.694     9.5594     4.7172     41.361  24.223489     35.051      8.481   321.2825     2.0528     3.6396     0.0182      0.093      7.545     10.943        660 1.5774e+00   999.7897 0.0000e+00
      7.713     9.5591     4.7209     41.394  24.184122     34.972      8.478   320.6011     2.0757     3.8559     0.0181      0.092      7.564     10.971        661 1.5593e+00   999.7899 0.0000e+00
      7.733     9.5589     4.7201     41.386  24.191473     35.013      8.475   317.0804     2.0795     3.8415     0.0181      0.090      7.584     10.999        662 1.5067e+00   999.7901 0.0000e+00
      7.755     9.5589     4.7180     41.368  24.184723     34.973      8.476   318.1025     2.0490     3.6540     0.0181      0.086      7.604     11.029        663 1.4713e+00   999.7902 0.0000e+00
      7.775     9.5589     4.7157     41.350  24.222141     35.054      8.476   318.2540     1.9383     3.6829     0.0182      0.081      7.623     11.056        664 1.4150e+00   999.7903 0.0000e+00
      7.789     9.5589     4.7144     41.343  24.233761     35.054      8.473   318.1404     1.9193     3.7405     0.0182      0.077      7.638     11.078        665 1.3905e+00   999.7904 0.0000e+00
      7.802     9.5587     4.7204     41.401  24.229498     35.054      8.472   319.2761     1.9383     3.7550     0.0182      0.074      7.652     11.098        666 1.3884e+00   999.7904 0.0000e+00
      7.817     9.5588     4.7126     41.331  24.227447     35.054      8.470   318.4811     1.9536     3.7261     0.0182      0.071      7.666     11.119        667 1.3308e+00   999.7905 0.0000e+00
      7.834     9.5591     4.7210     41.403  24.236314     35.054      8.472   318.4433     1.7972     3.6540     0.0182      0.068      7.682     11.142        668 1.3062e+00   999.7906 0.0000e+00
      7.851     9.5599     4.7206     41.401  24.218462     35.054      8.469   317.8375     1.8201     3.7261     0.0182      0.066      7.699     11.167        669 1.3052e+00   999.7907 0.0000e+00
      7.869     9.5604     4.7187     41.386  24.220045     35.013      8.467   320.5254     1.8201     3.7550     0.0181      0.064      7.719     11.195        670 1.2473e+00   999.7907 0.0000e+00
      7.893     9.5603     4.7286     41.473  24.263962     35.134      8.466   320.6768     1.8086     3.7550     0.0182      0.065      7.739     11.224        671 1.1947e+00   999.7908 0.0000e+00
      7.912     9.5598     4.7287     41.475  24.193426     34.972      8.463   321.2825     1.7629     3.6540     0.0181      0.067      7.756     11.249        672 1.1718e+00   999.7908 0.0000e+00
      7.920     9.5596     4.7255     41.445  24.159736     34.972      8.463   320.1090     1.7743     3.7261     0.0181      0.068      7.767     11.264        673 1.1968e+00   999.7909 0.0000e+00
      7.928     9.5615     4.7287     41.471  24.187417     34.972      8.461   320.1847     1.7590     3.7982     0.0181      0.066      7.776     11.278        674 1.1899e+00   999.7909 0.0000e+00
      7.940     9.5668     4.7269     41.454  24.218214     35.053      8.460   320.5254     1.7362     3.7405     0.0182      0.062      7.786     11.293        675 1.1713e+00   999.7910 0.0000e+00
      7.952     9.5716     4.7182     41.375  24.239880     35.051      8.463   320.3740     1.7552     3.6829     0.0182      0.058      7.798     11.311        676 1.1501e+00   999.7909 0.0000e+00
      7.964     9.5706     4.7260     41.440  24.249307     35.086      8.461   322.1154     1.7629     3.5819     0.0182      0.053      7.812     11.330        677 1.0985e+00   999.7906 0.0000e+00
      7.981     9.5694     4.7203     41.388  24.236100     35.040      8.457   323.4783     1.7667     3.6108     0.0182      0.050      7.828     11.354        678 1.0800e+00   999.7903 0.0000e+00
      8.003     9.5705     4.7134     41.328  24.226697     35.042      8.455   323.4783     1.7743     3.7261     0.0182      0.050      7.846     11.380        679 1.0400e+00   999.7904 0.0000e+00
      8.018     9.5718     4.7037     41.242  24.231392     35.043      8.456   324.1597     1.7705     3.9712     0.0182      0.053      7.861     11.401        680 1.0364e+00   999.7906 0.0000e+00
      8.026     9.5728     4.7179     41.366  24.230259     35.042      8.455   323.7811     1.7400     3.8559     0.0182      0.056      7.874     11.419        681 1.0431e+00   999.7905 0.0000e+00
      8.042     9.5727     4.7167     41.355  24.228107     35.041      8.453   323.2890     1.7552     3.9712     0.0182      0.058      7.889     11.442        682 9.9150e-01   999.7905 0.0000e+00
      8.064     9.5712     4.7192     41.376  24.234070     35.040      8.451   323.0240     1.7972     4.1154     0.0182      0.061      7.909     11.470        683 9.5014e-01   999.7905 0.0000e+00
      8.086     9.5690     4.7187     41.372  24.252457     35.080      8.452   320.7525     1.7552     3.9280     0.0182      0.064      7.930     11.500        684 9.4788e-01   999.7906 0.0000e+00
      8.107     9.5674     4.7194     41.381  24.234843     35.041      8.450   321.6611     1.9536     3.8847     0.0182      0.068      7.952     11.533        685 9.4038e-01   999.7909 0.0000e+00
      8.134     9.5651     4.7208     41.394  24.226372     35.044      8.450   321.4718     1.9536     3.9424     0.0182      0.072      7.978     11.571        686 9.0151e-01   999.7912 0.0000e+00
      8.167     9.5618     4.7195     41.381  24.233382     35.045      8.450   320.8283     1.9650     3.9712     0.0182      0.079      8.008     11.614        687 8.4638e-01   999.7915 0.0000e+00
      8.196     9.5602     4.7158     41.347  24.226119     35.047      8.446   320.7525     1.9612     3.9712     0.0182      0.089      8.035     11.654        688 8.2264e-01   999.7918 0.0000e+00
      8.215     9.5595     4.7021     41.226  24.235411     35.051      8.447   321.3204     2.0413     3.9712     0.0182      0.096      8.056     11.684        689 8.1700e-01   999.7922 0.0000e+00
      8.232     9.5587     4.6993     41.201  24.221820     35.053      8.441   321.0175     2.0604     4.0001     0.0182      0.097      8.074     11.710        690 7.7349e-01   999.7924 0.0000e+00
      8.253     9.5584     4.7011     41.216  24.213415     35.013      8.442   319.2383     2.0451     3.8703     0.0181      0.096      8.095     11.741        691 7.1988e-01   999.7925 0.0000e+00
      8.280     9.5580     4.7005     41.211  24.216252     35.054      8.441   320.2225     2.0833     3.9568     0.0182      0.095      8.120     11.777        692 6.8930e-01   999.7927 0.0000e+00
      8.307     9.5573     4.7041     41.243  24.188671     34.974      8.440   320.4497     2.1367     3.7117     0.0181      0.095      8.146     11.814        693 6.6655e-01   999.7928 0.0000e+00
      8.331     9.5579     4.7018     41.224  24.218122     35.055      8.440   320.6011     2.1176     3.6540     0.0182      0.093      8.169     11.848        694 6.3303e-01   999.7930 0.0000e+00
      8.352     9.5603     4.7054     41.255  24.238837     35.055      8.440   319.8061     2.1100     3.6829     0.0182      0.090      8.193     11.883        695 6.2417e-01   999.7932 0.0000e+00
      8.382     9.5611     4.7107     41.303  24.222127     35.055      8.435   319.6168     2.1596     3.6973     0.0182      0.092      8.222     11.925        696 5.8985e-01   999.7933 0.0000e+00
      8.419     9.5597     4.7087     41.288  24.238918     35.052      8.435   319.8818     2.1253     3.9280     0.0182      0.099      8.254     11.971        697 5.6626e-01   999.7932 0.0000e+00
      8.449     9.5584     4.7132     41.331  24.247559     35.092      8.436   322.8726     2.1253     3.9424     0.0182      0.105      8.282     12.013        698 5.7321e-01   999.7933 0.0000e+00
      8.469     9.5574     4.7124     41.322  24.181756     34.972      8.434   323.4026     2.1100     3.8559     0.0181      0.107      8.304     12.045        699 5.3417e-01   999.7935 0.0000e+00
      8.488     9.5565     4.7112     41.309  24.172722     34.974      8.433   323.5540     2.1329     3.9424     0.0181      0.106      8.324     12.073        700 5.3035e-01   999.7937 0.0000e+00
      8.508     9.5558     4.7116     41.310  24.229185     35.055      8.432   323.7811     2.0604     3.6684     0.0182      0.103      8.342     12.099        701 5.2185e-01   999.7939 0.0000e+00
      8.524     9.5562     4.7127     41.319  24.229961     35.056      8.430   323.5918     2.0451     3.7405     0.0182      0.098      8.357     12.121        702 5.0732e-01   999.7940 0.0000e+00
      8.533     9.5570     4.7128     41.320  24.230992     35.057      8.428   323.6676     2.0337     3.6829     0.0182      0.089      8.369     12.138        703 5.1306e-01   999.7941 0.0000e+00
      8.545     9.5571     4.7129     41.322  24.227901     35.056      8.429   323.5161     2.0528     3.7694     0.0182      0.078      8.382     12.158        704 4.9338e-01   999.7942 0.0000e+00
      8.566     9.5575     4.7158     41.348  24.204190     35.015      8.428   320.4875     2.0604     3.6252     0.0181      0.068      8.401     12.185        705 4.5222e-01   999.7942 0.0000e+00
      8.590     9.5586     4.7088     41.286  24.230882     35.056      8.423   321.9640     2.0299     3.9424     0.0182      0.065      8.423     12.217        706 4.4289e-01   999.7943 0.0000e+00
      8.612     9.5616     4.7177     41.362  24.224300     35.055      8.427   321.6611     2.0261     3.8415     0.0182      0.066      8.445     12.249        707 4.3295e-01   999.7944 0.0000e+00
      8.634     9.5648     4.7153     41.342  24.182762     34.973      8.424   321.7747     1.9956     3.9280     0.0181      0.069      8.468     12.282        708 4.0796e-01   999.7943 0.0000e+00
      8.659     9.5635     4.7082     41.281  24.223340     35.051      8.426   323.7054     1.9879     3.9712     0.0182      0.074      8.492     12.316        709 4.0998e-01   999.7943 0.0000e+00
      8.686     9.5602     4.6982     41.196  24.233040     35.048      8.424   323.6676     2.0490     3.8992     0.0182      0.082      8.516     12.351        710 3.9217e-01   999.7941 0.0000e+00
      8.706     9.5582     4.6974     41.191  24.229927     35.049      8.421   323.2890     2.0451     3.9424     0.0182      0.088      8.533     12.376        711 3.9516e-01   999.7943 0.0000e+00
      8.711     9.5570     4.6946     41.170  24.256830     35.093      8.419   319.3140     2.0490     3.8992     0.0182      0.087      8.541     12.388        712 3.9711e-01   999.7946 0.0000e+00
      8.711     9.5574     4.6940     41.164  24.229178     35.055      8.419   319.8061     2.0757     4.0433     0.0182      0.077      8.543     12.391        713 3.8711e-01   999.7948 0.0000e+00
      8.713     9.5586     4.6934     41.156  24.234723     35.056      8.418   320.7147     1.8239     3.7838     0.0182      0.065      8.545     12.394        714 3.8879e-01   999.7949 0.0000e+00
      8.718     9.5589     4.6926     41.149  24.220312     35.055      8.418   321.0933     1.8086     3.7550     0.0182      0.052      8.550     12.401        715 3.7181e-01   999.7949 0.0000e+00
      8.725     9.5582     4.6941     41.163  24.187876     34.973      8.416   321.5854     1.8124     3.7261     0.0181      0.039      8.558     12.411        716 3.7352e-01   999.7948 0.0000e+00
      8.736     9.5573     4.6951     41.169  24.215852     35.054      8.415   321.6611     1.8163     3.7261     0.0182      0.029      8.568     12.426        717 3.8336e-01   999.7948 0.0000e+00
      8.749     9.5569     4.6952     41.169  24.244732     35.054      8.415   320.6768     1.7743     3.7405     0.0182      0.025      8.579     12.443        718 3.7693e-01   999.7949 0.0000e+00
      8.760     9.5582     4.6938     41.156  24.270408     35.136      8.414   320.5254     1.7552     3.7550     0.0182      0.026      8.592     12.462        719 3.5591e-01   999.7951 0.0000e+00
      8.775     9.5614     4.6968     41.183  24.272753     35.096      8.410   323.7054     1.7590     3.6540     0.0182      0.032      8.607     12.483        720 3.5232e-01   999.7952 0.0000e+00
      8.794     9.5642     4.6947     41.166  24.212195     35.055      8.411   323.8947     1.7667     3.7117     0.0182      0.041      8.622     12.505        721 3.6154e-01   999.7952 0.0000e+00
      8.804     9.5666     4.6939     41.165  24.197681     34.970      8.411   324.6518     1.7094     3.6540     0.0181      0.047      8.634     12.523        722 3.4935e-01   999.7950 0.0000e+00
      8.815     9.5664     4.6963     41.187  24.261197     35.129      8.410   325.1440     1.6980     3.5675     0.0182      0.050      8.648     12.543        723 3.5561e-01   999.7948 0.0000e+00
      8.838     9.5640     4.6951     41.177  24.251621     35.046      8.410   324.4247     1.6866     3.7405     0.0182      0.054      8.668     12.572        724 2.9345e-01   999.7947 0.0000e+00
      8.862     9.5635     4.6963     41.185  24.209598     35.046      8.410   324.4626     1.6866     3.8126     0.0182      0.060      8.690     12.603        725 2.9389e-01   999.7948 0.0000e+00
      8.881     9.5636     4.6953     41.172  24.254259     35.049      8.405   324.7276     1.7323     3.8415     0.0182      0.064      8.710     12.633        726 3.5405e-01   999.7951 0.0000e+00
      8.904     9.5624     4.7030     41.238  24.284897     35.170      8.406   323.4404     1.7934     3.9712     0.0182      0.069      8.732     12.666        727 3.0377e-01   999.7953 0.0000e+00
      8.930     9.5606     4.6996     41.206  24.260324     35.049      8.405   324.6518     1.7705     3.8703     0.0182      0.075      8.757     12.701        728 2.6668e-01   999.7953 0.0000e+00
      8.953     9.5609     4.7074     41.273  24.255220     35.131      8.403   324.8411     1.7514     3.9568     0.0182      0.081      8.779     12.733        729 2.4408e-01   999.7955 0.0000e+00
      8.973     9.5611     4.7060     41.259  24.202395     34.971      8.402   324.5761     1.7629     4.0001     0.0181      0.086      8.799     12.761        730 2.4168e-01   999.7958 0.0000e+00
      8.989     9.5628     4.7028     41.229  24.207594     35.052      8.403   325.9768     1.8315     3.7261     0.0182      0.087      8.815     12.785        731 2.4679e-01   999.7959 0.0000e+00
      9.003     9.5675     4.6906     41.126  24.189516     34.971      8.401   325.5983     1.8086     3.6252     0.0181      0.083      8.828     12.805        732 2.5555e-01   999.7959 0.0000e+00
      9.015     9.5695     4.6882     41.111  24.165657     34.969      8.400   324.9926     1.8163     3.6108     0.0181      0.078      8.842     12.826        733 2.5110e-01   999.7958 0.0000e+00
      9.034     9.5699     4.6883     41.111  24.207666     35.004      8.400   319.8440     1.8048     3.6540     0.0181      0.074      8.862     12.854        734 2.2465e-01   999.7956 0.0000e+00
      9.062     9.5675     4.6820     41.052  24.226089     35.043      8.398   321.1311     2.0223     3.9857     0.0182      0.072      8.889     12.893        735 2.2428e-01   999.7955 0.0000e+00
      9.096     9.5632     4.6827     41.056  24.231584     35.042      8.396   321.3204     2.0299     3.8271     0.0182      0.074      8.918     12.934        736 2.2887e-01   999.7956 0.0000e+00
      9.121     9.5612     4.6814     41.043  24.230446     35.045      8.396   321.3961     1.9879     3.9424     0.0182      0.080      8.942     12.969        737 2.0961e-01   999.7959 0.0000e+00
      9.136     9.5595     4.6829     41.055  24.227506     35.049      8.396   322.2290     1.9879     3.9280     0.0182      0.084      8.960     12.995        738 2.1163e-01   999.7963 0.0000e+00
      9.152     9.5573     4.6890     41.107  24.176008     34.971      8.396   322.2290     2.0184     3.8992     0.0181      0.087      8.978     13.021        739 1.9970e-01   999.7966 0.0000e+00
      9.177     9.5555     4.6894     41.110  24.176063     34.972      8.394   322.0018     1.9917     3.8992     0.0181      0.090      8.999     13.051        740 1.5448e-01   999.7968 0.0000e+00
      9.200     9.5547     4.6856     41.076  24.197819     35.015      8.392   322.1154     1.9917     3.8271     0.0181      0.091      9.019     13.081        741 1.6863e-01   999.7971 0.0000e+00
      9.213     9.5581     4.6868     41.085  24.237788     35.057      8.391   323.2133     1.9803     3.9712     0.0182      0.086      9.034     13.103        742 1.6273e-01   999.7973 0.0000e+00
      9.224     9.5639     4.6890     41.105  24.274415     35.139      8.391   323.8947     2.0871     3.8703     0.0182      0.078      9.048     13.123        743 1.6531e-01   999.7975 0.0000e+00
      9.241     9.5640     4.6976     41.179  24.241092     35.055      8.389   324.4626     2.0795     3.9280     0.0182      0.071      9.063     13.144        744 1.9552e-01   999.7973 0.0000e+00
      9.259     9.5599     4.6940     41.147  24.220020     35.049      8.392   323.7054     2.0604     3.9568     0.0182      0.068      9.079     13.168        745 1.6517e-01   999.7969 0.0000e+00
      9.272     9.5576     4.6962     41.168  24.241401     35.049      8.389   324.1976     2.0719     3.9280     0.0182      0.067      9.094     13.190        746 1.2841e-01   999.7969 0.0000e+00
      9.287     9.5559     4.6994     41.198  24.273719     35.134      8.386   325.1440     2.0833     4.0145     0.0182      0.064      9.114     13.219        747 1.4007e-01   999.7974 0.0000e+00
      9.322     9.5542     4.7004     41.207  24.209420     35.015      8.385   323.4404     2.1863     4.0866     0.0181      0.065      9.144     13.262        748 1.3590e-01   999.7977 0.0000e+00
      9.363     9.5531     4.6968     41.176  24.173334     34.976      8.387   323.5540     2.1977     3.9424     0.0181      0.074      9.177     13.311        749 1.2367e-01   999.7980 0.0000e+00
      9.389     9.5524     4.6934     41.146  24.170538     34.978      8.386   326.2418     2.2016     3.9424     0.0181      0.085      9.206     13.353        750 1.3017e-01   999.7983 0.0000e+00
      9.413     9.5518     4.6921     41.135  24.183279     34.979      8.384   326.4311     2.1901     3.8703     0.0181      0.095      9.232     13.392        751 1.2420e-01   999.7985 0.0000e+00
      9.444     9.5510     4.6917     41.132  24.216714     35.060      8.384   326.5068     2.0604     3.9568     0.0182      0.104      9.261     13.432        752 1.2292e-01   999.7987 0.0000e+00
      9.474     9.5504     4.6907     41.123  24.188167     34.980      8.382   325.3711     2.0566     4.0578     0.0181      0.111      9.287     13.469        753 1.2368e-01   999.7989 0.0000e+00
      9.490     9.5498     4.6890     41.111  24.159572     34.981      8.379   325.6361     2.0528     4.0578     0.0181      0.113      9.304     13.494        754 1.2317e-01   999.7990 0.0000e+00
      9.498     9.5499     4.6948     41.168  24.193065     34.982      8.376   325.3711     2.0757     3.9424     0.0181      0.106      9.314     13.509        755 1.2359e-01   999.7991 0.0000e+00
      9.506     9.5516     4.6886     41.122  24.235339     35.103      8.374   318.4811     1.9841     3.9280     0.0182      0.092      9.322     13.520        756 1.2349e-01   999.7992 0.0000e+00
      9.513     9.5529     4.6945     41.182  24.255052     35.063      8.372   320.2604     2.0032     4.0578     0.0182      0.076      9.328     13.529        757 1.2347e-01   999.7992 0.0000e+00
      9.517     9.5531     4.6893     41.142  24.257386     35.142      8.372   319.8061     2.0108     3.8703     0.0182      0.063      9.332     13.535        758 1.2343e-01   999.7991 0.0000e+00
      9.519     9.5532     4.6851     41.111  24.202817     34.979      8.369   319.5411     2.0108     3.8847     0.0181      0.048      9.335     13.539        759 1.2345e-01   999.7990 0.0000e+00
      9.521     9.5533 -9.990e-29 -9.990e-29  24.263726     35.140      8.369   322.3804     1.8964     3.9568     0.0182      0.033      9.337     13.543        760 1.2337e-01   999.7990 0.0000e+00
      9.523     9.5539 -9.990e-29 -9.990e-29  24.240819     35.060      8.368   321.9261     1.8887     3.8703     0.0182      0.022      9.339     13.546        761 1.2350e-01   999.7990 0.0000e+00
      9.526     9.5542 -9.990e-29 -9.990e-29  24.231323     35.060      8.368   321.7368     1.8926     3.9712     0.0182      0.017      9.342     13.549        762 1.2343e-01   999.7990 0.0000e+00
      9.529     9.5541 -9.990e-29 -9.990e-29  24.245925     35.099      8.366   314.6954     1.8887     3.9424     0.0182      0.014      9.344     13.553        763 1.2345e-01   999.7990 0.0000e+00
      9.530     9.5568 -9.990e-29 -9.990e-29  24.252266     35.059      8.362   314.8090     1.8811     3.9568     0.0182      0.011      9.346     13.555        764 1.2344e-01   999.7990 0.0000e+00
      9.531     9.5629 -9.990e-29 -9.990e-29  24.312289     35.220      8.363   314.9604     1.9345     4.0289     0.0182      0.009      9.347     13.556        765 1.2341e-01   999.7990 0.0000e+00
      9.532     9.5722 -9.990e-29 -9.990e-29  24.260083     35.056      8.362   315.0740     1.9193     3.8415     0.0182      0.008      9.347     13.557        766 1.2341e-01   999.7987 0.0000e+00
      9.531     9.5795 -9.990e-29 -9.990e-29  24.257998     35.131      8.360   317.8754     1.9574     3.9136     0.0182      0.006      9.347     13.557        767 1.2350e-01   999.7982 0.0000e+00
      9.532     9.5864 -9.990e-29 -9.990e-29  24.255646     35.041      8.362   317.3454     1.9460     3.9712     0.0182      0.005      9.348     13.558        768 1.2353e-01   999.7975 0.0000e+00
      9.533     9.5916 -9.990e-29 -9.990e-29  24.263007     35.113      8.357   317.5347     1.9879     3.7405     0.0182      0.004      9.348     13.558        769 1.2341e-01   999.7969 0.0000e+00
      9.533 -9.990e-29 -9.990e-29 -9.990e-29  24.278452     35.067      8.356   315.7932     2.0032     3.6540     0.0182      0.003      9.349     13.559        770 1.2335e-01   999.7964 0.0000e+00
      9.534 -9.990e-29 -9.990e-29 -9.990e-29  24.266040     35.100      8.357   314.8847     1.9765     3.6829     0.0182      0.002      9.349     13.559        771 1.2335e-01   999.7959 0.0000e+00
