* Sea-Bird SBE19plus  Data File:
* FileName = C:\DATA\082819_fcr_0001.hex
* Software version 2.8.0.119 SB_Terminal.dll
* Temperature SN = 7809
* Conductivity SN = 7809
* System UpLoad Time = Aug 28 2019 11:49:23
* <ApplicationData>
* <Seaterm232>
* <SoftwareVersion>2.8.0.119</SoftwareVersion>
* <BuildDate>07-Nov-2018</BuildDate>
* </Seaterm232>
* </ApplicationData>
* cast   1 28 Aug 2019 10:35:43 samples 1 to 313, avg = 1, stop = mag switch
# nquan = 15
# nvalues = 259                         
# units = specified
# name 0 = depFM: Depth [fresh water, m]
# name 1 = dz/dtM: Descent Rate [m/s]
# name 2 = sbeox0ML/L: Oxygen, SBE 43 [ml/l]
# name 3 = sbeox0PS: Oxygen, SBE 43 [% saturation]
# name 4 = specc: Specific Conductance [uS/cm]
# name 5 = c0uS/cm: Conductivity [uS/cm]
# name 6 = flECO-AFL: Fluorescence, WET Labs ECO-AFL/FL [mg/m^3]
# name 7 = ph: pH
# name 8 = orp: Oxidation Reduction Potential [mV]
# name 9 = par/sat/log: PAR/Logarithmic, Satlantic
# name 10 = turbWETntu0: Turbidity, WET Labs ECO [NTU]
# name 11 = prdM: Pressure, Strain Gauge [db]
# name 12 = prdE: Pressure, Strain Gauge [psi]
# name 13 = tv290C: Temperature [ITS-90, deg C]
# name 14 = flag:  0.000e+00
# span 0 =     -0.343,      2.243       
# span 1 =     -0.003,      0.090       
# span 2 =     1.9340,     6.1319       
# span 3 =     32.123,    102.539       
# span 4 =     36.287,     40.262       
# span 5 =  35.315275,  38.377847       
# span 6 =     2.1382,     3.6533       
# span 7 =      7.382,      8.897       
# span 8 =   206.6498,   254.7510       
# span 9 = 7.1393e+00, 5.2484e+02       
# span 10 =     6.2581,     7.6994      
# span 11 =     -0.344,      2.200      
# span 12 =     -0.500,      3.191      
# span 13 =    22.6465,    24.2541      
# span 14 = 0.0000e+00, 0.0000e+00      
# interval = seconds: 0.25
# start_time = Aug 28 2019 10:35:43 [Instrument's time stamp, header]
# bad_flag = -9.990e-29
# <Sensors count="9" >
#   <sensor Channel="1" >
#     <!-- Count, Temperature -->
#     <TemperatureSensor SensorID="58" >
#       <SerialNumber>7809</SerialNumber>
#       <CalibrationDate>24-Mar-19</CalibrationDate>
#       <A0>1.21792325e-003</A0>
#       <A1>2.81669265e-004</A1>
#       <A2>-1.60333336e-006</A2>
#       <A3>1.98414625e-007</A3>
#       <Slope>1.00000000</Slope>
#       <Offset>0.0000</Offset>
#     </TemperatureSensor>
#   </sensor>
#   <sensor Channel="2" >
#     <!-- Frequency 0, Conductivity -->
#     <ConductivitySensor SensorID="3" >
#       <SerialNumber>7809</SerialNumber>
#       <CalibrationDate>24-Mar-19</CalibrationDate>
#       <UseG_J>1</UseG_J>
#       <!-- Cell const and series R are applicable only for wide range sensors. -->
#       <SeriesR>0.0000</SeriesR>
#       <CellConst>2000.0000</CellConst>
#       <ConductivityType>0</ConductivityType>
#       <Coefficients equation="0" >
#         <A>0.00000000e+000</A>
#         <B>0.00000000e+000</B>
#         <C>0.00000000e+000</C>
#         <D>0.00000000e+000</D>
#         <M>0.0</M>
#         <CPcor>-9.57000000e-008</CPcor>
#       </Coefficients>
#       <Coefficients equation="1" >
#         <G>-1.00589325e+000</G>
#         <H>1.26816302e-001</H>
#         <I>-1.51560448e-004</I>
#         <J>2.67137274e-005</J>
#         <CPcor>-9.57000000e-008</CPcor>
#         <CTcor>3.2500e-006</CTcor>
#         <!-- WBOTC not applicable unless ConductivityType = 1. -->
#         <WBOTC>0.00000000e+000</WBOTC>
#       </Coefficients>
#       <Slope>1.00000000</Slope>
#       <Offset>0.00000</Offset>
#     </ConductivitySensor>
#   </sensor>
#   <sensor Channel="3" >
#     <!-- Count, Pressure, Strain Gauge -->
#     <PressureSensor SensorID="46" >
#       <SerialNumber>7809</SerialNumber>
#       <CalibrationDate>11-Mar-19</CalibrationDate>
#       <PA0>4.56561833e-002</PA0>
#       <PA1>4.85095118e-004</PA1>
#       <PA2>-2.88327090e-012</PA2>
#       <PTEMPA0>-5.48784562e+001</PTEMPA0>
#       <PTEMPA1>5.53756816e+001</PTEMPA1>
#       <PTEMPA2>-5.86727098e-001</PTEMPA2>
#       <PTCA0>5.25246745e+005</PTCA0>
#       <PTCA1>1.22304214e+001</PTCA1>
#       <PTCA2>-3.56745036e-001</PTCA2>
#       <PTCB0>2.51668750e+001</PTCB0>
#       <PTCB1>3.75000000e-004</PTCB1>
#       <PTCB2>0.00000000e+000</PTCB2>
#       <Offset>0.000000</Offset>
#     </PressureSensor>
#   </sensor>
#   <sensor Channel="4" >
#     <!-- A/D voltage 0, Oxygen, SBE 43 -->
#     <OxygenSensor SensorID="38" >
#       <SerialNumber>0434</SerialNumber>
#       <CalibrationDate>13-Apr-19</CalibrationDate>
#       <Use2007Equation>1</Use2007Equation>
#       <CalibrationCoefficients equation="0" >
#         <!-- Coefficients for Owens-Millard equation. -->
#         <Boc>0.0000</Boc>
#         <Soc>0.0000e+000</Soc>
#         <offset>0.0000</offset>
#         <Pcor>0.00e+000</Pcor>
#         <Tcor>0.0000</Tcor>
#         <Tau>0.0</Tau>
#       </CalibrationCoefficients>
#       <CalibrationCoefficients equation="1" >
#         <!-- Coefficients for Sea-Bird equation - SBE calibration in 2007 and later. -->
#         <Soc>4.2007e-001</Soc>
#         <offset>-0.6109</offset>
#         <A>-4.3656e-003</A>
#         <B> 1.7017e-004</B>
#         <C>-2.5341e-006</C>
#         <D0> 2.5826e+000</D0>
#         <D1> 1.92634e-004</D1>
#         <D2>-4.64803e-002</D2>
#         <E> 3.6000e-002</E>
#         <Tau20> 1.1800</Tau20>
#         <H1>-3.3000e-002</H1>
#         <H2> 5.0000e+003</H2>
#         <H3> 1.4500e+003</H3>
#       </CalibrationCoefficients>
#     </OxygenSensor>
#   </sensor>
#   <sensor Channel="5" >
#     <!-- A/D voltage 1, PAR/Logarithmic, Satlantic -->
#     <PARLog_SatlanticSensor SensorID="76" >
#       <SerialNumber>1122</SerialNumber>
#       <CalibrationDate>08-May-2019</CalibrationDate>
#       <a0>9.7456e-001</a0>
#       <a1>8.1640e-001</a1>
#       <Im>1.3589e+000</Im>
#       <Multiplier>1.0000e+000</Multiplier>
#     </PARLog_SatlanticSensor>
#   </sensor>
#   <sensor Channel="6" >
#     <!-- A/D voltage 2, pH -->
#     <pH_Sensor SensorID="43" >
#       <SerialNumber>0363</SerialNumber>
#       <CalibrationDate>15-Apr-19</CalibrationDate>
#       <Slope>4.5952</Slope>
#       <Offset>2.5370</Offset>
#     </pH_Sensor>
#   </sensor>
#   <sensor Channel="7" >
#     <!-- A/D voltage 3, Oxidation Reduction Potential -->
#     <OxidationReductionPotentialSensor SensorID="41" >
#       <SerialNumber>0363</SerialNumber>
#       <CalibrationDate>15-Apr-19</CalibrationDate>
#       <B>2.499480</B>
#       <M>-0.496195</M>
#       <Offset>0.0</Offset>
#     </OxidationReductionPotentialSensor>
#   </sensor>
#   <sensor Channel="8" >
#     <!-- A/D voltage 4, Fluorometer, WET Labs ECO-AFL/FL -->
#     <FluoroWetlabECO_AFL_FL_Sensor SensorID="20" >
#       <SerialNumber>FLNTURT-2496</SerialNumber>
#       <CalibrationDate>08-May-2019</CalibrationDate>
#       <ScaleFactor>5.00000000e+001</ScaleFactor>
#       <!-- Dark output -->
#       <Vblank>0.0550</Vblank>
#     </FluoroWetlabECO_AFL_FL_Sensor>
#   </sensor>
#   <sensor Channel="9" >
#     <!-- A/D voltage 5, Turbidity Meter, WET Labs, ECO-NTU -->
#     <TurbidityMeter SensorID="67" >
#       <SerialNumber>FLNTURT-2496</SerialNumber>
#       <CalibrationDate>08-May-2019</CalibrationDate>
#       <ScaleFactor>189.000000</ScaleFactor>
#       <!-- Dark output -->
#       <DarkVoltage>0.071000</DarkVoltage>
#     </TurbidityMeter>
#   </sensor>
# </Sensors>
# datcnv_date = Sep 18 2019 09:14:12, 7.26.7.129 [datcnv_vars = 14]
# datcnv_in = C:\DATA\082819_fcr10.hex C:\DATA\SBE19plusV2_7809.xmlcon
# datcnv_skipover = 0
# datcnv_ox_hysteresis_correction = yes
# datcnv_ox_tau_correction = yes
# filter_date = Sep 18 2019 09:14:32, 7.26.7.129
# filter_in = C:\DATA\082819_fcr10.cnv
# filter_low_pass_tc_A = 0.030
# filter_low_pass_tc_B = 0.150
# filter_low_pass_A_vars = sbeox0ML/L prdM prdE tv290C
# filter_low_pass_B_vars = depFM dz/dtM sbeox0PS specc c0uS/cm flECO-AFL ph orp par/sat/log turbWETntu0
# alignctd_date = Sep 18 2019 09:15:31, 7.26.7.129
# alignctd_in = C:\DATA\082819_fcr10.cnv
# alignctd_adv = dz/dtM 1.000, sbeox0PS 1.000, specc 1.000, c0uS/cm 1.000, flECO-AFL 1.000, ph 1.000, orp 1.000, turbWETntu0 1.000                                                                                                   
# file_type = ascii
*END*
     -0.343      0.053     5.7180     97.972     36.920  36.129369     2.9672      8.857   217.7802 5.1849e+02     7.1113     -0.344     -0.500    24.2541 0.0000e+00
     -0.319      0.065     5.7327     98.187     36.978  36.164415     3.0294      8.871   215.1080 5.2234e+02     7.1598     -0.312     -0.452    24.1511 0.0000e+00
     -0.293      0.075     5.7481     98.430     37.092  36.264754     3.0654      8.880   211.7981 5.2484e+02     7.2907     -0.285     -0.412    24.0430 0.0000e+00
     -0.273      0.082     5.7630     98.670     37.227  36.390478     3.1339      8.890   208.9934 5.2312e+02     7.5468     -0.268     -0.388    23.9676 0.0000e+00
     -0.254      0.085     5.7783     98.910     37.257  36.415096     3.1735      8.897   207.5240 5.1713e+02     7.6994     -0.250     -0.363    23.9154 0.0000e+00
     -0.234      0.085     5.7937     99.160     37.152  36.308514     3.1705      8.896   207.1098 5.0994e+02     7.6938     -0.231     -0.335    23.8906 0.0000e+00
     -0.213      0.086     5.8114     99.428     37.023  36.180814     3.1680      8.894   206.8240 4.9766e+02     7.6761     -0.209     -0.303    23.8754 0.0000e+00
     -0.191      0.089     5.8249     99.658     36.916  36.077038     3.1861      8.896   206.6498 4.6171e+02     7.5838     -0.190     -0.275    23.8699 0.0000e+00
     -0.166      0.090     5.8405     99.792     36.841  36.005833     3.2075      8.896   206.8972 4.1202e+02     7.3644     -0.163     -0.236    23.8631 0.0000e+00
     -0.141      0.087     5.8549     99.823     36.788  35.954592     3.2100      8.890   207.5780 3.7962e+02     7.2191     -0.136     -0.197    23.8582 0.0000e+00
     -0.118      0.082     5.8719     99.633     36.737  35.901780     3.2071      8.879   208.0839 3.6068e+02     7.2035     -0.117     -0.169    23.8567 0.0000e+00
     -0.097      0.072     5.8887     99.042     36.714  35.875045     3.2416      8.869   208.1104 3.4286e+02     7.2735     -0.094     -0.137    23.8576 0.0000e+00
     -0.076      0.060     5.8929     97.919     36.729  35.885204     3.3074      8.860   208.0703 3.2854e+02     7.4095     -0.073     -0.106    23.8613 0.0000e+00
     -0.061      0.046     5.8989     96.287     36.746  35.897669     3.3426      8.855   208.3737 3.2084e+02     7.5053     -0.057     -0.084    23.8631 0.0000e+00
     -0.053      0.032     5.8920     94.410     36.751  35.898813     3.3465      8.853   209.0250 3.1812e+02     7.5134     -0.050     -0.073    23.8592 0.0000e+00
     -0.049      0.021     5.8605     92.580     36.754  35.899030     3.3199      8.852   209.5780 3.1687e+02     7.4089     -0.048     -0.069    23.8517 0.0000e+00
     -0.048      0.013     5.7963     90.993     36.757  35.900288     3.2644      8.850   209.8984 3.1639e+02     7.2909     -0.046     -0.067    23.8458 0.0000e+00
     -0.048      0.009     5.6925     89.767     36.772  35.914023     3.2299      8.845   210.3176 3.1596e+02     7.2667     -0.047     -0.068    23.8399 0.0000e+00
     -0.048      0.009     5.5761     88.842     36.798  35.938153     3.2238      8.840   210.6883 3.1479e+02     7.2474     -0.047     -0.069    23.8335 0.0000e+00
     -0.047      0.011     5.4651     88.074     36.800  35.938163     3.2003      8.836   210.7665 3.1307e+02     7.0569     -0.046     -0.067    23.8307 0.0000e+00
     -0.043      0.015     5.3677     87.430     36.776  35.914139     3.1452      8.833   210.8326 3.0992e+02     6.7337     -0.044     -0.062    23.8288 0.0000e+00
     -0.038      0.020     5.2971     86.901     36.762  35.901560     3.1114      8.827   211.0584 2.9207e+02     6.5518     -0.038     -0.056    23.8269 0.0000e+00
     -0.032      0.023     5.2477     86.379     36.772  35.913015     3.1127      8.818   211.4309 2.5592e+02     6.5285     -0.031     -0.046    23.8264 0.0000e+00
     -0.024      0.024     5.2018     85.733     36.783  35.925700     3.1170      8.810   211.8090 2.2582e+02     6.5506     -0.024     -0.035    23.8248 0.0000e+00
     -0.016      0.023     5.1630     84.882     36.784  35.927997     3.1118      8.802   212.0158 2.1355e+02     6.7531     -0.016     -0.023    23.8224 0.0000e+00
     -0.009      0.019     5.1352     83.867     36.797  35.940786     3.1019      8.794   212.0384 2.0855e+02     7.1414     -0.009     -0.012    23.8228 0.0000e+00
     -0.004      0.013     5.1067     82.937     36.810  35.953396     3.1018      8.785   211.9965 2.0601e+02     7.3780     -0.003     -0.005    23.8262 0.0000e+00
     -0.002      0.007     5.0698     82.382     36.810  35.953526     3.1095      8.776   212.1118 2.0605e+02     7.4187      0.000     -0.001    23.8297 0.0000e+00
     -0.002      0.002     5.0201     82.348     36.799  35.942357     3.1174      8.769   212.4864 2.0573e+02     7.3712     -0.001     -0.002    23.8311 0.0000e+00
     -0.004     -0.002     4.9535     82.807     36.803  35.945291     3.1368      8.762   212.9116 2.0703e+02     7.2295     -0.004     -0.006    23.8312 0.0000e+00
     -0.007     -0.003     4.8915     83.650     36.848  35.988999     3.1616      8.756   213.2947 2.1106e+02     7.1475     -0.007     -0.009    23.8315 0.0000e+00
     -0.009     -0.002     4.8558     84.775     36.887  36.026528     3.1744      8.749   213.6773 2.1313e+02     7.1669     -0.009     -0.012    23.8307 0.0000e+00
     -0.009      0.001     4.8548     86.029     36.877  36.018237     3.1619      8.741   214.0094 2.1089e+02     7.1365     -0.009     -0.013    23.8294 0.0000e+00
     -0.008      0.003     4.8855     87.224     36.873  36.015695     3.1233      8.733   214.2996 2.0713e+02     7.0092     -0.008     -0.010    23.8287 0.0000e+00
     -0.005      0.004     4.9361     88.194     36.916  36.059261     3.0889      8.725   214.6046 2.0498e+02     6.9385     -0.006     -0.007    23.8283 0.0000e+00
     -0.003      0.004     5.0062     88.814     36.956  36.100698     3.0754      8.718   215.0301 2.0358e+02     6.9700     -0.003     -0.004    23.8288 0.0000e+00
     -0.002      0.003     5.0844     89.078     36.991  36.135881     3.0989      8.712   215.5732 2.0265e+02     6.9643     -0.002     -0.002    23.8302 0.0000e+00
     -0.001      0.001     5.1579     89.053     37.021  36.167310     3.1484      8.706   216.0951 2.0317e+02     6.8686     -0.001     -0.001    23.8321 0.0000e+00
     -0.001     -0.001     5.2184     88.836     37.016  36.163352     3.1704      8.701   216.5207 2.0432e+02     6.7639     -0.000     -0.000    23.8345 0.0000e+00
     -0.002     -0.002     5.2544     88.524     37.002  36.151493     3.1654      8.695   216.9340 2.0580e+02     6.7146     -0.002     -0.003    23.8368 0.0000e+00
     -0.004     -0.002     5.2681     88.166     37.000  36.150868     3.1664      8.688   217.3066 2.0715e+02     6.7312     -0.004     -0.005    23.8386 0.0000e+00
     -0.005     -0.002     5.2646     87.772     37.004  36.155797     3.1734      8.681   217.5837 2.0749e+02     6.8005     -0.005     -0.007    23.8405 0.0000e+00
     -0.005     -0.001     5.2491     87.366     36.995  36.147615     3.1722      8.674   217.8761 2.0747e+02     6.8305     -0.006     -0.009    23.8427 0.0000e+00
     -0.005      0.000     5.2295     86.972     36.962  36.115420     3.1607      8.668   218.2611 2.0672e+02     6.7665     -0.006     -0.008    23.8450 0.0000e+00
     -0.004      0.001     5.2085     86.586     36.929  36.083885     3.1469      8.662   218.7971 2.0520e+02     6.7476     -0.004     -0.006    23.8471 0.0000e+00
     -0.004      0.001     5.1845     86.195     36.928  36.083675     3.1353      8.656   219.2793 2.0443e+02     6.8647     -0.004     -0.005    23.8486 0.0000e+00
     -0.003      0.001     5.1594     85.800     36.958  36.112894     3.1248      8.652   219.6183 2.0489e+02     7.0024     -0.003     -0.005    23.8491 0.0000e+00
     -0.002      0.000     5.1368     85.416     36.965  36.119812     3.1150      8.649   220.0561 2.0550e+02     7.0694     -0.002     -0.003    23.8489 0.0000e+00
     -0.002     -0.001     5.1142     85.050     36.949  36.103856     3.1129      8.644   220.5286 2.0550e+02     7.0516     -0.002     -0.003    23.8492 0.0000e+00
     -0.003     -0.001     5.0910     84.706     36.955  36.110374     3.0988      8.639   220.8571 2.0565e+02     6.9506     -0.003     -0.004    23.8503 0.0000e+00
     -0.004     -0.001     5.0670     84.389     36.980  36.135147     3.0657      8.635   221.0168 2.0653e+02     6.8316     -0.004     -0.005    23.8509 0.0000e+00
     -0.005     -0.001     5.0443     84.080     36.994  36.149507     3.0511      8.631   221.1691 2.0733e+02     6.7600     -0.005     -0.007    23.8510 0.0000e+00
     -0.005      0.000     5.0229     83.772     37.001  36.157055     3.0524      8.626   221.4943 2.0734e+02     6.7070     -0.005     -0.007    23.8508 0.0000e+00
     -0.005      0.001     5.0019     83.464     37.006  36.162940     3.0719      8.620   221.8517 2.0708e+02     6.7161     -0.005     -0.008    23.8510 0.0000e+00
     -0.004      0.001     4.9840     83.123     36.999  36.157190     3.1224      8.615   222.1340 2.0652e+02     6.8367     -0.004     -0.007    23.8516 0.0000e+00
     -0.003      0.001     4.9658     82.740     36.990  36.151015     3.1601      8.611   222.4125 2.0562e+02     6.9524     -0.003     -0.005    23.8524 0.0000e+00
     -0.003      0.001     4.9468     82.332     36.989  36.151754     3.1636      8.607   222.7244 2.0535e+02     6.9688     -0.002     -0.003    23.8536 0.0000e+00
     -0.003      0.001     4.9301     81.888     37.002  36.166121     3.1569      8.603   223.0650 2.0581e+02     6.9040     -0.003     -0.003    23.8551 0.0000e+00
     -0.003      0.000     4.9098     81.382     37.032  36.197791     3.1565      8.599   223.3473 2.0589e+02     6.8241     -0.003     -0.004    23.8572 0.0000e+00
     -0.003 1.8966e-08     4.8859     80.817     37.050  36.217315     3.1589      8.597   223.5568 2.0509e+02     6.7886     -0.004     -0.005    23.8601 0.0000e+00
     -0.003 2.0863e-07     4.8622     80.216     37.041  36.211766     3.1680      8.594   223.7914 2.0446e+02     6.7708     -0.003     -0.004    23.8626 0.0000e+00
     -0.003 2.4588e-07     4.8366     79.577     37.021  36.194184     3.1805      8.589   224.1179 2.0429e+02     6.8385     -0.003     -0.004    23.8643 0.0000e+00
     -0.003 4.6938e-07     4.8065     78.904     37.021  36.195139     3.1792      8.585   224.4944 2.0436e+02     7.0497     -0.003     -0.004    23.8670 0.0000e+00
     -0.003      0.000     4.7716     78.197     37.048  36.223318     3.1699      8.582   224.8157 2.0450e+02     7.1939     -0.003     -0.004    23.8702 0.0000e+00
     -0.002      0.000     4.7368     77.467     37.039  36.217542     3.1641      8.580   224.9917 2.0444e+02     7.2051     -0.002     -0.003    23.8736 0.0000e+00
     -0.002      0.001     4.6981     76.743     37.008  36.188778     3.1783      8.577   225.0731 2.0474e+02     7.1531     -0.002     -0.003    23.8766 0.0000e+00
     -0.003      0.002     4.6584     76.040     37.011  36.192893     3.2022      8.572   225.2841 2.0527e+02     7.0556     -0.003     -0.004    23.8790 0.0000e+00
     -0.004      0.003     4.6165     75.394     37.021  36.203827     3.2104      8.568   225.5632 2.0491e+02     6.9769     -0.005     -0.006    23.8820 0.0000e+00
     -0.002      0.004     4.5716     74.798     37.010  36.194038     3.2176      8.564   225.8676 2.0308e+02     6.9556     -0.003     -0.004    23.8854 0.0000e+00
      0.001      0.004     4.5295     74.205     37.015  36.201480     3.2200      8.560   226.2970 2.0100e+02     6.9946      0.002      0.002    23.8881 0.0000e+00
      0.003      0.004     4.4861     73.607     37.042  36.230339     3.2041      8.555   226.6253 2.0041e+02     7.0888      0.004      0.005    23.8890 0.0000e+00
      0.003      0.003     4.4481     73.017     37.034  36.225623     3.1814      8.549   226.8256 2.0070e+02     7.1763      0.003      0.005    23.8899 0.0000e+00
      0.003      0.001     4.4147     72.438     37.014  36.207936     3.1621      8.543   226.9979 2.0069e+02     7.1680      0.003      0.004    23.8921 0.0000e+00
      0.003     -0.001     4.3790     71.862     37.011  36.206896     3.1616      8.537   227.1604 2.0079e+02     7.1522      0.003      0.004    23.8955 0.0000e+00
      0.003     -0.002     4.3432     71.271     37.015  36.213054     3.1847      8.533   227.4131 2.0111e+02     7.1495      0.003      0.004    23.8988 0.0000e+00
      0.002     -0.002     4.3080     70.671     37.019  36.218925     3.2154      8.530   227.7302 2.0184e+02     7.0695      0.002      0.003    23.9020 0.0000e+00
      0.001     -0.002     4.2737     70.109     37.012  36.214412     3.2298      8.526   227.9825 2.0314e+02     7.0039      0.001      0.002    23.9050 0.0000e+00
     -0.000     -0.002     4.2401     69.606     37.018  36.221959     3.2203      8.522   228.1407 2.0411e+02     6.9787     -0.000     -0.000    23.9079 0.0000e+00
     -0.002     -0.001     4.2051     69.136     37.041  36.246713     3.1869      8.518   228.3529 2.0420e+02     6.8965     -0.001     -0.002    23.9110 0.0000e+00
     -0.002     -0.001     4.1680     68.681     37.053  36.259822     3.1376      8.514   228.6556 2.0341e+02     6.7962     -0.001     -0.002    23.9140 0.0000e+00
     -0.001     -0.001     4.1338     68.248     37.044  36.253522     3.1100      8.512   228.9603 2.0256e+02     6.7493     -0.001     -0.001    23.9168 0.0000e+00
     -0.000     -0.000     4.1053     67.834     37.022  36.234017     3.1050      8.509   229.1973 2.0247e+02     6.7227      0.000     -0.001    23.9195 0.0000e+00
     -0.000      0.001     4.0776     67.441     37.001  36.214411     3.1117      8.506   229.1989 2.0302e+02     6.7694      0.001      0.001    23.9222 0.0000e+00
     -0.001      0.002     4.0500     67.066     36.991  36.206873     3.1386      8.503   229.1521 2.0397e+02     6.8881     -0.001     -0.001    23.9248 0.0000e+00
     -0.001      0.004     4.0248     66.716     36.990  36.206351     3.1621      8.501   229.4057 2.0377e+02     6.9446     -0.003     -0.004    23.9271 0.0000e+00
     -0.001      0.006     3.9999     66.426     36.990  36.208111     3.1696      8.499   229.7701 2.0171e+02     6.9614     -0.002     -0.002    23.9294 0.0000e+00
      0.002      0.006     3.9765     66.166     37.009  36.228143     3.2036      8.496   230.1161 1.9927e+02     7.0256      0.003      0.004    23.9323 0.0000e+00
      0.006      0.005     3.9549     65.885     37.038  36.258147     3.2787      8.492   230.4056 1.9664e+02     7.1308      0.006      0.009    23.9347 0.0000e+00
      0.009      0.004     3.9321     65.595     37.030  36.253535     3.3315      8.489   230.6037 1.9507e+02     7.1849      0.009      0.014    23.9359 0.0000e+00
      0.009      0.002     3.9160     65.295     37.010  36.235857     3.3475      8.486   230.7901 1.9634e+02     7.1564      0.010      0.013    23.9364 0.0000e+00
      0.008     -0.001     3.9028     64.970     37.007  36.234818     3.3601      8.482   230.9386 1.9752e+02     7.1462      0.007      0.010    23.9382 0.0000e+00
      0.006     -0.003     3.8843     64.615     37.011  36.240976     3.3623      8.477   231.1090 1.9761e+02     7.1917      0.006      0.008    23.9414 0.0000e+00
      0.006     -0.003     3.8676     64.235     37.015  36.246837     3.3562      8.473   231.3016 1.9928e+02     7.2157      0.006      0.008    23.9447 0.0000e+00
      0.005     -0.002     3.8500     63.858     37.008  36.242219     3.3558      8.469   231.5462 2.0124e+02     7.2068      0.005      0.007    23.9480 0.0000e+00
      0.004     -0.001     3.8307     63.524     37.013  36.248622     3.3578      8.466   231.8298 2.0149e+02     7.2161      0.004      0.005    23.9508 0.0000e+00
      0.004      0.000     3.8096     63.221     37.023  36.260787     3.3453      8.461   232.0639 2.0074e+02     7.2618      0.004      0.006    23.9532 0.0000e+00
      0.005      0.000     3.7865     62.904     37.022  36.262356     3.3174      8.456   232.2250 1.9987e+02     7.3332      0.005      0.008    23.9562 0.0000e+00
      0.005      0.001     3.7627     62.586     37.025  36.267595     3.2987      8.452   232.3155 1.9972e+02     7.3907      0.005      0.007    23.9597 0.0000e+00
      0.005      0.002     3.7426     62.290     37.016  36.260670     3.2921      8.450   232.4695 2.0020e+02     7.4331      0.005      0.007    23.9629 0.0000e+00
      0.005      0.002     3.7270     62.011     36.995  36.242106     3.2469      8.446   232.3658 1.9970e+02     7.2888      0.005      0.007    23.9657 0.0000e+00
      0.006      0.002     3.7068     61.757     36.984  36.233554     3.1596      8.440   230.1158 1.9833e+02     6.9570      0.005      0.007    23.9684 0.0000e+00
      0.007      0.002     3.6873     61.520     36.970  36.220744     3.1123      8.435   225.9141 1.9749e+02     6.7968      0.007      0.009    23.9713 0.0000e+00
      0.008      0.004     3.6702     61.274     36.962  36.214169     3.1087      8.430   225.2716 1.9703e+02     6.8263      0.008      0.011    23.9743 0.0000e+00
      0.008      0.008     3.6532     61.059     36.965  36.217520     3.1242      8.415   228.7996 1.9754e+02     6.9540      0.009      0.013    23.9767 0.0000e+00
      0.008      0.014     3.6379     60.966     36.944  36.197796     3.1531      8.390   230.8861 1.9956e+02     7.1275      0.008      0.011    23.9793 0.0000e+00
      0.010      0.021     3.6253     61.014     36.911  36.166099     3.1627      8.373   230.9687 2.0163e+02     7.1870      0.007      0.009    23.9811 0.0000e+00
      0.016      0.030     3.6098     61.205     36.900  36.151626     3.1623      8.363   230.9160 2.0001e+02     7.1815      0.014      0.019    23.9831 0.0000e+00
      0.027      0.039     3.5939     61.630     36.903  36.149744     3.1650      8.349   230.6796 1.9348e+02     7.2580      0.027      0.039    23.9840 0.0000e+00
      0.039      0.046     3.5887     62.307     36.899  36.143330     3.1698      8.339   229.3150 1.8591e+02     7.3906      0.037      0.054    23.9838 0.0000e+00
      0.053      0.052     3.5924     63.068     36.895  36.137550     3.1766      8.334   226.1176 1.7739e+02     7.4415      0.050      0.072    23.9873 0.0000e+00
      0.070      0.054     3.6010     63.752     36.904  36.143319     3.1774      8.330   222.7368 1.7033e+02     7.4152      0.071      0.103    23.9823 0.0000e+00
      0.083      0.054     3.6247     64.282     36.913  36.149609     3.1716      8.330   220.7885 1.6860e+02     7.3999      0.082      0.120    23.9713 0.0000e+00
      0.096      0.052     3.6705     64.620     36.917  36.150120     3.1675      8.331   219.7683 1.6876e+02     7.3877      0.090      0.130    23.9714 0.0000e+00
      0.111      0.051     3.7187     64.785     36.919  36.149495     3.1713      8.333   219.0063 1.7101e+02     7.3333      0.109      0.160    23.9696 0.0000e+00
      0.125      0.051     3.7603     64.805     36.913  36.142050     3.1741      8.334   218.4585 1.7643e+02     7.2667      0.125      0.182    23.9632 0.0000e+00
      0.134      0.054     3.7935     64.722     36.893  36.123578     3.1753      8.332   218.1346 1.8043e+02     7.2378      0.128      0.186    23.9604 0.0000e+00
      0.144      0.058     3.8123     64.646     36.885  36.116553     3.2026      8.326   218.0161 1.8215e+02     7.2133      0.139      0.201    23.9556 0.0000e+00
      0.159      0.060     3.8219     64.692     36.890  36.120592     3.2448      8.319   217.9726 1.8352e+02     7.2000      0.156      0.227    23.9511 0.0000e+00
      0.178      0.062     3.8229     64.895     36.881  36.108938     3.2522      8.309   217.8658 1.8417e+02     7.2076      0.174      0.251    23.9510 0.0000e+00
      0.199      0.062     3.8154     65.226     36.880  36.102581     3.2394      8.298   217.9295 1.8439e+02     7.2063      0.197      0.285    23.9511 0.0000e+00
      0.217      0.060     3.8075     65.616     36.889  36.107192     3.2201      8.287   218.3124 1.8436e+02     7.1847      0.215      0.312    23.9516 0.0000e+00
      0.230      0.057     3.8103     65.998     36.887  36.101213     3.1841      8.274   218.7099 1.8341e+02     7.1758      0.227      0.328    23.9527 0.0000e+00
      0.241      0.054     3.8229     66.347     36.883  36.093760     3.1677      8.260   219.0355 1.8167e+02     7.2302      0.237      0.342    23.9472 0.0000e+00
      0.252      0.053     3.8445     66.651     36.872  36.080545     3.1697      8.250   219.4965 1.7828e+02     7.2522      0.246      0.357    23.9396 0.0000e+00
      0.265      0.054     3.8703     66.931     36.861  36.068370     3.1815      8.243   220.0672 1.7224e+02     7.2132      0.259      0.375    23.9335 0.0000e+00
      0.280      0.058     3.8925     67.239     36.869  36.073481     3.2152      8.236   220.6016 1.6506e+02     7.1836      0.274      0.397    23.9284 0.0000e+00
      0.296      0.063     3.9145     67.634     36.878  36.078869     3.2298      8.226   221.1403 1.5843e+02     7.1571      0.291      0.423    23.9232 0.0000e+00
      0.311      0.068     3.9323     68.173     36.872  36.070048     3.2194      8.215   221.5905 1.5184e+02     7.1542      0.304      0.442    23.9190 0.0000e+00
      0.329      0.071     3.9472     68.811     36.832  36.030286     3.2019      8.206   221.9149 1.4426e+02     7.1818      0.320      0.465    23.9193 0.0000e+00
      0.350      0.072     3.9649     69.443     36.780  35.978927     3.1753      8.198   222.3090 1.3606e+02     7.1966      0.343      0.497    23.9173 0.0000e+00
      0.371      0.073     3.9862     69.994     36.760  35.956835     3.1664      8.191   222.7419 1.2871e+02     7.2016      0.367      0.532    23.9099 0.0000e+00
      0.389      0.074     4.0199     70.407     36.760  35.953579     3.1728      8.184   223.1912 1.2230e+02     7.2101      0.382      0.554    23.9046 0.0000e+00
      0.405      0.075     4.0605     70.657     36.752  35.939551     3.1658      8.177   223.7837 1.1541e+02     7.2007      0.396      0.576    23.9069 0.0000e+00
      0.424      0.076     4.0984     70.764     36.734  35.914156     3.1591      8.168   224.3131 1.0859e+02     7.1857      0.415      0.603    23.9056 0.0000e+00
      0.443      0.076     4.1331     70.782     36.725  35.900411     3.1615      8.158   224.6013 1.0252e+02     7.1931      0.436      0.631    23.9019 0.0000e+00
      0.463      0.076     4.1579     70.787     36.726  35.900287     3.1686      8.150   224.8593 9.6535e+01     7.2250      0.454      0.658    23.8985 0.0000e+00
      0.485      0.075     4.1730     70.806     36.739  35.912657     3.1847      8.145   225.1098 9.0844e+01     7.2428      0.475      0.690    23.8903 0.0000e+00
      0.506      0.072     4.1795     70.810     36.751  35.923033     3.1994      8.141   225.3081 8.6286e+01     7.2114      0.500      0.724    23.8778 0.0000e+00
      0.524      0.068     4.1788     70.782     36.728  35.898801     3.2079      8.137   225.6211 8.2885e+01     7.1732      0.515      0.747    23.8687 0.0000e+00
      0.538      0.064     4.1785     70.707     36.703  35.873537     3.2091      8.132   226.0549 7.9849e+01     7.1748      0.527      0.764    23.8706 0.0000e+00
      0.553      0.061     4.1809     70.565     36.701  35.871447     3.2148      8.125   226.5094 7.6727e+01     7.1978      0.542      0.787    23.8710 0.0000e+00
      0.568      0.059     4.1814     70.378     36.704  35.873535     3.1991      8.117   226.9001 7.3904e+01     7.0905      0.558      0.809    23.8668 0.0000e+00
      0.583      0.057     4.1802     70.160     36.729  35.898789     3.1488      8.108   227.2512 7.1280e+01     6.8605      0.571      0.828    23.8635 0.0000e+00
      0.598      0.054     4.1767     69.886     36.753  35.922907     3.1176      8.100   227.6573 6.8650e+01     6.7440      0.586      0.851    23.8631 0.0000e+00
      0.613      0.050     4.1677     69.585     36.741  35.911263     3.1077      8.095   227.9383 6.6485e+01     6.7306      0.601      0.873    23.8637 0.0000e+00
      0.626      0.047     4.1553     69.305     36.714  35.884941     3.1253      8.092   228.0681 6.4668e+01     6.7642      0.615      0.891    23.8634 0.0000e+00
      0.637      0.044     4.1446     69.042     36.686  35.858531     3.1659      8.088   228.2802 6.2992e+01     6.8554      0.625      0.906    23.8640 0.0000e+00
      0.646      0.043     4.1272     68.806     36.673  35.845828     3.1737      8.082   228.6098 6.1441e+01     6.9154      0.632      0.917    23.8645 0.0000e+00
      0.654      0.044     4.1074     68.624     36.687  35.858284     3.1585      8.075   229.0418 5.9965e+01     6.9328      0.641      0.930    23.8652 0.0000e+00
      0.664      0.045     4.0922     68.519     36.714  35.882194     3.1554      8.067   229.5449 5.8480e+01     7.0006      0.651      0.945    23.8659 0.0000e+00
      0.676      0.048     4.0759     68.479     36.715  35.881039     3.1621      8.058   229.9611 5.6903e+01     7.1126      0.663      0.960    23.8664 0.0000e+00
      0.690      0.051     4.0618     68.467     36.680  35.844320     3.1706      8.049   230.2886 5.5391e+01     7.1396      0.677      0.981    23.8667 0.0000e+00
      0.705      0.053     4.0499     68.447     36.656  35.819047     3.1716      8.040   230.6646 5.4136e+01     7.1302      0.692      1.004    23.8660 0.0000e+00
      0.719      0.054     4.0446     68.420     36.667  35.829338     3.1659      8.031   230.9804 5.3054e+01     7.1633      0.705      1.023    23.8618 0.0000e+00
      0.733      0.053     4.0432     68.357     36.680  35.841813     3.2050      8.021   231.2674 5.1949e+01     7.1464      0.718      1.041    23.8578 0.0000e+00
      0.747      0.051     4.0439     68.198     36.680  35.842938     3.2973      8.012   231.7260 5.1005e+01     7.0894      0.733      1.063    23.8560 0.0000e+00
      0.761      0.048     4.0424     67.947     36.679  35.842937     3.3547      8.004   232.1369 5.0195e+01     7.0307      0.746      1.082    23.8531 0.0000e+00
      0.773      0.046     4.0408     67.630     36.676  35.841801     3.3521      7.996   232.3636 4.9387e+01     6.9615      0.759      1.100    23.8511 0.0000e+00
      0.784      0.043     4.0401     67.252     36.663  35.829203     3.3437      7.988   232.6604 4.8786e+01     7.0070      0.769      1.115    23.8509 0.0000e+00
      0.793      0.041     4.0295     66.842     36.652  35.817548     3.3490      7.980   233.1447 4.8303e+01     7.1550      0.777      1.126    23.8521 0.0000e+00
      0.802      0.040     4.0137     66.445     36.663  35.827830     3.3564      7.970   233.4863 4.7675e+01     7.2431      0.786      1.140    23.8548 0.0000e+00
      0.812      0.040     3.9952     66.068     36.661  35.826581     3.3632      7.962   233.6079 4.6995e+01     7.2530      0.797      1.155    23.8572 0.0000e+00
      0.823      0.040     3.9723     65.709     36.636  35.802441     3.3450      7.956   233.9265 4.6415e+01     7.2742      0.807      1.170    23.8580 0.0000e+00
      0.834      0.041     3.9464     65.373     36.623  35.789841     3.3085      7.950   234.3274 4.5919e+01     7.3679      0.818      1.187    23.8572 0.0000e+00
      0.844      0.042     3.9237     65.059     36.636  35.801171     3.2953      7.943   234.5824 4.5570e+01     7.4691      0.828      1.201    23.8554 0.0000e+00
      0.854      0.043     3.9015     64.787     36.649  35.812493     3.2988      7.937   234.8593 4.5215e+01     7.4816      0.836      1.213    23.8553 0.0000e+00
      0.864      0.045     3.8797     64.578     36.638  35.799788     3.3415      7.932   235.1808 4.4627e+01     7.3550      0.846      1.228    23.8569 0.0000e+00
      0.876      0.048     3.8605     64.438     36.614  35.774501     3.4217      7.926   235.5435 4.3985e+01     7.2173      0.859      1.246    23.8575 0.0000e+00
      0.890      0.052     3.8411     64.341     36.603  35.760620     3.4700      7.918   235.9756 4.3386e+01     7.1932      0.873      1.265    23.8554 0.0000e+00
      0.903      0.054     3.8251     64.274     36.604  35.758885     3.4838      7.911   236.4476 4.2681e+01     7.2267      0.885      1.283    23.8526 0.0000e+00
      0.917      0.056     3.8121     64.246     36.600  35.753515     3.5283      7.905   236.8625 4.1903e+01     7.3604      0.899      1.304    23.8516 0.0000e+00
      0.933      0.057     3.8052     64.217     36.608  35.759170     3.6088      7.897   237.1201 4.1179e+01     7.5649      0.915      1.328    23.8484 0.0000e+00
      0.949      0.057     3.8002     64.151     36.615  35.763780     3.6506      7.890   237.3250 4.0499e+01     7.6668      0.931      1.350    23.8438 0.0000e+00
      0.963      0.056     3.7955     64.082     36.598  35.745783     3.6521      7.882   237.5330 3.9825e+01     7.6750      0.943      1.368    23.8395 0.0000e+00
      0.976      0.055     3.7953     64.012     36.586  35.731972     3.6533      7.873   237.7418 3.9160e+01     7.6632      0.957      1.388    23.8369 0.0000e+00
      0.990      0.054     3.7956     63.917     36.578  35.723736     3.6397      7.866   237.9578 3.8479e+01     7.5905      0.971      1.408    23.8354 0.0000e+00
      1.004      0.054     3.7897     63.828     36.500  35.646206     3.6086      7.859   238.1657 3.7818e+01     7.4845      0.984      1.427    23.8319 0.0000e+00
      1.018      0.055     3.7858     63.948     36.355  35.492719     3.5895      7.851   238.4486 3.7236e+01     7.4291      0.999      1.448    23.8292 0.0000e+00
      1.031      0.056     3.7835     65.057     36.287  35.391174     3.5818      7.843   238.7976 3.6680e+01     7.4126      1.012      1.467    23.8264 0.0000e+00
      1.045      0.057     3.7762     68.387     36.322  35.370422     3.5154      7.835   239.1160 3.6045e+01     7.4163      1.023      1.483    23.8262 0.0000e+00
      1.060      0.058     3.7705     74.331     36.373  35.368655     3.4020      7.827   239.3729 3.5360e+01     7.4086      1.039      1.507    23.8273 0.0000e+00
      1.076      0.059     3.7629     81.656     36.410  35.369737     3.3469      7.819   239.6659 3.4752e+01     7.3518      1.057      1.533    23.8218 0.0000e+00
      1.091      0.061     3.7986     88.764     36.447  35.383448     3.3339      7.809   239.9917 3.4212e+01     7.3200      1.070      1.552    23.7734 0.0000e+00
      1.106      0.063     3.9855     94.732     36.486  35.407474     3.2973      7.799   240.3008 3.3612e+01     7.3186      1.084      1.572    23.6798 0.0000e+00
      1.122      0.065     4.3817     99.072     36.494  35.406341     3.2518      7.789   240.6494 3.2942e+01     7.2702      1.100      1.596    23.6034 0.0000e+00
      1.138      0.067     4.8602    101.657     36.463  35.369729     3.2351      7.779   241.0233 3.2264e+01     7.2263      1.116      1.619    23.5593 0.0000e+00
      1.156      0.069     5.2971    102.539     36.443  35.345601     3.2421      7.770   241.3798 3.1522e+01     7.2137      1.134      1.644    23.5315 0.0000e+00
      1.176      0.069     5.6672    101.902     36.470  35.368481     3.2674      7.763   241.6046 3.0731e+01     7.2487      1.152      1.672    23.5142 0.0000e+00
      1.195      0.068     5.9261    100.319     36.495  35.392496     3.3149      7.757   241.7630 3.0003e+01     7.3550      1.172      1.701    23.5022 0.0000e+00
      1.213      0.066     6.0789     98.529     36.485  35.382090     3.3494      7.751   241.9175 2.9384e+01     7.4165      1.190      1.727    23.4944 0.0000e+00
      1.229      0.063     6.1319     97.022     36.472  35.369594     3.3545      7.745   242.0107 2.8838e+01     7.4028      1.206      1.749    23.4882 0.0000e+00
      1.243      0.061     6.0802     95.936     36.471  35.368345     3.3411      7.737   242.2011 2.8291e+01     7.3863      1.220      1.769    23.4845 0.0000e+00
      1.257      0.061     5.9684     95.199     36.470  35.366984     3.3346      7.729   242.4992 2.7740e+01     7.4127      1.233      1.787    23.4831 0.0000e+00
      1.272      0.062     5.8519     94.685     36.456  35.353137     3.3459      7.721   242.7761 2.7170e+01     7.4603      1.247      1.809    23.4821 0.0000e+00
      1.288      0.065     5.7603     94.290     36.431  35.327864     3.3477      7.711   243.0536 2.6569e+01     7.4703      1.263      1.832    23.4824 0.0000e+00
      1.305      0.067     5.6981     93.965     36.421  35.315275     3.3473      7.702   243.3594 2.5974e+01     7.4351      1.280      1.856    23.4829 0.0000e+00
      1.323      0.067     5.6572     93.725     36.436  35.327865     3.3673      7.695   243.6341 2.5327e+01     7.2976      1.296      1.880    23.4828 0.0000e+00
      1.342      0.066     5.6289     93.544     36.464  35.353138     3.3904      7.689   243.8801 2.4678e+01     7.0851      1.316      1.909    23.4823 0.0000e+00
      1.360      0.064     5.6070     93.414     36.479  35.366975     3.4017      7.684   244.0958 2.4183e+01     6.9636      1.336      1.937    23.4801 0.0000e+00
      1.376      0.061     5.5863     93.407     36.482  35.368234     3.4078      7.680   244.2637 2.3752e+01     6.9430      1.349      1.957    23.4769 0.0000e+00
      1.391      0.058     5.5736     93.502     36.483  35.368359     3.3949      7.676   244.4476 2.3318e+01     6.9336      1.363      1.977    23.4736 0.0000e+00
      1.405      0.055     5.5645     93.588     36.484  35.368486     3.3670      7.672   244.6841 2.2960e+01     6.9488      1.378      1.998    23.4714 0.0000e+00
      1.417      0.054     5.5532     93.604     36.487  35.369756     3.3565      7.669   244.9724 2.2585e+01     6.9962      1.389      2.015    23.4698 0.0000e+00
      1.431      0.054     5.5536     93.539     36.503  35.383719     3.3548      7.666   245.2666 2.2156e+01     7.0144      1.403      2.035    23.4684 0.0000e+00
      1.445      0.055     5.5633     93.387     36.532  35.410365     3.3035      7.661   245.4882 2.1755e+01     7.0707      1.418      2.055    23.4670 0.0000e+00
      1.458      0.057     5.5691     93.134     36.561  35.438060     3.2129      7.655   245.6723 2.1324e+01     7.2172      1.429      2.072    23.4649 0.0000e+00
      1.473      0.060     5.5704     92.734     36.590  35.464705     3.1698      7.649   245.8574 2.0874e+01     7.3450      1.443      2.093    23.4629 0.0000e+00
      1.488      0.064     5.5669     92.178     36.605  35.478646     3.1633      7.643   246.0063 2.0467e+01     7.4031      1.460      2.117    23.4614 0.0000e+00
      1.504      0.067     5.5578     91.532     36.609  35.479677     3.1521      7.636   246.1818 2.0007e+01     7.2962      1.474      2.137    23.4592 0.0000e+00
      1.522      0.070     5.5446     90.856     36.610  35.477172     3.1463      7.629   246.4305 1.9445e+01     7.0691      1.492      2.164    23.4581 0.0000e+00
      1.542      0.072     5.5213     90.161     36.585  35.448353     3.1538      7.621   246.6902 1.8897e+01     6.9506      1.513      2.194    23.4582 0.0000e+00
      1.561      0.073     5.4862     89.442     36.525  35.385097     3.1662      7.612   246.9982 1.8427e+01     6.9454      1.531      2.220    23.4564 0.0000e+00
      1.579      0.073     5.4470     88.731     36.492  35.347019     3.1836      7.604   247.3161 1.7971e+01     7.0059      1.548      2.245    23.4526 0.0000e+00
      1.598      0.072     5.4070     88.119     36.522  35.368759     3.2079      7.596   247.5226 1.7488e+01     7.1260      1.568      2.273    23.4478 0.0000e+00
      1.617      0.070     5.3668     87.708     36.555  35.394075     3.2170      7.588   247.6886 1.7043e+01     7.2178      1.587      2.301    23.4416 0.0000e+00
      1.635      0.070     5.3243     87.573     36.568  35.399221     3.2155      7.581   247.8600 1.6656e+01     7.2630      1.604      2.327    23.4342 0.0000e+00
      1.651      0.071     5.2804     87.708     36.608  35.430975     3.2069      7.573   248.1319 1.6276e+01     7.2793      1.620      2.349    23.4255 0.0000e+00
      1.667      0.073     5.2430     88.005     36.713  35.524125     3.1904      7.567   248.4806 1.5895e+01     7.2833      1.634      2.369    23.4157 0.0000e+00
      1.685      0.074     5.2173     88.321     36.905  35.700375     3.1812      7.562   248.7215 1.5470e+01     7.2790      1.651      2.395    23.4061 0.0000e+00
      1.706      0.074     5.2103     88.524     37.136  35.911771     3.1744      7.558   248.9786 1.4991e+01     7.1945      1.673      2.426    23.3962 0.0000e+00
      1.728      0.073     5.2220     88.488     37.293  36.049041     3.1689      7.553   249.3523 1.4558e+01     7.1139      1.696      2.459    23.3859 0.0000e+00
      1.749      0.071     5.2440     88.078     37.351  36.090673     3.1577      7.548   249.6272 1.4207e+01     7.0912      1.716      2.489    23.3760 0.0000e+00
      1.766      0.068     5.2666     87.136     37.371  36.097771     3.1260      7.544   249.7204 1.3877e+01     7.0505      1.732      2.512    23.3638 0.0000e+00
      1.781      0.063     5.2829     85.596     37.350  36.071381     3.0966      7.541   249.7911 1.3562e+01     7.0150      1.747      2.534    23.3474 0.0000e+00
      1.796      0.060     5.2855     83.622     37.304  36.025460     3.0803      7.537   249.9660 1.3285e+01     6.9904      1.762      2.556    23.3267 0.0000e+00
      1.810      0.059     5.2667     81.530     37.329  36.050310     2.9811      7.531   250.2002 1.3034e+01     6.9819      1.775      2.574    23.3042 0.0000e+00
      1.824      0.060     5.2153     79.630     37.397  36.117952     2.7991      7.524   250.3859 1.2770e+01     7.0109      1.788      2.591    23.2877 0.0000e+00
      1.839      0.061     5.1193     78.143     37.426  36.145138     2.7000      7.519   250.5761 1.2471e+01     7.0462      1.803      2.614    23.2796 0.0000e+00
      1.855      0.062     4.9946     77.175     37.476  36.188597     2.6939      7.513   250.7796 1.2151e+01     7.0480      1.819      2.638    23.2792 0.0000e+00
      1.872      0.064     4.8625     76.713     37.631  36.326047     2.7344      7.506   250.9539 1.1843e+01     7.0328      1.836      2.663    23.2815 0.0000e+00
      1.889      0.065     4.7441     76.638     37.875  36.537588     2.8164      7.501   251.1347 1.1575e+01     7.0261      1.853      2.688    23.2849 0.0000e+00
      1.906      0.065     4.6534     76.828     38.158  36.778658     2.8698      7.495   251.3308 1.1302e+01     7.0332      1.868      2.710    23.2858 0.0000e+00
      1.922      0.065     4.5959     77.239     38.378  36.955748     2.8770      7.489   251.6038 1.1038e+01     7.0198      1.885      2.734    23.2796 0.0000e+00
      1.938      0.065     4.5731     77.849     38.490  37.028405     2.8943      7.484   251.9405 1.0816e+01     6.9293      1.902      2.757    23.2665 0.0000e+00
      1.954      0.066     4.5740     78.409     38.584  37.085839     2.9412      7.479   252.1324 1.0576e+01     6.8246      1.916      2.777    23.2329 0.0000e+00
      1.970      0.068     4.5907     78.437     38.672  37.142336     2.9759      7.472   252.2026 1.0331e+01     6.8023      1.933      2.803    23.1864 0.0000e+00
      1.987      0.070     4.6177     77.667     38.758  37.203674     2.9839      7.464   252.3599 1.0077e+01     6.8231      1.948      2.826    23.1420 0.0000e+00
      2.006      0.072     4.6623     76.127     38.898  37.319638     2.9778      7.458   252.5707 9.7877e+00     6.8138      1.965      2.851    23.0947 0.0000e+00
      2.026      0.072     4.7144     73.853     39.069  37.465349     2.9368      7.453   252.6868 9.5053e+00     6.8215      1.986      2.882    23.0507 0.0000e+00
      2.046      0.072     4.7251     70.981     39.197  37.568988     2.8609      7.447   252.6454 9.2557e+00     6.8834      2.006      2.910    23.0138 0.0000e+00
      2.065      0.071     4.6768     67.687     39.276  37.620564     2.8143      7.442   252.5863 9.0377e+00     6.9388      2.025      2.937    22.9879 0.0000e+00
      2.082      0.069     4.5879     63.918     39.399  37.708067     2.8064      7.437   252.6598 8.8313e+00     6.9673      2.042      2.962    22.9669 0.0000e+00
      2.099      0.066     4.4507     59.562     39.524  37.801743     2.7479      7.432   252.8463 8.6158e+00     7.0308      2.058      2.985    22.9404 0.0000e+00
      2.116      0.064     4.2726     54.667     39.543  37.801010     2.6360      7.428   253.0347 8.4132e+00     7.1496      2.075      3.010    22.9203 0.0000e+00
      2.131      0.061     4.0802     49.375     39.513  37.762656     2.5724      7.423   253.2171 8.2345e+00     7.2237      2.090      3.032    22.8909 0.0000e+00
      2.147      0.058     3.8612     44.075     39.538  37.782331     2.5590      7.417   253.4166 8.0503e+00     7.2057      2.105      3.053    22.8469 0.0000e+00
      2.162      0.054     3.5982     39.444     39.614  37.848470     2.4833      7.412   253.5551 7.8749e+00     6.9654      2.121      3.076    22.8114 0.0000e+00
      2.175      0.049     3.3032     35.964     39.715  37.927568     2.3338      7.407   253.7729 7.7415e+00     6.5149      2.134      3.097    22.7887 0.0000e+00
      2.187      0.044     2.9797     33.769     39.853  38.040428     2.2428      7.403   254.0708 7.6248e+00     6.2802      2.144      3.110    22.7745 0.0000e+00
      2.197      0.039     2.6398     32.673     40.028  38.197388     2.2317      7.399   254.2304 7.5135e+00     6.3240      2.156      3.126    22.7762 0.0000e+00
      2.207      0.035     2.3522     32.263     40.144  38.301888     2.2176      7.396   254.2400 7.4442e+00     6.3564      2.166      3.141    22.7742 0.0000e+00
      2.214      0.031     2.1405     32.196     40.138  38.288278     2.1759      7.392   254.2738 7.4078e+00     6.3117      2.172      3.150    22.7451 0.0000e+00
      2.220      0.027     2.0126     32.232     40.148  38.286731     2.1435      7.388   254.4664 7.3543e+00     6.2743      2.176      3.156    22.7153 0.0000e+00
      2.227      0.023     1.9590     32.186     40.223  38.346641     2.1382      7.384   254.6767 7.2721e+00     6.2644      2.183      3.166    22.7047 0.0000e+00
      2.235      0.021     1.9407     32.123     40.262  38.377847     2.1385      7.382   254.7510 7.1923e+00     6.2581      2.192      3.179    22.7018 0.0000e+00
      2.240 -9.990e-29     1.9408 -9.990e-29 -9.990e-29 -9.990e-29 -9.990e-29 -9.990e-29 -9.990e-29 7.1473e+00 -9.990e-29      2.197      3.188    22.6902 0.0000e+00
      2.243 -9.990e-29     1.9499 -9.990e-29 -9.990e-29 -9.990e-29 -9.990e-29 -9.990e-29 -9.990e-29 7.1393e+00 -9.990e-29      2.199      3.190    22.6781 0.0000e+00
      2.243 -9.990e-29     1.9464 -9.990e-29 -9.990e-29 -9.990e-29 -9.990e-29 -9.990e-29 -9.990e-29 7.1556e+00 -9.990e-29      2.200      3.190    22.6610 0.0000e+00
      2.243 -9.990e-29     1.9340 -9.990e-29 -9.990e-29 -9.990e-29 -9.990e-29 -9.990e-29 -9.990e-29 7.1688e+00 -9.990e-29      2.200      3.191    22.6465 0.0000e+00
