* Sea-Bird SBE19plus  Data File:
* FileName = C:\DATA\051418_fcr_0003.hex
* Software version 2.6.3.104 SB_Terminal.dll
* Temperature SN = 7809
* Conductivity SN = 7809
* System UpLoad Time = May 14 2018 15:31:21
* <ApplicationData>
* <Seaterm232>
* <SoftwareVersion>2.6.3.104</SoftwareVersion>
* <BuildDate>30-Jun-2017</BuildDate>
* </Seaterm232>
* </ApplicationData>
* cast   3 14 May 2018 16:13:38 samples 1763 to 2517, avg = 1, stop = mag switch
# nquan = 15
# nvalues = 683                         
# units = specified
# name 0 = depFM: Depth [fresh water, m]
# name 1 = dz/dtM: Descent Rate [m/s]
# name 2 = sbeox0Mg/L: Oxygen, SBE 43 [mg/l]
# name 3 = sbeox0PS: Oxygen, SBE 43 [% saturation]
# name 4 = specc: Specific Conductance [uS/cm]
# name 5 = c0uS/cm: Conductivity [uS/cm]
# name 6 = flECO-AFL: Fluorescence, WET Labs ECO-AFL/FL [mg/m^3]
# name 7 = ph: pH
# name 8 = orp: Oxidation Reduction Potential [mV]
# name 9 = par/sat/log: PAR/Logarithmic, Satlantic
# name 10 = turbWETntu0: Turbidity, WET Labs ECO [NTU]
# name 11 = prdM: Pressure, Strain Gauge [db]
# name 12 = prdE: Pressure, Strain Gauge [psi]
# name 13 = tv290C: Temperature [ITS-90, deg C]
# name 14 = flag:  0.000e+00
# span 0 =     -0.122,      3.512       
# span 1 =     -0.166,      0.143       
# span 2 =     3.4117,    13.3591       
# span 3 =     32.344,    139.206       
# span 4 =     32.936,     42.213       
# span 5 =  27.443331,  35.978400       
# span 6 =     0.5467,     1.9547       
# span 7 =      6.977,      8.450       
# span 8 =   240.4354,   325.5987       
# span 9 = 7.5441e+01, 2.7968e+03       
# span 10 =    -0.0434,     8.0141      
# span 11 =     -0.124,      3.445      
# span 12 =     -0.182,      4.996      
# span 13 =    12.9280,    24.4502      
# span 14 = 0.0000e+00, 0.0000e+00      
# interval = seconds: 0.25
# start_time = May 14 2018 16:13:38 [Instrument's time stamp, header]
# bad_flag = -9.990e-29
# <Sensors count="9" >
#   <sensor Channel="1" >
#     <!-- Count, Temperature -->
#     <TemperatureSensor SensorID="58" >
#       <SerialNumber>7809</SerialNumber>
#       <CalibrationDate>09-Mar-18</CalibrationDate>
#       <A0>1.21093245e-003</A0>
#       <A1>2.84356597e-004</A1>
#       <A2>-1.94507398e-006</A2>
#       <A3>2.12806664e-007</A3>
#       <Slope>1.00000000</Slope>
#       <Offset>0.0000</Offset>
#     </TemperatureSensor>
#   </sensor>
#   <sensor Channel="2" >
#     <!-- Frequency 0, Conductivity -->
#     <ConductivitySensor SensorID="3" >
#       <SerialNumber>7809</SerialNumber>
#       <CalibrationDate>09-Mar-18</CalibrationDate>
#       <UseG_J>1</UseG_J>
#       <!-- Cell const and series R are applicable only for wide range sensors. -->
#       <SeriesR>0.0000</SeriesR>
#       <CellConst>2000.0000</CellConst>
#       <ConductivityType>0</ConductivityType>
#       <Coefficients equation="0" >
#         <A>0.00000000e+000</A>
#         <B>0.00000000e+000</B>
#         <C>0.00000000e+000</C>
#         <D>0.00000000e+000</D>
#         <M>0.0</M>
#         <CPcor>-9.57000000e-008</CPcor>
#       </Coefficients>
#       <Coefficients equation="1" >
#         <G>-1.00672082e+000</G>
#         <H>1.26906489e-001</H>
#         <I>-1.40584351e-004</I>
#         <J>2.47837121e-005</J>
#         <CPcor>-9.57000000e-008</CPcor>
#         <CTcor>3.2500e-006</CTcor>
#         <!-- WBOTC not applicable unless ConductivityType = 1. -->
#         <WBOTC>0.00000000e+000</WBOTC>
#       </Coefficients>
#       <Slope>1.00000000</Slope>
#       <Offset>0.00000</Offset>
#     </ConductivitySensor>
#   </sensor>
#   <sensor Channel="3" >
#     <!-- Count, Pressure, Strain Gauge -->
#     <PressureSensor SensorID="46" >
#       <SerialNumber>7809</SerialNumber>
#       <CalibrationDate>07-Mar-18</CalibrationDate>
#       <PA0>-4.08176359e-002</PA0>
#       <PA1>4.85188419e-004</PA1>
#       <PA2>-3.51168169e-012</PA2>
#       <PTEMPA0>-5.37806900e+001</PTEMPA0>
#       <PTEMPA1>5.36620721e+001</PTEMPA1>
#       <PTEMPA2>4.87214332e-002</PTEMPA2>
#       <PTCA0>5.25213435e+005</PTCA0>
#       <PTCA1>1.79532409e+000</PTCA1>
#       <PTCA2>-2.84353509e-001</PTCA2>
#       <PTCB0>2.51668750e+001</PTCB0>
#       <PTCB1>3.75000000e-004</PTCB1>
#       <PTCB2>0.00000000e+000</PTCB2>
#       <Offset>0.000000</Offset>
#     </PressureSensor>
#   </sensor>
#   <sensor Channel="4" >
#     <!-- A/D voltage 0, pH -->
#     <pH_Sensor SensorID="43" >
#       <SerialNumber>0363</SerialNumber>
#       <CalibrationDate>16-Mar-18</CalibrationDate>
#       <Slope>4.6194</Slope>
#       <Offset>2.5947</Offset>
#     </pH_Sensor>
#   </sensor>
#   <sensor Channel="5" >
#     <!-- A/D voltage 1, Oxidation Reduction Potential -->
#     <OxidationReductionPotentialSensor SensorID="41" >
#       <SerialNumber>0363</SerialNumber>
#       <CalibrationDate>16-Mar-18</CalibrationDate>
#       <B>2.499480</B>
#       <M>-0.496195</M>
#       <Offset>0.0</Offset>
#     </OxidationReductionPotentialSensor>
#   </sensor>
#   <sensor Channel="6" >
#     <!-- A/D voltage 2, Oxygen, SBE 43 -->
#     <OxygenSensor SensorID="38" >
#       <SerialNumber>0434</SerialNumber>
#       <CalibrationDate>13-Mar-18</CalibrationDate>
#       <Use2007Equation>1</Use2007Equation>
#       <CalibrationCoefficients equation="0" >
#         <!-- Coefficients for Owens-Millard equation. -->
#         <Boc>0.0000</Boc>
#         <Soc>0.0000e+000</Soc>
#         <offset>0.0000</offset>
#         <Pcor>0.00e+000</Pcor>
#         <Tcor>0.0000</Tcor>
#         <Tau>0.0</Tau>
#       </CalibrationCoefficients>
#       <CalibrationCoefficients equation="1" >
#         <!-- Coefficients for Sea-Bird equation - SBE calibration in 2007 and later. -->
#         <Soc>4.5718e-001</Soc>
#         <offset>-0.6113</offset>
#         <A>-4.0649e-003</A>
#         <B> 2.0945e-004</B>
#         <C>-3.3182e-006</C>
#         <D0> 2.5826e+000</D0>
#         <D1> 1.92634e-004</D1>
#         <D2>-4.64803e-002</D2>
#         <E> 3.6000e-002</E>
#         <Tau20> 1.2200</Tau20>
#         <H1>-3.3000e-002</H1>
#         <H2> 5.0000e+003</H2>
#         <H3> 1.4500e+003</H3>
#       </CalibrationCoefficients>
#     </OxygenSensor>
#   </sensor>
#   <sensor Channel="7" >
#     <!-- A/D voltage 3, PAR/Logarithmic, Satlantic -->
#     <PARLog_SatlanticSensor SensorID="76" >
#       <SerialNumber>1122</SerialNumber>
#       <CalibrationDate>22-Jun-2017</CalibrationDate>
#       <a0>9.6090e-001</a0>
#       <a1>8.0780e-001</a1>
#       <Im>1.3589e+000</Im>
#       <Multiplier>1.0000e+000</Multiplier>
#     </PARLog_SatlanticSensor>
#   </sensor>
#   <sensor Channel="8" >
#     <!-- A/D voltage 4, Fluorometer, WET Labs ECO-AFL/FL -->
#     <FluoroWetlabECO_AFL_FL_Sensor SensorID="20" >
#       <SerialNumber>FLNTURT-2496</SerialNumber>
#       <CalibrationDate>25-Jan-2017</CalibrationDate>
#       <ScaleFactor>5.30000000e+001</ScaleFactor>
#       <!-- Dark output -->
#       <Vblank>0.0560</Vblank>
#     </FluoroWetlabECO_AFL_FL_Sensor>
#   </sensor>
#   <sensor Channel="9" >
#     <!-- A/D voltage 5, Turbidity Meter, WET Labs, ECO-NTU -->
#     <TurbidityMeter SensorID="67" >
#       <SerialNumber>FLNTURT-2496</SerialNumber>
#       <CalibrationDate>25-Jan-2017</CalibrationDate>
#       <ScaleFactor>176.000000</ScaleFactor>
#       <!-- Dark output -->
#       <DarkVoltage>0.072000</DarkVoltage>
#     </TurbidityMeter>
#   </sensor>
# </Sensors>
# datcnv_date = May 14 2018 15:34:56, 7.26.7.114 [datcnv_vars = 14]
# datcnv_in = C:\DATA\051418_fcr20.hex C:\DATA\SBE19plusV2_7809.xmlcon
# datcnv_skipover = 0
# datcnv_ox_hysteresis_correction = yes
# datcnv_ox_tau_correction = yes
# filter_date = May 14 2018 15:35:17, 7.26.7.114
# filter_in = C:\DATA\051418_fcr20.cnv
# filter_low_pass_tc_A = 0.030
# filter_low_pass_tc_B = 0.150
# filter_low_pass_A_vars = prdM prdE tv290C
# filter_low_pass_B_vars = depFM dz/dtM sbeox0Mg/L sbeox0PS specc c0uS/cm flECO-AFL ph orp par/sat/log turbWETntu0
# alignctd_date = May 14 2018 15:35:42, 7.26.7.114
# alignctd_in = C:\DATA\051418_fcr20.cnv
# alignctd_adv = dz/dtM 1.000, sbeox0Mg/L 1.000, sbeox0PS 1.000, specc 1.000, c0uS/cm 1.000, flECO-AFL 1.000, ph 1.000, orp 1.000, turbWETntu0 1.000                                                                                 
# file_type = ascii
*END*
     -0.092     -0.018     8.4195    100.232     36.200  35.558034     0.8295      7.271   240.4354 2.1455e+03     0.3627     -0.088     -0.128    24.2474 0.0000e+00
     -0.100     -0.018     8.4103    100.120     36.213  35.570245     0.8379      7.282   242.2339 1.9469e+03     0.3331     -0.095     -0.136    24.1851 0.0000e+00
     -0.113     -0.015     8.3822     99.808     36.223  35.588515     0.8351      7.283   243.9222 1.7838e+03     0.3356     -0.113     -0.164    24.1415 0.0000e+00
     -0.122     -0.008     8.3370     99.310     36.272  35.651912     0.8329      7.273   245.1022 1.9568e+03     0.3617     -0.124     -0.182    24.1217 0.0000e+00
     -0.121      0.004     8.2275     98.058     36.366  35.765094     0.8388      7.273   245.4891 2.1660e+03     0.4044     -0.119     -0.173    24.1010 0.0000e+00
     -0.115      0.022     8.0513     96.010     36.394  35.813628     0.8427      7.293   245.5023 2.1913e+03     0.4247     -0.112     -0.164    24.1007 0.0000e+00
     -0.107      0.046     7.8962     94.186     36.363  35.794112     0.8342      7.321   245.5201 1.8856e+03     0.3938     -0.106     -0.153    24.1157 0.0000e+00
     -0.098      0.074     7.8101     93.147     36.358  35.783223     0.8269      7.344   245.6177 1.1900e+03     0.3663     -0.097     -0.141    24.1352 0.0000e+00
     -0.083      0.099     7.7774     92.699     36.345  35.745488     0.8376      7.361   245.8227 6.2820e+02     0.3669     -0.087     -0.127    24.1677 0.0000e+00
     -0.054      0.120     7.7636     92.430     36.232  35.591915     0.8437      7.373   246.2783 4.5782e+02     0.3705     -0.060     -0.087    24.2034 0.0000e+00
     -0.010      0.135     7.7312     91.914     36.080  35.387320     0.8358      7.384   246.9100 6.7883e+02     0.3795     -0.011     -0.017    24.2198 0.0000e+00
      0.040      0.143     7.6664     91.019     36.049  35.304351     0.8716      7.394   247.4372 8.9691e+02     0.3846      0.043      0.063    24.2144 0.0000e+00
      0.082      0.142     7.5848     89.958     36.137  35.350919     0.9638      7.396   247.8344 6.1006e+02     0.4016      0.085      0.123    24.1803 0.0000e+00
      0.115      0.130     7.4882     88.753     36.257  35.442140     1.0321      7.394   248.3568 3.4710e+02     0.4006      0.113      0.164    24.1180 0.0000e+00
      0.144      0.110     7.3635     87.238     36.351  35.517960     1.0540      7.397   249.1935 7.2477e+02     0.3733      0.141      0.205    24.0329 0.0000e+00
      0.173      0.086     7.2271     85.598     36.350  35.505375     1.0817      7.408   250.2084 1.1418e+03     0.3770      0.171      0.247    23.9525 0.0000e+00
      0.196      0.063     7.1120     84.209     36.271  35.417008     1.1272      7.420   251.1631 1.0132e+03     0.3850      0.197      0.285    23.9002 0.0000e+00
      0.209      0.042     7.0425     83.355     36.206  35.338811     1.1539      7.429   251.9609 7.9357e+02     0.4082      0.209      0.303    23.8661 0.0000e+00
      0.213      0.025     7.0214     83.070     36.205  35.322136     1.1574      7.427   252.7984 6.4489e+02     0.4438      0.210      0.305    23.8468 0.0000e+00
      0.210      0.013     7.0246     83.080     36.240  35.342397     1.1321      7.415   253.7179 6.8079e+02     0.4188      0.207      0.300    23.8346 0.0000e+00
      0.206      0.004     7.0280     83.105     36.233  35.329685     1.0777      7.406   254.4756 8.0099e+02     0.3807      0.201      0.292    23.8172 0.0000e+00
      0.206      0.000     7.0207     83.020     36.198  35.295462     1.0426      7.405   255.0756 7.9500e+02     0.3795      0.200      0.290    23.7979 0.0000e+00
      0.211 -8.566e-07     7.0011     82.805     36.205  35.309745     1.0381      7.409   255.7241 1.0328e+03     0.3749      0.207      0.302    23.7736 0.0000e+00
      0.213      0.000     6.9745     82.515     36.260  35.375353     1.0411      7.414   256.4664 1.2964e+03     0.3549      0.211      0.305    23.7526 0.0000e+00
      0.212      0.000     6.9454     82.188     36.332  35.453533     1.0148      7.422   257.2533 1.3116e+03     0.3200      0.207      0.300    23.7444 0.0000e+00
      0.210     -0.001     6.9233     81.929     36.371  35.492759     0.9503      7.433   257.9254 1.3405e+03     0.3200      0.205      0.298    23.7440 0.0000e+00
      0.209     -0.003     6.9230     81.915     36.351  35.468504     0.9045      7.448   258.3977 1.4470e+03     0.3859      0.204      0.297    23.7570 0.0000e+00
      0.207     -0.003     6.9465     82.171     36.306  35.414349     0.8921      7.460   258.8336 1.6119e+03     0.4445      0.203      0.295    23.7766 0.0000e+00
      0.207     -0.002     6.9946     82.711     36.250  35.346139     0.8655      7.469   259.4110 1.6826e+03     0.4485      0.203      0.294    23.7892 0.0000e+00
      0.208     -0.002     7.0699     83.568     36.197  35.278969     0.8119      7.476   260.1308 1.4819e+03     0.4045      0.204      0.295    23.7907 0.0000e+00
      0.208     -0.002     7.1579     84.576     36.169  35.237385     0.7778      7.480   260.8255 1.5844e+03     0.3691      0.204      0.296    23.7824 0.0000e+00
      0.207     -0.001     7.2424     85.549     36.167  35.224452     0.7750      7.483   261.4437 2.3442e+03     0.3871      0.203      0.295    23.7686 0.0000e+00
      0.206     -0.001     7.3149     86.392     36.200  35.249631     0.7784      7.484   261.9257 2.7968e+03     0.4091      0.202      0.293    23.7481 0.0000e+00
      0.205      0.000     7.3649     86.975     36.242  35.287731     0.7817      7.484   262.2656 2.3489e+03     0.3906      0.200      0.289    23.7251 0.0000e+00
      0.205      0.002     7.3871     87.235     36.260  35.303983     0.7780      7.484   262.6281 1.7835e+03     0.3768      0.199      0.290    23.7047 0.0000e+00
      0.206      0.003     7.3860     87.223     36.275  35.319090     0.7701      7.483   263.0390 1.4632e+03     0.3958      0.202      0.293    23.6887 0.0000e+00
      0.208      0.003     7.3641     86.967     36.299  35.343353     0.7700      7.480   263.6202 1.2310e+03     0.4062      0.204      0.296    23.6800 0.0000e+00
      0.210      0.002     7.3219     86.470     36.298  35.343261     0.7757      7.474   264.2348 1.5413e+03     0.4114      0.206      0.299    23.6766 0.0000e+00
      0.210     -0.000     7.2626     85.769     36.272  35.317967     0.7748      7.469   264.5333 1.9364e+03     0.4274      0.207      0.300    23.6759 0.0000e+00
      0.210     -0.002     7.1914     84.924     36.247  35.291613     0.7682      7.465   264.8208 1.6385e+03     0.4167      0.206      0.299    23.6765 0.0000e+00
      0.209     -0.002     7.1149     84.016     36.236  35.278700     0.7881      7.462   265.3021 1.2503e+03     0.4047      0.205      0.298    23.6783 0.0000e+00
      0.206     -0.002     7.0356     83.077     36.248  35.288877     0.8319      7.460   265.7920 1.1721e+03     0.4046      0.202      0.293    23.6794 0.0000e+00
      0.205     -0.001     6.9515     82.082     36.248  35.287618     0.8469      7.460   266.2702 1.0467e+03     0.3850      0.199      0.288    23.6796 0.0000e+00
      0.205     -0.001     6.8686     81.100     36.223  35.263468     0.8319      7.461   266.6106 7.4261e+02     0.3803      0.200      0.291    23.6768 0.0000e+00
      0.208     -0.001     6.8015     80.304     36.213  35.250973     0.8158      7.463   266.8959 6.2921e+02     0.3793      0.203      0.297    23.6722 0.0000e+00
      0.209     -0.001     6.7658     79.878     36.228  35.263582     0.7991      7.466   267.3961 8.4384e+02     0.3718      0.206      0.299    23.6704 0.0000e+00
      0.207     -0.001     6.7657     79.874     36.256  35.288878     0.7870      7.469   267.9266 1.0668e+03     0.3820      0.203      0.294    23.6701 0.0000e+00
      0.204     -0.002     6.7878     80.136     36.270  35.302737     0.7886      7.471   268.3206 1.1300e+03     0.3808      0.199      0.289    23.6696 0.0000e+00
      0.204     -0.002     6.8154     80.463     36.270  35.304110     0.7910      7.471   268.7182 1.0833e+03     0.3868      0.199      0.288    23.6664 0.0000e+00
      0.205     -0.001     6.8410     80.762     36.273  35.305474     0.7794      7.471   269.1204 1.0028e+03     0.4247      0.201      0.291    23.6619 0.0000e+00
      0.205      0.001     6.8619     81.005     36.289  35.319230     0.7676      7.473   269.5698 1.1346e+03     0.4414      0.201      0.291    23.6600 0.0000e+00
      0.205      0.001     6.8747     81.152     36.316  35.343390     0.7677      7.477   270.1076 1.5160e+03     0.4064      0.200      0.290    23.6619 0.0000e+00
      0.206      0.001     6.8747     81.149     36.317  35.343505     0.7720      7.478   270.5465 1.6612e+03     0.3676      0.201      0.292    23.6636 0.0000e+00
      0.206      0.001     6.8576     80.944     36.296  35.320618     0.7547      7.477   270.8321 1.5851e+03     0.3696      0.203      0.294    23.6613 0.0000e+00
      0.206      0.001     6.8240     80.544     36.298  35.320743     0.7242      7.473   271.0661 1.6125e+03     0.3988      0.203      0.295    23.6578 0.0000e+00
      0.205      0.002     6.7817     80.048     36.321  35.345016     0.7153      7.468   271.2255 1.6982e+03     0.4161      0.201      0.291    23.6553 0.0000e+00
      0.204      0.002     6.7347     79.509     36.328  35.360020     0.7113      7.466   271.2961 1.7026e+03     0.3954      0.199      0.289    23.6539 0.0000e+00
      0.206      0.001     6.6817     78.904     36.333  35.375128     0.6942      7.466   271.4895 1.4299e+03     0.3929      0.201      0.292    23.6518 0.0000e+00
      0.209      0.000     6.6234     78.229     36.352  35.400652     0.6830      7.466   271.8434 1.2397e+03     0.4163      0.205      0.298    23.6472 0.0000e+00
      0.209     -0.001     6.5621     77.512     36.362  35.414553     0.6860      7.467   272.0478 1.3816e+03     0.4041      0.206      0.299    23.6477 0.0000e+00
      0.208     -0.001     6.5023     76.815     36.360  35.416169     0.6850      7.470   271.9820 1.3964e+03     0.3981      0.204      0.295    23.6606 0.0000e+00
      0.206     -0.001     6.4528     76.238     36.360  35.420194     0.6795      7.472   271.9932 1.2462e+03     0.4045      0.201      0.292    23.6790 0.0000e+00
      0.204      0.000     6.4199     75.854     36.402  35.463226     0.6751      7.473   272.3553 1.2376e+03     0.3890      0.200      0.290    23.6875 0.0000e+00
      0.202      0.002     6.4026     75.661     36.490  35.555344     0.6781      7.471   272.9190 1.3386e+03     0.3948      0.197      0.285    23.6891 0.0000e+00
      0.204      0.004     6.3942     75.581     36.572  35.644684     0.6876      7.469   273.3886 1.3961e+03     0.4137      0.198      0.286    23.6966 0.0000e+00
      0.209      0.004     6.3848     75.483     36.640  35.717659     0.6800      7.466   273.6449 1.4086e+03     0.4037      0.206      0.299    23.7034 0.0000e+00
      0.213      0.004     6.3658     75.263     36.660  35.738944     0.6684      7.461   273.7801 1.2003e+03     0.3958      0.211      0.306    23.7025 0.0000e+00
      0.212      0.004     6.3359     74.910     36.631  35.711484     0.6665      7.455   273.9051 7.8126e+02     0.4108      0.209      0.302    23.7096 0.0000e+00
      0.209      0.001     6.2966     74.456     36.682  35.766764     0.6669      7.448   274.0384 5.2352e+02     0.4316      0.205      0.297    23.7297 0.0000e+00
      0.208     -0.013     6.2501     73.961     36.787  35.899165     0.6744      7.444   274.0999 6.2059e+02     0.4332      0.204      0.296    23.7399 0.0000e+00
      0.211     -0.042     6.2092     73.640     36.780  35.978400     0.6829      7.445   274.0477 7.7464e+02     0.4006      0.205      0.297    23.7396 0.0000e+00
      0.216     -0.084     6.2094     73.909     36.620  35.962646     0.6779      7.448   274.0093 7.3467e+02     0.3725      0.215      0.310    23.7375 0.0000e+00
      0.207     -0.127     6.2850     75.067     36.355  35.835947     0.6599      7.450   274.2373 9.3902e+02     0.3682      0.218      0.316    23.7398 0.0000e+00
      0.163     -0.157     6.4317     76.978     36.087  35.653619     0.6484      7.447   274.5678 1.1057e+03     0.3795      0.171      0.249    23.7561 0.0000e+00
      0.088     -0.166     6.6252     79.318     35.955  35.536878     0.6221      7.443   274.6500 7.5283e+02     0.3560      0.089      0.129    23.8677 0.0000e+00
      0.006     -0.156     6.8483     81.884     35.972  35.504332     0.5711      7.443   274.7156 4.5637e+02     0.2674     -0.003     -0.004    24.1068 0.0000e+00
     -0.050     -0.127     7.0804     84.498     36.057  35.514118     0.5467      7.444   275.0169 4.1868e+02     0.1936     -0.070     -0.102    24.3105 0.0000e+00
     -0.061     -0.086     7.2886     86.839     36.137  35.528042     0.5472      7.447   275.3669 4.0507e+02     0.1965     -0.067     -0.098    24.4248 0.0000e+00
     -0.050     -0.044     7.4400     88.534     36.204  35.545540     0.5776      7.450   275.6774 4.1117e+02     0.2710     -0.044     -0.064    24.4502 0.0000e+00
     -0.042     -0.015     7.5214     89.414     36.297  35.598581     0.6384      7.452   275.8466 4.2939e+02     0.3618     -0.039     -0.056    24.3548 0.0000e+00
     -0.042     -0.004     7.5408     89.575     36.327  35.597606     0.6674      7.455   275.8644 4.9075e+02     0.4095     -0.040     -0.057    24.2319 0.0000e+00
     -0.046     -0.004     7.5116     89.175     36.221  35.470176     0.6699      7.456   275.9785 5.4400e+02     0.4203     -0.046     -0.066    24.1445 0.0000e+00
     -0.052     -0.005     7.4479     88.372     36.162  35.391756     0.6880      7.452   276.1936 4.7215e+02     0.4308     -0.050     -0.072    24.0806 0.0000e+00
     -0.059     -0.001     7.3652     87.346     36.268  35.475189     0.7120      7.447   276.4003 3.9886e+02     0.4156     -0.058     -0.084    24.0274 0.0000e+00
     -0.063      0.003     7.2747     86.227     36.405  35.589633     0.7202      7.445   276.5844 4.0840e+02     0.3895     -0.068     -0.098    23.9862 0.0000e+00
     -0.055      0.004     7.1786     85.057     36.463  35.632075     0.7141      7.447   276.7849 5.6973e+02     0.3899     -0.058     -0.084    23.9568 0.0000e+00
     -0.041      0.004     7.0745     83.817     36.441  35.607194     0.7107      7.451   276.9324 9.9784e+02     0.3897     -0.036     -0.052    23.9310 0.0000e+00
     -0.036      0.004     6.9617     82.488     36.371  35.542880     0.7169      7.454   277.1619 1.4706e+03     0.4173     -0.029     -0.041    23.9018 0.0000e+00
     -0.044      0.003     6.8444     81.099     36.317  35.489681     0.7157      7.456   277.5818 1.7086e+03     0.4489     -0.043     -0.062    23.8717 0.0000e+00
     -0.054     -0.001     6.7306     79.742     36.304  35.472150     0.7055      7.456   277.9654 1.6992e+03     0.4354     -0.057     -0.082    23.8484 0.0000e+00
     -0.055     -0.003     6.6243     78.472     36.294  35.457948     0.7037      7.454   278.2726 1.6927e+03     0.4072     -0.056     -0.081    23.8453 0.0000e+00
     -0.051     -0.002     6.5247     77.283     36.285  35.444994     0.7116      7.453   278.4568 1.8315e+03     0.4441     -0.049     -0.072    23.8594 0.0000e+00
     -0.046      0.001     6.4347     76.206     36.288  35.442568     0.7180      7.453   278.5581 1.6102e+03     0.5456     -0.043     -0.063    23.8592 0.0000e+00
     -0.044      0.003     6.3574     75.279     36.280  35.428603     0.7173      7.454   278.7230 9.7441e+02     0.5956     -0.042     -0.061    23.8478 0.0000e+00
     -0.046      0.002     6.2920     74.492     36.261  35.403187     0.7210      7.455   278.9013 9.1282e+02     0.5918     -0.045     -0.065    23.8419 0.0000e+00
     -0.048      0.000     6.2398     73.857     36.256  35.389329     0.7441      7.455   279.0788 1.2179e+03     0.4997     -0.047     -0.069    23.8369 0.0000e+00
     -0.048      0.000     6.2005     73.375     36.263  35.388082     0.7766      7.455   279.2338 1.2990e+03     0.3063     -0.048     -0.070    23.8304 0.0000e+00
     -0.047      0.000     6.1702     73.004     36.271  35.388094     0.7927      7.454   279.4850 1.6545e+03     0.1754     -0.047     -0.068    23.8220 0.0000e+00
     -0.046      0.001     6.1469     72.719     36.277  35.389461     0.7912      7.452   279.8790 1.9993e+03     0.1374     -0.045     -0.066    23.8114 0.0000e+00
     -0.045      0.001     6.1271     72.480     36.295  35.404609     0.7677      7.447   280.2130 2.0326e+03     0.1831     -0.044     -0.064    23.7997 0.0000e+00
     -0.045      0.001     6.1078     72.250     36.336  35.444201     0.7297      7.444   280.4251 2.0390e+03     0.3316     -0.044     -0.064    23.7867 0.0000e+00
     -0.045      0.000     6.0871     72.008     36.379  35.487041     0.7174      7.444   280.5511 2.0424e+03     0.4366     -0.044     -0.064    23.7762 0.0000e+00
     -0.046     -0.001     6.0613     71.712     36.429  35.541448     0.7197      7.444   280.7038 2.0426e+03     0.4459     -0.045     -0.065    23.7702 0.0000e+00
     -0.046     -0.003     6.0289     71.346     36.474  35.593863     0.7398      7.443   280.7231 2.0401e+03     0.4752     -0.045     -0.066    23.7674 0.0000e+00
     -0.046     -0.004     5.9902     70.906     36.483  35.612628     0.7943      7.441   280.5258 2.0441e+03     0.5463     -0.045     -0.065    23.7663 0.0000e+00
     -0.047     -0.005     5.9465     70.402     36.504  35.641312     0.8365      7.439   280.5552 2.0302e+03     0.6037     -0.045     -0.066    23.7674 0.0000e+00
     -0.049     -0.006     5.8995     69.854     36.546  35.686605     0.8457      7.435   280.8210 1.9852e+03     0.6193     -0.047     -0.069    23.7737 0.0000e+00
     -0.052     -0.006     5.8502     69.276     36.573  35.715610     0.8227      7.431   280.9865 1.9507e+03     0.5527     -0.051     -0.075    23.7876 0.0000e+00
     -0.054     -0.006     5.8026     68.717     36.593  35.737922     0.7889      7.429   281.0933 1.9394e+03     0.4085     -0.054     -0.078    23.8037 0.0000e+00
     -0.055     -0.005     5.7589     68.203     36.619  35.765812     0.7767      7.429   281.2518 1.9219e+03     0.3102     -0.054     -0.078    23.8137 0.0000e+00
     -0.056     -0.004     5.7169     67.709     36.651  35.798742     0.7763      7.429   281.4397 1.7694e+03     0.3410     -0.054     -0.079    23.8194 0.0000e+00
     -0.057     -0.002     5.6778     67.250     36.669  35.818467     0.7743      7.428   281.6447 1.2124e+03     0.4146     -0.055     -0.080    23.8234 0.0000e+00
     -0.058      0.001     5.6447     66.863     36.661  35.813741     0.7713      7.423   281.8381 5.3481e+02     0.4063     -0.056     -0.081    23.8263 0.0000e+00
     -0.058      0.003     5.6171     66.540     36.649  35.805136     0.7674      7.411   281.9708 7.7718e+02     0.3624     -0.057     -0.083    23.8290 0.0000e+00
     -0.057      0.006     5.5927     66.258     36.618  35.777956     0.7639      7.397   282.1311 1.7941e+03     0.3723     -0.057     -0.082    23.8319 0.0000e+00
     -0.055      0.008     5.5702     65.998     36.574  35.739196     0.7750      7.387   282.3139 2.3776e+03     0.3737     -0.054     -0.078    23.8354 0.0000e+00
     -0.051      0.008     5.5492     65.754     36.548  35.717626     0.7918      7.383   282.4589 2.4671e+03     0.3488     -0.050     -0.072    23.8386 0.0000e+00
     -0.047      0.008     5.5297     65.527     36.537  35.707736     0.7925      7.387   282.5941 2.4996e+03     0.3460     -0.045     -0.066    23.8425 0.0000e+00
     -0.045      0.007     5.5112     65.308     36.512  35.683137     0.7826      7.395   282.7438 2.5152e+03     0.3393     -0.043     -0.062    23.8479 0.0000e+00
     -0.044      0.005     5.4937     65.098     36.503  35.674291     0.7735      7.403   282.9778 2.5202e+03     0.3602     -0.043     -0.062    23.8539 0.0000e+00
     -0.044      0.002     5.4764     64.893     36.558  35.727819     0.7748      7.408   283.2733 2.5186e+03     0.4149     -0.043     -0.063    23.8589 0.0000e+00
     -0.043     -0.001     5.4586     64.684     36.588  35.758641     0.7806      7.413   283.4773 2.5131e+03     0.4209     -0.043     -0.062    23.8616 0.0000e+00
     -0.043     -0.003     5.4419     64.494     36.554  35.729352     0.7785      7.417   283.5523 2.5044e+03     0.4021     -0.041     -0.060    23.8611 0.0000e+00
     -0.044     -0.004     5.4279     64.334     36.511  35.691310     0.7775      7.420   283.7496 2.4967e+03     0.4012     -0.042     -0.061    23.8587 0.0000e+00
     -0.046     -0.004     5.4165     64.200     36.499  35.679809     0.7958      7.421   284.0561 2.4943e+03     0.4417     -0.044     -0.064    23.8575 0.0000e+00
     -0.049     -0.003     5.4064     64.077     36.539  35.717336     0.8252      7.423   284.2463 2.5016e+03     0.5246     -0.048     -0.070    23.8601 0.0000e+00
     -0.050     -0.002     5.3983     63.980     36.588  35.763913     0.8382      7.423   284.4151 2.5189e+03     0.5796     -0.051     -0.074    23.8667 0.0000e+00
     -0.050     -0.001     5.3915     63.902     36.621  35.798310     0.8340      7.421   284.6337 2.5344e+03     0.6191     -0.050     -0.073    23.8732 0.0000e+00
     -0.048      0.000     5.3849     63.830     36.635  35.815623     0.8204      7.417   284.8244 2.5397e+03     0.6049     -0.046     -0.067    23.8742 0.0000e+00
     -0.047      0.001     5.3801     63.780     36.597  35.782680     0.8027      7.416   284.9141 2.5372e+03     0.4990     -0.044     -0.064    23.8693 0.0000e+00
     -0.047      0.001     5.3767     63.744     36.527  35.717614     0.7848      7.416   284.8591 2.5282e+03     0.4069     -0.045     -0.065    23.8664 0.0000e+00
     -0.048      0.000     5.3728     63.699     36.472  35.664149     0.7696      7.417   284.8474 2.5128e+03     0.3767     -0.047     -0.069    23.8698 0.0000e+00
     -0.049     -0.001     5.3681     63.639     36.454  35.644410     0.7658      7.418   285.0294 2.4979e+03     0.3776     -0.049     -0.071    23.8760 0.0000e+00
     -0.049     -0.001     5.3620     63.561     36.483  35.669510     0.7852      7.419   285.2531 2.4906e+03     0.3875     -0.048     -0.070    23.8828 0.0000e+00
     -0.048     -0.000     5.3532     63.452     36.532  35.713549     0.8197      7.419   285.4875 2.4926e+03     0.4055     -0.047     -0.069    23.8875 0.0000e+00
     -0.047      0.001     5.3419     63.314     36.553  35.732224     0.8341      7.419   285.7983 2.5020e+03     0.4118     -0.046     -0.067    23.8878 0.0000e+00
     -0.047      0.001     5.3300     63.172     36.591  35.768250     0.8306      7.418   286.0854 2.5122e+03     0.4024     -0.046     -0.067    23.8839 0.0000e+00
     -0.047      0.000     5.3201     63.057     36.655  35.831529     0.8326      7.417   286.2057 2.5194e+03     0.4141     -0.047     -0.068    23.8782 0.0000e+00
     -0.047     -0.002     5.3146     62.998     36.682  35.862094     0.8314      7.416   286.2202 2.5219e+03     0.4310     -0.046     -0.067    23.8732 0.0000e+00
     -0.047     -0.005     5.3169     63.034     36.698  35.883729     0.8253      7.416   286.3474 2.5188e+03     0.4225     -0.045     -0.066    23.8707 0.0000e+00
     -0.047     -0.007     5.3295     63.193     36.711  35.902561     0.8231      7.416   286.5394 2.5166e+03     0.4035     -0.045     -0.065    23.8690 0.0000e+00
     -0.051     -0.008     5.3507     63.455     36.701  35.899221     0.8134      7.416   286.6488 2.5290e+03     0.3840     -0.049     -0.072    23.8699 0.0000e+00
     -0.055     -0.008     5.3772     63.779     36.703  35.906887     0.7911      7.416   286.8096 2.5536e+03     0.3701     -0.055     -0.080    23.8769 0.0000e+00
     -0.058     -0.007     5.4042     64.108     36.723  35.931732     0.7743      7.416   287.1936 2.5636e+03     0.3581     -0.057     -0.083    23.8846 0.0000e+00
     -0.059     -0.006     5.4287     64.405     36.733  35.945539     0.7751      7.416   287.5914 2.5574e+03     0.3610     -0.058     -0.084    23.8927 0.0000e+00
     -0.059     -0.004     5.4500     64.660     36.732  35.946792     0.7641      7.416   287.7469 2.5562e+03     0.3740     -0.058     -0.084    23.9022 0.0000e+00
     -0.059     -0.002     5.4675     64.870     36.731  35.946885     0.7334      7.416   287.8690 2.5603e+03     0.3940     -0.057     -0.083    23.9108 0.0000e+00
     -0.060     -0.001     5.4824     65.049     36.729  35.946660     0.7251      7.415   288.0359 2.5593e+03     0.4204     -0.059     -0.084    23.9181 0.0000e+00
     -0.060     -0.000     5.4952     65.207     36.723  35.944077     0.7288      7.413   288.2159 2.5151e+03     0.4175     -0.059     -0.085    23.9230 0.0000e+00
     -0.061      0.001     5.5050     65.334     36.688  35.915661     0.7222      7.411   288.4104 2.1196e+03     0.4504     -0.060     -0.087    23.9258 0.0000e+00
     -0.061      0.003     5.5093     65.395     36.622  35.857177     0.7190      7.411   288.4951 1.7616e+03     0.5431     -0.060     -0.088    23.9264 0.0000e+00
     -0.060      0.005     5.5033     65.331     36.569  35.808668     0.7175      7.411   288.6376 2.0611e+03     0.5936     -0.059     -0.086    23.9270 0.0000e+00
     -0.057      0.006     5.4877     65.147     36.532  35.773812     0.7140      7.410   288.7573 1.9469e+03     0.6033     -0.056     -0.081    23.9319 0.0000e+00
     -0.055      0.006     5.4663     64.892     36.511  35.753345     0.7129      7.409   288.6522 1.0986e+03     0.5987     -0.053     -0.077    23.9413 0.0000e+00
     -0.053      0.005     5.4396     64.573     36.510  35.751763     0.7226      7.408   288.5714 7.8094e+02     0.5375     -0.052     -0.076    23.9510 0.0000e+00
     -0.051      0.003     5.4086     64.205     36.513  35.754686     0.7494      7.406   288.6405 1.1268e+03     0.4736     -0.050     -0.073    23.9570 0.0000e+00
     -0.051      0.001     5.3749     63.806     36.547  35.788690     0.7702      7.404   288.7128 1.2697e+03     0.4672     -0.049     -0.071    23.9585 0.0000e+00
     -0.052     -0.001     5.3413     63.407     36.606  35.845290     0.7716      7.404   288.6713 1.2978e+03     0.4604     -0.050     -0.073    23.9564 0.0000e+00
     -0.053     -0.001     5.3115     63.055     36.627  35.867322     0.7839      7.405   288.5686 1.8235e+03     0.4219     -0.053     -0.076    23.9543 0.0000e+00
     -0.054     -0.001     5.2853     62.749     36.621  35.864508     0.8088      7.405   288.5901 2.3632e+03     0.3678     -0.054     -0.078    23.9555 0.0000e+00
     -0.054     -0.001     5.2613     62.473     36.626  35.874804     0.8248      7.404   288.7587 2.5263e+03     0.3554     -0.053     -0.077    23.9566 0.0000e+00
     -0.053     -0.001     5.2414     62.246     36.610  35.864771     0.8308      7.402   288.8870 2.5527e+03     0.3940     -0.052     -0.076    23.9550 0.0000e+00
     -0.053     -0.001     5.2272     62.084     36.546  35.806734     0.7975      7.399   288.9361 2.4721e+03     0.4081     -0.052     -0.076    23.9550 0.0000e+00
     -0.053     -0.001     5.2156     61.947     36.482  35.744785     0.7265      7.397   289.0082 2.3585e+03     0.4040     -0.052     -0.076    23.9604 0.0000e+00
     -0.054     -0.001     5.2041     61.802     36.429  35.687457     0.6799      7.395   289.1574 2.3327e+03     0.4352     -0.053     -0.077    23.9690 0.0000e+00
     -0.055     -0.001     5.1933     61.659     36.372  35.621761     0.6745      7.393   289.2766 2.2521e+03     0.4798     -0.054     -0.078    23.9773 0.0000e+00
     -0.055     -0.000     5.1833     61.520     36.348  35.585658     0.6980      7.392   289.3307 2.0620e+03     0.4557     -0.054     -0.078    23.9846 0.0000e+00
     -0.055      0.001     5.1744     61.392     36.345  35.568530     0.7348      7.389   289.4679 2.0588e+03     0.3879     -0.054     -0.078    23.9866 0.0000e+00
     -0.055      0.002     5.1695     61.311     36.332  35.541690     0.7605      7.385   289.6449 2.2879e+03     0.3622     -0.055     -0.080    23.9788 0.0000e+00
     -0.054      0.004     5.1717     61.317     36.318  35.515208     0.7707      7.384   289.8359 2.4472e+03     0.3882     -0.054     -0.078    23.9644 0.0000e+00
     -0.053      0.004     5.1817     61.424     36.312  35.502406     0.7837      7.385   289.9712 2.4777e+03     0.4280     -0.052     -0.075    23.9463 0.0000e+00
     -0.051      0.004     5.1960     61.594     36.324  35.513934     0.8075      7.385   289.9894 2.4812e+03     0.4165     -0.050     -0.072    23.9272 0.0000e+00
     -0.049      0.004     5.2104     61.772     36.334  35.527542     0.8196      7.386   290.0564 2.4294e+03     0.3711     -0.048     -0.070    23.9061 0.0000e+00
     -0.048      0.003     5.2223     61.919     36.342  35.539903     0.8196      7.387   290.1787 2.2412e+03     0.3669     -0.047     -0.068    23.8861 0.0000e+00
     -0.048      0.001     5.2311     62.024     36.339  35.536353     0.8262      7.387   290.2632 2.1317e+03     0.3969     -0.047     -0.068    23.8753 0.0000e+00
     -0.049      0.000     5.2356     62.070     36.290  35.484624     0.8352      7.387   290.3040 2.3013e+03     0.3982     -0.048     -0.070    23.8762 0.0000e+00
     -0.049     -0.001     5.2336     62.035     36.103  35.295577     0.8362      7.387   290.2425 2.4596e+03     0.3525     -0.048     -0.070    23.8847 0.0000e+00
     -0.049     -0.001     5.2322     62.000     35.777  34.965647     0.8383      7.389   290.1216 2.4687e+03     0.3316     -0.048     -0.069    23.8926 0.0000e+00
     -0.049      0.000     5.2818     62.543     35.569  34.734987     0.8428      7.390   290.2186 2.3323e+03     0.3600     -0.048     -0.069    23.8927 0.0000e+00
     -0.049 5.6850e-07     5.4908     64.937     35.545  34.666322     0.8164      7.389   290.5552 2.1095e+03     0.4207     -0.048     -0.069    23.8862 0.0000e+00
     -0.049      0.000     5.9266     69.999     35.572  34.643504     0.7580      7.387   290.8352 2.1319e+03     0.4858     -0.049     -0.072    23.8764 0.0000e+00
     -0.049      0.000     6.5288     77.038     35.616  34.649584     0.7154      7.385   290.9368 2.3545e+03     0.4757     -0.049     -0.071    23.8679 0.0000e+00
     -0.048      0.001     7.1781     84.649     35.668  34.676264     0.7062      7.385   291.0100 2.4645e+03     0.3892     -0.047     -0.068    23.8367 0.0000e+00
     -0.048      0.003     7.7841     91.769     35.717  34.711978     0.7198      7.384   291.1175 2.4649e+03     0.3258     -0.047     -0.068    23.7596 0.0000e+00
     -0.049      0.007     8.2940     97.787     35.768  34.763784     0.7330      7.378   291.0326 2.4567e+03     0.3494     -0.047     -0.068    23.6801 0.0000e+00
     -0.049      0.007     8.6719    102.289     35.782  34.794500     0.7281      7.373   290.8429 2.4525e+03     0.3999     -0.049     -0.071    23.6299 0.0000e+00
     -0.047      0.003     8.8938    104.965     35.731  34.765794     0.7167      7.371   290.8032 2.4380e+03     0.4177     -0.048     -0.070    23.5990 0.0000e+00
     -0.039     -0.002     8.9626    105.809     35.687  34.734325     0.7237      7.372   290.7242 2.4248e+03     0.4118     -0.037     -0.054    23.5807 0.0000e+00
     -0.034     -0.006     8.9127    105.217     35.685  34.731629     0.7574      7.374   290.7482 2.4416e+03     0.3904     -0.028     -0.040    23.5809 0.0000e+00
     -0.039     -0.006     8.7974    103.848     35.689  34.733190     0.7741      7.376   291.0934 2.4634e+03     0.3725     -0.036     -0.052    23.6104 0.0000e+00
     -0.052     -0.005     8.6660    102.305     35.706  34.753195     0.7695      7.375   291.3711 2.4748e+03     0.3786     -0.054     -0.078    23.6516 0.0000e+00
     -0.061     -0.003     8.5472    100.929     35.727  34.782956     0.7757      7.371   291.4382 2.4900e+03     0.4033     -0.064     -0.093    23.6678 0.0000e+00
     -0.059      0.000     8.4509     99.821     35.707  34.775450     0.7852      7.369   291.4748 2.5092e+03     0.4268     -0.061     -0.088    23.6597 0.0000e+00
     -0.049      0.003     8.3789     98.983     35.652  34.725973     0.7916      7.371   291.5555 2.5217e+03     0.4189     -0.047     -0.069    23.6510 0.0000e+00
     -0.040      0.005     8.3294     98.379     35.626  34.692899     0.7890      7.374   291.7258 2.5200e+03     0.3681     -0.036     -0.053    23.6554 0.0000e+00
     -0.039      0.003     8.2946     97.927     35.642  34.693132     0.7818      7.377   291.8990 2.5075e+03     0.3314     -0.036     -0.051    23.6732 0.0000e+00
     -0.044     -0.001     8.2691     97.585     35.695  34.728764     0.7687      7.379   292.1008 2.4899e+03     0.3722     -0.043     -0.062    23.6924 0.0000e+00
     -0.050     -0.004     8.2481     97.310     35.785  34.806110     0.7404      7.380   292.3593 2.4683e+03     0.4343     -0.050     -0.072    23.7024 0.0000e+00
     -0.052     -0.005     8.2253     97.045     35.845  34.866067     0.7246      7.381   292.4425 2.3914e+03     0.4411     -0.052     -0.076    23.6900 0.0000e+00
     -0.051     -0.004     8.1998     96.785     35.845  34.882030     0.7250      7.381   292.4187 2.2748e+03     0.4243     -0.051     -0.075    23.6619 0.0000e+00
     -0.050     -0.002     8.1744     96.540     35.813  34.872108     0.7180      7.381   292.5016 2.2853e+03     0.4138     -0.049     -0.071    23.6388 0.0000e+00
     -0.049      0.000     8.1524     96.325     35.796  34.873172     0.7126      7.381   292.6706 2.4137e+03     0.3754     -0.047     -0.069    23.6203 0.0000e+00
     -0.049 3.7255e-08     8.1369     96.182     35.802  34.894916     0.7156      7.382   292.8272 2.4921e+03     0.3560     -0.048     -0.069    23.6187 0.0000e+00
     -0.050 4.0981e-07     8.1288     96.114     35.776  34.880952     0.7175      7.384   292.9321 2.5088e+03     0.4231     -0.049     -0.071    23.6489 0.0000e+00
     -0.052      0.000     8.1235     96.059     35.722  34.831396     0.7261      7.385   293.0784 2.5161e+03     0.5151     -0.051     -0.074    23.6834 0.0000e+00
     -0.052      0.000     8.1182     95.982     35.700  34.803896     0.7458      7.385   293.3054 2.5216e+03     0.5838     -0.052     -0.076    23.7062 0.0000e+00
     -0.051      0.001     8.1149     95.915     35.710  34.802525     0.7633      7.385   293.5269 2.5213e+03     0.6434     -0.051     -0.075    23.7286 0.0000e+00
     -0.050      0.001     8.1149     95.883     35.735  34.814793     0.7722      7.386   293.6909 2.5001e+03     0.6567     -0.048     -0.071    23.7476 0.0000e+00
     -0.049      0.001     8.1184     95.896     35.758  34.825168     0.7801      7.387   293.8255 2.3335e+03     0.5611     -0.046     -0.068    23.7522 0.0000e+00
     -0.049      0.001     8.1245     95.953     35.739  34.800915     0.7846      7.387   294.0368 2.0739e+03     0.4341     -0.047     -0.068    23.7422 0.0000e+00
     -0.050      0.001     8.1311     96.032     35.712  34.775622     0.7811      7.386   294.2664 2.0206e+03     0.4022     -0.049     -0.071    23.7248 0.0000e+00
     -0.051      0.001     8.1375     96.115     35.707  34.773424     0.7835      7.385   294.2787 2.1963e+03     0.4200     -0.051     -0.074    23.7052 0.0000e+00
     -0.050      0.001     8.1452     96.212     35.706  34.774359     0.7959      7.385   294.1850 2.4034e+03     0.4050     -0.049     -0.071    23.6876 0.0000e+00
     -0.048      0.002     8.1561     96.343     35.718  34.786924     0.8109      7.386   294.1656 2.5041e+03     0.3738     -0.046     -0.067    23.6784 0.0000e+00
     -0.048      0.003     8.1700     96.503     35.732  34.798315     0.8181      7.388   294.2167 2.5139e+03     0.3478     -0.047     -0.068    23.6807 0.0000e+00
     -0.048      0.003     8.1828     96.644     35.722  34.785049     0.8181      7.388   294.3732 2.4455e+03     0.3350     -0.047     -0.068    23.6872 0.0000e+00
     -0.047      0.003     8.1885     96.699     35.695  34.753553     0.8111      7.385   294.5083 2.3620e+03     0.3412     -0.047     -0.069    23.6909 0.0000e+00
     -0.046      0.002     8.1848     96.642     35.681  34.735085     0.7876      7.380   294.5596 2.3654e+03     0.3308     -0.045     -0.067    23.6920 0.0000e+00
     -0.045      0.002     8.1745     96.513     35.701  34.752305     0.7651      7.375   294.6489 2.3897e+03     0.3313     -0.044     -0.064    23.6904 0.0000e+00
     -0.044      0.001     8.1623     96.369     35.720  34.771195     0.7504      7.371   294.7274 2.4098e+03     0.3780     -0.042     -0.062    23.6847 0.0000e+00
     -0.044      0.001     8.1500     96.233     35.718  34.772921     0.7471      7.367   294.8209 2.3636e+03     0.4073     -0.042     -0.061    23.6765 0.0000e+00
     -0.045      0.001     8.1360     96.082     35.713  34.773190     0.7905      7.362   294.9195 2.3140e+03     0.4110     -0.044     -0.063    23.6681 0.0000e+00
     -0.046      0.001     8.1217     95.927     35.709  34.774453     0.8609      7.357   294.8868 2.3689e+03     0.3923     -0.046     -0.066    23.6622 0.0000e+00
     -0.046      0.000     8.1130     95.835     35.719  34.788196     0.8997      7.352   294.8567 2.2786e+03     0.3643     -0.046     -0.067    23.6631 0.0000e+00
     -0.044     -0.001     8.1111     95.817     35.742  34.812330     0.9107      7.349   294.8133 1.7590e+03     0.3772     -0.043     -0.063    23.6700 0.0000e+00
     -0.043     -0.001     8.1126     95.834     35.742  34.812172     0.8657      7.351   294.7061 1.1201e+03     0.3949     -0.041     -0.059    23.6781 0.0000e+00
     -0.044     -0.002     8.1158     95.869     35.717  34.786291     0.7692      7.354   294.7649 8.4378e+02     0.3962     -0.043     -0.061    23.6862 0.0000e+00
     -0.046     -0.003     8.1208     95.915     35.688  34.753480     0.7167      7.355   295.0076 1.0080e+03     0.3924     -0.045     -0.065    23.6934 0.0000e+00
     -0.048     -0.003     8.1260     95.958     35.674  34.733043     0.7087      7.353   295.1464 1.4917e+03     0.3797     -0.047     -0.069    23.6952 0.0000e+00
     -0.049     -0.003     8.1268     95.957     35.676  34.729742     0.7007      7.348   295.1522 1.9749e+03     0.3948     -0.049     -0.071    23.6939 0.0000e+00
     -0.049     -0.002     8.1217     95.893     35.660  34.713554     0.6849      7.347   295.2495 2.2887e+03     0.4224     -0.048     -0.070    23.6943 0.0000e+00
     -0.048      0.000     8.1152     95.818     35.674  34.727870     0.6730      7.348   295.3766 2.3582e+03     0.4089     -0.047     -0.068    23.6870 0.0000e+00
     -0.048      0.001     8.1118     95.782     35.722  34.775796     0.6760      7.349   295.4849 2.3160e+03     0.3842     -0.047     -0.068    23.6728 0.0000e+00
     -0.048      0.001     8.1129     95.800     35.729  34.784876     0.7038      7.351   295.6114 2.3996e+03     0.3674     -0.047     -0.069    23.6665 0.0000e+00
     -0.048      0.002     8.1177     95.860     35.716  34.774136     0.7606      7.354   295.7875 2.4513e+03     0.3592     -0.048     -0.069    23.6663 0.0000e+00
     -0.048      0.002     8.1222     95.912     35.716  34.772990     0.7930      7.356   296.0665 2.4408e+03     0.3452     -0.048     -0.069    23.6675 0.0000e+00
     -0.047      0.003     8.1247     95.933     35.718  34.771012     0.7918      7.357   296.1451 2.4333e+03     0.3208     -0.046     -0.067    23.6700 0.0000e+00
     -0.046      0.003     8.1285     95.969     35.700  34.750218     0.8015      7.357   296.0499 2.3520e+03     0.3378     -0.045     -0.064    23.6725 0.0000e+00
     -0.044      0.003     8.1353     96.043     35.664  34.712122     0.8281      7.355   296.1200 2.2266e+03     0.3673     -0.043     -0.062    23.6762 0.0000e+00
     -0.044      0.003     8.1404     96.097     35.645  34.691506     0.8469      7.354   296.2180 2.0822e+03     0.3731     -0.043     -0.063    23.6754 0.0000e+00
     -0.043      0.002     8.1401     96.086     35.648  34.691506     0.8442      7.353   296.2875 1.9379e+03     0.3776     -0.042     -0.062    23.6692 0.0000e+00
     -0.043      0.002     8.1366     96.038     35.672  34.712121     0.8327      7.352   296.2727 1.8865e+03     0.3913     -0.042     -0.061    23.6635 0.0000e+00
     -0.043      0.001     8.1340     96.004     35.712  34.750202     0.8091      7.349   296.2114 1.9369e+03     0.3862     -0.042     -0.061    23.6610 0.0000e+00
     -0.043      0.000     8.1364     96.033     35.732  34.770818     0.7887      7.347   296.3209 1.9849e+03     0.3770     -0.042     -0.061    23.6589 0.0000e+00
     -0.042     -0.001     8.1422     96.105     35.731  34.770833     0.7884      7.347   296.4784 1.9514e+03     0.4022     -0.041     -0.060    23.6530 0.0000e+00
     -0.042     -0.001     8.1448     96.140     35.709  34.750387     0.7865      7.347   296.6524 1.9245e+03     0.4164     -0.041     -0.059    23.6487 0.0000e+00
     -0.043     -0.002     8.1435     96.129     35.669  34.714165     0.8115      7.347   296.8762 2.0148e+03     0.3960     -0.041     -0.060    23.6476 0.0000e+00
     -0.044     -0.002     8.1410     96.104     35.667  34.713996     0.8797      7.347   297.0330 2.1987e+03     0.3687     -0.043     -0.062    23.6482 0.0000e+00
     -0.045     -0.003     8.1397     96.091     35.702  34.748344     0.9219      7.347   297.0851 2.3773e+03     0.3611     -0.044     -0.064    23.6510 0.0000e+00
     -0.046     -0.003     8.1392     96.086     35.702  34.748344     0.9175      7.348   297.1622 2.4727e+03     0.3651     -0.045     -0.065    23.6531 0.0000e+00
     -0.046     -0.002     8.1374     96.064     35.667  34.713996     0.8908      7.348   297.3627 2.4730e+03     0.3557     -0.046     -0.066    23.6552 0.0000e+00
     -0.046     -0.001     8.1320     95.999     35.667  34.714166     0.8475      7.348   297.5310 2.4430e+03     0.3701     -0.045     -0.066    23.6586 0.0000e+00
     -0.047     -0.000     8.1242     95.902     35.707  34.750387     0.8256      7.349   297.6483 2.4484e+03     0.4167     -0.046     -0.067    23.6598 0.0000e+00
     -0.047      0.001     8.1178     95.819     35.730  34.770833     0.8381      7.350   297.7488 2.4238e+03     0.4310     -0.047     -0.068    23.6584 0.0000e+00
     -0.046      0.001     8.1143     95.772     35.733  34.770818     0.8412      7.350   297.7993 2.3131e+03     0.4213     -0.045     -0.065    23.6593 0.0000e+00
     -0.046      0.001     8.1115     95.733     35.714  34.750201     0.8355      7.350   297.9153 2.1728e+03     0.4209     -0.044     -0.064    23.6596 0.0000e+00
     -0.046      0.001     8.1077     95.681     35.678  34.712106     0.8430      7.349   298.0321 2.0436e+03     0.4259     -0.045     -0.065    23.6545 0.0000e+00
     -0.045      0.001     8.1048     95.641     35.659  34.691333     0.8494      7.347   298.0933 1.9377e+03     0.4522     -0.044     -0.064    23.6506 0.0000e+00
     -0.045      0.000     8.1046     95.634     35.659  34.689591     0.8576      7.346   298.1392 1.8949e+03     0.4637     -0.044     -0.063    23.6487 0.0000e+00
     -0.045     -0.000     8.1057     95.645     35.661  34.691033     0.8779      7.343   298.2431 1.9168e+03     0.4122     -0.044     -0.063    23.6456 0.0000e+00
     -0.045      0.000     8.1072     95.661     35.681  34.708771     0.8919      7.342   298.3162 1.9398e+03     0.3491     -0.044     -0.064    23.6412 0.0000e+00
     -0.045     -0.001     8.1076     95.664     35.686  34.713494     0.8991      7.342   298.2488 1.9556e+03     0.3410     -0.045     -0.065    23.6366 0.0000e+00
     -0.045     -0.001     8.1060     95.643     35.657  34.684626     0.9001      7.342   298.2035 2.0076e+03     0.3750     -0.044     -0.064    23.6350 0.0000e+00
     -0.045      0.000     8.1048     95.624     35.651  34.677329     0.8955      7.342   298.1984 2.1597e+03     0.3943     -0.044     -0.063    23.6338 0.0000e+00
     -0.046      0.001     8.1040     95.609     35.666  34.688784     0.8985      7.341   298.3589 2.3769e+03     0.3910     -0.045     -0.065    23.6324 0.0000e+00
     -0.046      0.002     8.1028     95.588     35.676  34.696074     0.8987      7.341   298.5959 2.5014e+03     0.3661     -0.046     -0.066    23.6319 0.0000e+00
     -0.045      0.003     8.1022     95.575     35.684  34.701955     0.8984      7.343   298.6543 2.5158e+03     0.3371     -0.044     -0.064    23.6313 0.0000e+00
     -0.044      0.003     8.1009     95.557     35.680  34.696360     0.8859      7.346   298.7211 2.4972e+03     0.3458     -0.043     -0.062    23.6292 0.0000e+00
     -0.042      0.003     8.0979     95.518     35.676  34.691950     0.8482      7.349   298.8014 2.3973e+03     0.3492     -0.041     -0.060    23.6249 0.0000e+00
     -0.040      0.002     8.0954     95.492     35.696  34.712149     0.8286      7.353   298.8511 2.1266e+03     0.3173     -0.038     -0.056    23.6205 0.0000e+00
     -0.040      0.002     8.0941     95.483     35.733  34.750026     0.8332      7.358   298.9776 1.9032e+03     0.3263     -0.038     -0.057    23.6179 0.0000e+00
     -0.042      0.001     8.0936     95.483     35.749  34.768804     0.8213      7.360   299.0402 1.9028e+03     0.3965     -0.041     -0.060    23.6163 0.0000e+00
     -0.042      0.001     8.0968     95.528     35.726  34.748645     0.7951      7.360   299.0060 2.0519e+03     0.4343     -0.042     -0.061    23.6147 0.0000e+00
     -0.041      0.000     8.1019     95.584     35.674  34.696847     0.7826      7.361   298.9935 2.3099e+03     0.4166     -0.040     -0.059    23.6157 0.0000e+00
     -0.040      0.000     8.1044     95.592     35.635  34.650662     0.7799      7.361   298.9750 2.3984e+03     0.3958     -0.038     -0.056    23.6191 0.0000e+00
     -0.040     -0.001     8.1065     95.578     35.635  34.634856     0.8084      7.360   299.0409 2.2018e+03     0.3972     -0.038     -0.055    23.6232 0.0000e+00
     -0.041     -0.002     8.1085     95.560     35.650  34.632749     0.8705      7.356   299.2742 2.0868e+03     0.4025     -0.040     -0.058    23.6284 0.0000e+00
     -0.042     -0.003     8.1045     95.470     35.659  34.625168     0.9065      7.352   299.3859 2.2484e+03     0.3988     -0.041     -0.060    23.6297 0.0000e+00
     -0.043     -0.003     8.0943     95.315     35.654  34.606680     0.9120      7.350   299.3603 2.4384e+03     0.3831     -0.042     -0.061    23.6158 0.0000e+00
     -0.043     -0.002     8.0832     95.158     35.658  34.599752     0.9190      7.350   299.4805 2.4828e+03     0.3659     -0.042     -0.061    23.5922 0.0000e+00
     -0.044     -0.001     8.0701     94.981     35.673  34.604903     0.9262      7.350   299.5492 2.4703e+03     0.3734     -0.043     -0.062    23.5686 0.0000e+00
     -0.044     -0.001     8.0500     94.729     35.680  34.605433     0.9163      7.349   299.5026 2.4628e+03     0.3821     -0.043     -0.062    23.5426 0.0000e+00
     -0.044      0.000     8.0223     94.394     35.684  34.606154     0.9007      7.349   299.5188 2.4616e+03     0.3796     -0.043     -0.062    23.5233 0.0000e+00
     -0.044      0.001     7.9888     94.001     35.692  34.613612     0.8938      7.351   299.5730 2.4643e+03     0.3738     -0.043     -0.062    23.5101 0.0000e+00
     -0.044      0.002     7.9540     93.599     35.708  34.632090     0.8703      7.353   299.7280 2.4635e+03     0.3728     -0.043     -0.062    23.4966 0.0000e+00
     -0.043      0.002     7.9226     93.240     35.710  34.639018     0.8176      7.354   299.8443 2.4116e+03     0.3977     -0.043     -0.063    23.4872 0.0000e+00
     -0.042      0.002     7.8962     92.940     35.700  34.633868     0.7802      7.355   299.8603 2.3347e+03     0.4005     -0.041     -0.060    23.4820 0.0000e+00
     -0.041      0.001     7.8794     92.751     35.696  34.633347     0.7677      7.355   299.9223 2.3004e+03     0.3465     -0.039     -0.057    23.4827 0.0000e+00
     -0.041      0.001     7.8752     92.702     35.695  34.632722     0.7312      7.355   299.9912 2.2468e+03     0.3236     -0.040     -0.058    23.4881 0.0000e+00
     -0.041      0.000     7.8808     92.757     35.693  34.626315     0.6881      7.354   300.0907 2.2123e+03     0.3676     -0.040     -0.058    23.4949 0.0000e+00
     -0.042      0.000     7.8908     92.853     35.695  34.619387     0.6785      7.354   300.2654 2.2716e+03     0.4210     -0.041     -0.060    23.5020 0.0000e+00
     -0.042     -0.001     7.8981     92.918     35.696  34.612464     0.6785      7.353   300.4683 2.3232e+03     0.4205     -0.042     -0.061    23.5073 0.0000e+00
     -0.042     -0.001     7.9003     92.928     35.696  34.606122     0.6802      7.351   300.6503 2.3527e+03     0.3620     -0.041     -0.060    23.5089 0.0000e+00
     -0.042     -0.001     7.8971     92.883     35.700  34.606208     0.6985      7.348   300.7462 2.4110e+03     0.3538     -0.041     -0.060    23.5025 0.0000e+00
     -0.042     -0.001     7.8858     92.748     35.708  34.613495     0.7156      7.345   300.7670 2.4558e+03     0.4134     -0.040     -0.059    23.4881 0.0000e+00
     -0.043     -0.001     7.8664     92.522     35.725  34.630718     0.7223      7.342   300.8163 2.4697e+03     0.4416     -0.041     -0.060    23.4740 0.0000e+00
     -0.043     -0.001     7.8411     92.223     35.719  34.623893     0.7522      7.341   300.8260 2.4753e+03     0.4206     -0.042     -0.061    23.4653 0.0000e+00
     -0.043     -0.001     7.8099     91.852     35.690  34.594492     0.8104      7.343   300.7985 2.4776e+03     0.4036     -0.043     -0.062    23.4609 0.0000e+00
     -0.043      0.000     7.7708     91.389     35.690  34.592817     0.8471      7.346   300.9132 2.4816e+03     0.4188     -0.042     -0.061    23.4604 0.0000e+00
     -0.043      0.000     7.7262     90.865     35.700  34.603647     0.8465      7.348   301.0943 2.4881e+03     0.4514     -0.042     -0.061    23.4629 0.0000e+00
     -0.043      0.001     7.6865     90.401     35.693  34.598392     0.8216      7.348   301.1814 2.4897e+03     0.4924     -0.042     -0.061    23.4624 0.0000e+00
     -0.043      0.001     7.6571     90.059     35.686  34.592806     0.7850      7.349   301.1923 2.4664e+03     0.5183     -0.042     -0.061    23.4589 0.0000e+00
     -0.042      0.001     7.6385     89.840     35.694  34.599630     0.7705      7.350   301.2257 2.3728e+03     0.5507     -0.041     -0.060    23.4563 0.0000e+00
     -0.042      0.000     7.6363     89.812     35.713  34.617379     0.7756      7.350   301.3269 2.1939e+03     0.6090     -0.041     -0.060    23.4575 0.0000e+00
     -0.042     -0.000     7.6510     89.983     35.713  34.616849     0.7730      7.350   301.4698 2.0566e+03     0.6131     -0.041     -0.060    23.4608 0.0000e+00
     -0.042     -0.000     7.6746     90.261     35.689  34.593221     0.7488      7.349   301.5773 2.1071e+03     0.5393     -0.041     -0.060    23.4623 0.0000e+00
     -0.042     -0.001     7.7031     90.600     35.680  34.585771     0.7127      7.348   301.6800 2.2784e+03     0.4486     -0.041     -0.060    23.4618 0.0000e+00
     -0.042     -0.001     7.7364     90.998     35.681  34.590296     0.7039      7.347   301.8506 2.4179e+03     0.4013     -0.041     -0.060    23.4603 0.0000e+00
     -0.043     -0.002     7.7634     91.325     35.671  34.584408     0.7158      7.347   302.0061 2.4794e+03     0.3948     -0.042     -0.061    23.4593 0.0000e+00
     -0.044     -0.002     7.7739     91.457     35.661  34.578103     0.7194      7.348   302.0973 2.4944e+03     0.4008     -0.043     -0.062    23.4592 0.0000e+00
     -0.044     -0.002     7.7756     91.483     35.658  34.577590     0.7193      7.348   302.1791 2.4972e+03     0.4134     -0.043     -0.063    23.4608 0.0000e+00
     -0.045     -0.001     7.7764     91.494     35.658  34.578216     0.7233      7.348   302.3065 2.4987e+03     0.4249     -0.044     -0.064    23.4649 0.0000e+00
     -0.045     -0.001     7.7766     91.497     35.666  34.585666     0.7223      7.348   302.4330 2.5012e+03     0.4173     -0.044     -0.063    23.4703 0.0000e+00
     -0.045      0.000     7.7741     91.468     35.684  34.604152     0.7069      7.348   302.5042 2.5017e+03     0.3818     -0.044     -0.064    23.4763 0.0000e+00
     -0.045      0.000     7.7627     91.338     35.689  34.611176     0.6839      7.347   302.5653 2.4956e+03     0.3631     -0.044     -0.063    23.4801 0.0000e+00
     -0.044      0.001     7.7397     91.071     35.684  34.607077     0.6655      7.347   302.6549 2.4795e+03     0.3743     -0.043     -0.063    23.4805 0.0000e+00
     -0.044      0.001     7.7128     90.756     35.695  34.618116     0.6595      7.347   302.8144 2.4592e+03     0.3950     -0.043     -0.063    23.4795 0.0000e+00
     -0.044      0.001     7.6902     90.488     35.695  34.617596     0.6665      7.346   303.0309 2.4467e+03     0.3995     -0.043     -0.062    23.4806 0.0000e+00
     -0.043      0.001     7.6677     90.222     35.678  34.600794     0.6761      7.346   303.2071 2.4488e+03     0.3680     -0.042     -0.062    23.4841 0.0000e+00
     -0.043      0.001     7.6417     89.913     35.684  34.605518     0.6749      7.346   303.3101 2.4638e+03     0.3502     -0.042     -0.062    23.4862 0.0000e+00
     -0.043      0.001     7.6177     89.630     35.690  34.611202     0.6697      7.345   303.3301 2.4701e+03     0.3670     -0.042     -0.061    23.4861 0.0000e+00
     -0.043      0.000     7.6037     89.465     35.685  34.605996     0.6773      7.344   303.3626 2.4616e+03     0.3890     -0.042     -0.061    23.4858 0.0000e+00
     -0.043      0.000     7.6001     89.424     35.685  34.606091     0.6851      7.344   303.4451 2.4604e+03     0.3712     -0.041     -0.060    23.4846 0.0000e+00
     -0.043      0.000     7.6011     89.438     35.690  34.612347     0.6806      7.345   303.5535 2.4609e+03     0.3349     -0.042     -0.061    23.4827 0.0000e+00
     -0.043     -0.001     7.6037     89.472     35.694  34.618117     0.6776      7.345   303.8128 2.4483e+03     0.3155     -0.042     -0.061    23.4818 0.0000e+00
     -0.044     -0.001     7.6044     89.485     35.687  34.612342     0.6763      7.345   304.0846 2.4493e+03     0.3206     -0.043     -0.062    23.4816 0.0000e+00
     -0.044      0.000     7.5971     89.402     35.679  34.606048     0.6744      7.345   304.1730 2.4717e+03     0.3666     -0.043     -0.062    23.4825 0.0000e+00
     -0.043 -1.850e-08     7.5832     89.241     35.678  34.605536     0.6733      7.344   304.1931 2.4874e+03     0.3822     -0.042     -0.062    23.4848 0.0000e+00
     -0.043 -2.035e-07     7.5727     89.115     35.679  34.606152     0.6626      7.343   304.2417 2.4910e+03     0.3874     -0.042     -0.062    23.4868 0.0000e+00
     -0.043 -2.066e-07     7.5729     89.115     35.688  34.613497     0.6551      7.343   304.2438 2.4918e+03     0.3993     -0.042     -0.062    23.4887 0.0000e+00
     -0.043 -5.607e-08     7.5850     89.256     35.706  34.630819     0.6747      7.343   304.2179 2.4931e+03     0.3736     -0.042     -0.061    23.4915 0.0000e+00
     -0.043 -4.152e-07     7.6040     89.478     35.701  34.625037     0.6985      7.344   304.3592 2.4934e+03     0.3818     -0.042     -0.061    23.4927 0.0000e+00
     -0.043     -0.000     7.6198     89.663     35.683  34.607097     0.7038      7.344   304.4904 2.4869e+03     0.4063     -0.042     -0.061    23.4911 0.0000e+00
     -0.043     -0.000     7.6257     89.729     35.681  34.604477     0.7107      7.344   304.4273 2.4596e+03     0.3963     -0.042     -0.061    23.4889 0.0000e+00
     -0.043     -0.001     7.6231     89.696     35.671  34.593355     0.7261      7.343   304.4561 2.4051e+03     0.3824     -0.042     -0.061    23.4880 0.0000e+00
     -0.043     -0.001     7.6171     89.622     35.679  34.599651     0.7339      7.343   304.4948 2.3647e+03     0.3608     -0.041     -0.060    23.4880 0.0000e+00
     -0.043     -0.002     7.6132     89.575     35.698  34.617078     0.7319      7.343   304.3787 2.3694e+03     0.3478     -0.041     -0.060    23.4873 0.0000e+00
     -0.044     -0.003     7.6166     89.615     35.694  34.613506     0.7294      7.342   304.2575 2.3429e+03     0.3783     -0.043     -0.062    23.4851 0.0000e+00
     -0.045     -0.003     7.6268     89.734     35.701  34.619991     0.7217      7.341   304.1481 2.1807e+03     0.4855     -0.044     -0.064    23.4827 0.0000e+00
     -0.046     -0.003     7.6413     89.903     35.715  34.631965     0.7127      7.339   304.0891 2.0108e+03     0.6057     -0.045     -0.065    23.4817 0.0000e+00
     -0.047     -0.002     7.6597     90.118     35.715  34.631236     0.7126      7.338   304.1455 2.0728e+03     0.6109     -0.046     -0.067    23.4813 0.0000e+00
     -0.047     -0.001     7.6827     90.384     35.695  34.611178     0.7202      7.336   304.3130 2.1687e+03     0.5789     -0.047     -0.068    23.4808 0.0000e+00
     -0.047     -0.001     7.7077     90.676     35.664  34.580006     0.7677      7.331   304.4803 2.1911e+03     0.5858     -0.046     -0.067    23.4797 0.0000e+00
     -0.047     -0.001     7.7307     90.947     35.655  34.571924     0.8547      7.326   304.5330 2.3506e+03     0.5722     -0.046     -0.066    23.4794 0.0000e+00
     -0.047     -0.001     7.7458     91.127     35.660  34.576977     0.9090      7.324   304.5202 2.4827e+03     0.5663     -0.045     -0.065    23.4785 0.0000e+00
     -0.047     -0.001     7.7495     91.172     35.660  34.577591     0.9184      7.324   304.5840 2.4879e+03     0.6065     -0.045     -0.066    23.4757 0.0000e+00
     -0.048     -0.000     7.7450     91.118     35.662  34.579351     0.9137      7.324   304.7883 2.4830e+03     0.6306     -0.047     -0.069    23.4742 0.0000e+00
     -0.049      0.001     7.7337     90.982     35.682  34.598254     0.8704      7.323   304.9257 2.4811e+03     0.5529     -0.049     -0.071    23.4752 0.0000e+00
     -0.048      0.001     7.7154     90.764     35.702  34.615589     0.7991      7.320   304.8679 2.4363e+03     0.4298     -0.048     -0.069    23.4767 0.0000e+00
     -0.047      0.002     7.6939     90.506     35.686  34.598384     0.7678      7.318   304.7787 2.2581e+03     0.3933     -0.046     -0.067    23.4770 0.0000e+00
     -0.045      0.003     7.6739     90.268     35.669  34.580788     0.7680      7.319   304.7070 2.0321e+03     0.3868     -0.044     -0.064    23.4763 0.0000e+00
     -0.045      0.003     7.6560     90.054     35.684  34.593387     0.7469      7.321   304.6898 1.9430e+03     0.2907     -0.043     -0.063    23.4756 0.0000e+00
     -0.045      0.002     7.6381     89.841     35.717  34.623677     0.7052      7.323   304.8283 1.9405e+03     0.1461     -0.044     -0.064    23.4727 0.0000e+00
     -0.045      0.001     7.6219     89.647     35.724  34.629429     0.6779      7.325   305.0046 2.0249e+03     0.1037     -0.044     -0.064    23.4697 0.0000e+00
     -0.045      0.000     7.6112     89.520     35.693  34.599412     0.6746      7.326   305.1008 2.2598e+03     0.1743     -0.044     -0.064    23.4684 0.0000e+00
     -0.044 2.0471e-08     7.6120     89.531     35.671  34.578332     0.7016      7.325   305.1312 2.4425e+03     0.2372     -0.043     -0.063    23.4665 0.0000e+00
     -0.044 2.2518e-07     7.6255     89.691     35.657  34.565119     0.7469      7.325   305.1142 2.4865e+03     0.2832     -0.043     -0.063    23.4640 0.0000e+00
     -0.044 2.2490e-07     7.6427     89.892     35.659  34.566690     0.7724      7.325   305.1540 2.4939e+03     0.3342     -0.043     -0.063    23.4621 0.0000e+00
     -0.044 1.7089e-08     7.6597     90.091     35.691  34.597322     0.7799      7.325   305.2681 2.4977e+03     0.3660     -0.044     -0.064    23.4618 0.0000e+00
     -0.044 -3.537e-08     7.6772     90.294     35.713  34.617898     0.7643      7.326   305.3746 2.5008e+03     0.3928     -0.043     -0.063    23.4632 0.0000e+00
     -0.044 -4.093e-07     7.6870     90.408     35.721  34.624923     0.7300      7.326   305.4957 2.5056e+03     0.4138     -0.043     -0.063    23.4643 0.0000e+00
     -0.044      0.000     7.6809     90.334     35.715  34.618734     0.7154      7.326   305.7002 2.5082e+03     0.4068     -0.043     -0.063    23.4637 0.0000e+00
     -0.045      0.000     7.6638     90.133     35.703  34.606580     0.7161      7.326   305.9542 2.5067e+03     0.3996     -0.044     -0.063    23.4625 0.0000e+00
     -0.045     -0.001     7.6455     89.918     35.701  34.605011     0.7106      7.326   306.0707 2.5059e+03     0.3879     -0.044     -0.064    23.4614 0.0000e+00
     -0.045     -0.001     7.6265     89.696     35.695  34.599766     0.7129      7.326   306.1622 2.5058e+03     0.3571     -0.044     -0.064    23.4594 0.0000e+00
     -0.045     -0.001     7.6057     89.452     35.702  34.606677     0.7169      7.326   306.2860 2.5052e+03     0.3628     -0.044     -0.064    23.4585 0.0000e+00
     -0.045      0.000     7.5857     89.218     35.721  34.625049     0.7126      7.326   306.2773 2.5048e+03     0.3959     -0.044     -0.064    23.4588 0.0000e+00
     -0.045 -1.861e-08     7.5694     89.030     35.725  34.631352     0.7165      7.326   306.3155 2.5042e+03     0.3918     -0.044     -0.064    23.4594 0.0000e+00
     -0.045 -2.048e-07     7.5581     88.903     35.709  34.619367     0.7175      7.326   306.4895 2.5047e+03     0.3434     -0.045     -0.065    23.4600 0.0000e+00
     -0.045 -2.048e-07     7.5501     88.817     35.694  34.607182     0.7067      7.326   306.6602 2.5071e+03     0.3289     -0.045     -0.065    23.4597 0.0000e+00
     -0.044 -1.861e-08     7.5477     88.795     35.696  34.611062     0.6956      7.326   306.8312 2.5087e+03     0.3691     -0.043     -0.063    23.4599 0.0000e+00
     -0.044 -1.692e-09     7.5571     88.906     35.687  34.602769     0.6940      7.325   307.0074 2.5080e+03     0.3713     -0.043     -0.063    23.4626 0.0000e+00
     -0.044 -1.546e-10     7.5763     89.125     35.657  34.570434     0.6966      7.325   306.9839 2.5070e+03     0.3557     -0.043     -0.063    23.4672 0.0000e+00
     -0.045 -2.266e-11     7.5991     89.383     35.627  34.537692     0.6810      7.325   306.8923 2.5061e+03     0.3632     -0.044     -0.064    23.4718 0.0000e+00
     -0.045 -1.094e-10     7.6258     89.687     35.618  34.524469     0.6619      7.324   307.0182 2.5051e+03     0.3708     -0.045     -0.065    23.4761 0.0000e+00
     -0.045 -1.204e-09     7.6492     89.954     35.635  34.537590     0.6675      7.323   307.1292 2.5043e+03     0.3858     -0.044     -0.064    23.4770 0.0000e+00
     -0.045 -1.324e-08     7.6561     90.032     35.669  34.569290     0.6755      7.320   307.1163 2.5035e+03     0.3928     -0.045     -0.065    23.4718 0.0000e+00
     -0.045 -1.457e-07     7.6478     89.936     35.690  34.590161     0.6759      7.319   307.1201 2.5031e+03     0.3637     -0.044     -0.064    23.4655 0.0000e+00
     -0.045 2.6077e-07     7.6314     89.746     35.698  34.599389     0.6719      7.319   307.1750 2.5027e+03     0.3392     -0.044     -0.064    23.4590 0.0000e+00
     -0.045      0.000     7.6112     89.510     35.715  34.617348     0.6554      7.319   307.2631 2.5030e+03     0.3410     -0.044     -0.063    23.4534 0.0000e+00
     -0.045      0.000     7.5934     89.302     35.715  34.616743     0.6415      7.319   307.3255 2.5032e+03     0.2935     -0.044     -0.064    23.4520 0.0000e+00
     -0.045      0.001     7.5843     89.193     35.690  34.592077     0.6330      7.318   307.4135 2.4951e+03     0.1930     -0.044     -0.064    23.4537 0.0000e+00
     -0.045      0.002     7.5883     89.232     35.674  34.573183     0.6251      7.317   307.4666 2.3960e+03     0.1328     -0.044     -0.064    23.4558 0.0000e+00
     -0.045      0.002     7.6039     89.404     35.684  34.578853     0.6197      7.315   307.4510 1.8546e+03     0.1456     -0.045     -0.065    23.4565 0.0000e+00
     -0.044      0.002     7.6219     89.607     35.707  34.597098     0.6138      7.312   307.5685 1.0037e+03     0.2251     -0.043     -0.063    23.4574 0.0000e+00
     -0.042      0.002     7.6311     89.710     35.716  34.603230     0.6094      7.306   307.6836 5.6428e+02     0.3321     -0.041     -0.060    23.4571 0.0000e+00
     -0.041      0.002     7.6279     89.670     35.703  34.589466     0.6121      7.301   307.7245 5.1978e+02     0.3708     -0.040     -0.058    23.4520 0.0000e+00
     -0.041      0.002     7.6169     89.541     35.670  34.557717     0.6193      7.300   307.8046 5.1153e+02     0.3570     -0.040     -0.059    23.4449 0.0000e+00
     -0.041      0.001     7.6023     89.369     35.649  34.536944     0.6134      7.300   307.7918 5.0547e+02     0.3476     -0.041     -0.060    23.4388 0.0000e+00
     -0.041      0.001     7.5860     89.175     35.642  34.528859     0.6059      7.301   307.7415 5.0222e+02     0.3499     -0.040     -0.059    23.4358 0.0000e+00
     -0.041      0.000     7.5715     89.000     35.638  34.523480     0.6100      7.302   307.6270 5.4651e+02     0.3848     -0.040     -0.057    23.4348 0.0000e+00
     -0.041     -0.002     7.5646     88.916     35.652  34.535424     0.6090      7.300   307.3538 1.0465e+03     0.4029     -0.039     -0.057    23.4343 0.0000e+00
     -0.041     -0.004     7.5710     88.989     35.664  34.546232     0.6020      7.296   307.1049 1.9546e+03     0.3854     -0.041     -0.060    23.4345 0.0000e+00
     -0.040     -0.005     7.5892     89.199     35.646  34.527119     0.6089      7.294   307.0264 2.4513e+03     0.4471     -0.039     -0.057    23.4330 0.0000e+00
     -0.041     -0.003     7.6105     89.442     35.615  34.494886     0.6372      7.291   307.0069 2.4925e+03     0.5693     -0.037     -0.055    23.4301 0.0000e+00
     -0.047      0.000     7.6260     89.613     35.599  34.474099     0.6591      7.283   306.8698 2.4815e+03     0.6124     -0.046     -0.067    23.4290 0.0000e+00
     -0.052      0.001     7.6341     89.695     35.597  34.466328     0.6626      7.275   306.7453 2.4830e+03     0.6020     -0.055     -0.080    23.4278 0.0000e+00
     -0.048     -0.001     7.6350     89.694     35.601  34.464434     0.6603      7.270   306.7923 2.4967e+03     0.5651     -0.049     -0.072    23.4259 0.0000e+00
     -0.039     -0.003     7.6272     89.592     35.591  34.451190     0.6598      7.273   307.0082 2.4972e+03     0.5022     -0.036     -0.052    23.4225 0.0000e+00
     -0.035     -0.005     7.6133     89.420     35.576  34.433231     0.6645      7.280   307.2904 2.4906e+03     0.4522     -0.030     -0.043    23.4146 0.0000e+00
     -0.043     -0.007     7.6005     89.262     35.584  34.437851     0.6630      7.288   307.4506 2.4892e+03     0.3880     -0.040     -0.058    23.4054 0.0000e+00
     -0.053     -0.011     7.5967     89.212     35.592  34.443522     0.6420      7.293   307.3968 2.4943e+03     0.3362     -0.055     -0.080    23.3988 0.0000e+00
     -0.058     -0.014     7.6053     89.310     35.588  34.438279     0.6119      7.295   307.3284 2.4959e+03     0.3445     -0.060     -0.086    23.3935 0.0000e+00
     -0.058     -0.015     7.6228     89.511     35.589  34.437966     0.6029      7.295   307.3978 2.4036e+03     0.3970     -0.057     -0.083    23.3880 0.0000e+00
     -0.057     -0.015     7.6408     89.721     35.592  34.439745     0.6154      7.294   307.4617 1.8882e+03     0.4208     -0.055     -0.080    23.3833 0.0000e+00
     -0.060     -0.016     7.6521     89.855     35.612  34.459786     0.6448      7.293   307.4127 1.1282e+03     0.3888     -0.057     -0.082    23.3805 0.0000e+00
     -0.066     -0.017     7.6558     89.902     35.642  34.489728     0.6822      7.294   307.3218 8.3770e+02     0.3760     -0.065     -0.094    23.3786 0.0000e+00
     -0.073     -0.018     7.6567     89.919     35.633  34.484173     0.6996      7.296   307.4814 9.3793e+02     0.3887     -0.072     -0.103    23.3765 0.0000e+00
     -0.080     -0.016     7.6552     89.907     35.601  34.456145     0.7072      7.297   307.7930 9.4012e+02     0.3891     -0.079     -0.114    23.3747 0.0000e+00
     -0.086     -0.012     7.6482     89.835     35.610  34.468441     0.7101      7.297   307.9068 7.7736e+02     0.4112     -0.086     -0.126    23.3749 0.0000e+00
     -0.088     -0.007     7.6357     89.701     35.643  34.505813     0.6979      7.297   307.9104 6.3937e+02     0.4727     -0.088     -0.128    23.3779 0.0000e+00
     -0.086     -0.001     7.6168     89.492     35.659  34.526902     0.6887      7.299   307.9222 7.4798e+02     0.5227     -0.084     -0.123    23.3815 0.0000e+00
     -0.084      0.004     7.5899     89.188     35.660  34.532884     0.6909      7.301   307.9638 1.1735e+03     0.5580     -0.082     -0.119    23.3848 0.0000e+00
     -0.083      0.006     7.5529     88.763     35.637  34.514638     0.6969      7.298   307.9823 1.5051e+03     0.5940     -0.082     -0.118    23.3902 0.0000e+00
     -0.081      0.006     7.5085     88.250     35.614  34.496853     0.7158      7.294   307.9744 1.3052e+03     0.5615     -0.081     -0.117    23.3983 0.0000e+00
     -0.078      0.005     7.4684     87.788     35.623  34.508402     0.7535      7.292   308.0401 1.3210e+03     0.4707     -0.077     -0.111    23.4063 0.0000e+00
     -0.077      0.003     7.4421     87.487     35.638  34.527239     0.7761      7.293   308.0891 1.9991e+03     0.4115     -0.073     -0.106    23.4138 0.0000e+00
     -0.077      0.002     7.4290     87.338     35.643  34.534059     0.7772      7.297   308.1370 2.4441e+03     0.3957     -0.074     -0.108    23.4198 0.0000e+00
     -0.078      0.001     7.4264     87.310     35.635  34.527346     0.7956      7.303   308.1889 2.3790e+03     0.3096     -0.077     -0.112    23.4251 0.0000e+00
     -0.078      0.000     7.4374     87.441     35.615  34.509597     0.8241      7.310   308.1141 1.8814e+03     0.1023     -0.077     -0.111    23.4314 0.0000e+00
     -0.077 1.1493e-12     7.4650     87.767     35.615  34.510013     0.8365      7.315   308.0064 1.4893e+03    -0.0354     -0.075     -0.109    23.4362 0.0000e+00
     -0.077 1.2642e-11     7.5030     88.215     35.639  34.532372     0.8439      7.317   308.0059 1.9078e+03    -0.0434     -0.074     -0.108    23.4386 0.0000e+00
     -0.077 1.3906e-10     7.5386     88.633     35.633  34.525867     0.8494      7.317   308.1076 2.4053e+03     0.0670     -0.075     -0.109    23.4403 0.0000e+00
     -0.077 1.5297e-09     7.5644     88.933     35.602  34.494885     0.8475      7.317   308.1177 2.5174e+03     0.2624     -0.076     -0.110    23.4419 0.0000e+00
     -0.077 1.6826e-08     7.5802     89.115     35.583  34.475358     0.8486      7.318   307.9567 2.5329e+03     0.3358     -0.076     -0.111    23.4429 0.0000e+00
     -0.077 1.8509e-07     7.5831     89.145     35.590  34.480318     0.8444      7.320   307.7951 2.5306e+03     0.3130     -0.076     -0.110    23.4428 0.0000e+00
     -0.076 1.8845e-07     7.5671     88.952     35.604  34.491338     0.8338      7.320   307.7130 2.5341e+03     0.3221     -0.075     -0.108    23.4421 0.0000e+00
     -0.076 5.7438e-08     7.5295     88.506     35.595  34.481559     0.8296      7.322   307.6511 2.5348e+03     0.3542     -0.075     -0.109    23.4406 0.0000e+00
     -0.077 4.4859e-07     7.4737     87.849     35.603  34.489112     0.8303      7.324   307.5635 2.5280e+03     0.3964     -0.076     -0.110    23.4380 0.0000e+00
     -0.078      0.000     7.4080     87.080     35.633  34.519148     0.8339      7.324   307.5136 2.5160e+03     0.4050     -0.076     -0.111    23.4351 0.0000e+00
     -0.078      0.000     7.3390     86.274     35.638  34.527128     0.8551      7.324   307.5650 2.5068e+03     0.3976     -0.076     -0.111    23.4324 0.0000e+00
     -0.078      0.001     7.2705     85.477     35.630  34.522083     0.8927      7.325   307.6683 2.5038e+03     0.4291     -0.076     -0.111    23.4300 0.0000e+00
     -0.077      0.002     7.2090     84.760     35.626  34.521677     0.9116      7.327   307.7299 2.5028e+03     0.4191     -0.076     -0.110    23.4289 0.0000e+00
     -0.076      0.002     7.1585     84.173     35.624  34.522217     0.9086      7.328   307.7071 2.5058e+03     0.3678     -0.075     -0.108    23.4309 0.0000e+00
     -0.076      0.002     7.1171     83.692     35.628  34.528617     0.9027      7.329   307.7369 2.5126e+03     0.3583     -0.075     -0.108    23.4356 0.0000e+00
     -0.075      0.002     7.0817     83.283     35.632  34.535545     0.8863      7.330   307.8326 2.5193e+03     0.3658     -0.073     -0.106    23.4403 0.0000e+00
     -0.074      0.002     7.0546     82.971     35.635  34.542475     0.8576      7.332   307.8323 2.5233e+03     0.3665     -0.073     -0.105    23.4442 0.0000e+00
     -0.074      0.001     7.0388     82.791     35.639  34.548883     0.8407      7.334   307.8183 2.5227e+03     0.3671     -0.072     -0.105    23.4476 0.0000e+00
     -0.074      0.001     7.0351     82.754     35.637  34.549516     0.8379      7.334   307.8361 2.5192e+03     0.3728     -0.072     -0.105    23.4513 0.0000e+00
     -0.074      0.000     7.0426     82.848     35.635  34.550133     0.8249      7.334   307.8751 2.5146e+03     0.3740     -0.072     -0.105    23.4562 0.0000e+00
     -0.074 1.8781e-08     7.0520     82.963     35.640  34.556341     0.8026      7.334   307.9457 2.5106e+03     0.3816     -0.072     -0.105    23.4610 0.0000e+00
     -0.074 2.0660e-07     7.0561     83.013     35.643  34.561066     0.7890      7.334   308.0011 2.5091e+03     0.4039     -0.072     -0.105    23.4650 0.0000e+00
     -0.074 2.0660e-07     7.0566     83.022     35.624  34.543744     0.7791      7.334   308.0294 2.5102e+03     0.3990     -0.072     -0.105    23.4685 0.0000e+00
     -0.073 1.8781e-08     7.0542     82.997     35.616  34.537458     0.7568      7.334   308.0291 2.5137e+03     0.3838     -0.072     -0.104    23.4721 0.0000e+00
     -0.073 1.7074e-09     7.0485     82.933     35.626  34.548582     0.7303      7.334   308.0839 2.5160e+03     0.4038     -0.072     -0.104    23.4748 0.0000e+00
     -0.073 1.5522e-10     7.0393     82.828     35.627  34.551202     0.7168      7.335   308.1764 2.5153e+03     0.4267     -0.072     -0.104    23.4766 0.0000e+00
     -0.073 1.4113e-11     7.0256     82.672     35.644  34.569151     0.7132      7.336   308.2005 2.5149e+03     0.4165     -0.071     -0.103    23.4783 0.0000e+00
     -0.074 1.3037e-12     7.0091     82.482     35.648  34.575050     0.7145      7.336   308.2033 2.5164e+03     0.4025     -0.072     -0.105    23.4799 0.0000e+00
     -0.074 3.4603e-13     6.9945     82.314     35.629  34.559000     0.7137      7.336   308.2955 2.5175e+03     0.4102     -0.073     -0.105    23.4821 0.0000e+00
     -0.073 2.5342e-12     6.9848     82.203     35.634  34.565657     0.7120      7.337   308.3699 2.5174e+03     0.4179     -0.072     -0.104    23.4845 0.0000e+00
     -0.073 2.7760e-11     6.9798     82.148     35.660  34.592018     0.7128      7.338   308.3274 2.5167e+03     0.4053     -0.072     -0.104    23.4872 0.0000e+00
     -0.073 3.0535e-10     6.9792     82.145     35.691  34.623663     0.7142      7.338   308.3844 2.5152e+03     0.3797     -0.072     -0.104    23.4904 0.0000e+00
     -0.073 3.3589e-09     6.9829     82.190     35.697  34.630682     0.7194      7.338   308.5426 2.5127e+03     0.3821     -0.072     -0.104    23.4933 0.0000e+00
     -0.074 3.6947e-08     6.9871     82.242     35.679  34.613369     0.7213      7.339   308.6053 2.5118e+03     0.4043     -0.072     -0.105    23.4958 0.0000e+00
     -0.074 4.0642e-07     6.9911     82.287     35.670  34.604891     0.7269      7.339   308.7123 2.5131e+03     0.4042     -0.072     -0.105    23.4977 0.0000e+00
     -0.074      0.000     6.9962     82.347     35.656  34.591687     0.7333      7.339   308.8907 2.5142e+03     0.3802     -0.072     -0.105    23.4993 0.0000e+00
     -0.074      0.000     6.9986     82.375     35.644  34.580753     0.7344      7.339   308.9550 2.5141e+03     0.3275     -0.072     -0.105    23.5012 0.0000e+00
     -0.073      0.001     6.9935     82.315     35.664  34.599731     0.7485      7.339   308.9732 2.5142e+03     0.3161     -0.072     -0.104    23.5022 0.0000e+00
     -0.073      0.001     6.9829     82.192     35.696  34.630588     0.7661      7.339   308.9391 2.5158e+03     0.3643     -0.071     -0.103    23.5021 0.0000e+00
     -0.073      0.000     6.9722     82.068     35.701  34.636258     0.7728      7.339   308.8010 2.5139e+03     0.3922     -0.072     -0.104    23.5015 0.0000e+00
     -0.073 8.5687e-07     6.9647     81.980     35.668  34.604765     0.7741      7.339   308.6800 2.5078e+03     0.4087     -0.072     -0.104    23.5019 0.0000e+00
     -0.073      0.000     6.9609     81.936     35.629  34.567403     0.7728      7.339   308.5950 2.5059e+03     0.4117     -0.071     -0.102    23.5018 0.0000e+00
     -0.073      0.000     6.9590     81.914     35.627  34.565623     0.7749      7.339   308.6328 2.5100e+03     0.3975     -0.072     -0.103    23.5017 0.0000e+00
     -0.074      0.001     6.9560     81.880     35.645  34.583258     0.7824      7.338   308.7924 2.5174e+03     0.3899     -0.072     -0.105    23.5028 0.0000e+00
     -0.074      0.003     6.9516     81.829     35.651  34.590064     0.8168      7.337   308.8907 2.5351e+03     0.3812     -0.073     -0.106    23.5034 0.0000e+00
     -0.073      0.003     6.9463     81.767     35.645  34.584394     0.8778      7.335   308.9615 2.5579e+03     0.3841     -0.072     -0.105    23.5035 0.0000e+00
     -0.071      0.003     6.9388     81.679     35.639  34.578221     0.9049      7.333   308.9594 2.5613e+03     0.3937     -0.070     -0.101    23.5044 0.0000e+00
     -0.068      0.003     6.9300     81.578     35.639  34.578951     0.9056      7.333   308.8656 2.5447e+03     0.4060     -0.067     -0.096    23.5055 0.0000e+00
     -0.067      0.003     6.9201     81.464     35.652  34.593216     0.9134      7.334   308.8600 2.5278e+03     0.4110     -0.065     -0.094    23.5058 0.0000e+00
     -0.069      0.004     6.9077     81.321     35.682  34.623668     0.9165      7.335   308.8919 2.5177e+03     0.3929     -0.067     -0.098    23.5058 0.0000e+00
     -0.070      0.008     6.8976     81.206     35.687  34.629547     0.9160      7.334   308.8210 2.5187e+03     0.3704     -0.070     -0.101    23.5059 0.0000e+00
     -0.070      0.013     6.8964     81.194     35.656  34.600780     0.9062      7.334   308.6914 2.5351e+03     0.3526     -0.070     -0.101    23.5071 0.0000e+00
     -0.065      0.019     6.9057     81.305     35.648  34.593445     0.8817      7.334   308.5291 2.5518e+03     0.3608     -0.064     -0.094    23.5094 0.0000e+00
     -0.059      0.026     6.9264     81.550     35.658  34.604379     0.8500      7.334   308.4071 2.5474e+03     0.3773     -0.057     -0.083    23.5117 0.0000e+00
     -0.050      0.032     6.9629     81.983     35.658  34.605949     0.8259      7.334   308.4213 2.5279e+03     0.3698     -0.051     -0.073    23.5138 0.0000e+00
     -0.040      0.037     7.0244     82.709     35.663  34.612433     0.8291      7.333   308.3560 2.5115e+03     0.3617     -0.040     -0.058    23.5148 0.0000e+00
     -0.030      0.041     7.1174     83.809     35.668  34.619256     0.8610      7.332   308.2200 2.5012e+03     0.3702     -0.029     -0.042    23.5161 0.0000e+00
     -0.019      0.046     7.2427     85.287     35.673  34.624931     0.8987      7.329   308.1532 2.4920e+03     0.3817     -0.020     -0.028    23.5176 0.0000e+00
     -0.008      0.051     7.3934     87.061     35.666  34.617529     0.9176      7.325   308.0651 2.4751e+03     0.3790     -0.009     -0.012    23.5186 0.0000e+00
      0.005      0.055     7.5521     88.921     35.645  34.593277     0.9152      7.321   308.0156 2.3375e+03     0.3674      0.003      0.004    23.5206 0.0000e+00
      0.020      0.057     7.7033     90.682     35.645  34.585762     0.9057      7.317   307.8987 2.0943e+03     0.3642      0.020      0.027    23.5236 0.0000e+00
      0.038      0.058     7.8347     92.204     35.660  34.590179     0.9046      7.313   307.5118 1.9594e+03     0.3700      0.038      0.055    23.5255 0.0000e+00
      0.054      0.057     7.9329     93.335     35.663  34.583146     0.9103      7.309   307.1232 1.8871e+03     0.3762      0.053      0.076    23.5260 0.0000e+00
      0.069      0.055     7.9917     94.009     35.651  34.564234     0.9111      7.307   306.8997 1.8213e+03     0.3786      0.068      0.099    23.5220 0.0000e+00
      0.083      0.050     8.0128     94.240     35.646  34.552060     0.9044      7.308   306.7885 1.8253e+03     0.3683      0.082      0.120    23.5102 0.0000e+00
      0.094      0.045     8.0043     94.123     35.664  34.562985     0.9031      7.309   306.8111 2.0173e+03     0.3738      0.092      0.134    23.4938 0.0000e+00
      0.104      0.041     7.9783     93.805     35.675  34.569270     0.9146      7.309   306.8284 2.2765e+03     0.4148      0.101      0.148    23.4780 0.0000e+00
      0.113      0.038     7.9483     93.444     35.674  34.564535     0.9236      7.310   306.7401 2.1393e+03     0.4363      0.111      0.161    23.4696 0.0000e+00
      0.122      0.036     7.9206     93.110     35.682  34.569250     0.9192      7.311   306.6041 1.7640e+03     0.4205      0.120      0.174    23.4607 0.0000e+00
      0.131      0.036     7.8921     92.772     35.677  34.562746     0.9076      7.315   306.6459 1.5648e+03     0.4068      0.129      0.186    23.4483 0.0000e+00
      0.140      0.037     7.8691     92.500     35.664  34.549419     0.9031      7.319   306.8159 1.5737e+03     0.3937      0.137      0.199    23.4440 0.0000e+00
      0.149      0.039     7.8560     92.341     35.651  34.535144     0.9014      7.322   306.8524 1.6980e+03     0.3834      0.146      0.212    23.4397 0.0000e+00
      0.159      0.042     7.8482     92.234     35.639  34.517185     0.8964      7.325   306.9156 1.7227e+03     0.4044      0.155      0.225    23.4328 0.0000e+00
      0.170      0.046     7.8465     92.196     35.653  34.522827     0.8976      7.327   307.0640 1.5721e+03     0.4034      0.166      0.241    23.4316 0.0000e+00
      0.183      0.049     7.8479     92.199     35.676  34.539825     0.8979      7.328   307.0981 1.5031e+03     0.3709      0.179      0.260    23.4328 0.0000e+00
      0.196      0.053     7.8454     92.161     35.671  34.532147     0.9000      7.329   307.0691 1.6706e+03     0.3789      0.191      0.277    23.4309 0.0000e+00
      0.210      0.055     7.8389     92.076     35.635  34.493504     0.9049      7.329   307.0579 1.7461e+03     0.3776      0.205      0.298    23.4213 0.0000e+00
      0.225      0.057     7.8303     91.963     35.600  34.453708     0.9012      7.329   307.0484 1.6418e+03     0.3239      0.220      0.319    23.4079 0.0000e+00
      0.240      0.059     7.8203     91.827     35.585  34.432077     0.9110      7.328   307.1263 1.6065e+03     0.2791      0.235      0.341    23.4004 0.0000e+00
      0.255      0.061     7.8109     91.695     35.585  34.422505     0.9411      7.325   307.3116 1.5138e+03     0.2946      0.249      0.362    23.3970 0.0000e+00
      0.270      0.062     7.8026     91.580     35.571  34.401479     0.9617      7.322   307.4819 1.4437e+03     0.3583      0.264      0.383    23.3928 0.0000e+00
      0.286      0.063     7.7982     91.513     35.543  34.368396     0.9667      7.318   307.6361 1.5404e+03     0.3779      0.280      0.407    23.3863 0.0000e+00
      0.303      0.063     7.8053     91.584     35.519  34.340082     0.9643      7.312   307.8866 1.6012e+03     0.3480      0.297      0.431    23.3745 0.0000e+00
      0.319      0.063     7.8258     91.809     35.497  34.313207     0.9608      7.307   308.2730 1.5687e+03     0.3630      0.313      0.455    23.3609 0.0000e+00
      0.335      0.062     7.8564     92.151     35.488  34.297511     0.9706      7.303   308.7808 1.4762e+03     0.4065      0.328      0.475    23.3506 0.0000e+00
      0.352      0.060     7.8938     92.570     35.475  34.277319     0.9814      7.301   309.3808 1.3166e+03     0.4170      0.345      0.501    23.3426 0.0000e+00
      0.367      0.058     7.9353     93.038     35.465  34.259609     0.9717      7.301   309.9344 1.2247e+03     0.3675      0.362      0.525    23.3350 0.0000e+00
      0.381      0.057     7.9788     93.532     35.487  34.273928     0.9636      7.300   310.3114 1.2707e+03     0.2969      0.373      0.541    23.3269 0.0000e+00
      0.395      0.057     8.0246     94.056     35.478  34.259888     0.9758      7.299   310.4987 1.2820e+03     0.2952      0.386      0.560    23.3176 0.0000e+00
      0.409      0.057     8.0745     94.620     35.442  34.216871     0.9908      7.298   310.7360 1.2411e+03     0.3469      0.402      0.582    23.3058 0.0000e+00
      0.423      0.058     8.1273     95.211     35.434  34.198436     1.0249      7.297   311.2013 1.3267e+03     0.3727      0.414      0.600    23.2933 0.0000e+00
      0.438      0.058     8.1792     95.787     35.411  34.164007     1.0752      7.295   311.5640 1.4542e+03     0.3628      0.429      0.622    23.2846 0.0000e+00
      0.454      0.058     8.2236     96.261     35.382  34.118164     1.0932      7.294   311.7662 1.4151e+03     0.3806      0.445      0.646    23.2801 0.0000e+00
      0.470      0.057     8.2584     96.603     35.378  34.088749     1.0954      7.295   312.0118 1.3237e+03     0.4355      0.460      0.668    23.2684 0.0000e+00
      0.485      0.055     8.2836     96.828     35.378  34.062376     1.1022      7.299   312.2100 1.2480e+03     0.4455      0.477      0.692    23.2500 0.0000e+00
      0.499      0.053     8.3021     96.982     35.393  34.053327     1.1023      7.302   312.5285 1.1664e+03     0.4105      0.490      0.711    23.2375 0.0000e+00
      0.510      0.053     8.3168     97.105     35.402  34.042818     1.0961      7.304   312.9366 1.1634e+03     0.3791      0.499      0.724    23.2135 0.0000e+00
      0.522      0.053     8.3258     97.170     35.372  33.998801     1.0829      7.304   313.1002 1.2312e+03     0.3710      0.512      0.742    23.1729 0.0000e+00
      0.535      0.053     8.3279     97.159     35.353  33.965717     1.0993      7.304   313.2167 1.2739e+03     0.4032      0.525      0.761    23.1335 0.0000e+00
      0.550      0.053     8.3224     97.062     35.359  33.960368     1.1477      7.305   313.3983 1.2566e+03     0.4029      0.538      0.781    23.0980 0.0000e+00
      0.565      0.052     8.3111     96.906     35.342  33.934109     1.1716      7.307   313.5749 1.2269e+03     0.3668      0.556      0.807    23.0730 0.0000e+00
      0.580      0.051     8.2972     96.716     35.320  33.902274     1.1678      7.310   313.7171 1.2605e+03     0.3635      0.570      0.827    23.0539 0.0000e+00
      0.592      0.050     8.2853     96.543     35.324  33.893023     1.1572      7.313   313.7411 1.2878e+03     0.3634      0.581      0.841    23.0311 0.0000e+00
      0.602      0.050     8.2818     96.461     35.333  33.885754     1.1526      7.315   313.7792 1.2048e+03     0.3649      0.590      0.856    23.0139 0.0000e+00
      0.613      0.050     8.2868     96.478     35.342  33.877881     1.1577      7.316   313.9204 1.1552e+03     0.3821      0.601      0.872    23.0024 0.0000e+00
      0.626      0.051     8.3010     96.605     35.340  33.861322     1.1550      7.316   314.0724 1.2018e+03     0.3882      0.614      0.890    22.9888 0.0000e+00
      0.641      0.054     8.3270     96.872     35.303  33.812557     1.1381      7.314   314.2398 1.2175e+03     0.3781      0.629      0.912    22.9697 0.0000e+00
      0.655      0.058     8.3648     97.262     35.240  33.732861     1.1195      7.310   314.4815 1.1371e+03     0.3818      0.643      0.932    22.9475 0.0000e+00
      0.670      0.061     8.4092     97.700     35.195  33.659893     1.1045      7.305   314.6718 1.0686e+03     0.4026      0.657      0.952    22.9223 0.0000e+00
      0.685      0.061     8.4511     98.099     35.197  33.628940     1.0940      7.304   314.7338 1.0479e+03     0.3851      0.670      0.972    22.9008 0.0000e+00
      0.703      0.059     8.4863     98.441     35.206  33.612620     1.0940      7.304   314.8009 9.8971e+02     0.3534      0.688      0.998    22.8873 0.0000e+00
      0.722      0.056     8.5128     98.717     35.194  33.589574     1.1226      7.306   314.8814 1.0094e+03     0.4155      0.709      1.028    22.8638 0.0000e+00
      0.737      0.052     8.5297     98.900     35.215  33.604336     1.1830      7.311   315.0178 1.0309e+03     0.5262      0.724      1.051    22.8177 0.0000e+00
      0.747      0.048     8.5395     99.015     35.277  33.664070     1.2271      7.313   315.1590 8.1699e+02     0.5633      0.734      1.064    22.7618 0.0000e+00
      0.756      0.044     8.5451     99.093     35.285  33.676649     1.2324      7.313   315.1265 5.9078e+02     0.5587      0.741      1.076    22.7245 0.0000e+00
      0.765      0.041     8.5517     99.167     35.236  33.629405     1.2110      7.313   315.1415 5.6378e+02     0.5310      0.749      1.087    22.7127 0.0000e+00
      0.776      0.041     8.5637     99.272     35.220  33.600966     1.1797      7.313   315.3402 6.3087e+02     0.4727      0.761      1.102    22.7059 0.0000e+00
      0.787      0.042     8.5780     99.397     35.221  33.586847     1.1660      7.315   315.5503 6.3124e+02     0.4338      0.772      1.120    22.7050 0.0000e+00
      0.798      0.044     8.5882     99.483     35.232  33.585706     1.1650      7.316   315.6169 5.1382e+02     0.4263      0.782      1.135    22.7205 0.0000e+00
      0.808      0.047     8.5941     99.518     35.247  33.587146     1.1300      7.317   315.5434 4.3533e+02     0.4736      0.793      1.150    22.7225 0.0000e+00
      0.820      0.050     8.5996     99.532     35.218  33.540734     1.0659      7.318   315.5215 4.7373e+02     0.5484      0.804      1.166    22.6960 0.0000e+00
      0.833      0.053     8.6077     99.547     35.173  33.469120     1.0331      7.320   315.6970 6.5441e+02     0.5984      0.817      1.184    22.6720 0.0000e+00
      0.847      0.055     8.6192     99.579     35.160  33.419902     1.0273      7.322   315.8582 8.8878e+02     0.5888      0.830      1.202    22.6584 0.0000e+00
      0.862      0.057     8.6283     99.588     35.166  33.390191     1.0234      7.324   315.9216 9.4688e+02     0.5239      0.845      1.225    22.6427 0.0000e+00
      0.878      0.057     8.6288     99.524     35.166  33.363899     1.0233      7.325   315.9467 9.0254e+02     0.5164      0.862      1.250    22.6203 0.0000e+00
      0.894      0.057     8.6262     99.452     35.174  33.356029     1.0253      7.325   315.9038 9.0294e+02     0.5588      0.877      1.272    22.5782 0.0000e+00
      0.908      0.056     8.6295     99.454     35.191  33.358528     1.0294      7.324   316.0914 8.4903e+02     0.5785      0.890      1.291    22.5183 0.0000e+00
      0.921      0.056     8.6400     99.520     35.182  33.330583     1.0267      7.321   316.4945 6.7694e+02     0.5721      0.903      1.309    22.4631 0.0000e+00
      0.934      0.058     8.6547     99.609     35.152  33.272186     1.0020      7.317   316.8197 4.8521e+02     0.5117      0.916      1.328    22.4267 0.0000e+00
      0.948      0.061     8.6703     99.699     35.135  33.224040     0.9693      7.312   317.0123 3.6721e+02     0.4283      0.928      1.348    22.4079 0.0000e+00
      0.963      0.065     8.6854     99.789     35.135  33.193012     0.9623      7.308   317.1020 3.2315e+02     0.3874      0.943      1.368    22.3967 0.0000e+00
      0.980      0.067     8.7032     99.916     35.121  33.151047     0.9738      7.307   317.2163 3.1054e+02     0.3836      0.961      1.394    22.3696 0.0000e+00
      1.000      0.067     8.7246    100.086     35.094  33.097684     1.0245      7.307   317.3622 3.0166e+02     0.3826      0.980      1.422    22.3218 0.0000e+00
      1.020      0.067     8.7398    100.193     35.076  33.055871     1.1150      7.305   317.4032 2.9723e+02     0.3743      1.001      1.452    22.2726 0.0000e+00
      1.038      0.065     8.7373    100.117     35.063  33.026545     1.1595      7.304   317.4528 2.9763e+02     0.3752      1.019      1.477    22.2301 0.0000e+00
      1.053      0.063     8.7294     99.994     35.044  32.997141     1.1578      7.304   317.6183 2.9663e+02     0.3940      1.032      1.497    22.1898 0.0000e+00
      1.068      0.061     8.7406    100.084     35.013  32.954389     1.1311      7.303   317.6834 2.9662e+02     0.4182      1.047      1.520    22.1490 0.0000e+00
      1.081      0.060     8.7701    100.364     34.968  32.890698     1.0669      7.303   317.6381 3.1115e+02     0.4238      1.060      1.537    22.1113 0.0000e+00
      1.094      0.057     8.8055    100.698     34.965  32.862165     1.0242      7.306   317.5865 3.9622e+02     0.4007      1.071      1.552    22.0874 0.0000e+00
      1.112      0.055     8.8340    100.968     34.988  32.863413     1.0284      7.309   317.4903 5.2148e+02     0.3833      1.090      1.581    22.0760 0.0000e+00
      1.129      0.054     8.8452    101.066     34.977  32.842250     1.0527      7.313   317.5069 5.6476e+02     0.3656      1.110      1.611    22.0593 0.0000e+00
      1.141      0.056     8.8417    101.004     34.937  32.796815     1.0792      7.317   317.7010 5.7771e+02     0.3396      1.121      1.626    22.0280 0.0000e+00
      1.150      0.059     8.8262    100.798     34.840  32.695120     1.0920      7.318   317.8576 6.2245e+02     0.3431      1.127      1.634    21.9835 0.0000e+00
      1.161      0.061     8.7957    100.398     34.721  32.565359     1.0971      7.318   317.9382 6.0805e+02     0.3777      1.136      1.647    21.9523 0.0000e+00
      1.179      0.064     8.7503     99.795     34.615  32.434601     1.0954      7.318   317.9875 5.2718e+02     0.3916      1.154      1.674    21.9432 0.0000e+00
      1.201      0.067     8.6976     99.085     34.535  32.320835     1.0898      7.318   318.0226 4.7912e+02     0.3591      1.179      1.709    21.9330 0.0000e+00
      1.221      0.069     8.6454     98.379     34.591  32.332980     1.0928      7.317   318.1908 5.1337e+02     0.3206      1.200      1.740    21.9206 0.0000e+00
      1.239      0.069     8.5944     97.694     34.762  32.454362     1.0956      7.314   318.3870 5.5179e+02     0.3218      1.215      1.762    21.8982 0.0000e+00
      1.255      0.067     8.5370     96.940     34.870  32.518155     1.0960      7.312   318.5872 4.8363e+02     0.3742      1.231      1.785    21.8509 0.0000e+00
      1.271      0.065     8.4619     95.989     34.926  32.532631     1.1164      7.308   318.8916 3.5754e+02     0.4356      1.246      1.807    21.7891 0.0000e+00
      1.287      0.063     8.3690     94.834     35.072  32.629349     1.1493      7.303   319.0553 2.8039e+02     0.4842      1.261      1.829    21.7308 0.0000e+00
      1.303      0.063     8.2711     93.614     35.299  32.798326     1.1630      7.298   319.1046 2.5115e+02     0.5044      1.278      1.853    21.6751 0.0000e+00
      1.319      0.062     8.1798     92.466     35.552  32.987828     1.1714      7.294   319.2294 2.3667e+02     0.5268      1.294      1.875    21.6206 0.0000e+00
      1.335      0.062     8.1086     91.544     35.769  33.142157     1.2130      7.292   319.3590 2.2901e+02     0.5714      1.309      1.898    21.5705 0.0000e+00
      1.350      0.063     8.0712     91.009     35.884  33.203404     1.2716      7.288   319.4674 2.2638e+02     0.5854      1.326      1.923    21.5151 0.0000e+00
      1.365      0.064     8.0701     90.898     35.945  33.220186     1.2922      7.284   319.5933 2.2561e+02     0.5751      1.340      1.943    21.4532 0.0000e+00
      1.380      0.067     8.1015     91.166     35.980  33.217981     1.2879      7.280   319.6776 2.2381e+02     0.5688      1.353      1.960    21.3902 0.0000e+00
      1.397      0.072     8.1662     91.811     35.971  33.176701     1.2934      7.277   319.6262 2.2119e+02     0.6009      1.370      1.985    21.3230 0.0000e+00
      1.417      0.077     8.2615     92.802     35.925  33.102106     1.2944      7.274   319.6605 2.1763e+02     0.6270      1.389      2.015    21.2551 0.0000e+00
      1.438      0.082     8.3834     94.052     35.950  33.078191     1.2894      7.272   319.9204 2.1110e+02     0.6103      1.410      2.045    21.2012 0.0000e+00
      1.460      0.087     8.5304     95.500     36.102  33.141544     1.2886      7.271   320.1872 2.0833e+02     0.6133      1.431      2.076    21.1575 0.0000e+00
      1.484      0.088     8.6941     97.079     36.168  33.105819     1.3207      7.270   320.4772 2.2794e+02     0.6933      1.454      2.109    21.1073 0.0000e+00
      1.509      0.087     8.8654     98.726     36.051  32.900176     1.3929      7.270   320.7583 2.5364e+02     0.8146      1.479      2.146    21.0710 0.0000e+00
      1.532      0.085     9.0394    100.404     35.852  32.623936     1.4362      7.271   320.8336 2.4912e+02     0.8587      1.503      2.180    21.0222 0.0000e+00
      1.553      0.080     9.2133    102.083     35.671  32.369745     1.4307      7.273   320.8708 2.2908e+02     0.8292      1.524      2.210    20.9035 0.0000e+00
      1.572      0.076     9.3773    103.663     35.549  32.176634     1.4190      7.276   321.1223 2.1460e+02     0.7938      1.542      2.237    20.7597 0.0000e+00
      1.591      0.072     9.5183    104.999     35.441  32.003757     1.4040      7.277   321.3794 2.0410e+02     0.8587      1.560      2.262    20.6247 0.0000e+00
      1.607      0.071     9.6349    106.067     35.371  31.867190     1.3779      7.276   321.3987 1.9878e+02     1.0036      1.577      2.286    20.4907 0.0000e+00
      1.622      0.071     9.7324    106.914     35.305  31.732028     1.3608      7.276   321.3549 1.9487e+02     1.0504      1.589      2.305    20.3649 0.0000e+00
      1.640      0.073     9.8173    107.624     35.142  31.512617     1.3528      7.277   321.4524 1.9066e+02     1.0271      1.607      2.331    20.2483 0.0000e+00
      1.660      0.076     9.9010    108.314     34.927  31.246522     1.3189      7.279   321.6312 1.8830e+02     1.0281      1.628      2.361    20.1443 0.0000e+00
      1.680      0.081     9.9949    109.078     34.736  30.991477     1.2632      7.279   321.7966 1.8554e+02     1.0313      1.646      2.387    20.0442 0.0000e+00
      1.701      0.085    10.1045    109.975     34.531  30.715080     1.2308      7.280   321.9029 1.8156e+02     1.0044      1.668      2.419    19.9326 0.0000e+00
      1.723      0.089    10.2322    111.043     34.266  30.381308     1.2302      7.284   321.9699 1.7793e+02     0.9782      1.690      2.451    19.8287 0.0000e+00
      1.745      0.091    10.3737    112.242     34.026  30.067555     1.2475      7.291   322.0053 1.7380e+02     1.0500      1.711      2.480    19.7343 0.0000e+00
      1.770      0.091    10.5175    113.465     33.883  29.842664     1.2740      7.299   321.9006 1.6853e+02     1.2008      1.735      2.517    19.6119 0.0000e+00
      1.796      0.089    10.6573    114.668     33.816  29.694197     1.3023      7.308   321.7357 1.6360e+02     1.2757      1.762      2.556    19.4720 0.0000e+00
      1.820      0.085    10.7941    115.872     33.804  29.605934     1.3134      7.319   321.6466 1.5930e+02     1.2529      1.785      2.589    19.3287 0.0000e+00
      1.841      0.083    10.9361    117.160     33.803  29.537443     1.2984      7.339   321.5972 1.5566e+02     1.2307      1.807      2.621    19.1763 0.0000e+00
      1.859      0.081    11.1008    118.704     33.759  29.437518     1.2866      7.376   321.3962 1.5276e+02     1.2523      1.825      2.646    19.0266 0.0000e+00
      1.876      0.080    11.3060    120.674     33.656  29.286722     1.2905      7.430   321.1107 1.4998e+02     1.2698      1.839      2.667    18.8940 0.0000e+00
      1.895      0.080    11.5412    122.946     33.527  29.111167     1.2990      7.493   320.8986 1.4726e+02     1.2592      1.857      2.693    18.7811 0.0000e+00
      1.918      0.081    11.7694    125.138     33.432  28.965890     1.3161      7.557   320.5517 1.4476e+02     1.2467      1.881      2.728    18.6837 0.0000e+00
      1.942      0.082    11.9683    127.025     33.382  28.863658     1.3407      7.617   320.0128 1.4351e+02     1.2404      1.904      2.763    18.5960 0.0000e+00
      1.964      0.082    12.1307    128.535     33.330  28.764042     1.3586      7.669   319.4594 1.4329e+02     1.2433      1.926      2.794    18.5064 0.0000e+00
      1.984      0.081    12.2542    129.631     33.259  28.650393     1.3662      7.716   318.8518 1.4267e+02     1.2210      1.946      2.823    18.4097 0.0000e+00
      2.003      0.077    12.3472    130.392     33.229  28.568991     1.3598      7.763   318.0006 1.4150e+02     1.1854      1.964      2.848    18.3131 0.0000e+00
      2.022      0.073    12.4247    130.980     33.264  28.541760     1.3361      7.812   316.8249 1.4016e+02     1.1788      1.983      2.875    18.2249 0.0000e+00
      2.042      0.071    12.5051    131.610     33.291  28.511571     1.3094      7.867   315.4776 1.3873e+02     1.2020      2.003      2.907    18.1452 0.0000e+00
      2.060      0.069    12.6096    132.517     33.283  28.457906     1.2946      7.931   314.3585 1.3733e+02     1.2515      2.021      2.933    18.0685 0.0000e+00
      2.075      0.068    12.7471    133.787     33.266  28.400861     1.2948      8.001   313.5328 1.3589e+02     1.2591      2.035      2.952    17.9846 0.0000e+00
      2.091      0.066    12.9065    135.283     33.232  28.329784     1.3297      8.071   312.8068 1.3409e+02     1.2328      2.051      2.974    17.8949 0.0000e+00
      2.108      0.066    13.0651    136.765     33.168  28.233464     1.3945      8.138   312.3775 1.3249e+02     1.2693      2.068      3.000    17.8127 0.0000e+00
      2.125      0.067    13.2046    138.037     33.093  28.125216     1.4265      8.201   312.3010 1.3145e+02     1.3036      2.084      3.024    17.7445 0.0000e+00
      2.142      0.069    13.3081    138.912     33.045  28.036912     1.4224      8.258   312.3120 1.3024e+02     1.2807      2.101      3.048    17.6832 0.0000e+00
      2.159      0.072    13.3591    139.206     33.056  27.991220     1.4181      8.307   312.4237 1.2914e+02     1.2674      2.118      3.072    17.6204 0.0000e+00
      2.177      0.075    13.3584    138.924     33.086  27.953684     1.4206      8.346   312.4467 1.2844e+02     1.2651      2.135      3.096    17.5560 0.0000e+00
      2.196      0.078    13.3212    138.244     33.103  27.900477     1.4341      8.380   312.1605 1.2759e+02     1.2530      2.153      3.122    17.4916 0.0000e+00
      2.217      0.081    13.2639    137.364     33.128  27.855807     1.4345      8.409   311.7160 1.2679e+02     1.2435      2.173      3.152    17.4227 0.0000e+00
      2.240      0.085    13.1961    136.403     33.127  27.794506     1.3883      8.430   310.8589 1.2618e+02     1.2418      2.198      3.187    17.3407 0.0000e+00
      2.262      0.089    13.1194    135.363     33.043  27.667194     1.3171      8.443   309.5408 1.2527e+02     1.2321      2.218      3.217    17.2426 0.0000e+00
      2.284      0.093    13.0366    134.249     32.943  27.522889     1.2806      8.450   308.6847 1.2414e+02     1.2179      2.239      3.247    17.1366 0.0000e+00
      2.307      0.097    12.9541    133.104     32.936  27.446612     1.2784      8.449   308.6816 1.2313e+02     1.2225      2.263      3.282    17.0350 0.0000e+00
      2.331      0.101    12.8688    131.887     33.030  27.443331     1.2170      8.441   308.5575 1.2215e+02     1.2270      2.285      3.315    16.9457 0.0000e+00
      2.359      0.104    12.7668    130.468     33.187  27.483107     1.0982      8.428   307.7859 1.2145e+02     1.2411      2.313      3.355    16.8623 0.0000e+00
      2.389      0.106    12.6451    128.842     33.377  27.546448     1.0381      8.412   307.0097 1.2112e+02     1.2708      2.343      3.399    16.7737 0.0000e+00
      2.417      0.106    12.5150    127.136     33.602  27.637583     1.0420      8.391   306.7432 1.2052e+02     1.2814      2.371      3.438    16.6694 0.0000e+00
      2.445      0.104    12.3864    125.452     33.790  27.695927     1.0431      8.366   306.9727 1.1945e+02     1.2775      2.398      3.478    16.5432 0.0000e+00
      2.470      0.101    12.2629    123.822     33.889  27.680281     0.9877      8.341   307.5485 1.1827e+02     1.2542      2.424      3.516    16.4051 0.0000e+00
      2.494      0.096    12.1391    122.216     34.030  27.702284     0.8961      8.315   308.1985 1.1724e+02     1.2432      2.446      3.546    16.2625 0.0000e+00
      2.518      0.091    12.0065    120.556     34.299  27.834845     0.8448      8.287   308.7227 1.1629e+02     1.2668      2.470      3.582    16.1214 0.0000e+00
      2.543      0.087    11.8571    118.747     34.623  28.012981     0.8265      8.260   309.1540 1.1545e+02     1.2650      2.496      3.620    15.9811 0.0000e+00
      2.565      0.083    11.6876    116.743     34.888  28.141530     0.7949      8.233   309.5415 1.1502e+02     1.1920      2.516      3.649    15.8331 0.0000e+00
      2.584      0.079    11.4966    114.543     35.120  28.246028     0.7473      8.205   309.9670 1.1468e+02     1.0850      2.534      3.675    15.6935 0.0000e+00
      2.603      0.078    11.2831    112.153     35.471  28.450849     0.7205      8.175   310.4268 1.1421e+02     1.0401      2.552      3.702    15.5726 0.0000e+00
      2.621      0.078    11.0493    109.603     35.962  28.776387     0.7193      8.144   310.7984 1.1370e+02     1.0453      2.571      3.729    15.4524 0.0000e+00
      2.640      0.080    10.7959    106.906     36.402  29.070402     0.7133      8.114   311.1050 1.1308e+02     1.0869      2.589      3.755    15.3278 0.0000e+00
      2.660      0.082    10.5256    104.076     36.560  29.148089     0.7029      8.083   311.3812 1.1275e+02     1.1775      2.607      3.781    15.2076 0.0000e+00
      2.683      0.084    10.2444    101.166     36.530  29.080617     0.6946      8.053   311.8146 1.1248e+02     1.2547      2.631      3.815    15.0959 0.0000e+00
      2.707      0.086     9.9440     98.104     36.571  29.080082     0.6966      8.021   312.9028 1.1184e+02     1.3185      2.654      3.850    15.0003 0.0000e+00
      2.729      0.087     9.6134     94.771     36.680  29.141590     0.7262      7.987   314.3867 1.1150e+02     1.3390      2.676      3.881    14.9221 0.0000e+00
      2.750      0.087     9.2604     91.198     36.784  29.189242     0.7589      7.952   315.3872 1.1151e+02     1.2893      2.697      3.911    14.8572 0.0000e+00
      2.771      0.085     8.8918     87.433     36.879  29.211675     0.7696      7.920   315.8800 1.1151e+02     1.2669      2.717      3.940    14.7953 0.0000e+00
      2.794      0.082     8.5223     83.666     36.961  29.222252     0.7824      7.890   316.3867 1.1153e+02     1.2811      2.740      3.973    14.7475 0.0000e+00
      2.817      0.080     8.1791     80.196     37.135  29.317056     0.8495      7.860   316.9543 1.1176e+02     1.2776      2.764      4.009    14.7267 0.0000e+00
      2.836      0.080     7.8712     77.091     37.457  29.532345     0.9561      7.831   317.4941 1.1222e+02     1.2561      2.782      4.035    14.6848 0.0000e+00
      2.854      0.079     7.6054     74.376     37.772  29.729609     1.0143      7.802   318.2672 1.1284e+02     1.2348      2.798      4.058    14.6012 0.0000e+00
      2.873      0.078     7.3954     72.191     37.937  29.796958     1.0298      7.774   319.2464 1.1335e+02     1.2335      2.816      4.085    14.5186 0.0000e+00
      2.893      0.077     7.2399     70.551     37.986  29.775030     1.0512      7.749   319.9549 1.1352e+02     1.2402      2.837      4.114    14.4672 0.0000e+00
      2.916      0.077     7.1228     69.311     38.058  29.781927     1.1632      7.723   320.1230 1.1355e+02     1.3771      2.861      4.148    14.4284 0.0000e+00
      2.936      0.076     7.0216     68.246     38.236  29.880292     1.3635      7.697   319.9026 1.1363e+02     1.6678      2.881      4.178    14.3579 0.0000e+00
      2.954      0.075     6.9129     67.111     38.456  30.011729     1.4792      7.672   319.8709 1.1354e+02     1.8548      2.897      4.201    14.2644 0.0000e+00
      2.971      0.075     6.7799     65.726     38.636  30.100952     1.4954      7.643   320.1704 1.1316e+02     1.9294      2.913      4.225    14.1829 0.0000e+00
      2.989      0.076     6.6224     64.093     38.752  30.133436     1.5233      7.612   320.5116 1.1422e+02     2.1428      2.931      4.251    14.1194 0.0000e+00
      3.008      0.079     6.4537     62.373     38.837  30.150400     1.5773      7.580   320.9853 1.1592e+02     2.4822      2.948      4.276    14.0702 0.0000e+00
      3.028      0.083     6.2849     60.677     38.922  30.178989     1.6063      7.549   321.5966 1.1585e+02     2.6761      2.968      4.305    14.0242 0.0000e+00
      3.051      0.087     6.1210     59.037     39.026  30.225036     1.6155      7.518   322.1379 1.1584e+02     2.7171      2.992      4.339    13.9574 0.0000e+00
      3.075      0.090     5.9634     57.464     39.199  30.326062     1.6702      7.487   322.5393 1.1643e+02     3.0088      3.016      4.374    13.8694 0.0000e+00
      3.099      0.093     5.8105     55.944     39.394  30.447840     1.7625      7.456   322.9226 1.1643e+02     3.5782      3.038      4.407    13.8061 0.0000e+00
      3.122      0.096     5.6664     54.516     39.567  30.554277     1.8127      7.424   323.4164 1.1608e+02     3.8957      3.061      4.440    13.7661 0.0000e+00
      3.146      0.099     5.5404     53.268     39.737  30.660338     1.8184      7.391   324.0356 1.1509e+02     3.9477      3.086      4.476    13.7196 0.0000e+00
      3.171      0.102     5.4304     52.173     39.838  30.714056     1.8491      7.359   324.4729 1.1397e+02     4.4197      3.108      4.509    13.6779 0.0000e+00
      3.196      0.106     5.3257     51.128     39.850  30.695678     1.9090      7.329   324.5742 1.1278e+02     5.3006      3.134      4.545    13.6406 0.0000e+00
      3.225      0.109     5.2199     50.065     39.890  30.692128     1.9453      7.297   324.6581 1.1131e+02     5.7788      3.163      4.587    13.6061 0.0000e+00
      3.255      0.111     5.1082     48.942     40.078  30.798116     1.9468      7.264   324.8847 1.0957e+02     5.8372      3.192      4.629    13.5761 0.0000e+00
      3.285      0.111     4.9927     47.776     40.350  30.960979     1.9460      7.234   325.1627 1.0734e+02     6.0978      3.222      4.673    13.5470 0.0000e+00
      3.314      0.108     4.8822     46.646     40.570  31.073516     1.9547      7.208   325.3529 1.0465e+02     6.6113      3.250      4.714    13.5144 0.0000e+00
      3.342      0.102     4.7772     45.566     40.739  31.142575     1.9501      7.186   325.4636 1.0202e+02     6.9181      3.278      4.754    13.4687 0.0000e+00
      3.368      0.095     4.6755     44.525     40.923  31.224305     1.9365      7.163   325.5551 9.9620e+01     6.9383      3.304      4.792    13.4228 0.0000e+00
      3.392      0.088     4.5801     43.551     41.262  31.426547     1.9371      7.141   325.5987 9.6913e+01     6.9165      3.327      4.825    13.3685 0.0000e+00
      3.412      0.082     4.4889     42.624     41.749  31.745981     1.9298      7.118   325.4752 9.4027e+01     7.0511      3.348      4.854    13.2953 0.0000e+00
      3.429      0.075     4.3875     41.616     42.103  31.974435     1.9040      7.095   325.1796 9.0380e+01     7.3456      3.362      4.877    13.2165 0.0000e+00
      3.448      0.067     4.2669     40.446     42.207  32.029315     1.8821      7.074   324.8640 8.6653e+01     7.5169      3.381      4.904    13.1452 0.0000e+00
      3.467      0.058     4.1293     39.135     42.213  32.028430     1.8670      7.055   324.6699 8.4229e+01     7.5659      3.402      4.934    13.0788 0.0000e+00
      3.483      0.049     3.9762     37.688     42.207  32.027237     1.8040      7.036   324.7256 8.2364e+01     7.7244      3.418      4.957    13.0112 0.0000e+00
      3.494      0.039     3.8137     36.147     42.107  31.951389     1.6907      7.017   324.7633 8.0408e+01     7.9382      3.428      4.972    12.9621 0.0000e+00
      3.501      0.029     3.6481     34.576     41.923  31.809997     1.6276      7.000   324.6963 7.8619e+01     8.0141      3.433      4.981    12.9311 0.0000e+00
      3.506      0.020     3.4881     33.064     41.792  31.714947     1.6201      6.985   324.7755 7.7466e+01     8.0016      3.439      4.987    12.9280 0.0000e+00
      3.510      0.016     3.4117     32.344     41.756  31.691327     1.6180      6.977   324.8603 7.6902e+01     8.0006      3.443      4.994    12.9428 0.0000e+00
      3.512 -9.990e-29 -9.990e-29 -9.990e-29 -9.990e-29 -9.990e-29 -9.990e-29 -9.990e-29 -9.990e-29 7.6426e+01 -9.990e-29      3.444      4.996    12.9379 0.0000e+00
      3.512 -9.990e-29 -9.990e-29 -9.990e-29 -9.990e-29 -9.990e-29 -9.990e-29 -9.990e-29 -9.990e-29 7.5991e+01 -9.990e-29      3.444      4.995    12.9298 0.0000e+00
      3.512 -9.990e-29 -9.990e-29 -9.990e-29 -9.990e-29 -9.990e-29 -9.990e-29 -9.990e-29 -9.990e-29 7.5631e+01 -9.990e-29      3.444      4.996    12.9412 0.0000e+00
      3.512 -9.990e-29 -9.990e-29 -9.990e-29 -9.990e-29 -9.990e-29 -9.990e-29 -9.990e-29 -9.990e-29 7.5441e+01 -9.990e-29      3.445      4.996    12.9518 0.0000e+00
