* Sea-Bird SBE19plus  Data File:
* FileName = C:\DATA\052818_fcr_0002.hex
* Software version 2.6.3.104
* Temperature SN = 7809
* Conductivity SN = 7809
* System UpLoad Time = May 28 2018 10:10:54
* <ApplicationData>
* <Seaterm232>
* <SoftwareVersion>2.6.3.104</SoftwareVersion>
* <BuildDate>30-Jun-2017</BuildDate>
* </Seaterm232>
* </ApplicationData>
* <InstrumentState>
* <HardwareData DeviceType='SBE19plus' SerialNumber='01907809'>
*
*    <Manufacturer>Sea-Bird Electronics, Inc.</Manufacturer>
*
*    <FirmwareVersion>3.1.8</FirmwareVersion>
*
*    <FirmwareDate>Mar  9 2016 16:22:29</FirmwareDate>
*
*    <CommandSetVersion>1.4</CommandSetVersion>
*
*    <PCBAssembly PCBSerialNum='120721' AssemblyNum='41054J'/>
*
*    <PCBAssembly PCBSerialNum='120715' AssemblyNum='41967A'/>
*
*    <PCBAssembly PCBSerialNum='116699' AssemblyNum='41606'/>
*
*    <PCBAssembly PCBSerialNum='120719' AssemblyNum='41059D'/>
*
*    <MfgDate>28-Apr-2017</MfgDate>
*
*    <InternalSensors>
*
*       <Sensor id='Main Temperature'>
*
*          <type>temperature0</type>
*
*          <SerialNumber>01907809</SerialNumber>
*
*       </Sensor>
*
*       <Sensor id='Main Conductivity'>
*
*          <type>conductivity-0</type>
*
*          <SerialNumber>01907809</SerialNumber>
*
*       </Sensor>
*
*       <Sensor id='Main Pressure'>
*
*          <type>strain-0</type>
*
*          <SerialNumber>10586018</SerialNumber>
*
*       </Sensor>
*
*    </InternalSensors>
*
*    <ExternalSensors>
*
*       <Sensor id='volt 0'>
*
*          <type>pH</type>
*
*          <SerialNumber>27-0363</SerialNumber>
*
*       </Sensor>
*
*       <Sensor id='volt 1'>
*
*          <type>ORP</type>
*
*          <SerialNumber>27-0363</SerialNumber>
*
*       </Sensor>
*
*       <Sensor id='volt 2'>
*
*          <type>OXY</type>
*
*          <SerialNumber>43-0434</SerialNumber>
*
*       </Sensor>
*
*       <Sensor id='volt 3'>
*
*          <type>PAR</type>
*
*          <SerialNumber>1122</SerialNumber>
*
*       </Sensor>
*
*       <Sensor id='volt 4'>
*
*          <type>ECO AFL/FL</type>
*
*          <SerialNumber>FLNTURT-2496</SerialNumber>
*
*       </Sensor>
*
*       <Sensor id='volt 5'>
*
*          <type>ECO-NTU</type>
*
*          <SerialNumber>FLNTURT-2496</SerialNumber>
*
*       </Sensor>
*
*       <Sensor id='serial'>
*
*          <type>not assigned</type>
*
*          <SerialNumber>not assigned</SerialNumber>
*
*       </Sensor>
*
*    </ExternalSensors>
*
* </HardwareData>
* <StatusData DeviceType='SBE19plus' SerialNumber='01907809'>
*
*    <DateTime>2018-05-28T14:09:41</DateTime>
*
*    <LoggingState>not logging</LoggingState>
*
*    <EventSummary numEvents='0'/>
*
*    <Power>
*
*       <vMain>12.8</vMain>
*
*       <vLith>8.7</vLith>
*
*       <iMain>63.3</iMain>
*
*       <iPump>80.7</iPump>
*
*       <iExt01>13.8</iExt01>
*
*       <iExt2345>43.0</iExt2345>
*
*    </Power>
*
*    <MemorySummary>
*
*       <Bytes>87193</Bytes>
*
*       <Samples>3791</Samples>
*
*       <SamplesFree>2856997</SamplesFree>
*
*       <SampleLength>23</SampleLength>
*
*       <Profiles>3</Profiles>
*
*    </MemorySummary>
*
* </StatusData>
* <ConfigurationData DeviceType='SBE19plus' SerialNumber='01907809'>
*
*    <ProfileMode>
*
*       <ScansToAverage>1</ScansToAverage>
*
*       <MinimumCondFreq>5</MinimumCondFreq>
*
*       <PumpDelay>45</PumpDelay>
*
*       <AutoRun>no</AutoRun>
*
*       <IgnoreSwitch>no</IgnoreSwitch>
*
*    </ProfileMode>
*
*    <Battery>
*
*       <Type>alkaline</Type>
*
*       <CutOff>7.5</CutOff>
*
*    </Battery>
*
*    <DataChannels>
*
*       <ExtVolt0>yes</ExtVolt0>
*
*       <ExtVolt1>yes</ExtVolt1>
*
*       <ExtVolt2>yes</ExtVolt2>
*
*       <ExtVolt3>yes</ExtVolt3>
*
*       <ExtVolt4>yes</ExtVolt4>
*
*       <ExtVolt5>yes</ExtVolt5>
*
*       <SBE38>no</SBE38>
*
*       <WETLABS>no</WETLABS>
*
*       <OPTODE>no</OPTODE>
*
*       <SBE63>no</SBE63>
*
*       <SeaFET>no</SeaFET>
*
*       <GTD>no</GTD>
*
*    </DataChannels>
*
*    <EchoCharacters>yes</EchoCharacters>
*
*    <OutputExecutedTag>yes</OutputExecutedTag>
*
*    <OutputFormat>raw HEX</OutputFormat>
*
* </ConfigurationData>
* <CalibrationCoefficients DeviceType='SBE19plus' SerialNumber='01907809'>
*
*    <Calibration format='TEMP1' id='Main Temperature'>
*
*       <SerialNum>01907809</SerialNum>
*
*       <CalDate>09-Mar-18</CalDate>
*
*       <TA0>1.210932e-03</TA0>
*
*       <TA1>2.843566e-04</TA1>
*
*       <TA2>-1.945074e-06</TA2>
*
*       <TA3>2.128067e-07</TA3>
*
*       <TOFFSET>0.000000e+00</TOFFSET>
*
*    </Calibration>
*
*    <Calibration format='WBCOND0' id='Main Conductivity'>
*
*       <SerialNum>01907809</SerialNum>
*
*       <CalDate>09-Mar-18</CalDate>
*
*       <G>-1.006721e+00</G>
*
*       <H>1.269065e-01</H>
*
*       <I>-1.405844e-04</I>
*
*       <J>2.478371e-05</J>
*
*       <CPCOR>-9.570000e-08</CPCOR>
*
*       <CTCOR>3.250000e-06</CTCOR>
*
*       <CSLOPE>1.000000e+00</CSLOPE>
*
*    </Calibration>
*
*    <Calibration format='STRAIN0' id='Main Pressure'>
*
*       <SerialNum>10586018</SerialNum>
*
*       <CalDate>07-Mar-18</CalDate>
*
*       <PA0>-4.081764e-02</PA0>
*
*       <PA1>4.851884e-04</PA1>
*
*       <PA2>-3.511682e-12</PA2>
*
*       <PTCA0>5.252134e+05</PTCA0>
*
*       <PTCA1>1.795324e+00</PTCA1>
*
*       <PTCA2>-2.843535e-01</PTCA2>
*
*       <PTCB0>2.516687e+01</PTCB0>
*
*       <PTCB1>3.750000e-04</PTCB1>
*
*       <PTCB2>0.000000e+00</PTCB2>
*
*       <PTEMPA0>-5.378069e+01</PTEMPA0>
*
*       <PTEMPA1>5.366207e+01</PTEMPA1>
*
*       <PTEMPA2>4.872143e-02</PTEMPA2>
*
*       <POFFSET>5.000000e-01</POFFSET>
*
*       <PRANGE>1.600000e+02</PRANGE>
*
*    </Calibration>
*
*    <Calibration format='VOLT0' id='Volt 0'>
*
*       <OFFSET>-4.920000e-02</OFFSET>
*
*       <SLOPE>1.248122e+00</SLOPE>
*
*    </Calibration>
*
*    <Calibration format='VOLT0' id='Volt 1'>
*
*       <OFFSET>-4.784000e-02</OFFSET>
*
*       <SLOPE>1.248871e+00</SLOPE>
*
*    </Calibration>
*
*    <Calibration format='VOLT0' id='Volt 2'>
*
*       <OFFSET>-4.864632e-02</OFFSET>
*
*       <SLOPE>1.248714e+00</SLOPE>
*
*    </Calibration>
*
*    <Calibration format='VOLT0' id='Volt 3'>
*
*       <OFFSET>-4.743790e-02</OFFSET>
*
*       <SLOPE>1.248571e+00</SLOPE>
*
*    </Calibration>
*
*    <Calibration format='VOLT0' id='Volt 4'>
*
*       <OFFSET>-4.671263e-02</OFFSET>
*
*       <SLOPE>1.248951e+00</SLOPE>
*
*    </Calibration>
*
*    <Calibration format='VOLT0' id='Volt 5'>
*
*       <OFFSET>-4.871053e-02</OFFSET>
*
*       <SLOPE>1.249136e+00</SLOPE>
*
*    </Calibration>
*
*    <Calibration format='FREQ0' id='external frequency channel'>
*
*       <EXTFREQSF>1.000014e+00</EXTFREQSF>
*
*    </Calibration>
*
* </CalibrationCoefficients>
* <EventCounters DeviceType='SBE19plus' SerialNumber='01907809'>
*
*    <EventSummary numEvents='0'/>
*
* </EventCounters></InstrumentState>
* <Headers>
*
* cast   2 24 May 2018 17:15:59 samples 1610 to 2457, avg = 1, stop = mag switch
*
# nquan = 17
# nvalues = 646                         
# units = specified
# name 0 = depFM: Depth [fresh water, m]
# name 1 = tv290C: Temperature [ITS-90, deg C]
# name 2 = sbeox0Mg/L: Oxygen, SBE 43 [mg/l]
# name 3 = sbeox0PS: Oxygen, SBE 43 [% saturation]
# name 4 = c0uS/cm: Conductivity [uS/cm]
# name 5 = specc: Specific Conductance [uS/cm]
# name 6 = ph: pH
# name 7 = orp: Oxidation Reduction Potential [mV]
# name 8 = flECO-AFL: Fluorescence, WET Labs ECO-AFL/FL [mg/m^3]
# name 9 = turbWETntu0: Turbidity, WET Labs ECO [NTU]
# name 10 = sal00: Salinity, Practical [PSU]
# name 11 = dz/dtM: Descent Rate [m/s]
# name 12 = prdM: Pressure, Strain Gauge [db]
# name 13 = prdE: Pressure, Strain Gauge [psi]
# name 14 = scan: Scan Count
# name 15 = par/sat/log: PAR/Logarithmic, Satlantic
# name 16 = flag:  0.000e+00
# span 0 =     -0.498,      9.879       
# span 1 =    21.6985,    28.0627       
# span 2 =     7.4992,    13.3340       
# span 3 =     85.675,    159.194       
# span 4 = 136.609596, 163.695531       
# span 5 =    129.090,    174.020       
# span 6 =     -2.403,      8.028       
# span 7 = -1240.7455,  1240.2295       
# span 8 =    -0.8289,     3.1217       
# span 9 =    -0.9628,   442.7366       
# span 10 =     0.0653,     0.0849      
# span 11 =     -0.005,      0.273      
# span 12 =     -0.488,      9.687      
# span 13 =     -0.708,     14.050      
# span 14 =          1,        646      
# span 15 = -6.074e+01, 2.8863e+03      
# span 16 = 0.0000e+00, 0.0000e+00      
# interval = seconds: 0.25
# start_time = May 24 2018 17:15:59 [Instrument's time stamp, header]
# bad_flag = -9.990e-29
# <Sensors count="9" >
#   <sensor Channel="1" >
#     <!-- Count, Temperature -->
#     <TemperatureSensor SensorID="58" >
#       <SerialNumber>7809</SerialNumber>
#       <CalibrationDate>09-Mar-18</CalibrationDate>
#       <A0>1.21093245e-003</A0>
#       <A1>2.84356597e-004</A1>
#       <A2>-1.94507398e-006</A2>
#       <A3>2.12806664e-007</A3>
#       <Slope>1.00000000</Slope>
#       <Offset>0.0000</Offset>
#     </TemperatureSensor>
#   </sensor>
#   <sensor Channel="2" >
#     <!-- Frequency 0, Conductivity -->
#     <ConductivitySensor SensorID="3" >
#       <SerialNumber>7809</SerialNumber>
#       <CalibrationDate>09-Mar-18</CalibrationDate>
#       <UseG_J>1</UseG_J>
#       <!-- Cell const and series R are applicable only for wide range sensors. -->
#       <SeriesR>0.0000</SeriesR>
#       <CellConst>2000.0000</CellConst>
#       <ConductivityType>0</ConductivityType>
#       <Coefficients equation="0" >
#         <A>0.00000000e+000</A>
#         <B>0.00000000e+000</B>
#         <C>0.00000000e+000</C>
#         <D>0.00000000e+000</D>
#         <M>0.0</M>
#         <CPcor>-9.57000000e-008</CPcor>
#       </Coefficients>
#       <Coefficients equation="1" >
#         <G>-1.00672082e+000</G>
#         <H>1.26906489e-001</H>
#         <I>-1.40584351e-004</I>
#         <J>2.47837121e-005</J>
#         <CPcor>-9.57000000e-008</CPcor>
#         <CTcor>3.2500e-006</CTcor>
#         <!-- WBOTC not applicable unless ConductivityType = 1. -->
#         <WBOTC>0.00000000e+000</WBOTC>
#       </Coefficients>
#       <Slope>1.00000000</Slope>
#       <Offset>0.00000</Offset>
#     </ConductivitySensor>
#   </sensor>
#   <sensor Channel="3" >
#     <!-- Count, Pressure, Strain Gauge -->
#     <PressureSensor SensorID="46" >
#       <SerialNumber>7809</SerialNumber>
#       <CalibrationDate>07-Mar-18</CalibrationDate>
#       <PA0>-4.08176359e-002</PA0>
#       <PA1>4.85188419e-004</PA1>
#       <PA2>-3.51168169e-012</PA2>
#       <PTEMPA0>-5.37806900e+001</PTEMPA0>
#       <PTEMPA1>5.36620721e+001</PTEMPA1>
#       <PTEMPA2>4.87214332e-002</PTEMPA2>
#       <PTCA0>5.25213435e+005</PTCA0>
#       <PTCA1>1.79532409e+000</PTCA1>
#       <PTCA2>-2.84353509e-001</PTCA2>
#       <PTCB0>2.51668750e+001</PTCB0>
#       <PTCB1>3.75000000e-004</PTCB1>
#       <PTCB2>0.00000000e+000</PTCB2>
#       <Offset>0.000000</Offset>
#     </PressureSensor>
#   </sensor>
#   <sensor Channel="4" >
#     <!-- A/D voltage 0, pH -->
#     <pH_Sensor SensorID="43" >
#       <SerialNumber>0363</SerialNumber>
#       <CalibrationDate>16-Mar-18</CalibrationDate>
#       <Slope>4.6194</Slope>
#       <Offset>2.5947</Offset>
#     </pH_Sensor>
#   </sensor>
#   <sensor Channel="5" >
#     <!-- A/D voltage 1, Oxidation Reduction Potential -->
#     <OxidationReductionPotentialSensor SensorID="41" >
#       <SerialNumber>0363</SerialNumber>
#       <CalibrationDate>16-Mar-18</CalibrationDate>
#       <B>2.499480</B>
#       <M>-0.496195</M>
#       <Offset>0.0</Offset>
#     </OxidationReductionPotentialSensor>
#   </sensor>
#   <sensor Channel="6" >
#     <!-- A/D voltage 2, Oxygen, SBE 43 -->
#     <OxygenSensor SensorID="38" >
#       <SerialNumber>0434</SerialNumber>
#       <CalibrationDate>13-Mar-18</CalibrationDate>
#       <Use2007Equation>1</Use2007Equation>
#       <CalibrationCoefficients equation="0" >
#         <!-- Coefficients for Owens-Millard equation. -->
#         <Boc>0.0000</Boc>
#         <Soc>0.0000e+000</Soc>
#         <offset>0.0000</offset>
#         <Pcor>0.00e+000</Pcor>
#         <Tcor>0.0000</Tcor>
#         <Tau>0.0</Tau>
#       </CalibrationCoefficients>
#       <CalibrationCoefficients equation="1" >
#         <!-- Coefficients for Sea-Bird equation - SBE calibration in 2007 and later. -->
#         <Soc>4.5718e-001</Soc>
#         <offset>-0.6113</offset>
#         <A>-4.0649e-003</A>
#         <B> 2.0945e-004</B>
#         <C>-3.3182e-006</C>
#         <D0> 2.5826e+000</D0>
#         <D1> 1.92634e-004</D1>
#         <D2>-4.64803e-002</D2>
#         <E> 3.6000e-002</E>
#         <Tau20> 1.2200</Tau20>
#         <H1>-3.3000e-002</H1>
#         <H2> 5.0000e+003</H2>
#         <H3> 1.4500e+003</H3>
#       </CalibrationCoefficients>
#     </OxygenSensor>
#   </sensor>
#   <sensor Channel="7" >
#     <!-- A/D voltage 3, PAR/Logarithmic, Satlantic -->
#     <PARLog_SatlanticSensor SensorID="76" >
#       <SerialNumber>1122</SerialNumber>
#       <CalibrationDate>22-Jun-2017</CalibrationDate>
#       <a0>9.6090e-001</a0>
#       <a1>8.0780e-001</a1>
#       <Im>1.3589e+000</Im>
#       <Multiplier>1.0000e+000</Multiplier>
#     </PARLog_SatlanticSensor>
#   </sensor>
#   <sensor Channel="8" >
#     <!-- A/D voltage 4, Fluorometer, WET Labs ECO-AFL/FL -->
#     <FluoroWetlabECO_AFL_FL_Sensor SensorID="20" >
#       <SerialNumber>FLNTURT-2496</SerialNumber>
#       <CalibrationDate>25-Jan-2017</CalibrationDate>
#       <ScaleFactor>5.30000000e+001</ScaleFactor>
#       <!-- Dark output -->
#       <Vblank>0.0560</Vblank>
#     </FluoroWetlabECO_AFL_FL_Sensor>
#   </sensor>
#   <sensor Channel="9" >
#     <!-- A/D voltage 5, Turbidity Meter, WET Labs, ECO-NTU -->
#     <TurbidityMeter SensorID="67" >
#       <SerialNumber>FLNTURT-2496</SerialNumber>
#       <CalibrationDate>25-Jan-2017</CalibrationDate>
#       <ScaleFactor>176.000000</ScaleFactor>
#       <!-- Dark output -->
#       <DarkVoltage>0.072000</DarkVoltage>
#     </TurbidityMeter>
#   </sensor>
# </Sensors>
# datcnv_date = May 28 2018 10:14:28, 7.26.7.114 [datcnv_vars = 16]
# datcnv_in = C:\DATA\052418_fcr50.hex C:\DATA\SBE19plusV2_7809.xmlcon
# datcnv_skipover = 0
# datcnv_ox_hysteresis_correction = yes
# datcnv_ox_tau_correction = yes
# filter_date = May 28 2018 10:14:46, 7.26.7.114
# filter_in = C:\DATA\052418_fcr50.cnv
# filter_low_pass_tc_A = 0.030
# filter_low_pass_tc_B = 0.150
# filter_low_pass_A_vars = tv290C c0uS/cm par/sat/log
# filter_low_pass_B_vars = prdM prdE
# alignctd_date = May 28 2018 10:14:58, 7.26.7.114
# alignctd_in = C:\DATA\052418_fcr50.cnv
# alignctd_adv = tv290C 0.500, sbeox0Mg/L 3.000, sbeox0PS 3.000                                                                                                                                                                      
# file_type = ascii
*END*
     -0.496    28.0627     7.5109     96.080 137.544151    129.586      5.695   792.8703    -0.2102    -0.2646     0.0655 -4.211e-16     -0.486     -0.705          1 1.7026e+03 0.0000e+00
     -0.496    28.0618     7.5169     96.156 137.580056    129.615      6.587   751.1516    -0.1658    -0.2512     0.0655     -0.000     -0.486     -0.705          2 1.8303e+03 0.0000e+00
     -0.496    28.0610     7.5128     96.102 137.562820    129.617      7.182  -812.5800    -0.1860    -0.1437     0.0655     -0.000     -0.486     -0.705          3 1.5956e+03 0.0000e+00
     -0.496    28.0604     7.5146     96.124 137.505989    129.540      2.184  -465.2776    -0.1860    -0.2646     0.0655     -0.000     -0.486     -0.705          4 3.2464e+02 0.0000e+00
     -0.495    28.0596     7.5141     96.116 137.561361    129.622     -2.398  -346.2544    -0.1698    -0.1840     0.0655      0.000     -0.486     -0.705          5 1.6982e+02 0.0000e+00
     -0.497    28.0588     7.5178     96.162 137.583331    129.623     -2.398   -51.1192    -0.1860    -0.2914     0.0655     -0.000     -0.487     -0.706          6 1.8966e+02 0.0000e+00
     -0.497    28.0580     7.5146     96.119 137.568070    129.625     -2.398  -321.1172    -0.1698    -0.1303     0.0655     -0.000     -0.487     -0.706          7 3.0376e+02 0.0000e+00
     -0.496    28.0571     7.5171     96.151 137.580356    129.627     -2.398  -321.2307    -0.1860    -0.3586     0.0655     -0.000     -0.487     -0.706          8 1.0816e+03 0.0000e+00
     -0.497    28.0563     7.5196     96.181 137.538236    129.603     -2.398  -765.2206    -0.1658    -0.3720     0.0655     -0.000     -0.487     -0.706          9 1.8332e+03 0.0000e+00
     -0.496    28.0553     7.5170     96.146 137.501260    129.552     -2.398  -763.1763    -0.2021    -0.2109     0.0655     -0.000     -0.487     -0.706         10 1.4402e+03 0.0000e+00
     -0.497    28.0545     7.5157     96.128 137.536952    129.607     -2.398 -1240.7455    -0.1941    -0.3049     0.0655     -0.001     -0.487     -0.706         11 4.8818e+02 0.0000e+00
     -0.496    28.0538     7.5180     96.156 137.583241    129.635     -1.998 -1240.7455    -0.1900    -0.2646     0.0655     -0.000     -0.487     -0.706         12 1.4721e+03 0.0000e+00
     -0.496    28.0531     7.5176     96.149 137.562884    129.638     -1.650 -1240.7455    -0.1698    -0.2646     0.0655     -0.000     -0.487     -0.706         13 1.9465e+03 0.0000e+00
     -0.497    28.0522     7.5173     96.144 137.502672    129.560      1.658 -1079.2843    -0.1819    -0.1706     0.0655      0.000     -0.487     -0.706         14 1.5703e+03 0.0000e+00
     -0.497    28.0515     7.5170     96.139 137.538946    129.615      5.599  -798.9514    -0.1738    -0.3049     0.0655      0.000     -0.487     -0.706         15 1.8949e+03 0.0000e+00
     -0.496    28.0505     7.5142     96.102 137.577359    129.643      8.028  -823.0286    -0.1536    -0.1034     0.0655      0.000     -0.487     -0.706         16 1.5001e+03 0.0000e+00
     -0.496    28.0494     7.5158     96.120 137.544293    129.619      5.364 -1240.7455    -0.1577    -0.0229     0.0655      0.000     -0.487     -0.706         17 4.0620e+02 0.0000e+00
     -0.497    28.0489     7.5161     96.123 137.580098    129.647     -0.952   846.7033    -0.1738    -0.0900     0.0655     -0.000     -0.487     -0.707         18 -3.344e+01 0.0000e+00
     -0.497    28.0480     7.5179     96.144 137.562609    129.650     -2.399   846.8169    -0.1860    -0.1169     0.0655     -0.000     -0.487     -0.707         19 4.2358e+02 0.0000e+00
     -0.496    28.0470     7.5188     96.155 137.506446    129.572     -2.399  -750.8727    -0.1738    -0.0632     0.0655     -0.000     -0.487     -0.706         20 1.5482e+03 0.0000e+00
     -0.496    28.0464     7.5175     96.137 137.530765    129.627      0.120    -5.3498    -0.1779    -0.2646     0.0655     -0.000     -0.487     -0.706         21 1.9419e+03 0.0000e+00
     -0.496    28.0457     7.5177     96.138 137.502538    129.576      0.699   672.7114    -0.1698    -0.3183     0.0655     -0.000     -0.487     -0.706         22 1.6112e+03 0.0000e+00
     -0.497    28.0446     7.5160     96.115 137.481962    129.578      1.362   -50.9300    -0.2102    -0.3452     0.0655     -0.000     -0.487     -0.707         23 1.9352e+03 0.0000e+00
     -0.497    28.0439     7.5156     96.108 137.496760    129.580     -1.503   844.8483    -0.2021    -0.2243     0.0655     -0.000     -0.487     -0.707         24 1.4805e+03 0.0000e+00
     -0.496    28.0432     7.5162     96.115 137.543736    129.635     -2.399   846.7412    -0.1900    -0.0900     0.0655     -0.000     -0.487     -0.707         25 4.7389e+02 0.0000e+00
     -0.497    28.0422     7.5172     96.126 137.572537    129.663     -2.399   846.7412    -0.1698    -0.1169     0.0655      0.000     -0.487     -0.707         26 1.4282e+03 0.0000e+00
     -0.496    28.0412     7.5157     96.105 137.490726    129.586     -2.399   847.7255    -0.1779    -0.0766     0.0655      0.000     -0.487     -0.706         27 1.8283e+03 0.0000e+00
     -0.496    28.0406     7.5178     96.132 137.496515    129.588     -2.399  1240.2295    -0.1819    -0.0229     0.0655      0.000     -0.487     -0.706         28 1.6074e+03 0.0000e+00
     -0.496    28.0398     7.5174     96.124 137.535529    129.644     -2.399   844.8862    -0.1860     0.0040     0.0655      0.000     -0.487     -0.706         29 1.6315e+03 0.0000e+00
     -0.496    28.0388     7.5196     96.151 137.501789    129.592     -2.399   846.7412    -0.1698     0.0308     0.0655      0.000     -0.487     -0.706         30 1.7403e+03 0.0000e+00
     -0.496    28.0381     7.5199     96.153 137.478891    129.594     -2.399   847.7255    -0.1698    -0.0363     0.0655      0.000     -0.487     -0.706         31 1.5250e+03 0.0000e+00
     -0.497    28.0374     7.5225     96.186 137.504414    129.597     -2.399   847.0819    -0.1779    -0.1303     0.0655      0.000     -0.487     -0.707         32 3.5276e+02 0.0000e+00
     -0.497    28.0366     7.5202     96.154 137.529642    129.651     -2.399   847.6119    -0.1577    -0.2243     0.0655     -0.000     -0.487     -0.707         33 2.7429e+01 0.0000e+00
     -0.496    28.0356     7.5213     96.168 137.507111    129.600     -2.399   849.1262    -0.1941    -0.2914     0.0655      0.000     -0.487     -0.706         34 3.5387e+02 0.0000e+00
     -0.496    28.0347     7.5167     96.107 137.472841    129.602     -2.399   808.6947    -0.1658    -0.3183     0.0655     -0.000     -0.487     -0.706         35 1.5717e+03 0.0000e+00
     -0.496    28.0340     7.5220     96.173 137.512677    129.605     -2.399   844.4319    -0.1819    -0.3183     0.0655     -0.000     -0.487     -0.706         36 1.7796e+03 0.0000e+00
     -0.496    28.0333     7.5205     96.152 137.517150    129.659     -2.399   776.1753    -0.1981    -0.3452     0.0655     -0.000     -0.487     -0.706         37 1.7835e+03 0.0000e+00
     -0.497    28.0325     7.5205     96.152 137.467275    129.555     -2.399   796.5425    -0.1900    -0.3317     0.0655     -0.000     -0.487     -0.707         38 1.6130e+03 0.0000e+00
     -0.497    28.0317     7.5210     96.157 137.455520    129.610     -2.399   729.9516    -0.1819    -0.3720     0.0655     -0.000     -0.487     -0.707         39 3.5254e+02 0.0000e+00
     -0.496    28.0307     7.5185     96.123 137.472167    129.559     -2.399   477.7087    -0.1698    -0.2243     0.0655     -0.000     -0.487     -0.706         40 9.6171e+02 0.0000e+00
     -0.496    28.0299     7.5164     96.096 137.506172    129.667     -2.399   459.3479    -0.2021    -0.2243     0.0655      0.000     -0.487     -0.706         41 1.7760e+03 0.0000e+00
     -0.497    28.0293     7.5215     96.159 137.472817    129.563     -2.399   599.5333    -0.1415    -0.2646     0.0655     -0.000     -0.487     -0.707         42 1.7347e+03 0.0000e+00
     -0.497    28.0282     7.5177     96.109 137.513680    129.671     -2.399   769.5881    -0.1577    -0.1974     0.0655     -0.000     -0.487     -0.707         43 1.7888e+03 0.0000e+00
     -0.497    28.0275     7.5212     96.153 137.514933    129.620     -2.399   844.0155    -0.1860    -0.3183     0.0655     -0.000     -0.487     -0.707         44 1.7676e+03 0.0000e+00
     -0.497    28.0268     7.5238     96.185 137.471259    129.623     -2.399   595.8991    -0.1779    -0.1974     0.0655     -0.000     -0.487     -0.707         45 1.7863e+03 0.0000e+00
     -0.497    28.0258     7.5221     96.160 137.508421    129.624     -2.399   412.0642    -0.1779    -0.2512     0.0655     -0.000     -0.488     -0.707         46 1.7861e+03 0.0000e+00
     -0.497    28.0250     7.5234     96.176 137.468688    129.626     -2.399   215.3958    -0.1577    -0.2646     0.0655     -0.000     -0.488     -0.707         47 1.7942e+03 0.0000e+00
     -0.497    28.0242     7.5214     96.148 137.461095    129.575     -2.399   213.1244    -0.1698    -0.3586     0.0655     -0.000     -0.488     -0.707         48 1.7870e+03 0.0000e+00
     -0.497    28.0232     7.5209     96.142 137.517872    129.683     -2.399  -377.1080    -0.1536    -0.1706     0.0655     -0.000     -0.487     -0.707         49 1.7844e+03 0.0000e+00
     -0.497    28.0225     7.5220     96.153 137.517257    129.632     -2.399   417.8185    -0.2021    -0.2914     0.0655      0.000     -0.487     -0.707         50 1.7785e+03 0.0000e+00
     -0.496    28.0218     7.5243     96.182 137.461860    129.635     -2.399   572.0868    -0.1698    -0.1974     0.0655      0.000     -0.487     -0.707         51 1.7817e+03 0.0000e+00
     -0.497    28.0209     7.5240     96.177 137.467586    129.583     -2.399   327.5290    -0.1698    -0.3049     0.0655      0.000     -0.487     -0.707         52 1.7833e+03 0.0000e+00
     -0.497    28.0201     7.5239     96.173 137.510134    129.691     -2.399  -542.4307    -0.1536    -0.0766     0.0656      0.000     -0.487     -0.707         53 1.7935e+03 0.0000e+00
     -0.496    28.0194     7.5239     96.172 137.468526    129.587     -0.784  -810.1193    -0.1941    -0.0900     0.0655      0.000     -0.487     -0.707         54 1.7821e+03 0.0000e+00
     -0.497    28.0184     7.5256     96.192 137.459755    129.642     -0.102   -30.1463    -0.1617    -0.1169     0.0655      0.000     -0.487     -0.707         55 1.8035e+03 0.0000e+00
     -0.497    28.0174     7.5263     96.201 137.461439    129.591     -2.399   419.9764    -0.1819    -0.0900     0.0655     -0.000     -0.487     -0.707         56 1.7656e+03 0.0000e+00
     -0.497    28.0167     7.5213     96.135 137.526045    129.699     -2.400  -355.8701    -0.1577    -0.0900     0.0656     -0.000     -0.487     -0.707         57 1.8220e+03 0.0000e+00
     -0.497    28.0158     7.5235     96.162 137.498582    129.649     -0.709 -1045.6671    -0.1658    -0.1169     0.0655     -0.000     -0.487     -0.707         58 1.7325e+03 0.0000e+00
     -0.497    28.0151     7.5224     96.146 137.495618    129.650      2.384 -1014.6620    -0.1698    -0.0497     0.0655     -0.000     -0.487     -0.707         59 1.8709e+03 0.0000e+00
     -0.497    28.0140     7.5235     96.159 137.529735    129.706      2.038  -594.5601    -0.1455    -0.0229     0.0656     -0.000     -0.487     -0.707         60 1.5975e+03 0.0000e+00
     -0.497    28.0134     7.5281     96.216 137.456125    129.601     -1.765   143.5049    -0.1981    -0.0229     0.0655     -0.000     -0.487     -0.707         61 3.3911e+02 0.0000e+00
     -0.496    28.0127     7.5244     96.167 137.467997    129.657     -2.400 -1131.1866    -0.1617    -0.0632     0.0655      0.000     -0.487     -0.707         62 8.2055e+01 0.0000e+00
     -0.497    28.0116     7.5229     96.147 137.455348    129.606      0.609  -922.7446    -0.1496    -0.1034     0.0655      0.000     -0.487     -0.707         63 2.3724e+02 0.0000e+00
     -0.497    28.0108     7.5236     96.155 137.471869    129.660      2.995  -815.9872    -0.1577    -0.0363     0.0655      0.000     -0.487     -0.707         64 1.2327e+02 0.0000e+00
     -0.497    28.0100     7.5250     96.170 137.507051    129.663      4.075  -969.2712    -0.1415    -0.0229     0.0655     -0.000     -0.487     -0.707         65 2.0543e+02 0.0000e+00
     -0.497    28.0093     7.5229     96.142 137.471180    129.665      5.376  -639.9131    -0.1860    -0.2914     0.0655     -0.000     -0.487     -0.707         66 2.6534e+02 0.0000e+00
     -0.497    28.0086     7.5283     96.210 137.456899    129.614      5.622   -27.1556    -0.1617    -0.3586     0.0655     -0.000     -0.487     -0.707         67 1.9002e+02 0.0000e+00
     -0.497    28.0076     7.5258     96.177 137.465211    129.669      5.249  -435.3703    -0.1779    -0.2377     0.0655     -0.000     -0.487     -0.707         68 1.5298e+02 0.0000e+00
     -0.497    28.0066     7.5269     96.189 137.460837    129.618      5.370  -340.4622    -0.1981    -0.2914     0.0655     -0.000     -0.488     -0.707         69 1.5838e+02 0.0000e+00
     -0.497    28.0058     7.5277     96.198 137.462344    129.673      5.689   -76.0293    -0.1779    -0.0229     0.0655     -0.000     -0.488     -0.707         70 1.7086e+02 0.0000e+00
     -0.497    28.0049     7.5262     96.178 137.463338    129.622      5.637  -155.6810    -0.1779    -0.0229     0.0655     -0.000     -0.487     -0.707         71 1.2511e+02 0.0000e+00
     -0.496    28.0040     7.5251     96.162 137.459603    129.677      5.427  -328.6129    -0.1779    -0.1169     0.0655      0.000     -0.487     -0.706         72 2.2017e+02 0.0000e+00
     -0.496    28.0032     7.5257     96.167 137.466993    129.627      5.185  -712.7504    -0.1698    -0.0900     0.0655      0.000     -0.487     -0.706         73 1.7983e+03 0.0000e+00
     -0.497    28.0023     7.5242     96.147 137.454141    129.681      2.339  -295.0714    -0.1617    -0.0497     0.0655      0.000     -0.487     -0.707         74 1.6947e+03 0.0000e+00
     -0.498    28.0014     7.5261     96.171 137.415985    129.578     -0.224  -704.1568    -0.1738    -0.0497     0.0655      0.000     -0.487     -0.707         75 4.1949e+02 0.0000e+00
     -0.497    28.0006     7.5281     96.193 137.454865    129.686      2.274  -885.7202    -0.1738    -0.0229     0.0655      0.000     -0.487     -0.706         76 1.3971e+03 0.0000e+00
     -0.497    27.9998     7.5249     96.152 137.465370    129.635      1.480     0.2531    -0.1698    -0.0497     0.0655      0.000     -0.487     -0.706         77 7.3888e+02 0.0000e+00
     -0.497    27.9990     7.5299     96.215 137.462528    129.690     -1.081 -1240.7455    -0.1617    -0.3049     0.0655     -0.000     -0.488     -0.707         78 2.1618e+02 0.0000e+00
     -0.497    27.9982     7.5259     96.162 137.458405    129.639      1.911 -1187.4425    -0.1860    -0.2914     0.0655     -0.000     -0.488     -0.707         79 1.1594e+03 0.0000e+00
     -0.497    27.9972     7.5305     96.219 137.470504    129.694     -0.096  -614.7759    -0.1496    -0.2780     0.0655     -0.000     -0.488     -0.707         80 1.8291e+03 0.0000e+00
     -0.498    27.9963     7.5302     96.213 137.507086    129.696      1.777 -1116.2330    -0.1900    -0.2243     0.0655     -0.000     -0.488     -0.707         81 1.3774e+03 0.0000e+00
     -0.497    27.9956     7.5313     96.227 137.472493    129.699      0.716  -120.5494    -0.1860    -0.2512     0.0656     -0.000     -0.488     -0.707         82 1.0990e+03 0.0000e+00
     -0.497    27.9945     7.5280     96.182 137.453942    129.647     -2.296  -690.0739    -0.1779    -0.2914     0.0655     -0.000     -0.488     -0.707         83 1.9188e+03 0.0000e+00
     -0.497    27.9937     7.5301     96.208 137.470560    129.702     -2.400  -407.5831    -0.1981    -0.3049     0.0656     -0.000     -0.488     -0.707         84 5.1953e+02 0.0000e+00
     -0.497    27.9928     7.5292     96.194 137.511428    129.705     -2.400    91.9812    -0.1779    -0.2243     0.0656     -0.000     -0.488     -0.707         85 -6.074e+01 0.0000e+00
     -0.497    27.9918     7.5298     96.201 137.462699    129.707     -2.400   344.1483    -0.1779    -0.1169     0.0656      0.000     -0.488     -0.707         86 3.3298e+02 0.0000e+00
     -0.498    27.9913     7.5294     96.194 137.411977    129.603     -2.400   394.4985    -0.1617     0.0040     0.0655     -0.000     -0.488     -0.708         87 4.5644e+01 0.0000e+00
     -0.498    27.9905     7.5267     96.158 137.455325    129.712     -2.400   104.1334    -0.1860    -0.1034     0.0656     -0.000     -0.488     -0.708         88 3.1638e+02 0.0000e+00
     -0.497    27.9895     7.5284     96.178 137.408756    129.607     -2.400   772.3517    -0.1738     0.0577     0.0655      0.000     -0.488     -0.707         89 1.1036e+01 0.0000e+00
     -0.497    27.9886     7.5292     96.188 137.410319    129.662     -2.400  -379.1902    -0.1617    -0.2243     0.0655     -0.000     -0.488     -0.707         90 4.8630e+02 0.0000e+00
     -0.497    27.9876     7.5311     96.211 137.453379    129.664     -2.400    64.7240    -0.1617    -0.2512     0.0655      0.000     -0.488     -0.707         91 2.2146e+03 0.0000e+00
     -0.497    27.9869     7.5287     96.177 137.414782    129.666     -2.400    73.9233    -0.1698    -0.2512     0.0655     -0.000     -0.488     -0.707         92 2.8708e+03 0.0000e+00
     -0.497    27.9857     7.5320     96.219 137.458355    129.669     -2.400  -129.8623    -0.1658    -0.3586     0.0655      0.000     -0.487     -0.707         93 1.9625e+03 0.0000e+00
     -0.497    27.9849     7.5334     96.235 137.458769    129.724     -2.401  -435.4839    -0.1617    -0.0229     0.0656      0.000     -0.487     -0.707         94 1.6203e+03 0.0000e+00
     -0.497    27.9843     7.5329     96.226 137.414267    129.620     -2.401  -400.5795    -0.1819    -0.0900     0.0655      0.000     -0.488     -0.707         95 1.2656e+03 0.0000e+00
     -0.497    27.9833     7.5350     96.252 137.454126    129.728     -2.401   -34.0078    -0.1779    -0.1169     0.0656     -0.000     -0.488     -0.707         96 9.7748e+02 0.0000e+00
     -0.497    27.9824     7.5317     96.208 137.468783    129.677     -2.401  -653.9203    -0.1900     0.0308     0.0655     -0.000     -0.487     -0.707         97 1.8768e+03 0.0000e+00
     -0.497    27.9814     7.5355     96.255 137.455643    129.733     -2.401 -1240.7455    -0.1900    -0.0497     0.0656      0.000     -0.487     -0.707         98 7.0833e+02 0.0000e+00
     -0.497    27.9805     7.5335     96.228 137.470479    129.682      0.351  -817.3879    -0.1860    -0.0497     0.0655     -0.000     -0.487     -0.707         99 2.8114e+01 0.0000e+00
     -0.497    27.9799     7.5322     96.210 137.450320    129.737     -2.401   350.6976    -0.2102    -0.0900     0.0656      0.000     -0.487     -0.707        100 3.1583e+02 0.0000e+00
     -0.497    27.9790     7.5304     96.186 137.421119    129.633     -2.401   827.5476    -0.1738    -0.0497     0.0655     -0.000     -0.487     -0.707        101 8.0017e+01 0.0000e+00
     -0.497    27.9779     7.5331     96.219 137.447207    129.741     -2.401   841.6305    -0.1617    -0.2512     0.0656      0.000     -0.487     -0.707        102 2.2822e+02 0.0000e+00
     -0.497    27.9773     7.5312     96.194 137.417855    129.637     -2.401   841.1005    -0.1779    -0.2512     0.0655      0.000     -0.487     -0.707        103 1.3913e+02 0.0000e+00
     -0.497    27.9763     7.5307     96.186 137.398035    129.693     -2.401   798.7761    -0.1819    -0.2780     0.0655      0.000     -0.487     -0.707        104 1.8379e+02 0.0000e+00
     -0.497    27.9753     7.5330     96.213 137.412260    129.641     -2.401   620.5441    -0.1779    -0.2512     0.0655      0.000     -0.487     -0.707        105 1.5021e+02 0.0000e+00
     -0.497    27.9744     7.5329     96.211 137.400156    129.696     -2.401   468.3958    -0.1738    -0.2377     0.0655      0.000     -0.487     -0.707        106 1.8517e+02 0.0000e+00
     -0.497    27.9735     7.5358     96.246 137.413102    129.646     -2.401   481.6080    -0.1860    -0.2780     0.0655      0.000     -0.487     -0.707        107 1.5785e+02 0.0000e+00
     -0.497    27.9727     7.5348     96.232 137.455765    129.754     -2.401   491.3752    -0.1860    -0.2914     0.0656      0.000     -0.487     -0.707        108 2.1708e+02 0.0000e+00
     -0.497    27.9714     7.5365     96.252 137.525905    129.756     -2.401   488.1195    -0.1617    -0.2914     0.0656      0.000     -0.487     -0.707        109 1.6484e+02 0.0000e+00
     -0.497    27.9708     7.5339     96.217 137.504655    129.811     -2.401   431.7122    -0.1900    -0.3452     0.0656      0.000     -0.487     -0.707        110 2.6247e+02 0.0000e+00
     -0.497    27.9701     7.5370     96.255 137.422599    129.655     -2.401   244.8488    -0.1779    -0.2243     0.0655      0.000     -0.487     -0.707        111 1.1371e+02 0.0000e+00
     -0.497    27.9691     7.5344     96.221 137.449185    129.763     -2.401 -1016.2142    -0.1860    -0.3183     0.0656      0.000     -0.487     -0.707        112 3.5891e+02 0.0000e+00
     -0.497    27.9684     7.5332     96.204 137.411956    129.658     -1.000 -1240.7455    -0.1941    -0.3452     0.0655      0.000     -0.487     -0.707        113 -4.686e+01 0.0000e+00
     -0.497    27.9677     7.5310     96.174 137.409316    129.714      1.478 -1240.7455    -0.1981    -0.2914     0.0656      0.000     -0.487     -0.707        114 6.1316e+02 0.0000e+00
     -0.497    27.9666     7.5367     96.245 137.392859    129.663     -0.069  -514.3406    -0.1819    -0.2109     0.0655     -0.000     -0.487     -0.707        115 2.1591e+03 0.0000e+00
     -0.496    27.9658     7.5363     96.239 137.492053    129.771     -2.401  -177.3353    -0.1779    -0.3586     0.0656      0.000     -0.487     -0.707        116 1.4112e+03 0.0000e+00
     -0.497    27.9648     7.5343     96.213 137.524327    129.826     -2.401  -588.6922    -0.1738    -0.2646     0.0656      0.000     -0.487     -0.707        117 2.0078e+03 0.0000e+00
     -0.497    27.9637     7.5360     96.232 137.412309    129.669     -1.230 -1106.3523    -0.1779    -0.2512     0.0655      0.000     -0.487     -0.706        118 2.8863e+03 0.0000e+00
     -0.496    27.9630     7.5382     96.260 137.512231    129.831      1.594 -1240.7455    -0.1860    -0.2512     0.0656      0.000     -0.487     -0.706        119 2.3435e+03 0.0000e+00
     -0.496    27.9621     7.5362     96.232 137.459591    129.727      3.402 -1203.8726    -0.1455    -0.1706     0.0656      0.000     -0.487     -0.706        120 5.0184e+02 0.0000e+00
     -0.497    27.9612     7.5374     96.246 137.418207    129.729      4.739 -1240.7455    -0.1860    -0.2512     0.0656      0.000     -0.487     -0.706        121 3.5386e+02 0.0000e+00
     -0.496    27.9605     7.5360     96.226 137.444506    129.731      4.991 -1240.7455    -0.1617    -0.1974     0.0656      0.000     -0.487     -0.706        122 2.2803e+03 0.0000e+00
     -0.496    27.9597     7.5357     96.221 137.426863    129.734      5.192 -1240.7455    -0.1617     0.0308     0.0656      0.000     -0.487     -0.706        123 2.6450e+03 0.0000e+00
     -0.496    27.9587     7.5385     96.255 137.440165    129.735      5.346 -1240.7455    -0.1900    -0.0497     0.0656      0.000     -0.487     -0.706        124 2.5579e+03 0.0000e+00
     -0.496    27.9579     7.5371     96.236 137.427954    129.737      5.356 -1240.7455    -0.1658    -0.0632     0.0656      0.000     -0.487     -0.706        125 2.6285e+03 0.0000e+00
     -0.496    27.9570     7.5394     96.265 137.442062    129.740      5.339 -1240.7455    -0.1738    -0.0229     0.0656      0.000     -0.487     -0.706        126 2.6571e+03 0.0000e+00
     -0.497    27.9560     7.5384     96.251 137.422609    129.741      1.101     7.2188    -0.1819    -0.3183     0.0656      0.000     -0.487     -0.706        127 2.6151e+03 0.0000e+00
     -0.496    27.9551     7.5416     96.290 137.392551    129.691     -2.401   151.6063    -0.1698    -0.3049     0.0655      0.000     -0.487     -0.706        128 2.3125e+03 0.0000e+00
     -0.496    27.9543     7.5386     96.249 137.419857    129.746     -2.401   122.9484    -0.1819    -0.2780     0.0656      0.000     -0.486     -0.706        129 2.7084e+03 0.0000e+00
     -0.496    27.9535     7.5401     96.267 137.388630    129.695     -2.402   123.6677    -0.1658    -0.1974     0.0655      0.000     -0.486     -0.706        130 2.4700e+03 0.0000e+00
     -0.496    27.9525     7.5409     96.276 137.431415    129.750     -2.402    57.5689    -0.1900    -0.2109     0.0656     -0.000     -0.486     -0.706        131 1.4004e+03 0.0000e+00
     -0.495    27.9517     7.5414     96.282 137.485839    129.805     -2.402  -156.2488    -0.1860    -0.2512     0.0656      0.000     -0.486     -0.705        132 2.2159e+03 0.0000e+00
     -0.496    27.9510     7.5375     96.230 137.380514    129.701     -2.402   -52.5957    -0.1941    -0.3049     0.0655      0.000     -0.486     -0.705        133 2.6637e+03 0.0000e+00
     -0.496    27.9502     7.5397     96.257 137.383650    129.704     -2.402  -133.9130    -0.1738    -0.2109     0.0655      0.000     -0.486     -0.705        134 1.4068e+03 0.0000e+00
     -0.496    27.9492     7.5407     96.267 137.422324    129.758     -2.402  -141.2195    -0.1779    -0.1974     0.0656      0.000     -0.486     -0.705        135 2.1135e+02 0.0000e+00
     -0.496    27.9486     7.5378     96.229 137.392001    129.707     -2.402  -179.9853    -0.1779    -0.2377     0.0655      0.000     -0.486     -0.705        136 6.3026e+01 0.0000e+00
     -0.496    27.9478     7.5376     96.225 137.421389    129.763     -2.402  -198.8761    -0.1698    -0.2646     0.0656      0.000     -0.486     -0.705        137 1.3641e+02 0.0000e+00
     -0.496    27.9467     7.5411     96.268 137.445367    129.764     -2.402  -226.4740    -0.1738    -0.3049     0.0656     -0.000     -0.486     -0.705        138 1.3189e+02 0.0000e+00
     -0.496    27.9459     7.5396     96.248 137.362162    129.713     -2.402  -246.1219    -0.1617    -0.2109     0.0656     -0.000     -0.486     -0.705        139 1.0259e+02 0.0000e+00
     -0.496    27.9451     7.5425     96.284 137.346096    129.663     -2.402  -275.3099    -0.1779    -0.3183     0.0655     -0.000     -0.486     -0.705        140 1.9766e+02 0.0000e+00
     -0.496    27.9441     7.5412     96.265 137.405750    129.771     -2.402  -300.5985    -0.1617    -0.2646     0.0656     -0.000     -0.486     -0.705        141 5.4032e+02 0.0000e+00
     -0.495    27.9433     7.5440     96.300 137.407152    129.720     -2.402  -317.9750    -0.1819    -0.2109     0.0656      0.000     -0.486     -0.705        142 2.2884e+02 0.0000e+00
     -0.496    27.9426     7.5433     96.290 137.403965    129.775     -2.402  -261.3406    -0.1900    -0.1840     0.0656      0.000     -0.486     -0.705        143 9.2782e+01 0.0000e+00
     -0.496    27.9417     7.5402     96.248 137.409719    129.724     -2.402  -188.6168    -0.1617    -0.2512     0.0656      0.000     -0.486     -0.705        144 1.5523e+02 0.0000e+00
     -0.496    27.9407     7.5407     96.254 137.399995    129.779     -2.402  -306.6935    -0.1658    -0.2512     0.0656      0.000     -0.486     -0.705        145 1.0614e+02 0.0000e+00
     -0.496    27.9397     7.5400     96.244 137.356455    129.675     -2.402  -329.7865    -0.1941    -0.3586     0.0655      0.000     -0.486     -0.705        146 1.2757e+02 0.0000e+00
     -0.495    27.9390     7.5421     96.269 137.404291    129.784     -2.402  -450.3618     0.0688     1.0379     0.0656      0.000     -0.486     -0.705        147 1.0962e+02 0.0000e+00
     -0.496    27.9383     7.5408     96.251 137.400079    129.733     -2.402  -374.0416     0.1092     1.0782     0.0656      0.000     -0.486     -0.705        148 1.2111e+02 0.0000e+00
     -0.496    27.9374     7.5448     96.300 137.361698    129.735     -2.402  -421.7796     0.0566     0.9574     0.0656      0.000     -0.486     -0.705        149 1.1831e+02 0.0000e+00
     -0.496    27.9367     7.5446     96.296 137.392441    129.737     -2.402  -628.3666     0.1092     1.0379     0.0656     -0.000     -0.486     -0.705        150 1.1978e+02 0.0000e+00
     -0.496    27.9359     7.5455     96.306 137.361821    129.739     -2.402  -727.8555    -0.7885    -0.9226     0.0656      0.000     -0.486     -0.705        151 1.1881e+02 0.0000e+00
     -0.496    27.9350     7.5438     96.283 137.340194    129.687     -2.402  -718.5047    -0.8127    -0.9226     0.0655      0.000     -0.486     -0.705        152 1.2091e+02 0.0000e+00
     -0.496    27.9341     7.5445     96.291 137.359743    129.743     -2.402  -750.4941    -0.8289    -0.8957     0.0656     -0.000     -0.486     -0.705        153 1.1903e+02 0.0000e+00
     -0.495    27.9334     7.5452     96.299 137.337493    129.692     -2.402  -723.3126    -0.8087    -0.9091     0.0655      0.000     -0.486     -0.705        154 1.2086e+02 0.0000e+00
     -0.496    27.9328     7.5450     96.295 137.308274    129.694     -2.402  -778.2813    -0.8127    -0.9628     0.0655     -0.000     -0.486     -0.705        155 1.2127e+02 0.0000e+00
     -0.496    27.9318     7.5464     96.311 137.336495    129.696     -2.402  -838.6636    -0.3679    -0.7211     0.0655      0.000     -0.486     -0.705        156 1.2245e+02 0.0000e+00
     -0.495    27.9310     7.5449     96.291 137.361986    129.750     -2.402  -836.5058    -0.3558    -0.7211     0.0656      0.000     -0.486     -0.705        157 1.2551e+02 0.0000e+00
     -0.496    27.9303     7.5433     96.269 137.336165    129.700     -2.402  -703.4375    -0.3841    -0.6943     0.0655      0.000     -0.486     -0.705        158 1.2794e+02 0.0000e+00
     -0.495    27.9294     7.5420     96.251 137.309017    129.701     -2.402  -775.2528    -0.3720    -0.7346     0.0655      0.000     -0.486     -0.705        159 1.2975e+02 0.0000e+00
     -0.495    27.9286     7.5455     96.294 137.336159    129.703     -2.402  -812.9964    -0.1577    -0.3049     0.0655      0.000     -0.486     -0.705        160 1.3259e+02 0.0000e+00
     -0.496    27.9276     7.5464     96.305 137.362001    129.758     -2.402  -837.7172    -0.1860    -0.2377     0.0656      0.000     -0.486     -0.705        161 1.3509e+02 0.0000e+00
     -0.495    27.9268     7.5447     96.282 137.336472    129.707     -2.402  -859.2959    -0.1738    -0.2914     0.0655      0.000     -0.486     -0.705        162 1.3641e+02 0.0000e+00
     -0.495    27.9259     7.5439     96.270 137.308318    129.710     -2.402  -879.5116    -0.1941    -0.2780     0.0655      0.000     -0.486     -0.705        163 1.3695e+02 0.0000e+00
     -0.496    27.9252     7.5440     96.269 137.337427    129.712     -2.402  -902.0745    -0.1779    -0.1974     0.0655      0.000     -0.486     -0.705        164 1.3627e+02 0.0000e+00
     -0.495    27.9244     7.5457     96.290 137.300249    129.714     -2.402  -926.0003    -0.1779    -0.2243     0.0655      0.000     -0.486     -0.705        165 1.3488e+02 0.0000e+00
     -0.495    27.9237     7.5448     96.277 137.414200    129.769     -2.402  -945.9890    -0.1698    -0.2914     0.0656      0.000     -0.486     -0.705        166 1.3557e+02 0.0000e+00
     -0.495    27.9229     7.5446     96.273 137.493685    129.930     -2.402  -968.2112    -0.1415    -0.2243     0.0656      0.000     -0.486     -0.705        167 1.3599e+02 0.0000e+00
     -0.495    27.9221     7.5457     96.286 137.499401    129.825     -2.402  -988.6541    -0.1779    -0.2512     0.0656      0.000     -0.484     -0.702        168 1.3662e+02 0.0000e+00
     -0.490    27.9213     7.5445     96.269 137.407089    129.880     -2.403  -957.0054    -0.1698    -0.2243     0.0656      0.001     -0.475     -0.688        169 1.3875e+02 0.0000e+00
     -0.465    27.9205     7.5493     96.328 137.042244    129.378     -2.403  -733.0419    -0.1698    -0.3317     0.0654      0.009     -0.451     -0.655        170 1.4121e+02 0.0000e+00
     -0.427    27.9197     7.5513     96.353 136.910219    129.407     -1.779  1240.2295    -0.1455    -0.3183     0.0654      0.025     -0.414     -0.600        171 1.4559e+02 0.0000e+00
     -0.371    27.9190     7.5469     96.296 136.707014    129.090      1.724  1240.2295    -0.4933    -0.4257     0.0653      0.050     -0.372     -0.539        172 1.4929e+02 0.0000e+00
     -0.344    27.9180     7.5489     96.319 136.609596    129.092      3.984  1240.2295    -0.4892    -0.5197     0.0653      0.075     -0.341     -0.494        173 1.5039e+02 0.0000e+00
     -0.327    27.9172     7.5497     96.328 136.673785    129.094      5.246   233.3780    -0.4933    -0.4660     0.0653      0.094     -0.317     -0.460        174 1.5196e+02 0.0000e+00
     -0.295    27.9164     7.5441     96.255 136.686748    129.149      6.089   253.5938    -0.5135    -0.5331     0.0653      0.110     -0.294     -0.425        175 1.5478e+02 0.0000e+00
     -0.275    27.9154     7.5466     96.287 136.712692    129.151      6.579   256.8495    -0.0930     0.1785     0.0653      0.119     -0.276     -0.399        176 1.5536e+02 0.0000e+00
     -0.272    27.9147     7.5469     96.289 136.701112    129.153      6.787   261.4681    -0.1172     0.1248     0.0653      0.114     -0.267     -0.388        177 1.5618e+02 0.0000e+00
     -0.269    27.9139     7.5475     96.295 136.701161    129.156      6.892   266.5410    -0.1172     0.1114     0.0653      0.097     -0.263     -0.382        178 1.5689e+02 0.0000e+00
     -0.265    27.9130     7.5495     96.318 136.712632    129.157      6.979   268.6988    -0.1051     0.1114     0.0653      0.075     -0.259     -0.377        179 1.5678e+02 0.0000e+00
     -0.262    27.9121     7.5477     96.295 136.746449    129.212      7.059   267.1845    -0.1172     3.3475     0.0653      0.053     -0.257     -0.374        180 1.5763e+02 0.0000e+00
     -0.262    27.9115     7.5491     96.310 136.718690    129.162      7.126   258.8559    -0.1051     3.3341     0.0653      0.038     -0.257     -0.372        181 1.5794e+02 0.0000e+00
     -0.261    27.9107     7.5476     96.290 136.687567    129.164      7.202   263.0581    -0.0930     3.3610     0.0653      0.026     -0.256     -0.371        182 1.5886e+02 0.0000e+00
     -0.259    27.9097     7.5506     96.326 136.725572    129.165      7.251   267.3738    -0.1213     3.2938     0.0653      0.014     -0.253     -0.366        183 1.5896e+02 0.0000e+00
     -0.253    27.9089     7.5511     96.331 136.731007    129.220      7.301   271.1595     0.0122     8.2084     0.0653      0.010     -0.249     -0.361        184 1.5913e+02 0.0000e+00
     -0.251    27.9081     7.5602     96.445 136.680804    129.117      7.305   270.6674     0.0243     8.1010     0.0653      0.010     -0.246     -0.356        185 1.6024e+02 0.0000e+00
     -0.249    27.9073     7.5721     96.596 136.728439    129.225      7.316   272.3331     0.0364     8.2487     0.0653      0.009     -0.244     -0.353        186 1.6154e+02 0.0000e+00
     -0.246    27.9066     7.5895     96.815 136.731340    129.174      7.335   272.0681     0.0122     8.1950     0.0653      0.009     -0.241     -0.350        187 1.6162e+02 0.0000e+00
     -0.244    27.9055     7.6098     97.073 136.736807    129.229      7.353   271.3110     0.3154    15.2581     0.0653      0.010     -0.237     -0.345        188 1.6349e+02 0.0000e+00
     -0.238    27.9045     7.6243     97.255 136.721637    129.177      7.368   274.5288     0.2831    15.2850     0.0653      0.012     -0.232     -0.338        189 1.6748e+02 0.0000e+00
     -0.231    27.9039     7.6371     97.417 136.750221    129.233      7.348   273.3931     0.2629    15.3118     0.0653      0.013     -0.227     -0.329        190 1.6925e+02 0.0000e+00
     -0.227    27.9030     7.6456     97.524 136.790655    129.262      7.327   276.9138     0.2831    15.2850     0.0653      0.015     -0.221     -0.320        191 1.6921e+02 0.0000e+00
     -0.218    27.9021     7.6493     97.570 136.760737    129.237      7.303   275.4753     2.0097   442.5754     0.0653      0.017     -0.213     -0.308        192 1.8109e+02 0.0000e+00
     -0.205    27.9011     7.6533     97.617 136.787455    129.266      7.291   279.1474     2.0097   442.7366     0.0653      0.021     -0.200     -0.290        193 4.9593e+02 0.0000e+00
     -0.189    27.9001     7.6657     97.773 136.817018    129.294      7.284   277.8224     1.9895   442.6157     0.0654      0.028     -0.183     -0.266        194 6.5066e+02 0.0000e+00
     -0.165    27.8991     7.6793     97.945 136.783560    129.270      7.297   279.1853     1.9814   442.7097     0.0653      0.037     -0.163     -0.236        195 4.3529e+02 0.0000e+00
     -0.144    27.8980     7.6987     98.189 136.769483    129.246      7.305   280.8510     1.8318     2.7701     0.0653      0.047     -0.139     -0.202        196 4.0901e+02 0.0000e+00
     -0.119    27.8970     7.7212     98.474 136.834539    129.328      7.269   274.4531     1.8075     2.7164     0.0654      0.058     -0.107     -0.156        197 3.0868e+02 0.0000e+00
     -0.063    27.8957     7.7376     98.681 136.881440    129.357      7.243   271.5760     1.8075     2.7701     0.0654      0.077     -0.062     -0.090        198 3.2827e+02 0.0000e+00
     -0.009    27.8949     7.7564     98.918 136.889959    129.386      7.271   269.4181     1.8035     2.6761     0.0654      0.102     -0.012     -0.019        199 1.8013e+02 0.0000e+00
      0.031    27.8938     7.7703     99.092 137.002779    129.469      7.309   268.0174     1.7914     2.6627     0.0654      0.123      0.032      0.046        200 2.4868e+02 0.0000e+00
      0.076    27.8925     7.7733     99.129 137.128520    129.631      7.337   268.5853     1.8520     2.6224     0.0655      0.143      0.073      0.106        201 8.4680e+02 0.0000e+00
      0.116    27.8916     7.7736     99.130 137.120960    129.580      7.358   270.0995     1.9005     2.6493     0.0655      0.157      0.112      0.163        202 8.3617e+02 0.0000e+00
      0.149    27.8902     7.7733     99.123 137.191029    129.690      7.373   270.3645     1.8803     2.7433     0.0655      0.165      0.150      0.217        203 6.0062e+02 0.0000e+00
      0.195    27.8886     7.7703     99.082 137.279777    129.745      7.380   270.8945     1.8925     2.6359     0.0656      0.170      0.191      0.277        204 2.5515e+02 0.0000e+00
      0.241    27.8874     7.7694     99.068 137.368198    129.854      7.381   271.8788     1.8561     2.8641     0.0656      0.171      0.231      0.335        205 4.3238e+02 0.0000e+00
      0.269    27.8860     7.7667     99.029 137.438674    129.911      7.380   271.0460     1.8642     2.9178     0.0656      0.162      0.261      0.380        206 6.2799e+02 0.0000e+00
      0.292    27.8846     7.7661     99.020 137.490142    129.968      7.381   272.7874     1.8480     2.8507     0.0657      0.152      0.286      0.416        207 4.4722e+02 0.0000e+00
      0.318    27.8834     7.7648     98.999 137.572413    130.051      7.371   272.5603     1.8601     2.8373     0.0657      0.143      0.307      0.446        208 5.4610e+02 0.0000e+00
      0.330    27.8819     7.7623     98.964 137.634364    130.107      7.348   273.5067     2.0785     2.8910     0.0657      0.130      0.321      0.465        209 5.4351e+02 0.0000e+00
      0.333    27.8803     7.7624     98.964 137.621699    130.111      7.342   274.2638     2.0582     2.8507     0.0657      0.112      0.326      0.472        210 8.0537e+02 0.0000e+00
      0.335    27.8788     7.7623     98.959 137.647791    130.114      7.331   275.2481     2.0825     2.8507     0.0657      0.091      0.328      0.476        211 6.7432e+02 0.0000e+00
      0.337    27.8772     7.7631     98.965 137.721123    130.224      7.320   276.0810     2.0461     2.9178     0.0658      0.066      0.330      0.479        212 4.1327e+02 0.0000e+00
      0.338    27.8756     7.7664     99.004 137.709283    130.174      7.317   276.0810     2.1351     2.8373     0.0657      0.045      0.332      0.481        213 2.7704e+02 0.0000e+00
      0.340    27.8737     7.7646     98.978 137.722143    130.232      7.316   278.1253     2.1593     2.9178     0.0658      0.030      0.333      0.483        214 1.6323e+02 0.0000e+00
      0.341    27.8721     7.7690     99.031 137.824352    130.289      7.324   278.1253     2.1310     2.8910     0.0658      0.018      0.334      0.485        215 2.1479e+02 0.0000e+00
      0.342    27.8705     7.7703     99.044 137.880161    130.400      7.335   279.5260     2.1472     2.9447     0.0658      0.010      0.335      0.486        216 1.6616e+02 0.0000e+00
      0.342    27.8690     7.7707     99.045 137.831537    130.297      7.344   280.0560     2.1108     2.8641     0.0658      0.006      0.335      0.486        217 1.6325e+02 0.0000e+00
      0.342    27.8673     7.7745     99.090 137.884868    130.408      7.351   281.0403     2.1351     2.8641     0.0659      0.005      0.335      0.487        218 1.5537e+02 0.0000e+00
      0.342    27.8653     7.7745     99.086 137.933024    130.411      7.355   281.6081     2.1310     2.7701     0.0659      0.004      0.336      0.487        219 2.1346e+02 0.0000e+00
      0.343    27.8637     7.7755     99.095 137.950455    130.469      7.357   281.7596     2.1472     2.8641     0.0659      0.003      0.337      0.488        220 3.1898e+02 0.0000e+00
      0.345    27.8618     7.7746     99.079 138.012218    130.500      7.361   282.8574     2.2321     2.8507     0.0659      0.003      0.338      0.490        221 3.2243e+02 0.0000e+00
      0.346    27.8598     7.7782     99.121 138.005203    130.531      7.358   282.2139     2.1998     2.8507     0.0659      0.003      0.339      0.492        222 4.8233e+02 0.0000e+00
      0.348    27.8581     7.7791     99.129 138.078418    130.562      7.358   282.7060     2.2119     2.8104     0.0659      0.003      0.341      0.494        223 7.4823e+02 0.0000e+00
      0.348    27.8563     7.7833     99.179 138.159569    130.700      7.355   282.2517     2.1998     2.8104     0.0660      0.004      0.341      0.495        224 7.1102e+02 0.0000e+00
      0.349    27.8542     7.7822     99.160 138.142679    130.624      7.355   282.9332     2.1755     2.6627     0.0659      0.004      0.342      0.496        225 6.5905e+02 0.0000e+00
      0.349    27.8522     7.7857     99.202 138.218673    130.761      7.355   282.4410     2.1634     2.6493     0.0660      0.004      0.342      0.496        226 5.9216e+02 0.0000e+00
      0.350    27.8501     7.7841     99.176 138.243846    130.740      7.350   283.0467     2.1229     2.8104     0.0660      0.004      0.343      0.497        227 4.5653e+02 0.0000e+00
      0.350    27.8480     7.7898     99.244 138.290202    130.825      7.350   283.8417     2.1351     2.6896     0.0660      0.003      0.343      0.498        228 6.8977e+02 0.0000e+00
      0.350    27.8458     7.7886     99.224 138.339836    130.856      7.349   283.5010     2.2240     2.6224     0.0661      0.002      0.344      0.499        229 6.9162e+02 0.0000e+00
      0.354    27.8436     7.7906     99.246 138.360930    130.889      7.350   284.9396     2.1917     2.5956     0.0661      0.003      0.347      0.502        230 3.5035e+02 0.0000e+00
      0.356    27.8414     7.7913     99.250 138.412997    130.947      7.349   284.7882     2.2038     2.6761     0.0661      0.004      0.349      0.505        231 3.2965e+02 0.0000e+00
      0.356    27.8391     7.7928     99.265 138.424085    130.952      7.343   286.4917     2.2079     2.6359     0.0661      0.004      0.349      0.507        232 2.3559e+02 0.0000e+00
      0.357    27.8369     7.7910     99.237 138.525986    131.064      7.338   286.8324     2.0704     2.8507     0.0661      0.005      0.350      0.507        233 1.4852e+02 0.0000e+00
      0.357    27.8346     7.7966     99.304 138.584273    131.123      7.329   288.0439     2.0623     2.8507     0.0662      0.005      0.350      0.508        234 1.7077e+02 0.0000e+00
      0.357    27.8324     7.7983     99.321 138.530402    131.075      7.313   286.6053     2.0663     2.8373     0.0662      0.004      0.350      0.508        235 1.5651e+02 0.0000e+00
      0.358    27.8301     7.7959     99.285 138.593031    131.134      7.293   287.2110     2.0744     2.8776     0.0662      0.004      0.350      0.508        236 1.7259e+02 0.0000e+00
      0.357    27.8275     7.8004     99.338 138.625570    131.193      7.278   286.7567     2.0097     2.5687     0.0662      0.003      0.351      0.509        237 2.0334e+02 0.0000e+00
      0.359    27.8249     7.8033     99.369 138.609147    131.145      7.268   287.3624     1.9895     2.5687     0.0662      0.002      0.352      0.511        238 2.2993e+02 0.0000e+00
      0.360    27.8225     7.8072     99.413 138.673091    131.258      7.264   286.8703     2.0259     2.6224     0.0662      0.002      0.353      0.513        239 2.0132e+02 0.0000e+00
      0.362    27.8198     7.8050     99.379 138.724847    131.264      7.261   287.8167     1.9976     2.6761     0.0662      0.003      0.355      0.515        240 1.6550e+02 0.0000e+00
      0.364    27.8174     7.8119     99.462 138.753403    131.350      7.264   287.7032     1.9976     2.7298     0.0663      0.004      0.357      0.517        241 1.8114e+02 0.0000e+00
      0.365    27.8148     7.8109     99.444 138.726986    131.277      7.262   287.3246     2.0704     2.6493     0.0662      0.004      0.358      0.519        242 3.6617e+02 0.0000e+00
      0.367    27.8122     7.8113     99.444 138.757727    131.363      7.261   288.4982     2.0825     2.6627     0.0663      0.005      0.360      0.521        243 4.5314e+02 0.0000e+00
      0.368    27.8095     7.8117     99.444 138.774768    131.343      7.266   287.9682     2.0785     2.6359     0.0663      0.005      0.361      0.523        244 3.0234e+02 0.0000e+00
      0.368    27.8066     7.8115     99.435 138.825019    131.429      7.263   289.4067     2.0866     2.5687     0.0663      0.005      0.361      0.523        245 2.0127e+02 0.0000e+00
      0.369    27.8039     7.8130     99.450 138.844241    131.436      7.256   289.1796     2.0946     2.7164     0.0663      0.005      0.361      0.524        246 1.7861e+02 0.0000e+00
      0.368    27.8010     7.8144     99.461 138.840278    131.443      7.244   290.6182     2.1108     2.6761     0.0663      0.004      0.361      0.524        247 1.6884e+02 0.0000e+00
      0.369    27.7979     7.8145     99.458 138.889574    131.503      7.237   289.6717     2.0785     2.6627     0.0663      0.003      0.362      0.525        248 1.6930e+02 0.0000e+00
      0.371    27.7951     7.8160     99.470 138.902135    131.510      7.229   290.7317     2.0946     2.7433     0.0663      0.003      0.364      0.527        249 1.6471e+02 0.0000e+00
      0.372    27.7920     7.8238     99.564 138.943888    131.571      7.225   291.3375     2.0987     2.6761     0.0664      0.003      0.364      0.528        250 1.6358e+02 0.0000e+00
      0.371    27.7890     7.8265     99.592 138.897237    131.525      7.220   291.4132     2.1189     2.6359     0.0663      0.002      0.364      0.529        251 1.6273e+02 0.0000e+00
      0.372    27.7859     7.8314     99.649 138.900578    131.533      7.224   292.6625     2.1149     2.5821     0.0664      0.002      0.365      0.530        252 1.6189e+02 0.0000e+00
      0.373    27.7829     7.8366     99.710 138.939734    131.593      7.224   290.7317     2.1229     2.5821     0.0664      0.003      0.366      0.531        253 1.6651e+02 0.0000e+00
      0.374    27.7797     7.8388     99.732 138.908132    131.548      7.224   291.4889     2.2119     2.8641     0.0664      0.003      0.367      0.532        254 1.6948e+02 0.0000e+00
      0.374    27.7766     7.8377     99.712 138.939913    131.608      7.227   289.9746     2.1998     2.8507     0.0664      0.003      0.367      0.533        255 1.7675e+02 0.0000e+00
      0.374    27.7735     7.8407     99.743 138.959808    131.617      7.228   290.8453     2.1998     2.8776     0.0664      0.003      0.367      0.533        256 1.8532e+02 0.0000e+00
      0.375    27.7703     7.8385     99.710 138.942998    131.625      7.228   289.8989     2.1836     2.8238     0.0664      0.002      0.368      0.534        257 1.8354e+02 0.0000e+00
      0.376    27.7671     7.8380     99.698 138.960839    131.632      7.227   290.1639     2.2159     2.8641     0.0664      0.002      0.370      0.537        258 1.8145e+02 0.0000e+00
      0.381    27.7637     7.8338     99.638 138.937610    131.640      7.230   290.3532     2.1917     2.8776     0.0664      0.003      0.373      0.542        259 2.0306e+02 0.0000e+00
      0.384    27.7607     7.8417     99.732 138.912293    131.595      7.232   290.6560     2.2159     2.8373     0.0664      0.005      0.377      0.547        260 2.3959e+02 0.0000e+00
      0.387    27.7573     7.8418     99.728 138.932733    131.656      7.234   291.4510     2.1755     2.8238     0.0664      0.007      0.381      0.552        261 2.2036e+02 0.0000e+00
      0.394    27.7541     7.8365     99.653 138.912180    131.611      7.241   291.3375     2.1917     2.8373     0.0664      0.009      0.386      0.559        262 3.4670e+02 0.0000e+00
      0.398    27.7507     7.8417     99.713 138.878260    131.619      7.245   293.2682     2.2038     2.9447     0.0664      0.012      0.389      0.564        263 5.3130e+02 0.0000e+00
      0.397    27.7472     7.8459     99.761 138.855715    131.574      7.242   292.8896     2.1957     2.8507     0.0664      0.013      0.389      0.565        264 5.3683e+02 0.0000e+00
      0.396    27.7438     7.8462     99.758 138.821007    131.582      7.231   293.9496     2.2281     2.7433     0.0664      0.012      0.388      0.563        265 5.5578e+02 0.0000e+00
      0.394    27.7404     7.8434     99.716 138.772417    131.511      7.218   293.7225     2.1836     2.8373     0.0663      0.010      0.386      0.559        266 6.4683e+02 0.0000e+00
      0.390    27.7372     7.8432     99.707 138.767147    131.546      7.205   293.3439     2.2119     2.8776     0.0664      0.006      0.383      0.555        267 5.9048e+02 0.0000e+00
      0.389    27.7338     7.8542     99.841 138.767954    131.528      7.193   293.8360     2.2119     2.7970     0.0663      0.002      0.382      0.554        268 5.6345e+02 0.0000e+00
      0.390    27.7306     7.8568     99.868 138.771419    131.563      7.193   292.9275     2.1796     2.7701     0.0664     -0.001      0.382      0.554        269 8.8258e+02 0.0000e+00
      0.390    27.7269     7.8474     99.742 138.762841    131.545      7.199   293.4196     2.2159     2.8238     0.0663     -0.004      0.382      0.554        270 6.6119e+02 0.0000e+00
      0.389    27.7234     7.8658     99.969 138.778636    131.579      7.205   292.7382     2.2240     2.8104     0.0664     -0.005      0.382      0.554        271 4.8807e+02 0.0000e+00
      0.389    27.7200     7.8681     99.992 138.781578    131.589      7.206   292.8518     2.1998     2.8776     0.0664     -0.004      0.382      0.554        272 7.2191e+02 0.0000e+00
      0.390    27.7165     7.8490     99.743 138.759186    131.570      7.211   292.6246     2.2159     2.8373     0.0664     -0.003      0.383      0.555        273 3.2521e+02 0.0000e+00
      0.392    27.7131     7.8483     99.728 138.746892    131.579      7.216   293.6468     2.3373     2.8373     0.0664     -0.000      0.385      0.558        274 1.1319e+02 0.0000e+00
      0.394    27.7093     7.8416     99.636 138.707459    131.535      7.215   293.0789     2.3332     2.8507     0.0663      0.002      0.386      0.560        275 1.5783e+02 0.0000e+00
      0.394    27.7057     7.8694     99.983 138.629414    131.490      7.206   294.3282     2.3373     2.8373     0.0663      0.002      0.386      0.560        276 1.2295e+02 0.0000e+00
      0.394    27.7024     7.8683     99.962 138.605554    131.446      7.196   293.9875     2.3251     2.9313     0.0663      0.003      0.386      0.560        277 1.3913e+02 0.0000e+00
      0.394    27.6986     7.8719    100.002 138.617924    131.508      7.191   295.1232     2.5192     2.9313     0.0663      0.003      0.386      0.560        278 1.3524e+02 0.0000e+00
      0.394    27.6951     7.8701     99.971 138.614028    131.463      7.196   294.7446     2.5030     2.7567     0.0663      0.003      0.386      0.561        279 1.5301e+02 0.0000e+00
      0.395    27.6915     7.8761    100.042 138.610411    131.526      7.203   294.9339     2.5394     2.9044     0.0663      0.002      0.387      0.562        280 1.4097e+02 0.0000e+00
      0.395    27.6877     7.8761    100.035 138.562815    131.428      7.210   295.1989     2.5152     2.8373     0.0663      0.002      0.388      0.563        281 1.3510e+02 0.0000e+00
      0.398    27.6841     7.8949    100.266 138.554031    131.490      7.221   294.7068     2.4707     2.7836     0.0663      0.002      0.390      0.566        282 1.4526e+02 0.0000e+00
      0.399    27.6805     7.9109    100.463 138.561732    131.447      7.233   295.6910     2.4545     2.7701     0.0663      0.002      0.392      0.568        283 1.8016e+02 0.0000e+00
      0.401    27.6770     7.9295    100.692 138.553239    131.509      7.241   294.4796     2.4424     2.8507     0.0663      0.003      0.393      0.570        284 1.8364e+02 0.0000e+00
      0.403    27.6735     7.9581    101.049 138.504990    131.411      7.250   294.9339     2.4586     2.8776     0.0663      0.005      0.395      0.573        285 2.2163e+02 0.0000e+00
      0.404    27.6698     7.9783    101.300 138.502551    131.473      7.252   294.7825     2.4626     2.8910     0.0663      0.006      0.396      0.575        286 2.6047e+02 0.0000e+00
      0.405    27.6660     7.9970    101.530 138.496664    131.429      7.254   295.2368     2.2766     2.9447     0.0663      0.006      0.399      0.579        287 2.7014e+02 0.0000e+00
      0.413    27.6622     8.0219    101.839 138.452706    131.438      7.256   295.4260     2.2604     2.9044     0.0663      0.008      0.404      0.586        288 1.5860e+02 0.0000e+00
      0.416    27.6586     8.0465    102.144 138.497648    131.448      7.244   295.3125     2.2523     2.8238     0.0663      0.010      0.408      0.592        289 1.9723e+02 0.0000e+00
      0.418    27.6550     8.0696    102.430 138.559977    131.563      7.233   296.4860     2.2443     2.9178     0.0663      0.011      0.418      0.606        290 6.4047e+02 0.0000e+00
      0.443    27.6511     8.0938    102.730 138.494379    131.466      7.234   296.9403     2.2887     2.9447     0.0663      0.017      0.444      0.644        291 6.4597e+02 0.0000e+00
      0.500    27.6472     8.1145    102.986 138.519673    131.528      7.226   299.8932     2.2726     2.9313     0.0663      0.036      0.485      0.703        292 3.8699e+02 0.0000e+00
      0.535    27.6435     8.1404    103.307 138.588126    131.591      7.213   299.2496     2.2726     2.8104     0.0664      0.059      0.521      0.755        293 3.5354e+02 0.0000e+00
      0.556    27.6396     8.1742    103.729 138.528436    131.548      7.208   300.4611     2.2685     2.9178     0.0663      0.078      0.550      0.796        294 3.6470e+02 0.0000e+00
      0.593    27.6359     8.2060    104.125 138.534348    131.557      7.207   300.8018     2.4626     3.0655     0.0663      0.098      0.576      0.835        295 5.0719e+02 0.0000e+00
      0.610    27.6322     8.2418    104.572 138.521159    131.567      7.198   300.6503     2.4667     3.0253     0.0663      0.110      0.597      0.866        296 4.2656e+02 0.0000e+00
      0.624    27.6282     8.2654    104.864 138.544857    131.576      7.201   302.0132     2.4626     3.0924     0.0663      0.115      0.621      0.901        297 2.9975e+02 0.0000e+00
      0.670    27.6245     8.2946    105.227 138.624099    131.692      7.198   301.5211     2.4747     3.1461     0.0664      0.119      0.660      0.957        298 2.7047e+02 0.0000e+00
      0.725    27.6207     8.3220    105.566 138.601404    131.649      7.203   302.5811     2.5152     3.0118     0.0664      0.122      0.706      1.024        299 3.1913e+02 0.0000e+00
      0.763    27.6168     8.3557    105.987 138.573111    131.658      7.204   302.0889     2.5111     3.0790     0.0664      0.123      0.743      1.079        300 4.5225e+02 0.0000e+00
      0.785    27.6129     8.3815    106.305 138.599704    131.667      7.208   302.3161     2.5516     3.0924     0.0664      0.127      0.772      1.121        301 3.1772e+02 0.0000e+00
      0.816    27.6091     8.4013    106.549 138.627936    131.730      7.208   301.6725     2.5192     3.2267     0.0664      0.132      0.803      1.166        302 2.1943e+02 0.0000e+00
      0.856    27.6049     8.4269    106.866 138.657217    131.740      7.208   303.4896     2.6001     2.8641     0.0664      0.136      0.847      1.229        303 2.3331e+02 0.0000e+00
      0.923    27.6009     8.4582    107.254 138.682507    131.803      7.199   303.7168     2.5960     2.9178     0.0664      0.150      0.905      1.312        304 2.3056e+02 0.0000e+00
      0.991    27.5971     8.5098    107.901 138.715709    131.814      7.198   305.4961     2.6001     2.8641     0.0665      0.166      0.962      1.395        305 2.7941e+02 0.0000e+00
      1.026    27.5929     8.5648    108.589 138.735144    131.877      7.197   304.6632     2.6122     2.8910     0.0665      0.171      1.003      1.455        306 2.8872e+02 0.0000e+00
      1.054    27.5892     8.6263    109.361 138.717949    131.833      7.193   304.8525     2.9317     3.6832     0.0665      0.171      1.036      1.502        307 2.5216e+02 0.0000e+00
      1.089    27.5852     8.6793    110.025 138.826544    131.977      7.187   306.2911     2.9195     3.7907     0.0665      0.174      1.076      1.561        308 2.0060e+02 0.0000e+00
      1.152    27.5810     8.7329    110.695 138.898096    132.040      7.176   306.3289     2.9115     3.6967     0.0666      0.182      1.129      1.637        309 1.6660e+02 0.0000e+00
      1.212    27.5768     8.8000    111.537 138.897194    132.050      7.169   308.8275     2.9357     3.7772     0.0666      0.188      1.179      1.710        310 1.5462e+02 0.0000e+00
      1.238    27.5725     8.8503    112.166 138.946915    132.114      7.164   306.5182     3.0368     4.2741     0.0666      0.182      1.211      1.757        311 1.5087e+02 0.0000e+00
      1.254    27.5683     8.8856    112.604 139.015084    132.178      7.165   306.4425     3.0409     4.3412     0.0666      0.166      1.237      1.795        312 1.3297e+02 0.0000e+00
      1.294    27.5642     8.9176    113.000 139.110458    132.296      7.162   306.3289     3.0651     4.4352     0.0667      0.156      1.281      1.859        313 1.1584e+02 0.0000e+00
      1.372    27.5599     8.9493    113.392 139.275372    132.440      7.153   308.6004     3.0368     4.4218     0.0667      0.165      1.357      1.968        314 1.0461e+02 0.0000e+00
      1.488    27.5556     8.9849    113.834 139.435862    132.637      7.135   320.6768     3.1015     4.9320     0.0668      0.190      1.452      2.106        315 9.0966e+01 0.0000e+00
      1.580    27.5512     9.0175    114.237 139.506937    132.675      7.122   330.9740     3.0894     4.9320     0.0668      0.219      1.534      2.225        316 8.5922e+01 0.0000e+00
      1.623    27.5469     9.0418    114.535 139.663891    132.872      7.115   310.6825     3.1177     5.0395     0.0669      0.236      1.587      2.302        317 8.3719e+01 0.0000e+00
      1.654    27.5427     9.0603    114.759 139.806937    132.991      7.111   305.2689     3.0853     4.9589     0.0670      0.246      1.631      2.366        318 8.1166e+01 0.0000e+00
      1.716    27.5381     9.0736    114.916 139.984754    133.189      7.102   307.5025     3.1055     5.1469     0.0671      0.260      1.691      2.452        319 7.4760e+01 0.0000e+00
      1.807    27.5335     9.0877    115.084 140.217686    133.413      7.087   312.2725     3.1015     5.2812     0.0672      0.273      1.759      2.551        320 6.9189e+01 0.0000e+00
      1.855    27.5293     9.0891    115.091 140.321961    133.532      7.070   307.0104     3.1217     5.1872     0.0672      0.267      1.807      2.620        321 6.9104e+01 0.0000e+00
      1.861    27.5247     9.0901    115.092 140.481028    133.677      7.061   307.6918     3.1096     5.1603     0.0673      0.236      1.833      2.658        322 6.8106e+01 0.0000e+00
      1.893    27.5199     9.0864    115.035 140.705399    133.929      7.053   308.0325     2.7740     4.8112     0.0674      0.201      1.868      2.710        323 6.4536e+01 0.0000e+00
      1.964    27.5152     9.0902    115.071 140.847655    134.047      7.039   309.1682     2.7295     4.8246     0.0675      0.190      1.923      2.790        324 6.1562e+01 0.0000e+00
      2.026    27.5104     9.1070    115.272 140.989672    134.220      7.030   308.5247     2.7457     4.8515     0.0675      0.193      1.976      2.866        325 5.9959e+01 0.0000e+00
      2.052    27.5055     9.1363    115.629 141.124911    134.339      7.023   309.3197     2.7052     4.8380     0.0676      0.188      2.009      2.914        326 5.9861e+01 0.0000e+00
      2.070    27.5008     9.1605    115.923 141.305418    134.538      7.020   308.8275     2.7982     4.8515     0.0677      0.170      2.030      2.944        327 5.8984e+01 0.0000e+00
      2.090    27.4957     9.1946    116.343 141.480543    134.711      7.011   308.8275     2.7699     4.7306     0.0678      0.150      2.047      2.969        328 5.8118e+01 0.0000e+00
      2.100    27.4904     9.2239    116.701 141.592672    134.831      7.009   309.3197     2.7901     4.7709     0.0678      0.138      2.058      2.986        329 5.8153e+01 0.0000e+00
      2.107    27.4852     9.2560    117.094 141.791956    135.031      7.008   308.1839     2.8023     4.7038     0.0679      0.124      2.066      2.997        330 5.7783e+01 0.0000e+00
      2.113    27.4799     9.2858    117.457 142.037504    135.286      7.006   308.6382     2.7578     4.7575     0.0680      0.098      2.073      3.007        331 5.7549e+01 0.0000e+00
      2.122    27.4742     9.3179    117.850 142.211317    135.460      7.003   308.3354     2.8508     4.8649     0.0681      0.068      2.083      3.021        332 5.7060e+01 0.0000e+00
      2.136    27.4687     9.3444    118.171 142.350814    135.607      7.001   309.5847     2.8427     4.7977     0.0682      0.049      2.098      3.043        333 5.6116e+01 0.0000e+00
      2.160    27.4632     9.3694    118.474 142.579449    135.836      6.999   309.5468     2.8589     4.7843     0.0683      0.046      2.126      3.083        334 5.3938e+01 0.0000e+00
      2.210    27.4572     9.3971    118.809 142.851040    136.118      6.990   311.6668     2.8427     4.8380     0.0684      0.056      2.167      3.143        335 5.1885e+01 0.0000e+00
      2.260    27.4509     9.4268    119.170 142.996718    136.266      6.980   311.3639     2.7901     4.6098     0.0685      0.074      2.210      3.206        336 5.1245e+01 0.0000e+00
      2.291    27.4448     9.4496    119.443 143.203171    136.469      6.972   311.5154     2.7618     4.5829     0.0685      0.095      2.244      3.255        337 5.0108e+01 0.0000e+00
      2.314    27.4391     9.4667    119.645 143.428953    136.726      6.968   310.3797     2.7901     4.5695     0.0687      0.112      2.269      3.290        338 4.9353e+01 0.0000e+00
      2.335    27.4329     9.4823    119.826 143.610213    136.876      6.963   312.0075     2.7780     4.6098     0.0687      0.123      2.293      3.325        339 4.8534e+01 0.0000e+00
      2.364    27.4265     9.4966    119.991 143.872082    137.186      6.958   310.3418     2.6648     4.3278     0.0689      0.128      2.322      3.367        340 4.6531e+01 0.0000e+00
      2.404    27.4200     9.5133    120.185 144.116822    137.390      6.948   311.5532     2.6607     4.3949     0.0690      0.130      2.356      3.418        341 4.5402e+01 0.0000e+00
      2.439    27.4137     9.5263    120.332 144.379045    137.701      6.939   310.6825     2.6607     4.4218     0.0691      0.128      2.391      3.468        342 4.4682e+01 0.0000e+00
      2.472    27.4071     9.5471    120.578 144.589353    137.879      6.936   310.5689     2.6729     4.4083     0.0692      0.122      2.423      3.514        343 4.3725e+01 0.0000e+00
      2.500    27.4003     9.5684    120.831 144.809261    138.137      6.930   312.5754     2.6769     4.6635     0.0693      0.119      2.454      3.559        344 4.2538e+01 0.0000e+00
      2.535    27.3937     9.5954    121.153 145.119185    138.422      6.922   311.0232     2.6527     4.5023     0.0694      0.123      2.488      3.609        345 4.0619e+01 0.0000e+00
      2.579    27.3865     9.6190    121.434 145.366570    138.708      6.914   313.8625     2.6527     4.5963     0.0696      0.131      2.522      3.658        346 3.9615e+01 0.0000e+00
      2.599    27.3796     9.6430    121.719 145.545048    138.860      6.897   312.2347     2.6607     4.6769     0.0696      0.132      2.545      3.689        347 3.9567e+01 0.0000e+00
      2.605    27.3725     9.6485    121.770 145.791647    139.147      6.893   313.9004     2.7699     4.6366     0.0697      0.124      2.557      3.707        348 3.9260e+01 0.0000e+00
      2.617    27.3649     9.6705    122.029 146.013902    139.353      6.889   313.7111     2.7578     4.5023     0.0698      0.110      2.568      3.724        349 3.9080e+01 0.0000e+00
      2.631    27.3574     9.6749    122.066 146.252505    139.614      6.890   314.0518     2.7618     4.5158     0.0700      0.096      2.586      3.750        350 3.8183e+01 0.0000e+00
      2.664    27.3496     9.6791    122.100 146.538413    139.902      6.890   314.2032     2.7861     4.4486     0.0701      0.088      2.613      3.789        351 3.7031e+01 0.0000e+00
      2.696    27.3419     9.6928    122.252 146.791270    140.164      6.882   314.2032     2.7012     4.5829     0.0702      0.084      2.644      3.834        352 3.6203e+01 0.0000e+00
      2.728    27.3341     9.7082    122.426 146.981556    140.373      6.878   313.1054     2.7133     4.5560     0.0703      0.084      2.674      3.879        353 3.5133e+01 0.0000e+00
      2.758    27.3261     9.7241    122.607 147.166420    140.554      6.868   314.5061     2.6891     4.5829     0.0704      0.087      2.701      3.917        354 3.4730e+01 0.0000e+00
      2.774    27.3180     9.7433    122.829 147.396215    140.817      6.854   312.4618     2.7214     4.5963     0.0705      0.095      2.724      3.951        355 3.4038e+01 0.0000e+00
      2.803    27.3098     9.7718    123.168 147.649880    141.053      6.844   314.3547     2.7416     4.5829     0.0706      0.104      2.749      3.988        356 3.2835e+01 0.0000e+00
      2.836    27.3015     9.7980    123.476 147.894515    141.344      6.841   313.3704     2.7133     4.5695     0.0707      0.110      2.774      4.024        357 3.2495e+01 0.0000e+00
      2.846    27.2930     9.8264    123.814 148.075914    141.500      6.837   313.4461     2.7174     4.5426     0.0708      0.107      2.788      4.044        358 3.2488e+01 0.0000e+00
      2.847    27.2844     9.8570    124.177 148.259173    141.737      6.835   313.9382     2.7174     4.5560     0.0709      0.094      2.792      4.049        359 3.2432e+01 0.0000e+00
      2.848    27.2757     9.8822    124.474 148.441858    141.895      6.842   313.7868     2.3939     4.3546     0.0710      0.078      2.795      4.053        360 3.2400e+01 0.0000e+00
      2.853    27.2667     9.9075    124.769 148.713448    142.214      6.844   314.3925     2.4262     4.3412     0.0711      0.062      2.807      4.071        361 3.1456e+01 0.0000e+00
      2.890    27.2575     9.9248    124.964 148.935191    142.426      6.841   314.8847     2.3858     4.3412     0.0712      0.056      2.830      4.104        362 3.0810e+01 0.0000e+00
      2.909    27.2484     9.9367    125.092 149.179920    142.692      6.837   316.4747     2.4100     4.3815     0.0713      0.054      2.851      4.134        363 3.0657e+01 0.0000e+00
      2.918    27.2394     9.9530    125.274 149.393093    142.932      6.838   316.5125     2.2887     4.2741     0.0715      0.050      2.872      4.165        364 2.9491e+01 0.0000e+00
      2.963    27.2303     9.9711    125.479 149.534821    143.065      6.834   317.6104     2.2564     4.2741     0.0715      0.058      2.904      4.213        365 2.8323e+01 0.0000e+00
      3.002    27.2208     9.9903    125.697 149.749175    143.331      6.831   316.6640     2.2685     4.3546     0.0716      0.076      2.939      4.263        366 2.7770e+01 0.0000e+00
      3.024    27.2111    10.0077    125.893 149.961447    143.518      6.831   316.9290     2.2483     4.2741     0.0717      0.093      2.968      4.305        367 2.7123e+01 0.0000e+00
      3.057    27.2016    10.0263    126.102 150.195250    143.813      6.826   315.0361     2.1310     4.3278     0.0719      0.106      2.997      4.347        368 2.6231e+01 0.0000e+00
      3.090    27.1919    10.0425    126.281 150.323168    143.921      6.822   317.2697     2.1229     4.3412     0.0719      0.115      3.024      4.387        369 2.5761e+01 0.0000e+00
      3.106    27.1820    10.0637    126.522 150.488266    144.135      6.816   316.0582     2.1149     4.2875     0.0720      0.114      3.044      4.416        370 2.5480e+01 0.0000e+00
      3.120    27.1717    10.0797    126.698 150.675805    144.324      6.811   316.5504     2.1472     4.4083     0.0721      0.112      3.059      4.437        371 2.5211e+01 0.0000e+00
      3.132    27.1615    10.1015    126.947 150.865278    144.540      6.809   315.9825     1.7469     3.7101     0.0722      0.105      3.073      4.457        372 2.4867e+01 0.0000e+00
      3.148    27.1514    10.1128    127.063 151.027978    144.730      6.813   316.8532     1.7428     3.6832     0.0723      0.090      3.091      4.483        373 2.4198e+01 0.0000e+00
      3.177    27.1412    10.1358    127.326 151.219018    144.920      6.812   315.9068     1.7428     3.7504     0.0723      0.082      3.117      4.520        374 2.3471e+01 0.0000e+00
      3.209    27.1311    10.1501    127.479 151.462711    145.217      6.815   317.5725     1.7509     3.7235     0.0725      0.081      3.144      4.558        375 2.3051e+01 0.0000e+00
      3.228    27.1206    10.1735    127.748 151.589717    145.327      6.812   316.6640     1.9369     3.9249     0.0725      0.079      3.164      4.588        376 2.2885e+01 0.0000e+00
      3.240    27.1099    10.1909    127.940 151.747013    145.543      6.810   317.4590     1.9450     4.0055     0.0726      0.078      3.179      4.610        377 2.2444e+01 0.0000e+00
      3.258    27.0993    10.2099    128.152 151.893361    145.681      6.810   317.7618     1.9410     3.9115     0.0727      0.080      3.196      4.635        378 2.1901e+01 0.0000e+00
      3.280    27.0884    10.2265    128.331 152.063828    145.899      6.807   318.5190     1.9491     3.9518     0.0728      0.082      3.216      4.665        379 2.1612e+01 0.0000e+00
      3.300    27.0770    10.2264    128.303 152.250772    146.091      6.804   318.2540     1.9572     3.9518     0.0729      0.083      3.237      4.696        380 2.1196e+01 0.0000e+00
      3.325    27.0660    10.2431    128.485 152.466104    146.337      6.801   318.5947     2.0178     3.7772     0.0730      0.082      3.260      4.729        381 2.0630e+01 0.0000e+00
      3.348    27.0550    10.2472    128.508 152.631079    146.531      6.795   317.8754     2.0259     3.7369     0.0731      0.080      3.280      4.758        382 2.0490e+01 0.0000e+00
      3.359    27.0433    10.2477    128.486 152.791212    146.697      6.788   318.3675     2.0259     3.7369     0.0731      0.077      3.296      4.781        383 2.0214e+01 0.0000e+00
      3.377    27.0318    10.2460    128.437 152.952919    146.917      6.786   318.8975     1.9733     3.6967     0.0732      0.077      3.314      4.807        384 1.9748e+01 0.0000e+00
      3.401    27.0204    10.2475    128.426 153.056281    147.004      6.784   318.7083     1.8763     3.3744     0.0733      0.079      3.337      4.839        385 1.9413e+01 0.0000e+00
      3.429    27.0092    10.2426    128.335 153.259200    147.279      6.779   319.1625     1.9005     3.3072     0.0734      0.081      3.364      4.879        386 1.8769e+01 0.0000e+00
      3.462    26.9978    10.2445    128.330 153.416333    147.420      6.773   320.0711     1.8803     3.2938     0.0735      0.085      3.389      4.916        387 1.8430e+01 0.0000e+00
      3.475    26.9858    10.2466    128.328 153.546849    147.614      6.762   319.9954     1.8884     3.3475     0.0736      0.086      3.403      4.937        388 1.8535e+01 0.0000e+00
      3.476    26.9735    10.2418    128.239 153.693408    147.754      6.759   320.6011     1.5892     2.2062     0.0736      0.081      3.408      4.943        389 1.8522e+01 0.0000e+00
      3.476    26.9616    10.2540    128.362 153.890242    148.005      6.756   320.0711     1.6175     2.2196     0.0737      0.073      3.409      4.944        390 1.8472e+01 0.0000e+00
      3.476    26.9497    10.2667    128.490 153.958196    148.094      6.753   319.5790     1.6215     2.3002     0.0738      0.063      3.410      4.945        391 1.8503e+01 0.0000e+00
      3.478    26.9374    10.2949    128.813 154.056329    148.209      6.753   319.8818     1.6175     2.2733     0.0738      0.048      3.411      4.947        392 1.8556e+01 0.0000e+00
      3.480    26.9250    10.3199    129.094 154.215610    148.432      6.752   319.1625     1.5407     2.1524     0.0739      0.032      3.413      4.950        393 1.8587e+01 0.0000e+00
      3.482    26.9129    10.3455    129.384 154.267133    148.467      6.753   318.9733     1.5447     2.1122     0.0739      0.018      3.414      4.952        394 1.8606e+01 0.0000e+00
      3.483    26.9002    10.3792    129.774 154.409877    148.692      6.752   319.2761     1.5649     2.1122     0.0740      0.007      3.415      4.955        395 1.8616e+01 0.0000e+00
      3.486    26.8873    10.4160    130.204 154.485466    148.754      6.751   319.4654     1.5447     2.0987     0.0741      0.005      3.418      4.958        396 1.8713e+01 0.0000e+00
      3.487    26.8748    10.4519    130.620 154.650399    148.980      6.747   320.2604     1.6701     2.3136     0.0742      0.006      3.420      4.960        397 1.8810e+01 0.0000e+00
      3.489    26.8623    10.4766    130.897 154.771457    149.126      6.748   320.5254     1.6781     2.1927     0.0742      0.007      3.423      4.963        398 1.8922e+01 0.0000e+00
      3.491    26.8497    10.5051    131.222 154.841984    149.216      6.747   319.8061     1.6781     2.1927     0.0743      0.007      3.428      4.972        399 1.8929e+01 0.0000e+00
      3.505    26.8366    10.5188    131.359 155.039975    149.468      6.747   320.8661     1.6741     2.2733     0.0744      0.011      3.444      4.996        400 1.8543e+01 0.0000e+00
      3.541    26.8235    10.5350    131.530 155.151572    149.586      6.742   322.1533     1.7631     2.7164     0.0744      0.022      3.473      5.038        401 1.8120e+01 0.0000e+00
      3.578    26.8105    10.5537    131.730 155.269955    149.759      6.735   322.1533     1.7428     2.7433     0.0745      0.039      3.505      5.084        402 1.7834e+01 0.0000e+00
      3.603    26.7970    10.5649    131.837 155.399840    149.906      6.731   322.0775     1.7671     2.7164     0.0746      0.057      3.531      5.122        403 1.7719e+01 0.0000e+00
      3.622    26.7836    10.5847    132.052 155.556790    150.106      6.726   321.0933     1.7671     2.5687     0.0747      0.073      3.556      5.158        404 1.7550e+01 0.0000e+00
      3.654    26.7705    10.6079    132.307 155.701162    150.281      6.720   320.8661     1.7550     2.7298     0.0747      0.089      3.587      5.203        405 1.6926e+01 0.0000e+00
      3.700    26.7572    10.6332    132.589 155.816872    150.428      6.711   321.6233     1.7428     2.7567     0.0748      0.106      3.622      5.253        406 1.6527e+01 0.0000e+00
      3.725    26.7437    10.6632    132.928 155.919994    150.575      6.703   321.7368     1.7752     2.7030     0.0749      0.117      3.648      5.291        407 1.6567e+01 0.0000e+00
      3.735    26.7302    10.6960    133.302 156.050200    150.722      6.699   321.2447     1.7590     2.7030     0.0749      0.116      3.664      5.314        408 1.6442e+01 0.0000e+00
      3.751    26.7166    10.7242    133.619 156.251546    150.979      6.696   321.8883     1.6337     1.9376     0.0751      0.107      3.677      5.334        409 1.6178e+01 0.0000e+00
      3.764    26.7026    10.7460    133.855 156.355642    151.100      6.698   321.5854     1.6134     1.8167     0.0751      0.097      3.690      5.352        410 1.6191e+01 0.0000e+00
      3.772    26.6888    10.7709    134.130 156.487540    151.275      6.694   322.8726     1.6418     1.9376     0.0752      0.087      3.701      5.368        411 1.6150e+01 0.0000e+00
      3.787    26.6748    10.7896    134.328 156.594622    151.426      6.692   323.3647     1.6256     1.8973     0.0753      0.076      3.719      5.393        412 1.5861e+01 0.0000e+00
      3.817    26.6609    10.8132    134.586 156.669934    151.520      6.691   323.8568     1.6984     1.6153     0.0753      0.068      3.746      5.433        413 1.5558e+01 0.0000e+00
      3.856    26.6472    10.8378    134.855 156.811536    151.724      6.687   323.7054     1.6984     1.7630     0.0754      0.067      3.779      5.481        414 1.5222e+01 0.0000e+00
      3.888    26.6332    10.8504    134.975 156.895795    151.820      6.682   324.9926     1.6862     1.6690     0.0754      0.076      3.810      5.526        415 1.5090e+01 0.0000e+00
      3.910    26.6190    10.8838    135.354 157.012637    151.996      6.681   324.5004     1.6781     1.6422     0.0755      0.088      3.837      5.565        416 1.4910e+01 0.0000e+00
      3.941    26.6043    10.9038    135.566 157.143527    152.146      6.675   325.1440     1.6013     1.6288     0.0756      0.098      3.866      5.607        417 1.4558e+01 0.0000e+00
      3.976    26.5900    10.9377    135.950 157.299815    152.352      6.667   323.3268     1.6175     1.8033     0.0757      0.109      3.895      5.649        418 1.4325e+01 0.0000e+00
      3.998    26.5756    10.9618    136.211 157.414890    152.504      6.662   323.2511     1.6094     1.6153     0.0757      0.116      3.919      5.684        419 1.4179e+01 0.0000e+00
      4.014    26.5610    10.9810    136.411 157.507563    152.628      6.659   322.7968     1.6418     1.6288     0.0758      0.114      3.936      5.709        420 1.4062e+01 0.0000e+00
      4.028    26.5464    10.9987    136.594 157.691733    152.861      6.658   323.9326     1.6903     1.6959     0.0759      0.105      3.954      5.735        421 1.3885e+01 0.0000e+00
      4.053    26.5316    11.0100    136.695 157.812292    153.014      6.655   323.9326     1.6862     1.6959     0.0760      0.096      3.978      5.770        422 1.3514e+01 0.0000e+00
      4.089    26.5168    11.0152    136.721 157.864786    153.112      6.650   325.3333     1.7105     1.6422     0.0760      0.094      4.007      5.811        423 1.3262e+01 0.0000e+00
      4.113    26.5016    11.0186    136.724 157.984480    153.265      6.642   324.8411     1.6862     1.6690     0.0761      0.094      4.033      5.849        424 1.3135e+01 0.0000e+00
      4.135    26.4867    11.0253    136.768 158.110923    153.445      6.640   325.9768     1.5487     1.4273     0.0762      0.092      4.057      5.885        425 1.2848e+01 0.0000e+00
      4.166    26.4718    11.0330    136.824 158.184858    153.545      6.639   326.3933     1.5528     1.4676     0.0762      0.093      4.085      5.925        426 1.2524e+01 0.0000e+00
      4.197    26.4567    11.0438    136.918 158.340063    153.753      6.633   327.2640     1.5204     1.4408     0.0763      0.100      4.114      5.968        427 1.2305e+01 0.0000e+00
      4.224    26.4415    11.0602    137.082 158.514557    153.962      6.623   326.7340     1.5811     1.4676     0.0764      0.106      4.141      6.006        428 1.2134e+01 0.0000e+00
      4.246    26.4254    11.0812    137.301 158.594328    154.089      6.615   327.2261     1.8237     1.4542     0.0764      0.108      4.163      6.037        429 1.1950e+01 0.0000e+00
      4.264    26.4100    11.1042    137.547 158.748067    154.271      6.606   326.2040     1.8116     1.5213     0.0765      0.105      4.178      6.059        430 1.1953e+01 0.0000e+00
      4.269    26.3948    11.1372    137.913 158.830513    154.429      6.601   325.1061     1.8116     1.4273     0.0766      0.095      4.185      6.069        431 1.1952e+01 0.0000e+00
      4.268    26.3791    11.1735    138.322 158.909495    154.502      6.593   325.3711     1.8278     1.4676     0.0766      0.083      4.186      6.072        432 1.1893e+01 0.0000e+00
      4.270    26.3635    11.2101    138.734 159.097385    154.794      6.589   324.5004     1.6984     1.4945     0.0768      0.067      4.187      6.073        433 1.1948e+01 0.0000e+00
      4.271    26.3477    11.2364    139.017 159.163652    154.842      6.590   324.9926     1.7024     1.4676     0.0768      0.049      4.191      6.078        434 1.1910e+01 0.0000e+00
      4.279    26.3319    11.2581    139.244 159.274641    155.053      6.588   325.8633     1.7145     1.4542     0.0769      0.034      4.204      6.098        435 1.1616e+01 0.0000e+00
      4.314    26.3156    11.2811    139.486 159.347200    155.128      6.586   325.5604     1.6943     1.5482     0.0769      0.031      4.229      6.134        436 1.1374e+01 0.0000e+00
      4.343    26.2995    11.3003    139.681 159.491132    155.340      6.577   325.5226     1.6620     1.4945     0.0770      0.037      4.254      6.170        437 1.1297e+01 0.0000e+00
      4.355    26.2834    11.3168    139.841 159.662501    155.554      6.573   325.9768     1.7509     1.2662     0.0771      0.045      4.272      6.195        438 1.1146e+01 0.0000e+00
      4.371    26.2673    11.3307    139.970 159.760599    155.685      6.572   325.8254     1.7792     1.2259     0.0772      0.056      4.291      6.223        439 1.0955e+01 0.0000e+00
      4.401    26.2510    11.3474    140.133 159.876359    155.870      6.569   326.6583     1.7469     1.3065     0.0772      0.070      4.321      6.267        440 1.0662e+01 0.0000e+00
      4.447    26.2344    11.3642    140.296 159.936232    155.947      6.564   327.3776     1.7469     1.2796     0.0773      0.086      4.361      6.325        441 1.0296e+01 0.0000e+00
      4.493    26.2179    11.3855    140.515 160.103885    156.188      6.556   327.4911     1.7671     1.5482     0.0774      0.104      4.398      6.378        442 1.0149e+01 0.0000e+00
      4.508    26.2015    11.4036    140.693 160.175037    156.295      6.547   326.8476     1.7752     1.4676     0.0774      0.112      4.419      6.409        443 1.0105e+01 0.0000e+00
      4.519    26.1848    11.4252    140.916 160.235644    156.399      6.545   328.1347     1.7711     1.3871     0.0775      0.109      4.434      6.431        444 9.9419e+00 0.0000e+00
      4.540    26.1681    11.4546    141.232 160.386582    156.615      6.545   326.7340     1.7469     1.4945     0.0776      0.108      4.451      6.455        445 9.7962e+00 0.0000e+00
      4.555    26.1515    11.4805    141.507 160.464683    156.721      6.542   326.8854     1.5568     1.5348     0.0776      0.105      4.467      6.479        446 9.6973e+00 0.0000e+00
      4.571    26.1347    11.5085    141.807 160.586096    156.909      6.545   326.6583     1.5690     1.4139     0.0777      0.097      4.484      6.504        447 9.5634e+00 0.0000e+00
      4.592    26.1174    11.5387    142.131 160.653294    157.015      6.543   325.9011     1.5811     1.4273     0.0777      0.085      4.504      6.531        448 9.4257e+00 0.0000e+00
      4.612    26.1004    11.5661    142.422 160.769025    157.176      6.543   326.9611     1.5609     1.3871     0.0778      0.073      4.523      6.560        449 9.2753e+00 0.0000e+00
      4.631    26.0834    11.5978    142.767 160.859882    157.340      6.543   327.1126     1.4881     1.4139     0.0779      0.068      4.542      6.587        450 9.1802e+00 0.0000e+00
      4.650    26.0662    11.6274    143.084 160.898357    157.392      6.542   327.3019     1.4800     1.4408     0.0779      0.071      4.560      6.613        451 9.0872e+00 0.0000e+00
      4.667    26.0487    11.6524    143.345 161.019598    157.610      6.543   327.2640     1.4800     1.5348     0.0780      0.073      4.577      6.638        452 8.9454e+00 0.0000e+00
      4.683    26.0309    11.6755    143.581 161.037292    157.635      6.541   327.1504     1.5002     1.4273     0.0780      0.072      4.597      6.667        453 8.7595e+00 0.0000e+00
      4.713    26.0139    11.6986    143.818 161.144947    157.826      6.540   328.2861     1.3587     1.4676     0.0781      0.075      4.626      6.710        454 8.3966e+00 0.0000e+00
      4.759    25.9961    11.7238    144.078 161.213922    157.938      6.531   328.7783     1.3627     1.4273     0.0782      0.085      4.660      6.758        455 8.2105e+00 0.0000e+00
      4.779    25.9785    11.7458    144.300 161.249912    158.017      6.523   328.7783     1.3587     1.4676     0.0782      0.091      4.685      6.796        456 8.1551e+00 0.0000e+00
      4.797    25.9610    11.7692    144.540 161.368776    158.211      6.520   329.7247     1.3587     1.4408     0.0783      0.095      4.707      6.828        457 7.9662e+00 0.0000e+00
      4.826    25.9425    11.7918    144.767 161.334616    158.210      6.516   328.8540     1.1323     1.4273     0.0783      0.099      4.734      6.866        458 7.8081e+00 0.0000e+00
      4.856    25.9246    11.8160    145.014 161.441675    158.375      6.512   330.0276     1.1080     1.4542     0.0783      0.104      4.765      6.911        459 7.5818e+00 0.0000e+00
      4.896    25.9067    11.8455    145.325 161.534006    158.542      6.510   330.1790     1.1080     1.4139     0.0784      0.111      4.795      6.956        460 7.4072e+00 0.0000e+00
      4.917    25.8887    11.8680    145.551 161.518175    158.543      6.509   329.9897     1.0635     1.4676     0.0784      0.113      4.820      6.991        461 7.3331e+00 0.0000e+00
      4.934    25.8706    11.8952    145.835 161.640472    158.764      6.506   330.1033     1.3708     1.5482     0.0785      0.108      4.839      7.019        462 7.2287e+00 0.0000e+00
      4.954    25.8526    11.9126    145.997 161.680274    158.820      6.504   329.9519     1.3668     1.5079     0.0785      0.102      4.858      7.046        463 7.1344e+00 0.0000e+00
      4.972    25.8342    11.9478    146.378 161.707422    158.932      6.503   329.8004     1.3627     1.4945     0.0786      0.099      4.880      7.078        464 6.9941e+00 0.0000e+00
      5.007    25.8152    11.9758    146.668 161.755940    159.016      6.502   329.9519     1.3830     1.4945     0.0786      0.099      4.906      7.116        465 6.8699e+00 0.0000e+00
      5.027    25.7968    11.9953    146.856 161.828835    159.157      6.499   328.6269     1.2374     1.2931     0.0787      0.094      4.929      7.149        466 6.7693e+00 0.0000e+00
      5.043    25.7786    12.0189    147.092 161.825649    159.216      6.498   329.2326     1.2374     1.2931     0.0787      0.089      4.951      7.180        467 6.6183e+00 0.0000e+00
      5.076    25.7598    12.0384    147.279 161.819634    159.246      6.502   328.7404     1.2536     1.3871     0.0787      0.087      4.980      7.222        468 6.4632e+00 0.0000e+00
      5.114    25.7409    12.0621    147.516 161.896049    159.414      6.500   329.4976     1.2495     1.2931     0.0788      0.095      5.010      7.267        469 6.3383e+00 0.0000e+00
      5.136    25.7217    12.0837    147.725 161.879809    159.418      6.498   328.8540     1.1080     1.2393     0.0788      0.100      5.034      7.302        470 6.2696e+00 0.0000e+00
      5.151    25.7028    12.1017    147.893 161.959258    159.588      6.497   329.8761     1.1161     1.2662     0.0789      0.101      5.054      7.331        471 6.1218e+00 0.0000e+00
      5.178    25.6840    12.1143    147.993 161.976274    159.649      6.495   331.3904     1.1080     1.3333     0.0789      0.101      5.076      7.363        472 6.0047e+00 0.0000e+00
      5.198    25.6650    12.1332    148.170 161.978047    159.708      6.495   330.6711     1.0797     1.2393     0.0789      0.097      5.100      7.397        473 5.9326e+00 0.0000e+00
      5.226    25.6457    12.1585    148.426 162.016783    159.823      6.492   331.8069     1.2050     1.2931     0.0790      0.098      5.127      7.436        474 5.7873e+00 0.0000e+00
      5.261    25.6259    12.1810    148.646 162.047484    159.883      6.489   331.7690     1.2253     1.2528     0.0790      0.100      5.153      7.474        475 5.7439e+00 0.0000e+00
      5.273    25.6068    12.2055    148.889 162.118941    160.055      6.481   331.3904     1.2374     1.3468     0.0791      0.095      5.172      7.501        476 5.6970e+00 0.0000e+00
      5.289    25.5873    12.2320    149.156 162.106959    160.062      6.481   330.1790     1.2455     1.2528     0.0791      0.090      5.191      7.528        477 5.6028e+00 0.0000e+00
      5.318    25.5679    12.2579    149.416 162.151972    160.205      6.477   330.1790     1.0433     1.0916     0.0791      0.091      5.213      7.560        478 5.5638e+00 0.0000e+00
      5.337    25.5485    12.2924    149.782 162.212184    160.295      6.478   329.0433     1.0473     1.0379     0.0792      0.091      5.233      7.589        479 5.4975e+00 0.0000e+00
      5.354    25.5284    12.3162    150.014 162.211127    160.384      6.479   330.1790     1.0352     1.0245     0.0792      0.087      5.250      7.614        480 5.4455e+00 0.0000e+00
      5.368    25.5088    12.3511    150.384 162.213018    160.418      6.479   329.2326     1.0352     0.9842     0.0792      0.082      5.263      7.634        481 5.4394e+00 0.0000e+00
      5.377    25.4889    12.3865    150.755 162.239720    160.538      6.481   331.7311     1.0595     0.9976     0.0793      0.074      5.278      7.656        482 5.3895e+00 0.0000e+00
      5.405    25.4689    12.4221    151.132 162.237630    160.572      6.480   331.0876     1.0069     1.0648     0.0793      0.071      5.302      7.689        483 5.2845e+00 0.0000e+00
      5.436    25.4491    12.4493    151.404 162.245507    160.664      6.475   332.3747     1.0473     0.9708     0.0793      0.075      5.329      7.729        484 5.2375e+00 0.0000e+00
      5.458    25.4292    12.4821    151.745 162.289649    160.755      6.475   331.8826     1.0473     0.9171     0.0794      0.078      5.356      7.769        485 5.1440e+00 0.0000e+00
      5.494    25.4090    12.4951    151.845 162.302117    160.846      6.467   333.7754     1.0352     1.2528     0.0794      0.083      5.385      7.810        486 5.0736e+00 0.0000e+00
      5.518    25.3881    12.5392    152.321 162.349412    160.937      6.467   333.3590     1.0312     1.2528     0.0794      0.091      5.409      7.845        487 5.0628e+00 0.0000e+00
      5.534    25.3678    12.5643    152.567 162.409898    161.085      6.467   334.0026     1.0352     1.2393     0.0795      0.095      5.430      7.876        488 4.9882e+00 0.0000e+00
      5.561    25.3476    12.5859    152.770 162.376108    161.097      6.467   331.8069     1.0109     1.2528     0.0795      0.100      5.455      7.912        489 4.9214e+00 0.0000e+00
      5.590    25.3270    12.5996    152.875 162.391511    161.189      6.470   334.0404     1.0150     1.0916     0.0796      0.103      5.486      7.958        490 4.7735e+00 0.0000e+00
      5.635    25.3065    12.6106    152.950 162.420620    161.282      6.465   333.0940     1.0150     1.0111     0.0796      0.106      5.525      8.013        491 4.6562e+00 0.0000e+00
      5.677    25.2852    12.6215    153.021 162.459305    161.376      6.459   334.0404     1.0352     1.0111     0.0796      0.113      5.562      8.066        492 4.6308e+00 0.0000e+00
      5.701    25.2644    12.6319    153.086 162.522478    161.525      6.459   332.1854     1.0231     1.0514     0.0797      0.118      5.589      8.105        493 4.5704e+00 0.0000e+00
      5.719    25.2436    12.6352    153.066 162.491269    161.538      6.460   332.4126     1.0271     0.9842     0.0797      0.118      5.610      8.135        494 4.4897e+00 0.0000e+00
      5.739    25.2230    12.6402    153.066 162.528036    161.661      6.460   331.9961     1.0352     1.0514     0.0798      0.118      5.630      8.165        495 4.4621e+00 0.0000e+00
      5.763    25.2022    12.6547    153.181 162.596144    161.784      6.460   333.2833     1.0271     0.9976     0.0798      0.116      5.658      8.205        496 4.3804e+00 0.0000e+00
      5.806    25.1805    12.6699    153.301 162.585620    161.850      6.456   334.0026     1.0473     1.0782     0.0798      0.114      5.693      8.257        497 4.2341e+00 0.0000e+00
      5.847    25.1594    12.6917    153.504 162.600870    161.917      6.445   334.9490     1.0352     0.9842     0.0799      0.115      5.726      8.306        498 4.1945e+00 0.0000e+00
      5.861    25.1384    12.7207    153.793 162.636903    162.044      6.444   335.7440     1.0312     1.1319     0.0799      0.109      5.748      8.337        499 4.1689e+00 0.0000e+00
      5.878    25.1171    12.7545    154.140 162.660203    162.112      6.445   334.7219     1.0352     1.0379     0.0800      0.105      5.766      8.364        500 4.1101e+00 0.0000e+00
      5.902    25.0957    12.7722    154.291 162.691299    162.236      6.446   334.8354     1.0190     1.0648     0.0800      0.105      5.788      8.395        501 4.0476e+00 0.0000e+00
      5.926    25.0739    12.7890    154.431 162.657942    162.249      6.448   334.9869     1.0554     1.1319     0.0800      0.105      5.813      8.431        502 3.9362e+00 0.0000e+00
      5.958    25.0525    12.8009    154.514 162.701764    162.374      6.446   334.7219     1.3263     1.7362     0.0801      0.103      5.839      8.469        503 3.8847e+00 0.0000e+00
      5.978    25.0310    12.8205    154.684 162.756189    162.501      6.445   333.6997     1.3142     1.7630     0.0801      0.099      5.862      8.503        504 3.8237e+00 0.0000e+00
      5.998    25.0095    12.8415    154.875 162.709639    162.514      6.447   333.9269     1.3061     1.7899     0.0801      0.092      5.883      8.533        505 3.7575e+00 0.0000e+00
      6.021    24.9878    12.8728    155.189 162.759745    162.640      6.447   333.2833     1.2900     1.6422     0.0802      0.089      5.905      8.564        506 3.7214e+00 0.0000e+00
      6.042    24.9654    12.8983    155.432 162.813257    162.766      6.445   334.2676     1.1808     1.6288     0.0802      0.091      5.933      8.605        507 3.5914e+00 0.0000e+00
      6.090    24.9438    12.9305    155.755 162.881847    162.893      6.438   335.2897     1.1848     1.6825     0.0803      0.098      5.972      8.662        508 3.4619e+00 0.0000e+00
      6.139    24.9221    12.9612    156.059 162.853504    162.966      6.433   336.4254     1.1646     1.7765     0.0803      0.108      6.011      8.720        509 3.4017e+00 0.0000e+00
      6.161    24.9002    12.9871    156.306 162.788895    162.924      6.429   334.9869     1.1686     1.7093     0.0803      0.115      6.036      8.755        510 3.3609e+00 0.0000e+00
      6.167    24.8784    13.0075    156.487 162.842925    163.107      6.430   336.3497     1.1646     1.8436     0.0804      0.114      6.047      8.771        511 3.3642e+00 0.0000e+00
      6.171    24.8566    13.0298    156.690 162.846000    163.123      6.432   335.7062     1.1039     1.4139     0.0804      0.108      6.055      8.782        512 3.3710e+00 0.0000e+00
      6.184    24.8345    13.0520    156.891 162.904494    163.307      6.437   336.5012     1.1646     1.7093     0.0805      0.099      6.075      8.809        513 3.2740e+00 0.0000e+00
      6.228    24.8118    13.0746    157.095 162.919404    163.350      6.434   337.6747     1.0999     1.4139     0.0805      0.094      6.112      8.864        514 3.1723e+00 0.0000e+00
      6.283    24.7897    13.0974    157.303 162.917030    163.450      6.430   337.8640     1.0918     1.4273     0.0805      0.097      6.159      8.932        515 3.0715e+00 0.0000e+00
      6.328    24.7677    13.1164    157.465 162.937345    163.526      6.429   336.9554     1.1727     1.4676     0.0806      0.100      6.202      8.994        516 2.9920e+00 0.0000e+00
      6.362    24.7454    13.1327    157.594 162.953864    163.626      6.425   337.1069     1.0716     1.3602     0.0806      0.110      6.237      9.044        517 2.9615e+00 0.0000e+00
      6.389    24.7229    13.1580    157.832 162.986058    163.727      6.426   336.5012     1.2010     1.3871     0.0806      0.125      6.263      9.083        518 2.9278e+00 0.0000e+00
      6.406    24.7000    13.1718    157.929 162.957021    163.772      6.428   336.0847     1.2172     1.3871     0.0807      0.135      6.283      9.112        519 2.9019e+00 0.0000e+00
      6.424    24.6777    13.1814    157.975 163.049741    163.931      6.433   336.2740     1.2293     1.4676     0.0807      0.136      6.303      9.142        520 2.8548e+00 0.0000e+00
      6.452    24.6553    13.1978    158.106 163.079635    164.064      6.432   336.8419     1.2010     1.4005     0.0808      0.129      6.330      9.182        521 2.8174e+00 0.0000e+00
      6.489    24.6327    13.2066    158.143 163.039250    164.052      6.431   337.3719     1.1929     1.3871     0.0808      0.117      6.365      9.232        522 2.7499e+00 0.0000e+00
      6.532    24.6100    13.2276    158.328 163.070206    164.211      6.429   337.9776     1.2212     1.3871     0.0808      0.111      6.401      9.284        523 2.6879e+00 0.0000e+00
      6.560    24.5867    13.2485    158.507 163.041162    164.201      6.429   337.4476     1.1970     1.5885     0.0808      0.110      6.430      9.324        524 2.6660e+00 0.0000e+00
      6.576    24.5642    13.2698    158.694 163.075447    164.361      6.427   337.3340     1.1889     1.3602     0.0809      0.110      6.450      9.353        525 2.6195e+00 0.0000e+00
      6.593    24.5416    13.2846    158.803 163.057437    164.381      6.428   337.2205     1.1970     1.3871     0.0809      0.110      6.470      9.383        526 2.6050e+00 0.0000e+00
      6.623    24.5187    13.3068    159.000 163.063629    164.484      6.429   337.5990     1.0676     1.5616     0.0810      0.111      6.496      9.422        527 2.5709e+00 0.0000e+00
      6.656    24.4960    13.3288    159.194 163.097640    164.588      6.429   337.4097     1.0878     1.3602     0.0810      0.111      6.522      9.460        528 2.5061e+00 0.0000e+00
      6.672    24.4725    13.3340    159.185 163.074852    164.636      6.429   337.5990     1.1606     1.6959     0.0810      0.104      6.542      9.488        529 2.5056e+00 0.0000e+00
      6.684    24.4494    13.2982    158.690 163.151726    164.796      6.428   337.7505     1.0554     1.3333     0.0811      0.094      6.557      9.509        530 2.5057e+00 0.0000e+00
      6.702    24.4267    13.1695    157.085 163.151246    164.875      6.430   338.1669     1.0756     1.4542     0.0811      0.086      6.573      9.534        531 2.4778e+00 0.0000e+00
      6.720    24.4037    12.9308    154.171 163.135193    164.923      6.429   338.2426     1.1929     1.7630     0.0811      0.082      6.595      9.565        532 2.4161e+00 0.0000e+00
      6.754    24.3808    12.5689    149.791 163.171759    165.056      6.431   339.1512     1.0716     1.4139     0.0812      0.083      6.625      9.608        533 2.3498e+00 0.0000e+00
      6.792    24.3571    12.0915    144.037 163.135639    165.076      6.428   338.9240     1.1808     1.7899     0.0812      0.088      6.656      9.653        534 2.3168e+00 0.0000e+00
      6.813    24.3338    11.6066    138.200 163.180196    165.209      6.425   339.1133     1.2455     1.6825     0.0813      0.089      6.678      9.687        535 2.3098e+00 0.0000e+00
      6.825    24.3109    11.0643    131.686 163.235742    165.346      6.423   338.0155     1.1444     1.6690     0.0813      0.089      6.697      9.713        536 2.3222e+00 0.0000e+00
      6.850    24.2877    10.5870    125.950 163.245637    165.424      6.423   338.9997     1.2819     1.7630     0.0814      0.093      6.719      9.746        537 2.2604e+00 0.0000e+00
      6.879    24.2644    10.1413    120.594 163.287315    165.558      6.424   337.9776     1.1323     1.7362     0.0814      0.098      6.747      9.786        538 2.1825e+00 0.0000e+00
      6.911    24.2405     9.7708    116.136 163.243618    165.579      6.422   338.3183     1.2293     1.7362     0.0814      0.101      6.776      9.828        539 2.2081e+00 0.0000e+00
      6.939    24.2172     9.5030    112.903 163.300071    165.714      6.423   338.0155     1.2900     1.8302     0.0815      0.102      6.803      9.866        540 2.1892e+00 0.0000e+00
      6.959    24.1939     9.2972    110.409 163.336494    165.852      6.422   338.1669     1.2212     1.7362     0.0815      0.099      6.823      9.896        541 2.1391e+00 0.0000e+00
      6.973    24.1707     9.1574    108.701 163.258034    165.816      6.424   338.0533     1.2455     1.7362     0.0815      0.095      6.843      9.925        542 2.1283e+00 0.0000e+00
      7.003    24.1474     9.0408    107.270 163.338078    166.009      6.419   339.9840     1.1848     1.7899     0.0816      0.097      6.872      9.967        543 2.0501e+00 0.0000e+00
      7.046    24.1233     8.9773    106.470 163.386162    166.116      6.418   339.4540     1.1889     1.5482     0.0817      0.103      6.910     10.022        544 2.0042e+00 0.0000e+00
      7.089    24.0997     8.9058    105.575 163.407166    166.223      6.413   341.3090     1.2010     1.7362     0.0817      0.110      6.950     10.080        545 1.9413e+00 0.0000e+00
      7.127    24.0765     8.8457    104.814 163.401529    166.305      6.407   340.5140     1.1606     1.7630     0.0817      0.117      6.982     10.126        546 1.8979e+00 0.0000e+00
      7.141    24.0530     8.8073    104.313 163.333542    166.299      6.408   340.3247     1.2616     1.4273     0.0817      0.119      7.001     10.154        547 1.9176e+00 0.0000e+00
      7.149    24.0292     8.7482    103.567 163.402295    166.463      6.407   340.3247     1.2536     1.6019     0.0818      0.116      7.013     10.171        548 1.9079e+00 0.0000e+00
      7.162    24.0050     8.7036    102.994 163.435401    166.572      6.408   340.5140     1.1727     1.4542     0.0818      0.111      7.028     10.193        549 1.8842e+00 0.0000e+00
      7.187    23.9813     8.6528    102.347 163.411776    166.624      6.411   339.6055     1.2495     1.7765     0.0819      0.104      7.055     10.232        550 1.8044e+00 0.0000e+00
      7.234    23.9580     8.6277    102.002 163.461597    166.764      6.408   339.4540     1.1686     1.7093     0.0819      0.099      7.093     10.288        551 1.7540e+00 0.0000e+00
      7.276    23.9345     8.6218    101.887 163.433147    166.816      6.403   340.2112     1.0756     1.4408     0.0819      0.098      7.133     10.347        552 1.7431e+00 0.0000e+00
      7.315    23.9108     8.6195    101.815 163.417392    166.866      6.403   340.2490     1.1525     1.4676     0.0820      0.103      7.168     10.396        553 1.7155e+00 0.0000e+00
      7.336    23.8873     8.6134    101.697 163.481258    167.033      6.402   339.0376     0.9948     1.2393     0.0820      0.110      7.188     10.425        554 1.7096e+00 0.0000e+00
      7.336    23.8635     8.5965    101.453 163.473101    167.085      6.403   339.7569     1.0029     1.0245     0.0821      0.114      7.193     10.432        555 1.7085e+00 0.0000e+00
      7.332    23.8392     8.5739    101.138 163.427597    167.137      6.405   338.6590     1.0029     1.1051     0.0821      0.107      7.192     10.430        556 1.7176e+00 0.0000e+00
      7.329    23.8155     8.5581    100.907 163.478251    167.247      6.406   340.2112     0.9826     1.0111     0.0821      0.089      7.197     10.439        557 1.6893e+00 0.0000e+00
      7.358    23.7917     8.5354    100.595 163.499653    167.387      6.406   342.2933     0.9786     1.0111     0.0822      0.072      7.222     10.474        558 1.6371e+00 0.0000e+00
      7.406    23.7681     8.5109    100.261 163.460709    167.382      6.401   341.6119     0.9826     1.0111     0.0822      0.063      7.258     10.527        559 1.6335e+00 0.0000e+00
      7.437    23.7443     8.4839     99.898 163.496928    167.550      6.398   341.3847     1.0392     1.0111     0.0823      0.062      7.291     10.575        560 1.5925e+00 0.0000e+00
      7.462    23.7198     8.4636     99.612 163.514324    167.603      6.399   341.2712     1.0473     1.0782     0.0823      0.069      7.319     10.614        561 1.5697e+00 0.0000e+00
      7.487    23.6960     8.4504     99.412 163.558495    167.771      6.401   340.3247     1.0473     1.0782     0.0823      0.083      7.350     10.659        562 1.5657e+00 0.0000e+00
      7.535    23.6723     8.4349     99.185 163.591241    167.856      6.398   341.0819     1.0554     1.1319     0.0824      0.105      7.399     10.729        563 1.4889e+00 0.0000e+00
      7.612    23.6484     8.4184     98.946 163.593012    167.966      6.385   343.0883     0.9826     1.1856     0.0824      0.134      7.459     10.817        564 1.4177e+00 0.0000e+00
      7.668    23.6244     8.3955     98.632 163.586194    168.019      6.379   340.4762     1.0029     1.1722     0.0825      0.158      7.510     10.892        565 1.3719e+00 0.0000e+00
      7.692    23.5997     8.3683     98.267 163.599783    168.131      6.381   340.4383     1.0514     1.2125     0.0825      0.166      7.540     10.937        566 1.3444e+00 0.0000e+00
      7.709    23.5758     8.3369     97.854 163.635849    168.243      6.387   339.8326     0.9948     1.0916     0.0825      0.164      7.565     10.973        567 1.3303e+00 0.0000e+00
      7.746    23.5522     8.3011     97.390 163.630905    168.329      6.387   342.1798     1.0554     1.0916     0.0826      0.165      7.600     11.023        568 1.3090e+00 0.0000e+00
      7.795    23.5282     8.2736     97.023 163.695531    168.469      6.385   340.5519     1.1080     1.3468     0.0826      0.166      7.643     11.085        569 1.2750e+00 0.0000e+00
      7.840    23.5043     8.2532     96.740 163.674862    168.551      6.379   342.7098     1.0352     1.2662     0.0827      0.163      7.687     11.149        570 1.2122e+00 0.0000e+00
      7.881    23.4797     8.2332     96.460 163.626838    168.548      6.382   341.5740     1.0959     1.1722     0.0827      0.155      7.730     11.211        571 1.1858e+00 0.0000e+00
      7.928    23.4556     8.2240     96.309 163.606124    168.659      6.377   343.0126     0.9665     1.2796     0.0827      0.150      7.770     11.271        572 1.1466e+00 0.0000e+00
      7.962    23.4316     8.2120     96.124 163.611158    168.688      6.375   341.4605     0.9341     1.1856     0.0827      0.152      7.805     11.321        573 1.1091e+00 0.0000e+00
      7.986    23.4077     8.1976     95.912 163.650475    168.887      6.381   342.8612     0.9584     1.2528     0.0828      0.156      7.833     11.361        574 1.1034e+00 0.0000e+00
      8.016    23.3836     8.1769     95.626 163.616943    168.854      6.380   341.2712     0.9260     1.2931     0.0828      0.155      7.860     11.400        575 1.0769e+00 0.0000e+00
      8.042    23.3589     8.1680     95.477 163.652945    169.054      6.382   342.3312     1.0271     1.2662     0.0829      0.145      7.888     11.440        576 1.0791e+00 0.0000e+00
      8.073    23.3349     8.1641     95.388 163.665420    169.080      6.384   341.2712     1.0473     1.2259     0.0829      0.134      7.917     11.482        577 1.0585e+00 0.0000e+00
      8.105    23.3110     8.1603     95.299 163.601475    169.167      6.386   339.8705     1.0635     1.2931     0.0829      0.125      7.944     11.522        578 1.0283e+00 0.0000e+00
      8.121    23.2870     8.1629     95.287 163.583351    169.164      6.387   339.9840     1.0554     1.3333     0.0829      0.116      7.971     11.561        579 9.9215e-01 0.0000e+00
      8.160    23.2627     8.1615     95.227 163.658185    169.393      6.387   340.9305     1.0473     1.2931     0.0830      0.111      8.008     11.615        580 9.4003e-01 0.0000e+00
      8.219    23.2381     8.1746     95.335 163.627785    169.390      6.381   341.3469     1.0473     1.2796     0.0830      0.119      8.053     11.679        581 9.2875e-01 0.0000e+00
      8.251    23.2138     8.1829     95.388 163.621241    169.504      6.379   341.9526     1.0797     1.3871     0.0831      0.128      8.084     11.725        582 9.5785e-01 0.0000e+00
      8.259    23.1898     8.1936     95.467 163.636541    169.591      6.380   343.0883     1.0918     1.3602     0.0831      0.127      8.102     11.751        583 9.3882e-01 0.0000e+00
      8.279    23.1658     8.1912     95.396 163.549110    169.588      6.381   341.9526     0.9948     1.3468     0.0831      0.124      8.122     11.780        584 8.9001e-01 0.0000e+00
      8.310    23.1415     8.1810     95.234 163.521184    169.644      6.384   342.6340     1.0271     1.5079     0.0831      0.120      8.143     11.810        585 8.7992e-01 0.0000e+00
      8.317    23.1166     8.1633     94.983 163.492276    169.699      6.383   342.8612     0.9867     1.2259     0.0831      0.111      8.155     11.829        586 8.7961e-01 0.0000e+00
      8.321    23.0924     8.1443     94.718 163.525449    169.814      6.387   342.4448     1.0271     1.3871     0.0832      0.097      8.167     11.846        587 8.8731e-01 0.0000e+00
      8.348    23.0682     8.1194     94.386 163.509803    169.902      6.386   340.4762     1.0756     1.4542     0.0832      0.081      8.193     11.882        588 8.5011e-01 0.0000e+00
      8.392    23.0441     8.1032     94.154 163.452114    169.900      6.386   342.6719     1.0150     1.2393     0.0832      0.075      8.235     11.944        589 8.1893e-01 0.0000e+00
      8.454    23.0200     8.0957     94.023 163.507763    170.073      6.381   341.7255     1.0999     1.5213     0.0833      0.089      8.286     12.018        590 8.2684e-01 0.0000e+00
      8.500    22.9952     8.0999     94.027 163.500298    170.130      6.374   342.2176     1.0312     1.1856     0.0833      0.110      8.328     12.079        591 8.1173e-01 0.0000e+00
      8.522    22.9711     8.1155     94.165 163.521152    170.243      6.374   340.5140     1.0109     1.4676     0.0834      0.123      8.355     12.118        592 7.9263e-01 0.0000e+00
      8.539    22.9466     8.1333     94.328 163.511712    170.332      6.377   341.4983     1.1161     1.4810     0.0834      0.130      8.379     12.152        593 7.8019e-01 0.0000e+00
      8.571    22.9223     8.1485     94.460 163.452412    170.330      6.378   341.2712     1.0392     1.4408     0.0834      0.139      8.413     12.201        594 7.3493e-01 0.0000e+00
      8.624    22.8982     8.1595     94.545 163.505471    170.505      6.371   342.7855     1.1161     1.4005     0.0835      0.147      8.459     12.268        595 7.1253e-01 0.0000e+00
      8.679    22.8733     8.1636     94.547 163.445739    170.503      6.370   342.6719     1.0231     1.1856     0.0835      0.150      8.511     12.344        596 7.0142e-01 0.0000e+00
      8.733    22.8491     8.1591     94.451 163.407424    170.559      6.364   344.8298     1.0271     1.1856     0.0835      0.153      8.561     12.418        597 6.5656e-01 0.0000e+00
      8.781    22.8249     8.1351     94.130 163.403984    170.648      6.360   344.1483     1.0069     1.2393     0.0835      0.157      8.605     12.482        598 6.6308e-01 0.0000e+00
      8.811    22.8009     8.1087     93.781 163.330697    170.646      6.364   344.0348     1.0190     1.1319     0.0835      0.164      8.640     12.532        599 6.6626e-01 0.0000e+00
      8.841    22.7766     8.0733     93.329 163.349460    170.762      6.366   343.0883     0.9584     1.0648     0.0836      0.171      8.675     12.582        600 6.3353e-01 0.0000e+00
      8.888    22.7515     8.0320     92.808 163.380691    170.878      6.364   344.4890     0.9422     1.1856     0.0836      0.175      8.719     12.645        601 6.2105e-01 0.0000e+00
      8.942    22.7273     7.9860     92.234 163.351579    170.935      6.364   343.4290     0.9179     1.1588     0.0837      0.175      8.769     12.719        602 5.8437e-01 0.0000e+00
      8.998    22.7034     7.9372     91.626 163.296213    170.966      6.361   342.5205     0.9260     1.1319     0.0837      0.174      8.817     12.788        603 5.8350e-01 0.0000e+00
      9.031    22.6791     7.8934     91.078 163.240735    170.994      6.360   342.1419     0.9422     1.2662     0.0837      0.170      8.851     12.838        604 5.9395e-01 0.0000e+00
      9.047    22.6546     7.8559     90.603 163.241606    171.079      6.361   342.0283     0.9139     1.0916     0.0837      0.162      8.876     12.873        605 5.4589e-01 0.0000e+00
      9.075    22.6297     7.8273     90.232 163.235495    171.167      6.364   342.2176     0.8896     1.0514     0.0837      0.155      8.908     12.919        606 5.2968e-01 0.0000e+00
      9.129    22.6054     7.8044     89.927 163.248397    171.254      6.361   343.2398     0.9099     1.0916     0.0838      0.156      8.952     12.983        607 5.1786e-01 0.0000e+00
      9.178    22.5814     7.8192     90.053 163.225608    171.345      6.357   344.2619     0.9139     1.0379     0.0838      0.156      8.997     13.048        608 5.0751e-01 0.0000e+00
      9.213    22.5572     7.8124     89.933 163.144534    171.313      6.360   343.1640     0.9058     1.0648     0.0838      0.151      9.038     13.108        609 5.1017e-01 0.0000e+00
      9.258    22.5330     7.8187     89.963 163.170280    171.459      6.359   344.4890     0.8977     1.1185     0.0839      0.149      9.080     13.170        610 4.8500e-01 0.0000e+00
      9.309    22.5089     7.8229     89.970 163.133936    171.487      6.356   344.6026     0.9018     1.0111     0.0839      0.154      9.124     13.234        611 4.6867e-01 0.0000e+00
      9.343    22.4845     7.8196     89.889 163.100287    171.545      6.356   343.9590     0.9867     2.4747     0.0839      0.163      9.160     13.286        612 4.7129e-01 0.0000e+00
      9.368    22.4594     7.8142     89.784 163.122676    171.661      6.358   344.1105     0.9786     2.3941     0.0839      0.165      9.192     13.333        613 4.4472e-01 0.0000e+00
      9.412    22.4351     7.7995     89.573 163.106128    171.720      6.358   344.3376     0.9867     2.5419     0.0840      0.163      9.231     13.389        614 4.2230e-01 0.0000e+00
      9.458    22.4107     7.7767     89.268 163.091093    171.811      6.358   342.7476     0.9665     2.5150     0.0840      0.158      9.274     13.452        615 4.1925e-01 0.0000e+00
      9.500    22.3865     7.7465     88.881 163.081755    171.869      6.356   343.6562     0.9422     2.4210     0.0840      0.156      9.319     13.517        616 4.0984e-01 0.0000e+00
      9.552    22.3622     7.7197     88.532 163.087961    171.987      6.352   343.8455     1.0231     7.8593     0.0841      0.160      9.370     13.589        617 4.1940e-01 0.0000e+00
      9.612    22.3371     7.6833     88.071 163.023738    171.987      6.352   343.5805     1.0433     7.6848     0.0841      0.167      9.421     13.664        618 4.0462e-01 0.0000e+00
      9.658    22.3128     7.6479     87.624 163.042361    172.104      6.347   343.0126     1.0352     7.8190     0.0841      0.174      9.461     13.722        619 3.8201e-01 0.0000e+00
      9.673    22.2884     7.6100     87.149 163.035000    172.196      6.350   343.6940     1.0392     7.7519     0.0842      0.175      9.481     13.751        620 3.9700e-01 0.0000e+00
      9.672    22.2640     7.5776     86.736 162.973265    172.195      6.354   343.1262     0.9179     5.0126     0.0842      0.164      9.495     13.771        621 3.8870e-01 0.0000e+00
      9.705    22.2393     7.5502     86.382 163.029709    172.373      6.354   343.5805     0.9139     5.0529     0.0842      0.148      9.522     13.810        622 3.9085e-01 0.0000e+00
      9.752    22.2142     7.5239     86.038 162.964812    172.373      6.351   342.9369     0.9018     5.0126     0.0842      0.137      9.557     13.861        623 4.0904e-01 0.0000e+00
      9.773    22.1896     7.5142     85.887 162.934705    172.433      6.352   343.3912     0.9422     5.0395     0.0843      0.124      9.584     13.901        624 3.7908e-01 0.0000e+00
      9.796    22.1652     7.4992     85.675 162.977699    172.585      6.355   342.4826     0.9139     5.0126     0.0843      0.110      9.606     13.932        625 3.5839e-01 0.0000e+00
      9.816    22.1409     7.5051     85.703 162.971055    172.644      6.354   342.3690     0.9220     4.9857     0.0843      0.099      9.625     13.959        626 3.5984e-01 0.0000e+00
      9.832    22.1161     7.5150     85.774 162.972877    172.764      6.355   341.3847     0.9220     5.0797     0.0844      0.094      9.640     13.981        627 3.4808e-01 0.0000e+00
      9.841    22.0910     7.5294     85.896 162.915800    172.763      6.356   341.6497     0.9018     5.0126     0.0844      0.093      9.651     13.997        628 3.4482e-01 0.0000e+00
      9.851    22.0663     7.5481     86.068 162.922764    172.884      6.360   341.0819     0.9260     4.3278     0.0844      0.087      9.661     14.012        629 3.3019e-01 0.0000e+00
      9.861    22.0415     7.5708     86.287 162.874733    172.917      6.363   340.4383     0.8977     4.3278     0.0845      0.071      9.670     14.025        630 3.3484e-01 0.0000e+00
      9.869    22.0171     7.5948     86.519 162.766717    172.888      6.367   339.6055     0.8937     4.3815     0.0844      0.057      9.677     14.035        631 3.6067e-01 0.0000e+00
      9.874    21.9923     7.6251     86.823 162.818485    173.038      6.370   339.4919     0.9099     4.4083     0.0845      0.048      9.682     14.042        632 3.4477e-01 0.0000e+00
      9.875    21.9669     7.6576     87.152 162.810363    173.129      6.372   338.9619     0.7602     3.4012     0.0845      0.038      9.684     14.045        633 3.1964e-01 0.0000e+00
      9.875    21.9425     7.6863     87.437 162.776882    173.160      6.373   338.3183     0.7441     3.5087     0.0846      0.029      9.684     14.046        634 3.3567e-01 0.0000e+00
      9.876    21.9180 -9.990e-29 -9.990e-29 162.740831    173.254      6.375   337.7883     0.7643     3.4952     0.0846      0.022      9.685     14.047        635 3.4941e-01 0.0000e+00
      9.876    21.8935 -9.990e-29 -9.990e-29 162.735905    173.284      6.378   337.5612     0.7805     3.5221     0.0846      0.016      9.685     14.048        636 3.1138e-01 0.0000e+00
      9.877    21.8686 -9.990e-29 -9.990e-29 162.783068    173.495      6.379   337.4476     0.8411     3.8846     0.0847      0.011      9.686     14.048        637 3.3229e-01 0.0000e+00
      9.877    21.8434 -9.990e-29 -9.990e-29 162.682195    173.405      6.382   337.5612     0.8209     3.9384     0.0846      0.006      9.686     14.048        638 3.4435e-01 0.0000e+00
      9.876    21.8183 -9.990e-29 -9.990e-29 162.682428    173.557      6.384   337.4855     0.8249     3.8444     0.0847      0.003      9.686     14.048        639 2.9974e-01 0.0000e+00
      9.877    21.7944 -9.990e-29 -9.990e-29 162.663454    173.591      6.387   336.8419     0.8209     3.8309     0.0847      0.002      9.686     14.049        640 3.1870e-01 0.0000e+00
      9.877    21.7687 -9.990e-29 -9.990e-29 162.586486    173.623      6.385   336.5012     0.9099     3.7235     0.0847      0.001      9.686     14.049        641 3.1822e-01 0.0000e+00
      9.878    21.7458 -9.990e-29 -9.990e-29 162.599205    173.714      6.386   337.2205     0.9058     3.6564     0.0848      0.001      9.687     14.049        642 3.0755e-01 0.0000e+00
      9.878    21.7183 -9.990e-29 -9.990e-29 162.587994    173.805      6.388   337.0312     0.9179     3.7638     0.0848      0.001      9.687     14.049        643 3.2747e-01 0.0000e+00
      9.878    21.6985 -9.990e-29 -9.990e-29 162.600494    173.897      6.391   337.1826     0.9099     3.6832     0.0848      0.001      9.687     14.049        644 3.2406e-01 0.0000e+00
      9.878 -9.990e-29 -9.990e-29 -9.990e-29 162.583704    173.989      6.391   336.9176     0.9139     3.7772     0.0849      0.001      9.687     14.050        645 3.1875e-01 0.0000e+00
      9.879 -9.990e-29 -9.990e-29 -9.990e-29 162.549255    174.020      6.392   337.5233     0.9260     3.7235     0.0849      0.001      9.687     14.050        646 3.2042e-01 0.0000e+00
