* Sea-Bird SBE19plus  Data File:
* FileName = C:\DATA\060418_fcr50_0003.hex
* Software version 2.6.3.104 SB_Terminal.dll
* Temperature SN = 7809
* Conductivity SN = 7809
* System UpLoad Time = Jun 04 2018 16:28:04
* <ApplicationData>
* <Seaterm232>
* <SoftwareVersion>2.6.3.104</SoftwareVersion>
* <BuildDate>30-Jun-2017</BuildDate>
* </Seaterm232>
* </ApplicationData>
* cast   3 04 Jun 2018 14:22:00 samples 2475 to 3382, avg = 1, stop = mag switch
# nquan = 15
# nvalues = 511                         
# units = specified
# name 0 = depFM: Depth [fresh water, m]
# name 1 = dz/dtM: Descent Rate [m/s]
# name 2 = sbeox0Mg/L: Oxygen, SBE 43 [mg/l]
# name 3 = sbeox0PS: Oxygen, SBE 43 [% saturation]
# name 4 = specc: Specific Conductance [uS/cm]
# name 5 = c0uS/cm: Conductivity [uS/cm]
# name 6 = flECO-AFL: Fluorescence, WET Labs ECO-AFL/FL [mg/m^3]
# name 7 = ph: pH
# name 8 = orp: Oxidation Reduction Potential [mV]
# name 9 = par/sat/log: PAR/Logarithmic, Satlantic
# name 10 = turbWETntu0: Turbidity, WET Labs ECO [NTU]
# name 11 = prdM: Pressure, Strain Gauge [db]
# name 12 = prdE: Pressure, Strain Gauge [psi]
# name 13 = tv290C: Temperature [ITS-90, deg C]
# name 14 = flag:  0.000e+00
# span 0 =     -0.613,      2.759       
# span 1 =     -0.145,      0.178       
# span 2 =    -1.3479,    12.1908       
# span 3 =    -13.715,    128.628       
# span 4 =      0.634,    182.405       
# span 5 =   0.637825, 149.637330       
# span 6 =    -0.2399,     5.8648       
# span 7 =      4.099,     10.509       
# span 8 = -1236.7935,   415.9239       
# span 9 = 4.4093e+00, 1.8283e+03       
# span 10 =    -0.6196,    34.0473      
# span 11 =     -0.602,      2.707      
# span 12 =     -0.872,      3.926      
# span 13 =    15.9303,    25.3104      
# span 14 = 0.0000e+00, 0.0000e+00      
# interval = seconds: 0.25
# start_time = Jun 04 2018 14:22:00 [Instrument's time stamp, header]
# bad_flag = -9.990e-29
# <Sensors count="9" >
#   <sensor Channel="1" >
#     <!-- Count, Temperature -->
#     <TemperatureSensor SensorID="58" >
#       <SerialNumber>7809</SerialNumber>
#       <CalibrationDate>09-Mar-18</CalibrationDate>
#       <A0>1.21093245e-003</A0>
#       <A1>2.84356597e-004</A1>
#       <A2>-1.94507398e-006</A2>
#       <A3>2.12806664e-007</A3>
#       <Slope>1.00000000</Slope>
#       <Offset>0.0000</Offset>
#     </TemperatureSensor>
#   </sensor>
#   <sensor Channel="2" >
#     <!-- Frequency 0, Conductivity -->
#     <ConductivitySensor SensorID="3" >
#       <SerialNumber>7809</SerialNumber>
#       <CalibrationDate>09-Mar-18</CalibrationDate>
#       <UseG_J>1</UseG_J>
#       <!-- Cell const and series R are applicable only for wide range sensors. -->
#       <SeriesR>0.0000</SeriesR>
#       <CellConst>2000.0000</CellConst>
#       <ConductivityType>0</ConductivityType>
#       <Coefficients equation="0" >
#         <A>0.00000000e+000</A>
#         <B>0.00000000e+000</B>
#         <C>0.00000000e+000</C>
#         <D>0.00000000e+000</D>
#         <M>0.0</M>
#         <CPcor>-9.57000000e-008</CPcor>
#       </Coefficients>
#       <Coefficients equation="1" >
#         <G>-1.00672082e+000</G>
#         <H>1.26906489e-001</H>
#         <I>-1.40584351e-004</I>
#         <J>2.47837121e-005</J>
#         <CPcor>-9.57000000e-008</CPcor>
#         <CTcor>3.2500e-006</CTcor>
#         <!-- WBOTC not applicable unless ConductivityType = 1. -->
#         <WBOTC>0.00000000e+000</WBOTC>
#       </Coefficients>
#       <Slope>1.00000000</Slope>
#       <Offset>0.00000</Offset>
#     </ConductivitySensor>
#   </sensor>
#   <sensor Channel="3" >
#     <!-- Count, Pressure, Strain Gauge -->
#     <PressureSensor SensorID="46" >
#       <SerialNumber>7809</SerialNumber>
#       <CalibrationDate>07-Mar-18</CalibrationDate>
#       <PA0>-4.08176359e-002</PA0>
#       <PA1>4.85188419e-004</PA1>
#       <PA2>-3.51168169e-012</PA2>
#       <PTEMPA0>-5.37806900e+001</PTEMPA0>
#       <PTEMPA1>5.36620721e+001</PTEMPA1>
#       <PTEMPA2>4.87214332e-002</PTEMPA2>
#       <PTCA0>5.25213435e+005</PTCA0>
#       <PTCA1>1.79532409e+000</PTCA1>
#       <PTCA2>-2.84353509e-001</PTCA2>
#       <PTCB0>2.51668750e+001</PTCB0>
#       <PTCB1>3.75000000e-004</PTCB1>
#       <PTCB2>0.00000000e+000</PTCB2>
#       <Offset>0.000000</Offset>
#     </PressureSensor>
#   </sensor>
#   <sensor Channel="4" >
#     <!-- A/D voltage 0, pH -->
#     <pH_Sensor SensorID="43" >
#       <SerialNumber>0363</SerialNumber>
#       <CalibrationDate>16-Mar-18</CalibrationDate>
#       <Slope>4.6194</Slope>
#       <Offset>2.5947</Offset>
#     </pH_Sensor>
#   </sensor>
#   <sensor Channel="5" >
#     <!-- A/D voltage 1, Oxidation Reduction Potential -->
#     <OxidationReductionPotentialSensor SensorID="41" >
#       <SerialNumber>0363</SerialNumber>
#       <CalibrationDate>16-Mar-18</CalibrationDate>
#       <B>2.499480</B>
#       <M>-0.496195</M>
#       <Offset>0.0</Offset>
#     </OxidationReductionPotentialSensor>
#   </sensor>
#   <sensor Channel="6" >
#     <!-- A/D voltage 2, Oxygen, SBE 43 -->
#     <OxygenSensor SensorID="38" >
#       <SerialNumber>0434</SerialNumber>
#       <CalibrationDate>13-Mar-18</CalibrationDate>
#       <Use2007Equation>1</Use2007Equation>
#       <CalibrationCoefficients equation="0" >
#         <!-- Coefficients for Owens-Millard equation. -->
#         <Boc>0.0000</Boc>
#         <Soc>0.0000e+000</Soc>
#         <offset>0.0000</offset>
#         <Pcor>0.00e+000</Pcor>
#         <Tcor>0.0000</Tcor>
#         <Tau>0.0</Tau>
#       </CalibrationCoefficients>
#       <CalibrationCoefficients equation="1" >
#         <!-- Coefficients for Sea-Bird equation - SBE calibration in 2007 and later. -->
#         <Soc>4.5718e-001</Soc>
#         <offset>-0.6113</offset>
#         <A>-4.0649e-003</A>
#         <B> 2.0945e-004</B>
#         <C>-3.3182e-006</C>
#         <D0> 2.5826e+000</D0>
#         <D1> 1.92634e-004</D1>
#         <D2>-4.64803e-002</D2>
#         <E> 3.6000e-002</E>
#         <Tau20> 1.2200</Tau20>
#         <H1>-3.3000e-002</H1>
#         <H2> 5.0000e+003</H2>
#         <H3> 1.4500e+003</H3>
#       </CalibrationCoefficients>
#     </OxygenSensor>
#   </sensor>
#   <sensor Channel="7" >
#     <!-- A/D voltage 3, PAR/Logarithmic, Satlantic -->
#     <PARLog_SatlanticSensor SensorID="76" >
#       <SerialNumber>1122</SerialNumber>
#       <CalibrationDate>22-Jun-2017</CalibrationDate>
#       <a0>9.6090e-001</a0>
#       <a1>8.0780e-001</a1>
#       <Im>1.3589e+000</Im>
#       <Multiplier>1.0000e+000</Multiplier>
#     </PARLog_SatlanticSensor>
#   </sensor>
#   <sensor Channel="8" >
#     <!-- A/D voltage 4, Fluorometer, WET Labs ECO-AFL/FL -->
#     <FluoroWetlabECO_AFL_FL_Sensor SensorID="20" >
#       <SerialNumber>FLNTURT-2496</SerialNumber>
#       <CalibrationDate>25-Jan-2017</CalibrationDate>
#       <ScaleFactor>5.30000000e+001</ScaleFactor>
#       <!-- Dark output -->
#       <Vblank>0.0560</Vblank>
#     </FluoroWetlabECO_AFL_FL_Sensor>
#   </sensor>
#   <sensor Channel="9" >
#     <!-- A/D voltage 5, Turbidity Meter, WET Labs, ECO-NTU -->
#     <TurbidityMeter SensorID="67" >
#       <SerialNumber>FLNTURT-2496</SerialNumber>
#       <CalibrationDate>25-Jan-2017</CalibrationDate>
#       <ScaleFactor>176.000000</ScaleFactor>
#       <!-- Dark output -->
#       <DarkVoltage>0.072000</DarkVoltage>
#     </TurbidityMeter>
#   </sensor>
# </Sensors>
# datcnv_date = Jun 04 2018 16:37:16, 7.26.7.114 [datcnv_vars = 14]
# datcnv_in = C:\DATA\060418_fcr10.hex C:\DATA\SBE19plusV2_7809.xmlcon
# datcnv_skipover = 0
# datcnv_ox_hysteresis_correction = yes
# datcnv_ox_tau_correction = yes
# filter_date = Jun 04 2018 16:37:47, 7.26.7.114
# filter_in = C:\DATA\060418_fcr10.cnv
# filter_low_pass_tc_A = 0.030
# filter_low_pass_tc_B = 0.150
# filter_low_pass_A_vars = prdM prdE tv290C
# filter_low_pass_B_vars = depFM dz/dtM sbeox0Mg/L sbeox0PS specc c0uS/cm flECO-AFL ph orp par/sat/log turbWETntu0
# alignctd_date = Jun 04 2018 16:38:15, 7.26.7.114
# alignctd_in = C:\DATA\060418_fcr10.cnv
# alignctd_adv = dz/dtM 1.000, sbeox0Mg/L 1.000, sbeox0PS 1.000, specc 1.000, c0uS/cm 1.000, flECO-AFL 1.000, ph 1.000, orp 1.000, turbWETntu0 1.000                                                                                 
# file_type = ascii
*END*
     -0.612 -1.400e-10     8.0668     98.185      0.688   0.692023    -0.1669      9.993  -800.5948 1.5396e+02    -0.4193     -0.600     -0.870    25.3102 0.0000e+00
     -0.612 -1.540e-09     8.0674     98.192      0.712   0.716222    -0.1639      9.586  -636.2251 1.5123e+02    -0.4163     -0.600     -0.870    25.3104 0.0000e+00
     -0.612 -1.694e-08     8.0654     98.169      0.713   0.717355    -0.1622      9.441  -544.0707 1.5089e+02    -0.4194     -0.601     -0.871    25.3100 0.0000e+00
     -0.612 -1.863e-07     8.0651     98.165      0.702   0.705722    -0.1652      9.606  -360.3096 1.4255e+02    -0.3346     -0.600     -0.871    25.3095 0.0000e+00
     -0.612 -1.863e-07     8.0659     98.175      0.698   0.702386    -0.1630      9.821  -327.6391 1.3135e+02    -0.1235     -0.601     -0.872    25.3094 0.0000e+00
     -0.612 -1.693e-08     8.0660     98.177      0.673   0.677023    -0.1637      9.989  -351.5916 1.2644e+02    -0.0029     -0.600     -0.871    25.3091 0.0000e+00
     -0.612 -1.539e-09     8.0666     98.184      0.648   0.652698    -0.1642     10.082  -144.0065 1.2303e+02    -0.0062     -0.601     -0.871    25.3091 0.0000e+00
     -0.612 -1.400e-10     8.0666     98.185      0.657   0.661930    -0.1503     10.139   -84.1911 1.1805e+02    -0.1631     -0.600     -0.872    25.3092 0.0000e+00
     -0.612 -1.272e-11     8.0655     98.172      0.657   0.661824    -0.1241     10.178  -290.0966 1.1321e+02    -0.4661     -0.601     -0.871    25.3091 0.0000e+00
     -0.612 -1.157e-12     8.0652     98.168      0.647   0.651419    -0.1053     10.131  -533.6327 1.1129e+02    -0.6175     -0.601     -0.871    25.3095 0.0000e+00
     -0.612 -1.052e-13     8.0668     98.187      0.659   0.662938    -0.1063     10.023  -764.3839 1.1308e+02    -0.6196     -0.601     -0.871    25.3098 0.0000e+00
     -0.612 -9.560e-15     8.0688     98.211      0.670   0.674278    -0.1274      9.949  -917.1486 1.1758e+02    -0.5227     -0.601     -0.872    25.3099 0.0000e+00
     -0.612 -8.668e-16     8.0694     98.216      0.658   0.661712    -0.1494      9.934  -960.5339 1.2133e+02    -0.3005     -0.601     -0.871    25.3100 0.0000e+00
     -0.612 -5.487e-17     8.0687     98.205      0.634   0.637825    -0.1517      9.922  -973.6174 1.2040e+02    -0.1907     -0.600     -0.871    25.3101 0.0000e+00
     -0.613 2.5823e-16     8.0684     98.201      0.635   0.639107    -0.1551      9.887  -980.0950 1.1666e+02    -0.2330     -0.601     -0.871    25.3097 0.0000e+00
     -0.613 2.9188e-15     8.0682     98.199      0.673   0.677217    -0.1815      9.912  -961.4185 1.1410e+02    -0.3239     -0.601     -0.872    25.3091 0.0000e+00
     -0.613 3.2114e-14     8.0677     98.192      0.714   0.718139    -0.2128     10.017  -939.5833 1.1341e+02    -0.4044     -0.601     -0.871    25.3080 0.0000e+00
     -0.613 3.5326e-13     8.0685     98.202      0.749   0.753419    -0.2305     10.095  -937.3799 1.1236e+02    -0.4136     -0.601     -0.871    25.3070 0.0000e+00
     -0.613 3.8858e-12     8.0695     98.215      0.845   0.850142    -0.2399     10.102  -933.7451 1.0990e+02    -0.4042     -0.601     -0.871    25.3066 0.0000e+00
     -0.613 4.2744e-11     8.0693     98.211      1.057   1.063252    -0.2250     10.116  -846.5068 1.0899e+02    -0.3522     -0.601     -0.871    25.3064 0.0000e+00
     -0.613 4.7019e-10     8.0680     98.194      1.293   1.300912    -0.1887     10.271  -719.9234 1.1082e+02    -0.2728     -0.601     -0.871    25.3064 0.0000e+00
     -0.613 5.1721e-09     8.0675     98.184      1.432   1.440802    -0.1678     10.509  -656.9141 1.1177e+02    -0.2375     -0.600     -0.871    25.3068 0.0000e+00
     -0.613 5.6893e-08     8.0688     98.194      1.477   1.486396    -0.1653     10.393  -741.5763 1.1054e+02    -0.2004     -0.601     -0.871    25.3069 0.0000e+00
     -0.613 6.2582e-07     8.0705     98.209      1.525   1.535111    -0.1675      9.545  -917.5899 1.0869e+02    -0.1905     -0.601     -0.872    25.3070 0.0000e+00
     -0.612      0.000     8.0721     98.224      1.639   1.649322    -0.1676      8.214  -688.1317 1.0612e+02    -0.2099     -0.601     -0.871    25.3060 0.0000e+00
     -0.612      0.000     8.0731     98.234      1.715   1.725844    -0.1660      7.066  -129.4695 1.0332e+02    -0.2214     -0.601     -0.871    25.3040 0.0000e+00
     -0.612      0.001     8.0743     98.245      1.689   1.699362    -0.1662      6.356  -173.6406 1.0117e+02    -0.2369     -0.600     -0.871    25.3003 0.0000e+00
     -0.612      0.004     8.0778     98.265      1.700   1.709621    -0.1701      5.783  -821.6872 1.0016e+02    -0.2154     -0.600     -0.871    25.2981 0.0000e+00
     -0.612      0.011     8.0923     98.266      1.780   1.786473    -0.1766      4.874 -1202.6052 1.0085e+02    -0.1438     -0.601     -0.871    25.2934 0.0000e+00
     -0.612      0.019     8.1319     98.250      1.807   1.804177    -0.1892      4.099 -1236.7935 1.0361e+02    -0.0726     -0.600     -0.870    25.2947 0.0000e+00
     -0.610      0.025     8.1904     98.255      1.879   1.860249    -0.2033      4.333 -1235.0540 1.0765e+02    -0.0262     -0.602     -0.872    25.2895 0.0000e+00
     -0.600      0.030     8.2443     98.276      2.250   2.210749    -0.1910      4.975 -1181.5736 1.1070e+02     0.0204     -0.592     -0.859    25.2961 0.0000e+00
     -0.583      0.034     8.2817     98.290      5.016   4.900543    -0.1687      5.433  -590.1666 1.1193e+02     0.0329     -0.569     -0.826    25.2671 0.0000e+00
     -0.569      0.042     8.3053     98.293     12.367  12.054686    -0.1641      5.941   277.0141 1.1155e+02     0.0038     -0.555     -0.805    24.9593 0.0000e+00
     -0.564      0.058     8.3231     98.304     21.987  21.398718    -0.1631      6.507   415.9239 1.1051e+02     0.0646     -0.552     -0.800    24.4910 0.0000e+00
     -0.563      0.081     8.3377     98.324     29.020  28.206723    -0.1471      7.011   215.9092 1.1214e+02     0.8595     -0.554     -0.803    24.1444 0.0000e+00
     -0.552      0.106     8.3477     98.342     31.416  30.506998     0.0018      7.345   203.3947 1.1612e+02     9.5544     -0.551     -0.799    23.9142 0.0000e+00
     -0.519      0.130     8.3553     98.352     31.482  30.544465     0.2683      7.510   207.8265 1.1925e+02    25.4798     -0.517     -0.751    23.7855 0.0000e+00
     -0.464      0.151     8.3623     98.346     31.402  30.437879     0.4102      7.590   213.2237 1.2192e+02    34.0473     -0.456     -0.661    23.6819 0.0000e+00
     -0.406      0.164     8.3707     98.361     31.352  30.361330     0.4303      7.608   215.3946 1.2370e+02    34.0099     -0.393     -0.569    23.5866 0.0000e+00
     -0.360      0.169     8.3817     98.426     31.330  30.317436     0.5846      7.581   213.3383 1.2301e+02    25.7902     -0.349     -0.507    23.5471 0.0000e+00
     -0.324      0.165     8.3856     98.428     31.315  30.288161     0.8788      7.545   210.3873 1.1445e+02    10.6543     -0.319     -0.462    23.5096 0.0000e+00
     -0.290      0.160     8.3521     98.011     31.296  30.261370     1.0376      7.515   209.7414 9.3910e+01     2.3726     -0.287     -0.415    23.4569 0.0000e+00
     -0.253      0.158     8.2825     97.175     31.288  30.247512     1.0440      7.491   211.2082 7.3859e+01     1.5860     -0.249     -0.362    23.4099 0.0000e+00
     -0.213      0.161     8.2130     96.332     31.298  30.247607     1.0474      7.471   213.7536 6.3644e+01     1.5099     -0.209     -0.304    23.3736 0.0000e+00
     -0.168      0.168     8.1304     95.322     31.328  30.262503     1.0791      7.450   216.2540 5.7945e+01     1.4819     -0.167     -0.241    23.3506 0.0000e+00
     -0.123      0.175     8.0140     93.910     31.385  30.300598     1.1331      7.426   218.3826 5.4536e+01     1.4008     -0.119     -0.172    23.3413 0.0000e+00
     -0.079      0.178     7.8803     92.297     31.430  30.327147     1.1676      7.397   220.8194 5.1396e+01     1.3227     -0.077     -0.112    23.3337 0.0000e+00
     -0.035      0.174     7.7411     90.630     31.446  30.329459     1.1745      7.367   223.5196 4.5634e+01     1.2697     -0.038     -0.054    23.3186 0.0000e+00
      0.015      0.163     7.5997     88.950     31.454  30.328532     1.2065      7.346   226.1650 4.0275e+01     1.2481      0.014      0.020    23.2955 0.0000e+00
      0.065      0.147     7.4576     87.270     31.448  30.315925     1.2701      7.338   228.2838 3.7316e+01     1.2754      0.068      0.098    23.2659 0.0000e+00
      0.106      0.131     7.3196     85.628     31.447  30.304028     1.3001      7.337   229.7785 3.6131e+01     1.2945      0.110      0.160    23.2381 0.0000e+00
      0.132      0.115     7.1966     84.145     31.473  30.311682     1.2933      7.338   230.9874 3.6831e+01     1.2956      0.133      0.194    23.2165 0.0000e+00
      0.147      0.101     7.1073     83.051     31.528  30.344942     1.2798      7.338   232.4042 3.8272e+01     1.2889      0.142      0.207    23.2025 0.0000e+00
      0.165      0.092     7.0710     82.589     31.589  30.388602     1.2560      7.336   234.2608 3.9308e+01     1.2747      0.159      0.231    23.1968 0.0000e+00
      0.188      0.091     7.0885     82.769     31.607  30.395021     1.2358      7.333   235.9686 4.0410e+01     1.2769      0.185      0.268    23.1833 0.0000e+00
      0.214      0.096     7.1430     83.380     31.579  30.359033     1.2292      7.327   237.5661 4.1527e+01     1.2846      0.209      0.302    23.1506 0.0000e+00
      0.240      0.103     7.2125     84.166     31.564  30.334496     1.2496      7.315   239.7244 4.2036e+01     1.3378      0.236      0.341    23.1141 0.0000e+00
      0.267      0.107     7.2770     84.899     31.591  30.352349     1.2894      7.294   241.7594 4.1794e+01     1.4622      0.262      0.379    23.0907 0.0000e+00
      0.294      0.098     7.3161     85.343     31.629  30.384360     1.3060      7.273   242.4678 4.1084e+01     1.5369      0.286      0.415    23.0781 0.0000e+00
      0.325      0.073     7.3137     85.306     31.653  30.404008     1.3033      7.266   242.2670 4.0086e+01     1.5398      0.318      0.461    23.0632 0.0000e+00
      0.357      0.029     7.2640     84.714     31.653  30.399391     1.2934      7.266   242.5155 3.8831e+01     1.4967      0.353      0.512    23.0448 0.0000e+00
      0.377     -0.025     7.1750     83.670     31.648  30.392033     1.2870      7.266   243.4070 3.7817e+01     1.4124      0.380      0.551    23.0314 0.0000e+00
      0.369     -0.080     7.0707     82.464     31.695  30.442062     1.3005      7.266   244.3554 3.7396e+01     1.3446      0.377      0.546    23.0266 0.0000e+00
      0.324     -0.122     6.9794     81.429     31.805  30.559747     1.3093      7.265   244.9487 3.7130e+01     1.3186      0.327      0.474    23.0225 0.0000e+00
      0.257     -0.145     6.9265     80.853     31.905  30.671864     1.3012      7.259   245.5033 3.7135e+01     1.3721      0.249      0.362    23.0122 0.0000e+00
      0.193     -0.145     6.9298     80.927     31.937  30.718084     1.2757      7.249   246.3297 3.7842e+01     1.9308      0.181      0.262    23.0062 0.0000e+00
      0.150     -0.123     6.9848     81.593     31.947  30.737572     1.2406      7.241   246.9386 3.8003e+01     2.9463      0.138      0.201    23.0119 0.0000e+00
      0.131     -0.088     7.0631     82.526     31.984  30.780494     1.2255      7.240   247.4452 3.6886e+01     3.4881      0.123      0.179    23.0328 0.0000e+00
      0.128     -0.052     7.1361     83.393     32.056  30.856018     1.2215      7.242   248.1537 3.5800e+01     3.4766      0.125      0.180    23.0639 0.0000e+00
      0.128     -0.024     7.1916     84.055     32.151  30.952163     1.2208      7.243   248.7930 3.5400e+01     2.9301      0.127      0.184    23.0876 0.0000e+00
      0.126     -0.009     7.2177     84.375     32.251  31.053878     1.2351      7.244   249.4103 3.4973e+01     1.9152      0.125      0.181    23.1022 0.0000e+00
      0.123     -0.002     7.2026     84.210     32.328  31.133236     1.2468      7.247   250.2834 3.4359e+01     1.3682      0.120      0.174    23.1142 0.0000e+00
      0.122      0.001     7.1512     83.612     32.344  31.149583     1.2436      7.250   251.1754 3.4086e+01     1.3211      0.118      0.172    23.1227 0.0000e+00
      0.124      0.002     7.0682     82.639     32.319  31.124525     1.2507      7.251   251.7643 3.4468e+01     1.2847      0.122      0.176    23.1295 0.0000e+00
      0.128      0.003     6.9621     81.391     32.280  31.084285     1.2780      7.251   252.3265 3.5389e+01     1.2643      0.125      0.182    23.1391 0.0000e+00
      0.129      0.003     6.8542     80.125     32.241  31.044085     1.2975      7.252   252.9835 3.6383e+01     1.2874      0.127      0.185    23.1483 0.0000e+00
      0.129      0.002     6.7648     79.075     32.218  31.019514     1.3032      7.252   253.2550 3.7021e+01     1.3200      0.127      0.184    23.1505 0.0000e+00
      0.129      0.001     6.7091     78.420     32.176  30.977715     1.3007      7.252   253.1994 3.7185e+01     1.3227      0.126      0.183    23.1471 0.0000e+00
      0.129      0.003     6.6979     78.287     32.116  30.919743     1.2945      7.248   253.2576 3.7251e+01     1.2901      0.126      0.184    23.1426 0.0000e+00
      0.128      0.008     6.7302     78.663     32.086  30.890149     1.2926      7.244   253.4432 3.8043e+01     1.2606      0.127      0.183    23.1382 0.0000e+00
      0.127      0.017     6.7900     79.357     32.071  30.873924     1.2968      7.240   253.8090 4.1148e+01     1.2409      0.122      0.177    23.1348 0.0000e+00
      0.130      0.029     6.8586     80.156     32.049  30.850576     1.2984      7.236   254.3245 4.6760e+01     1.2354      0.123      0.180    23.1321 0.0000e+00
      0.139      0.040     6.9230     80.910     32.060  30.861881     1.2941      7.226   254.9439 5.3271e+01     1.2544      0.137      0.198    23.1308 0.0000e+00
      0.153      0.047     6.9743     81.512     32.081  30.883599     1.3005      7.213   255.5332 5.9997e+01     1.2882      0.149      0.216    23.1313 0.0000e+00
      0.171      0.050     7.0047     81.867     32.056  30.859132     1.3113      7.203   255.8567 6.8518e+01     1.3082      0.166      0.241    23.1281 0.0000e+00
      0.190      0.048     7.0090     81.920     32.014  30.820082     1.3135      7.203   256.1883 7.8934e+01     1.2829      0.189      0.275    23.1232 0.0000e+00
      0.205      0.044     6.9916     81.721     31.984  30.792492     1.3273      7.204   256.6175 8.9464e+01     1.2569      0.203      0.295    23.1251 0.0000e+00
      0.213      0.040     6.9632     81.391     31.970  30.779573     1.3593      7.204   257.1740 1.2077e+02     1.2688      0.211      0.306    23.1279 0.0000e+00
      0.215      0.038     6.9290     80.986     31.984  30.790903     1.3698      7.204   257.8406 3.4963e+02     1.3051      0.211      0.306    23.1267 0.0000e+00
      0.219      0.037     6.8862     80.477     31.999  30.802457     1.3622      7.201   258.3109 7.4063e+02     1.3290      0.211      0.305    23.1289 0.0000e+00
      0.231      0.034     6.8327     79.843     31.993  30.792254     1.3867      7.193   258.6444 9.1977e+02     1.3136      0.224      0.325    23.1331 0.0000e+00
      0.247      0.030     6.7688     79.091     31.998  30.794545     1.4176      7.185   258.9479 9.1670e+02     1.3016      0.243      0.353    23.1352 0.0000e+00
      0.262      0.025     6.6956     78.238     32.033  30.830159     1.4230      7.181   259.3137 9.4506e+02     1.3056      0.259      0.376    23.1310 0.0000e+00
      0.267      0.020     6.6182     77.342     32.042  30.841820     1.4331      7.184   259.9686 9.9164e+02     1.3018      0.265      0.385    23.1243 0.0000e+00
      0.264      0.016     6.5474     76.520     32.005  30.808525     1.4583      7.184   260.7580 1.0284e+03     1.3467      0.260      0.377    23.1185 0.0000e+00
      0.259      0.011     6.4920     75.876     32.003  30.808638     1.4793      7.179   261.2869 1.0395e+03     1.4515      0.252      0.367    23.1113 0.0000e+00
      0.258      0.006     6.4546     75.451     32.034  30.843192     1.4845      7.172   261.5454 1.0455e+03     1.5006      0.249      0.362    23.1150 0.0000e+00
      0.266     -0.001     6.4297     75.196     32.019  30.845282     1.4846      7.169   261.7324 1.1326e+03     1.4826      0.259      0.376    23.1245 0.0000e+00
      0.278     -0.010     6.4069     74.995     31.976  30.833920     1.4621      7.170   261.9991 1.2703e+03     1.4477      0.278      0.403    23.1255 0.0000e+00
      0.280     -0.021     6.3871     74.836     31.941  30.832872     1.4064      7.174   262.2753 1.1028e+03     1.3843      0.281      0.407    23.1271 0.0000e+00
      0.268     -0.031     6.3831     74.844     31.915  30.832671     1.3706      7.178   262.5767 6.9007e+02     1.3258      0.264      0.384    23.1308 0.0000e+00
      0.248     -0.040     6.4082     75.168     31.900  30.831526     1.3691      7.182   263.1482 7.2844e+02     1.2898      0.241      0.351    23.1514 0.0000e+00
      0.229     -0.041     6.4626     75.815     31.883  30.819042     1.3711      7.185   263.7645 1.1389e+03     1.2853      0.223      0.323    23.2075 0.0000e+00
      0.216     -0.035     6.5303     76.604     31.875  30.808745     1.3665      7.185   264.0058 1.2619e+03     1.3016      0.210      0.305    23.2664 0.0000e+00
      0.210     -0.024     6.5950     77.348     31.908  30.834035     1.3593      7.184   264.0866 1.1243e+03     1.3037      0.203      0.295    23.3050 0.0000e+00
      0.209     -0.013     6.6474     77.943     31.954  30.870785     1.3573      7.180   264.3970 9.6886e+02     1.3107      0.205      0.297    23.3250 0.0000e+00
      0.211     -0.006     6.6791     78.293     31.965  30.872036     1.3609      7.175   264.8330 9.1226e+02     1.3254      0.208      0.302    23.3291 0.0000e+00
      0.212     -0.002     6.6789     78.266     31.953  30.849144     1.3478      7.171   265.1433 8.8826e+02     1.3284      0.209      0.303    23.3239 0.0000e+00
      0.211 3.7227e-08     6.6424     77.810     31.964  30.848010     1.3184      7.169   265.3087 1.0434e+03     1.3164      0.208      0.302    23.3130 0.0000e+00
      0.210 4.0950e-07     6.5782     77.030     31.988  30.858312     1.2997      7.168   265.3704 1.3413e+03     1.3036      0.206      0.299    23.2997 0.0000e+00
      0.210      0.000     6.4978     76.066     31.987  30.846662     1.2960      7.168   265.3734 1.0547e+03     1.2955      0.205      0.297    23.2850 0.0000e+00
      0.210      0.000     6.4130     75.057     31.981  30.834160     1.3010      7.168   265.5165 4.5749e+02     1.2791      0.206      0.298    23.2691 0.0000e+00
      0.211      0.001     6.3321     74.100     31.985  30.834159     1.3048      7.169   265.8105 1.9350e+02     1.2577      0.207      0.301    23.2488 0.0000e+00
      0.211      0.001     6.2579     73.225     32.002  30.846643     1.3062      7.170   266.1759 1.4775e+02     1.2508      0.208      0.300    23.2264 0.0000e+00
      0.211      0.001     6.1936     72.465     32.017  30.858076     1.3085      7.171   266.4920 1.5510e+02     1.2567      0.207      0.301    23.2101 0.0000e+00
      0.211      0.000     6.1419     71.853     32.008  30.845373     1.3413      7.172   266.6210 1.5318e+02     1.2683      0.208      0.302    23.2008 0.0000e+00
      0.211      0.000     6.1006     71.364     31.985  30.820065     1.4086      7.173   266.7894 1.5066e+02     1.2686      0.207      0.301    23.1947 0.0000e+00
      0.211     -0.001     6.0662     70.957     31.973  30.806114     1.4418      7.175   267.0659 1.9331e+02     1.2600      0.208      0.301    23.1900 0.0000e+00
      0.211     -0.001     6.0383     70.624     31.973  30.803701     1.4311      7.176   267.2104 4.7634e+02     1.2559      0.207      0.300    23.1844 0.0000e+00
      0.211     -0.001     6.0154     70.349     31.963  30.790886     1.4350      7.177   267.3324 8.1066e+02     1.2799      0.207      0.300    23.1786 0.0000e+00
      0.210     -0.001     5.9974     70.129     31.954  30.778176     1.4710      7.177   267.6803 7.5968e+02     1.3365      0.206      0.299    23.1744 0.0000e+00
      0.209      0.000     5.9839     69.962     31.958  30.777021     1.4986      7.175   268.1467 5.1856e+02     1.3602      0.205      0.297    23.1713 0.0000e+00
      0.209      0.000     5.9738     69.835     31.962  30.776917     1.5026      7.172   268.4977 4.0748e+02     1.3527      0.205      0.298    23.1674 0.0000e+00
      0.210      0.000     5.9664     69.745     31.964  30.776917     1.5190      7.170   268.6542 3.9838e+02     1.3379      0.206      0.299    23.1613 0.0000e+00
      0.211     -0.001     5.9589     69.659     31.964  30.777021     1.5496      7.168   268.8351 5.2214e+02     1.3032      0.207      0.301    23.1541 0.0000e+00
      0.211     -0.001     5.9503     69.558     31.964  30.778166     1.5606      7.167   269.1360 8.4054e+02     1.2689      0.208      0.302    23.1466 0.0000e+00
      0.210     -0.001     5.9402     69.438     31.979  30.790763     1.5606      7.166   269.4533 1.0885e+03     1.2591      0.207      0.300    23.1395 0.0000e+00
      0.208     -0.001     5.9270     69.280     31.993  30.802320     1.5586      7.165   269.8326 1.2089e+03     1.2465      0.203      0.295    23.1365 0.0000e+00
      0.207     -0.000     5.9119     69.103     31.981  30.790889     1.5549      7.163   270.1941 1.2306e+03     1.2382      0.202      0.293    23.1389 0.0000e+00
      0.208      0.001     5.8955     68.917     31.966  30.779561     1.5612      7.160   270.5549 1.1260e+03     1.2803      0.204      0.295    23.1397 0.0000e+00
      0.210      0.002     5.8744     68.679     31.975  30.792376     1.5610      7.154   271.0113 1.0746e+03     1.2978      0.207      0.299    23.1369 0.0000e+00
      0.211      0.003     5.8469     68.368     31.997  30.818817     1.5525      7.146   271.3244 1.0798e+03     1.2671      0.208      0.301    23.1331 0.0000e+00
      0.211      0.003     5.8131     67.984     32.019  30.845250     1.5510      7.136   271.3289 1.1256e+03     1.3063      0.207      0.300    23.1324 0.0000e+00
      0.211      0.002     5.7741     67.538     32.027  30.857951     1.5525      7.126   271.3249 1.2120e+03     1.4046      0.207      0.300    23.1372 0.0000e+00
      0.211      0.001     5.7326     67.060     32.010  30.845373     1.5525      7.116   271.5344 1.2366e+03     1.4795      0.207      0.301    23.1450 0.0000e+00
      0.212      0.001     5.6901     66.569     31.981  30.820190     1.5503      7.109   271.7960 1.1351e+03     1.5095      0.208      0.302    23.1535 0.0000e+00
      0.212      0.001     5.6482     66.085     31.965  30.807499     1.5354      7.102   271.9931 9.4273e+02     1.4924      0.209      0.303    23.1622 0.0000e+00
      0.212      0.001     5.6066     65.603     31.973  30.818941     1.5186      7.097   272.1964 7.1982e+02     1.4867      0.208      0.302    23.1702 0.0000e+00
      0.212      0.001     5.5638     65.108     31.983  30.831526     1.5128      7.097   272.4474 5.6978e+02     1.5017      0.208      0.302    23.1763 0.0000e+00
      0.213      0.000     5.5237     64.646     31.981  30.832661     1.5016      7.101   272.7050 6.4426e+02     1.4916      0.209      0.303    23.1804 0.0000e+00
      0.213      0.000     5.4897     64.256     31.977  30.832660     1.4483      7.105   272.9882 8.8993e+02     1.4252      0.209      0.303    23.1843 0.0000e+00
      0.213      0.000     5.4601     63.915     31.972  30.831525     1.3555      7.109   273.2041 1.0726e+03     1.3397      0.209      0.303    23.1888 0.0000e+00
      0.213      0.001     5.4336     63.611     31.956  30.818938     1.3068      7.113   273.2501 1.1190e+03     1.3125      0.209      0.303    23.1941 0.0000e+00
      0.213      0.002     5.4095     63.331     31.943  30.807496     1.3098      7.116   273.2862 1.1350e+03     1.3093      0.209      0.303    23.2001 0.0000e+00
      0.213      0.004     5.3864     63.059     31.957  30.820187     1.3090      7.115   273.4691 1.0667e+03     1.2709      0.209      0.303    23.2062 0.0000e+00
      0.214      0.004     5.3655     62.810     31.986  30.845370     1.3160      7.110   273.5685 9.3304e+02     1.2440      0.209      0.303    23.2117 0.0000e+00
      0.216      0.004     5.3473     62.595     32.000  30.857947     1.3396      7.101   273.3688 1.1077e+03     1.2590      0.212      0.307    23.2162 0.0000e+00
      0.219      0.003     5.3298     62.391     31.986  30.845245     1.3641      7.092   273.1194 1.2358e+03     1.2698      0.215      0.312    23.2185 0.0000e+00
      0.221      0.001     5.3123     62.185     31.959  30.818813     1.3824      7.087   273.0493 8.0912e+02     1.2827      0.218      0.317    23.2163 0.0000e+00
      0.221      0.000     5.2958     61.985     31.935  30.792380     1.3952      7.088   273.1227 4.6051e+02     1.2929      0.219      0.316    23.2108 0.0000e+00
      0.218      0.001     5.2818     61.809     31.929  30.779670     1.4179      7.091   273.3184 5.0184e+02     1.3022      0.213      0.309    23.2085 0.0000e+00
      0.215      0.002     5.2718     61.678     31.949  30.792144     1.4363      7.096   273.5232 6.3203e+02     1.3028      0.209      0.304    23.2118 0.0000e+00
      0.215      0.003     5.2663     61.608     31.977  30.816172     1.4345      7.100   273.5338 7.6054e+02     1.2694      0.210      0.304    23.2138 0.0000e+00
      0.218      0.004     5.2617     61.558     31.976  30.816162     1.4425      7.101   273.5327 8.1742e+02     1.2349      0.213      0.308    23.2080 0.0000e+00
      0.223      0.005     5.2551     61.484     31.949  30.792028     1.4676      7.099   273.6824 8.2971e+02     1.2218      0.220      0.319    23.1949 0.0000e+00
      0.226      0.005     5.2476     61.400     31.932  30.778401     1.4911      7.096   273.7952 1.2870e+03     1.2637      0.225      0.326    23.1798 0.0000e+00
      0.225      0.004     5.2389     61.302     31.930  30.778411     1.5059      7.094   273.9502 1.8283e+03     1.3438      0.221      0.321    23.1754 0.0000e+00
      0.224      0.002     5.2255     61.148     31.943  30.792153     1.4895      7.093   274.1791 1.6148e+03     1.3664      0.217      0.315    23.1812 0.0000e+00
      0.224      0.000     5.2053     60.916     31.967  30.817545     1.4486      7.094   274.2394 1.1903e+03     1.3234      0.219      0.318    23.1843 0.0000e+00
      0.225     -0.001     5.1821     60.649     31.979  30.831390     1.4248      7.094   274.2491 9.9196e+02     1.3123      0.221      0.321    23.1870 0.0000e+00
      0.225      0.000     5.1603     60.397     31.979  30.832545     1.4227      7.092   274.2972 1.0271e+03     1.3547      0.221      0.321    23.1905 0.0000e+00
      0.224      0.000     5.1404     60.163     31.978  30.831514     1.4138      7.091   274.3045 1.3625e+03     1.3782      0.220      0.319    23.1929 0.0000e+00
      0.224      0.001     5.1228     59.957     31.965  30.818927     1.3816      7.092   274.4239 1.5028e+03     1.3515      0.219      0.318    23.1966 0.0000e+00
      0.223      0.003     5.1074     59.780     31.951  30.807372     1.3554      7.095   274.6216 1.3063e+03     1.3066      0.219      0.318    23.2012 0.0000e+00
      0.223      0.006     5.0940     59.629     31.959  30.818813     1.3538      7.099   274.8012 1.0382e+03     1.2930      0.219      0.317    23.2040 0.0000e+00
      0.224      0.008     5.0845     59.523     31.968  30.830254     1.3624      7.103   275.0482 6.3173e+02     1.3093      0.219      0.317    23.2029 0.0000e+00
      0.228      0.010     5.0782     59.452     31.954  30.818699     1.3681      7.104   275.2844 3.0688e+02     1.2908      0.222      0.323    23.2008 0.0000e+00
      0.234      0.010     5.0731     59.397     31.939  30.806110     1.3677      7.104   275.5063 2.2369e+02     1.2517      0.230      0.334    23.2041 0.0000e+00
      0.239      0.009     5.0679     59.342     31.935  30.805059     1.3759      7.104   275.7523 1.9153e+02     1.2641      0.235      0.341    23.2119 0.0000e+00
      0.240      0.006     5.0624     59.284     31.931  30.806004     1.3849      7.100   275.9357 1.7080e+02     1.2881      0.235      0.340    23.2160 0.0000e+00
      0.239      0.003     5.0574     59.232     31.939  30.817539     1.3748      7.094   276.0893 1.5954e+02     1.2666      0.234      0.339    23.2171 0.0000e+00
      0.238      0.000     5.0504     59.154     31.937  30.817520     1.3640      7.089   276.2323 1.5330e+02     1.2491      0.233      0.339    23.2198 0.0000e+00
      0.237     -0.002     5.0412     59.049     31.923  30.805779     1.3650      7.086   276.3743 1.4705e+02     1.2587      0.233      0.338    23.2254 0.0000e+00
      0.237     -0.002     5.0321     58.942     31.920  30.802589     1.3688      7.085   276.5162 1.4056e+02     1.2615      0.233      0.338    23.2328 0.0000e+00
      0.236     -0.002     5.0212     58.814     31.895  30.778952     1.3449      7.082   276.6563 1.3935e+02     1.2528      0.232      0.336    23.2388 0.0000e+00
      0.235     -0.001     5.0088     58.668     31.759  30.647000     1.2873      7.079   276.8638 1.4045e+02     1.2443      0.231      0.335    23.2429 0.0000e+00
      0.235     -0.001     5.0025     58.578     31.527  30.413780     1.2508      7.077   277.0463 1.3546e+02     1.2499      0.231      0.335    23.2444 0.0000e+00
      0.235     -0.001     5.0452     59.023     31.384  30.245311     1.2441      7.077   277.1427 1.2440e+02     1.2601      0.231      0.335    23.2443 0.0000e+00
      0.235     -0.001     5.2366     61.172     31.384  30.197654     1.2428      7.079   277.3402 1.1519e+02     1.2762      0.230      0.334    23.2434 0.0000e+00
      0.235     -0.001     5.6454     65.864     31.450  30.218519     1.2452      7.081   277.5412 1.1103e+02     1.2919      0.231      0.335    23.2453 0.0000e+00
      0.234     -0.002     6.2205     72.516     31.503  30.243512     1.2457      7.082   277.5952 1.1027e+02     1.2968      0.230      0.334    23.2449 0.0000e+00
      0.234     -0.002     6.8517     79.839     31.521  30.245785     1.2392      7.082   277.7346 1.1126e+02     1.3056      0.229      0.332    23.1936 0.0000e+00
      0.233     -0.001     7.4557     86.858     31.529  30.245983     1.2305      7.081   278.0216 1.1439e+02     1.3071      0.228      0.331    23.0976 0.0000e+00
      0.232     -0.001     7.9762     92.912     31.534  30.245888     1.2325      7.078   278.3119 1.1771e+02     1.3143      0.228      0.330    23.0267 0.0000e+00
      0.232     -0.000     8.3700     97.492     31.535  30.244642     1.2446      7.074   278.4917 1.1608e+02     1.3006      0.228      0.330    22.9889 0.0000e+00
      0.233      0.001     8.6124    100.312     31.522  30.230912     1.2485      7.071   278.5616 1.1302e+02     1.2644      0.228      0.331    22.9668 0.0000e+00
      0.234      0.001     8.7046    101.385     31.498  30.206883     1.2618      7.069   278.6403 1.1293e+02     1.2729      0.229      0.332    22.9567 0.0000e+00
      0.234      0.001     8.6809    101.109     31.499  30.208132     1.2946      7.067   278.7551 1.1146e+02     1.2814      0.230      0.333    22.9522 0.0000e+00
      0.234      0.002     8.5942    100.098     31.539  30.246016     1.3052      7.064   278.8314 1.0769e+02     1.2755      0.230      0.334    22.9482 0.0000e+00
      0.234      0.002     8.4890     98.869     31.579  30.283900     1.2986      7.063   278.8739 1.0629e+02     1.2635      0.229      0.332    22.9459 0.0000e+00
      0.234      0.001     8.3907     97.721     31.582  30.285149     1.2974      7.064   279.0115 1.0636e+02     1.2270      0.230      0.333    22.9464 0.0000e+00
      0.235      0.001     8.3068     96.743     31.558  30.261121     1.3002      7.064   279.2903 1.0582e+02     1.2315      0.231      0.336    22.9464 0.0000e+00
      0.236      0.002     8.2374     95.934     31.543  30.247401     1.3130      7.064   279.5773 1.0671e+02     1.2566      0.232      0.337    22.9454 0.0000e+00
      0.236      0.002     8.1824     95.291     31.542  30.246267     1.3235      7.063   279.7293 1.0910e+02     1.2554      0.232      0.336    22.9435 0.0000e+00
      0.236      0.001     8.1376     94.767     31.544  30.247413     1.3166      7.061   279.8370 1.1224e+02     1.2477      0.231      0.336    22.9417 0.0000e+00
      0.237      0.001     8.1021     94.351     31.560  30.261258     1.3134      7.061   279.9334 1.1703e+02     1.2551      0.231      0.336    22.9407 0.0000e+00
      0.238      0.000     8.0777     94.064     31.588  30.286650     1.3212      7.063   279.8614 1.2499e+02     1.2834      0.233      0.338    22.9406 0.0000e+00
      0.238     -0.001     8.0624     93.884     31.603  30.300401     1.3196      7.068   279.8264 1.3629e+02     1.2849      0.233      0.339    22.9403 0.0000e+00
      0.237     -0.001     8.0532     93.775     31.603  30.300516     1.3124      7.075   280.0269 1.4226e+02     1.2739      0.233      0.338    22.9386 0.0000e+00
      0.236     -0.001     8.0502     93.740     31.590  30.288034     1.3072      7.082   280.2214 1.3957e+02     1.2719      0.232      0.336    22.9371 0.0000e+00
      0.235     -0.001     8.0548     93.793     31.578  30.276486     1.3029      7.088   280.2847 1.3662e+02     1.2609      0.230      0.334    22.9355 0.0000e+00
      0.235     -0.001     8.0627     93.883     31.591  30.287910     1.3055      7.093   280.2762 1.3883e+02     1.2628      0.230      0.334    22.9341 0.0000e+00
      0.236      0.000     8.0676     93.937     31.604  30.299143     1.3111      7.096   280.2904 1.5135e+02     1.2648      0.232      0.336    22.9337 0.0000e+00
      0.236 -4.283e-07     8.0665     93.922     31.591  30.285288     1.3067      7.097   280.3702 2.0130e+02     1.2538      0.232      0.337    22.9333 0.0000e+00
      0.236      0.000     8.0603     93.849     31.551  30.247404     1.3071      7.100   280.4669 3.4046e+02     1.2819      0.231      0.336    22.9334 0.0000e+00
      0.235     -0.000     8.0534     93.774     31.523  30.222125     1.3166      7.102   280.5134 5.5520e+02     1.3301      0.230      0.334    22.9328 0.0000e+00
      0.235     -0.001     8.0490     93.730     31.532  30.233660     1.3112      7.102   280.5882 7.1508e+02     1.3186      0.231      0.335    22.9307 0.0000e+00
      0.235     -0.001     8.0452     93.692     31.557  30.259873     1.2970      7.101   280.8544 7.3623e+02     1.2953      0.231      0.335    22.9283 0.0000e+00
      0.235     -0.001     8.0400     93.634     31.582  30.285046     1.2917      7.099   281.1510 6.6712e+02     1.2924      0.230      0.334    22.9284 0.0000e+00
      0.235     -0.001     8.0348     93.577     31.580  30.284004     1.3025      7.096   281.3354 5.7249e+02     1.2829      0.231      0.335    22.9312 0.0000e+00
      0.235     -0.001     8.0321     93.549     31.540  30.247276     1.3171      7.094   281.4499 6.8873e+02     1.2727      0.230      0.334    22.9357 0.0000e+00
      0.235     -0.001     8.0314     93.542     31.514  30.222000     1.3120      7.093   281.5887 8.8570e+02     1.2607      0.230      0.334    22.9397 0.0000e+00
      0.234      0.000     8.0283     93.505     31.524  30.232410     1.2963      7.092   281.8094 6.8896e+02     1.2602      0.229      0.333    22.9403 0.0000e+00
      0.234      0.000     8.0204     93.414     31.539  30.246132     1.2927      7.087   281.9666 3.6142e+02     1.2967      0.229      0.332    22.9425 0.0000e+00
      0.234      0.000     8.0129     93.326     31.554  30.260903     1.2961      7.077   282.1122 2.5144e+02     1.3360      0.230      0.333    22.9457 0.0000e+00
      0.235      0.001     8.0102     93.296     31.578  30.284003     1.2998      7.063   282.2802 2.4310e+02     1.3070      0.230      0.334    22.9449 0.0000e+00
      0.235      0.001     8.0103     93.302     31.563  30.271418     1.3009      7.051   282.2767 2.3782e+02     1.2521      0.231      0.335    22.9447 0.0000e+00
      0.235      0.001     8.0097     93.300     31.524  30.235739     1.2999      7.042   282.2418 2.9270e+02     1.2525      0.231      0.335    22.9454 0.0000e+00
      0.235      0.001     8.0070     93.272     31.521  30.233648     1.3068      7.036   282.2886 3.8264e+02     1.2813      0.231      0.335    22.9446 0.0000e+00
      0.236      0.001     8.0040     93.239     31.533  30.246140     1.3113      7.034   282.3261 3.6044e+02     1.2643      0.231      0.336    22.9453 0.0000e+00
      0.236      0.001     8.0013     93.209     31.546  30.259767     1.3081      7.035   282.3515 2.8120e+02     1.2296      0.231      0.336    22.9483 0.0000e+00
      0.237      0.002     7.9968     93.157     31.558  30.271407     1.3046      7.040   282.4231 2.4602e+02     1.2281      0.232      0.337    22.9517 0.0000e+00
      0.237      0.002     7.9886     93.059     31.547  30.259871     1.3060      7.046   282.6761 2.4567e+02     1.2765      0.233      0.338    22.9537 0.0000e+00
      0.238      0.001     7.9763     92.912     31.535  30.247290     1.3056      7.051   282.9151 2.2876e+02     1.3261      0.233      0.338    22.9545 0.0000e+00
      0.238      0.001     7.9615     92.738     31.535  30.246301     1.3005      7.055   282.9041 2.0411e+02     1.2792      0.233      0.339    22.9555 0.0000e+00
      0.239      0.000     7.9462     92.558     31.537  30.247915     1.2990      7.059   282.8873 2.2526e+02     1.2279      0.234      0.340    22.9562 0.0000e+00
      0.239      0.000     7.9316     92.387     31.557  30.266799     1.3055      7.065   282.9703 3.0209e+02     1.2557      0.234      0.340    22.9548 0.0000e+00
      0.238     -0.001     7.9206     92.258     31.575  30.284119     1.3150      7.071   283.0471 3.9957e+02     1.2797      0.233      0.338    22.9521 0.0000e+00
      0.237     -0.002     7.9156     92.201     31.558  30.266800     1.3139      7.074   283.1272 5.3706e+02     1.2738      0.233      0.338    22.9504 0.0000e+00
      0.237     -0.002     7.9171     92.217     31.538  30.247906     1.3005      7.076   283.1651 6.0205e+02     1.2753      0.233      0.338    22.9500 0.0000e+00
      0.236     -0.002     7.9251     92.308     31.537  30.246187     1.2825      7.079   283.1608 4.5233e+02     1.2682      0.231      0.335    22.9499 0.0000e+00
      0.235     -0.003     7.9382     92.461     31.537  30.246020     1.2791      7.082   283.1603 3.1382e+02     1.2482      0.230      0.334    22.9494 0.0000e+00
      0.235     -0.003     7.9536     92.641     31.537  30.245892     1.2970      7.082   283.2463 3.3637e+02     1.2786      0.231      0.335    22.9491 0.0000e+00
      0.235     -0.002     7.9686     92.817     31.536  30.244641     1.3146      7.080   283.4258 4.2514e+02     1.2996      0.230      0.334    22.9482 0.0000e+00
      0.234     -0.001     7.9811     92.962     31.521  30.230890     1.3170      7.076   283.6103 4.5419e+02     1.2577      0.228      0.333    22.9474 0.0000e+00
      0.233     -0.000     7.9889     93.051     31.496  30.206644     1.3080      7.067   283.7559 3.6463e+02     1.2601      0.227      0.330    22.9479 0.0000e+00
      0.233      0.001     7.9923     93.088     31.496  30.205508     1.3074      7.055   283.8953 2.5318e+02     1.2991      0.228      0.329    22.9483 0.0000e+00
      0.234      0.001     7.9930     93.094     31.509  30.217158     1.3271      7.046   284.0913 2.4524e+02     1.3011      0.229      0.332    22.9485 0.0000e+00
      0.235      0.002     7.9923     93.085     31.513  30.220488     1.3541      7.041   284.1471 2.9815e+02     1.2841      0.231      0.334    22.9484 0.0000e+00
      0.236      0.002     7.9900     93.060     31.538  30.245765     1.3673      7.037   284.0537 3.1811e+02     1.2773      0.231      0.335    22.9474 0.0000e+00
      0.236      0.002     7.9846     92.999     31.561  30.268762     1.3664      7.036   284.0809 4.2920e+02     1.2795      0.231      0.336    22.9456 0.0000e+00
      0.236      0.002     7.9767     92.908     31.536  30.244526     1.3520      7.036   284.2171 6.6024e+02     1.2805      0.231      0.335    22.9438 0.0000e+00
      0.237      0.002     7.9706     92.838     31.496  30.206746     1.3220      7.038   284.3245 8.0217e+02     1.2891      0.231      0.336    22.9437 0.0000e+00
      0.238      0.002     7.9672     92.801     31.481  30.193005     1.2989      7.043   284.2607 8.0866e+02     1.2925      0.233      0.338    22.9457 0.0000e+00
      0.238      0.001     7.9635     92.760     31.493  30.205394     1.3017      7.050   284.1339 7.7222e+02     1.2910      0.233      0.338    22.9474 0.0000e+00
      0.239     -0.001     7.9613     92.734     31.518  30.229526     1.3372      7.054   284.2541 6.6280e+02     1.3622      0.234      0.339    22.9472 0.0000e+00
      0.239     -0.001     7.9611     92.729     31.521  30.230765     1.3795      7.050   284.5092 4.5397e+02     1.4818      0.234      0.340    22.9473 0.0000e+00
      0.238     -0.001     7.9601     92.711     31.512  30.220373     1.3895      7.044   284.6372 2.8758e+02     1.5159      0.233      0.338    22.9489 0.0000e+00
      0.235      0.000     7.9581     92.682     31.526  30.230879     1.3764      7.044   284.7692 3.3228e+02     1.4695      0.230      0.334    22.9500 0.0000e+00
      0.234      0.001     7.9572     92.667     31.527  30.230785     1.3586      7.050   284.9870 4.6744e+02     1.3794      0.227      0.330    22.9501 0.0000e+00
      0.236      0.001     7.9591     92.687     31.516  30.219230     1.3404      7.057   285.0337 4.0508e+02     1.2803      0.231      0.335    22.9489 0.0000e+00
      0.239      0.002     7.9616     92.717     31.514  30.218180     1.3217      7.061   284.9893 2.0548e+02     1.2481      0.236      0.342    22.9449 0.0000e+00
      0.239      0.002     7.9618     92.720     31.514  30.218084     1.3064      7.063   284.9673 1.0483e+02     1.2656      0.236      0.342    22.9409 0.0000e+00
      0.238      0.001     7.9586     92.680     31.515  30.218076     1.3019      7.063   284.9391 9.3748e+01     1.2776      0.234      0.339    22.9379 0.0000e+00
      0.238      0.001     7.9531     92.614     31.516  30.218085     1.3144      7.061   285.0786 8.9421e+01     1.3325      0.232      0.337    22.9371 0.0000e+00
      0.238      0.001     7.9486     92.560     31.516  30.218190     1.3468      7.057   285.2773 8.4187e+01     1.4408      0.234      0.339    22.9388 0.0000e+00
      0.238      0.002     7.9456     92.525     31.517  30.219335     1.3716      7.056   285.3624 8.5223e+01     1.4884      0.235      0.341    22.9390 0.0000e+00
      0.238      0.002     7.9438     92.505     31.530  30.231931     1.3760      7.057   285.3339 9.3173e+01     1.4810      0.233      0.339    22.9368 0.0000e+00
      0.239      0.002     7.9448     92.516     31.542  30.243476     1.3818      7.060   285.3620 1.1749e+02     1.4425      0.234      0.340    22.9350 0.0000e+00
      0.242      0.001     7.9487     92.561     31.531  30.231921     1.3870      7.063   285.3580 1.6436e+02     1.3581      0.237      0.344    22.9345 0.0000e+00
      0.243      0.000     7.9545     92.626     31.519  30.219231     1.3835      7.067   285.2002 2.5994e+02     1.2848      0.239      0.346    22.9348 0.0000e+00
      0.242      0.000     7.9614     92.704     31.517  30.217056     1.3752      7.071   285.3461 3.4380e+02     1.2586      0.238      0.345    22.9354 0.0000e+00
      0.240      0.001     7.9674     92.774     31.505  30.205615     1.3700      7.073   285.5741 2.7772e+02     1.2546      0.236      0.342    22.9353 0.0000e+00
      0.237      0.001     7.9689     92.794     31.507  30.207905     1.3756      7.073   285.4612 1.8361e+02     1.2671      0.232      0.336    22.9346 0.0000e+00
      0.237      0.001     7.9666     92.774     31.543  30.244747     1.3784      7.072   285.4446 2.1527e+02     1.3179      0.230      0.335    22.9332 0.0000e+00
      0.241      0.000     7.9642     92.754     31.565  30.270044     1.3669      7.071   285.6315 2.9947e+02     1.3201      0.237      0.345    22.9320 0.0000e+00
      0.246     -0.003     7.9632     92.750     31.552  30.259747     1.3285      7.067   285.7421 3.5624e+02     1.2634      0.243      0.353    22.9315 0.0000e+00
      0.246     -0.006     7.9626     92.745     31.538  30.247265     1.2727      7.061   285.7495 4.5224e+02     1.2729      0.243      0.351    22.9322 0.0000e+00
      0.241     -0.008     7.9602     92.716     31.538  30.246130     1.2441      7.053   285.7200 6.1114e+02     1.3124      0.237      0.344    22.9364 0.0000e+00
      0.234     -0.009     7.9566     92.671     31.539  30.246026     1.2394      7.044   285.8159 9.5942e+02     1.2838      0.229      0.331    22.9433 0.0000e+00
      0.229     -0.006     7.9541     92.641     31.539  30.246016     1.2250      7.036   286.0486 1.2170e+03     1.2621      0.224      0.324    22.9475 0.0000e+00
      0.228     -0.001     7.9541     92.641     31.539  30.246007     1.1990      7.031   286.2107 1.0390e+03     1.2951      0.222      0.322    22.9489 0.0000e+00
      0.230      0.004     7.9539     92.637     31.540  30.245914     1.1826      7.029   286.1412 9.2860e+02     1.3160      0.224      0.325    22.9481 0.0000e+00
      0.234      0.008     7.9528     92.619     31.541  30.244893     1.1831      7.031   285.8964 7.5077e+02     1.3010      0.230      0.334    22.9454 0.0000e+00
      0.239      0.008     7.9523     92.606     31.531  30.233666     1.1863      7.037   285.8328 3.2211e+02     1.2674      0.235      0.341    22.9443 0.0000e+00
      0.242      0.005     7.9529     92.611     31.536  30.237174     1.2030      7.042   285.9742 1.0362e+02     1.2764      0.238      0.345    22.9451 0.0000e+00
      0.243     -0.001     7.9575     92.666     31.588  30.287302     1.2375      7.044   286.0564 7.5555e+01     1.3178      0.240      0.347    22.9445 0.0000e+00
      0.243     -0.006     7.9682     92.793     31.633  30.331712     1.2553      7.042   286.0534 7.0652e+01     1.3094      0.240      0.347    22.9405 0.0000e+00
      0.239     -0.008     7.9821     92.956     31.631  30.329603     1.2520      7.040   286.1095 6.9669e+01     1.2665      0.236      0.342    22.9366 0.0000e+00
      0.233     -0.008     7.9931     93.081     31.627  30.325307     1.2436      7.042   286.3041 7.0112e+01     1.2876      0.229      0.332    22.9352 0.0000e+00
      0.228     -0.004     7.9948     93.098     31.646  30.343281     1.2357      7.045   286.4282 7.1566e+01     1.4113      0.222      0.323    22.9361 0.0000e+00
      0.226      0.000     7.9853     92.988     31.661  30.356398     1.2307      7.046   286.4908 7.3289e+01     1.5108      0.218      0.318    22.9387 0.0000e+00
      0.228      0.004     7.9702     92.812     31.661  30.356899     1.2291      7.048   286.6312 7.4825e+01     1.5144      0.222      0.322    22.9387 0.0000e+00
      0.236      0.005     7.9530     92.614     31.652  30.349336     1.2160      7.050   286.5772 7.6776e+01     1.4244      0.232      0.336    22.9361 0.0000e+00
      0.243      0.005     7.9324     92.379     31.628  30.328458     1.1834      7.052   286.4396 7.8507e+01     1.2774      0.241      0.349    22.9347 0.0000e+00
      0.243      0.003     7.9127     92.159     31.590  30.294983     1.1649      7.054   286.6017 7.9141e+01     1.2317      0.239      0.347    22.9348 0.0000e+00
      0.238     -0.000     7.8994     92.011     31.553  30.262128     1.1579      7.056   286.8170 7.9326e+01     1.2687      0.232      0.337    22.9345 0.0000e+00
      0.235     -0.004     7.8930     91.943     31.537  30.248740     1.1182      7.058   286.8912 7.9201e+01     1.2672      0.230      0.334    22.9355 0.0000e+00
      0.235     -0.005     7.8943     91.962     31.547  30.260129     1.0701      7.059   286.9828 7.8357e+01     1.2451      0.230      0.334    22.9396 0.0000e+00
      0.235     -0.004     7.9019     92.053     31.559  30.272814     1.0641      7.057   287.0649 7.7347e+01     1.2450      0.231      0.334    22.9446 0.0000e+00
      0.235     -0.003     7.9126     92.178     31.561  30.275112     1.0722      7.057   286.9374 7.6863e+01     1.2655      0.231      0.335    22.9494 0.0000e+00
      0.234     -0.002     7.9231     92.302     31.574  30.287917     1.0671      7.058   286.7318 7.6602e+01     1.2802      0.229      0.333    22.9533 0.0000e+00
      0.232     -0.001     7.9318     92.403     31.588  30.300617     1.0571      7.059   286.7296 7.6155e+01     1.2699      0.228      0.330    22.9553 0.0000e+00
      0.231      0.000     7.9383     92.476     31.590  30.301667     1.0527      7.058   286.8250 7.6210e+01     1.2627      0.226      0.328    22.9563 0.0000e+00
      0.232      0.001     7.9427     92.523     31.590  30.300607     1.0599      7.055   286.8526 7.7415e+01     1.2843      0.227      0.329    22.9565 0.0000e+00
      0.233      0.003     7.9464     92.565     31.578  30.287792     1.0618      7.049   286.8055 7.9256e+01     1.2873      0.229      0.331    22.9568 0.0000e+00
      0.235      0.003     7.9487     92.593     31.563  30.273727     1.0763      7.043   286.8575 8.1581e+01     1.2676      0.230      0.334    22.9575 0.0000e+00
      0.236      0.003     7.9475     92.584     31.543  30.257562     1.1245      7.040   287.0515 8.5085e+01     1.2602      0.232      0.336    22.9557 0.0000e+00
      0.236      0.002     7.9435     92.552     31.498  30.219364     1.1675      7.042   287.0857 8.8485e+01     1.2902      0.232      0.337    22.9532 0.0000e+00
      0.236      0.002     7.9386     92.522     31.460  30.192910     1.1821      7.045   287.0129 8.9952e+01     1.3242      0.232      0.336    22.9521 0.0000e+00
      0.236      0.002     7.9333     92.497     31.445  30.191751     1.1535      7.046   287.1183 8.9739e+01     1.2752      0.231      0.335    22.9518 0.0000e+00
      0.236      0.002     7.9290     92.474     31.449  30.205367     1.0888      7.043   287.2416 8.8846e+01     1.2166      0.231      0.335    22.9543 0.0000e+00
      0.237      0.002     7.9322     92.514     31.475  30.230539     1.0429      7.040   287.2128 8.8722e+01     1.2564      0.233      0.337    22.9608 0.0000e+00
      0.239      0.001     7.9449     92.640     31.495  30.242094     1.0390      7.040   287.1998 8.9460e+01     1.3290      0.235      0.341    22.9776 0.0000e+00
      0.240     -0.001     7.9614     92.800     31.482  30.218050     1.0696      7.045   287.2572 9.1476e+01     1.3319      0.236      0.343    23.0034 0.0000e+00
      0.239     -0.002     7.9801     92.993     31.466  30.193823     1.1002      7.052   287.2177 9.7984e+01     1.2915      0.235      0.341    23.0229 0.0000e+00
      0.238     -0.004     7.9986     93.195     31.481  30.203176     1.1056      7.057   287.1534 1.0896e+02     1.2674      0.233      0.338    23.0240 0.0000e+00
      0.236     -0.004     8.0110     93.338     31.482  30.204122     1.1078      7.061   287.2534 1.2071e+02     1.2852      0.231      0.335    23.0066 0.0000e+00
      0.234     -0.003     8.0164     93.407     31.481  30.205257     1.1168      7.065   287.3952 1.3490e+02     1.3232      0.229      0.332    22.9849 0.0000e+00
      0.233     -0.002     8.0148     93.395     31.491  30.216907     1.1230      7.065   287.4912 1.8781e+02     1.2999      0.228      0.330    22.9696 0.0000e+00
      0.233      0.000     8.0089     93.330     31.491  30.217976     1.1183      7.063   287.6391 2.5060e+02     1.2476      0.229      0.331    22.9624 0.0000e+00
      0.234      0.000     8.0053     93.287     31.492  30.218178     1.1063      7.060   287.8066 2.2456e+02     1.2404      0.229      0.331    22.9630 0.0000e+00
      0.235     -0.000     8.0060     93.287     31.496  30.219350     1.0698      7.058   287.9675 1.5081e+02     1.2735      0.231      0.334    22.9674 0.0000e+00
      0.236     -0.001     8.0074     93.290     31.514  30.232148     1.0078      7.057   288.0362 1.1557e+02     1.2814      0.232      0.337    22.9716 0.0000e+00
      0.235     -0.002     8.0087     93.286     31.535  30.245901     0.9718      7.058   287.9491 1.1008e+02     1.2453      0.232      0.336    22.9744 0.0000e+00
      0.234     -0.003     8.0114     93.300     31.555  30.258612     0.9668      7.059   287.9461 1.1023e+02     1.2325      0.229      0.332    22.9739 0.0000e+00
      0.232     -0.003     8.0143     93.322     31.560  30.258813     0.9658      7.058   288.0864 1.0974e+02     1.2495      0.226      0.327    22.9694 0.0000e+00
      0.231     -0.002     8.0162     93.339     31.551  30.248327     0.9586      7.058   288.2688 1.1157e+02     1.2677      0.226      0.328    22.9618 0.0000e+00
      0.231     -0.001     8.0160     93.336     31.562  30.258833     0.9446      7.059   288.3452 1.1819e+02     1.2690      0.227      0.329    22.9500 0.0000e+00
      0.231      0.000     8.0118     93.290     31.561  30.258842     0.9250      7.060   288.2362 1.4623e+02     1.2651      0.226      0.328    22.9380 0.0000e+00
      0.232      0.000     8.0041     93.208     31.547  30.248432     0.9139      7.061   288.2404 1.7228e+02     1.2825      0.227      0.331    22.9309 0.0000e+00
      0.233      0.001     7.9967     93.128     31.557  30.259978     0.9396      7.062   288.3969 1.5475e+02     1.2960      0.229      0.332    22.9292 0.0000e+00
      0.233      0.001     7.9920     93.078     31.567  30.271438     0.9779      7.059   288.4078 1.2959e+02     1.3058      0.229      0.332    22.9293 0.0000e+00
      0.232      0.001     7.9909     93.070     31.554  30.259988     0.9821      7.054   288.3722 1.1985e+02     1.3093      0.226      0.330    22.9309 0.0000e+00
      0.231     -0.000     7.9916     93.082     31.540  30.248551     0.9725      7.050   288.4817 1.1159e+02     1.2777      0.225      0.326    22.9360 0.0000e+00
      0.234     -0.002     7.9915     93.084     31.551  30.260158     1.0185      7.050   288.5281 1.0688e+02     1.2590      0.230      0.333    22.9401 0.0000e+00
      0.236     -0.004     7.9925     93.094     31.566  30.273328     1.0966      7.052   288.5029 1.0406e+02     1.2664      0.234      0.339    22.9422 0.0000e+00
      0.234     -0.004     7.9957     93.124     31.576  30.280771     1.1257      7.053   288.6927 1.0077e+02     1.2755      0.231      0.335    22.9446 0.0000e+00
      0.229     -0.004     7.9969     93.131     31.585  30.286639     1.1230      7.050   288.9300 9.9126e+01     1.2780      0.223      0.324    22.9475 0.0000e+00
      0.226     -0.004     7.9950     93.105     31.580  30.280771     1.1180      7.044   288.9632 1.0012e+02     1.2654      0.220      0.319    22.9493 0.0000e+00
      0.226     -0.003     7.9913     93.059     31.574  30.273330     1.1120      7.038   288.9217 1.0293e+02     1.2754      0.221      0.320    22.9481 0.0000e+00
      0.228     -0.002     7.9870     93.006     31.561  30.260171     1.1065      7.034   288.9439 1.0710e+02     1.2769      0.224      0.326    22.9442 0.0000e+00
      0.229      0.000     7.9849     92.980     31.549  30.248678     1.0969      7.032   289.0602 1.1553e+02     1.2532      0.227      0.330    22.9397 0.0000e+00
      0.227      0.000     7.9852     92.984     31.562  30.261373     1.1240      7.033   289.1228 1.8282e+02     1.2636      0.222      0.321    22.9372 0.0000e+00
      0.227     -0.001     7.9872     93.009     31.588  30.286659     1.1950      7.035   289.0996 2.4426e+02     1.2801      0.222      0.320    22.9361 0.0000e+00
      0.228     -0.002     7.9937     93.084     31.603  30.300393     1.2385      7.038   289.1238 1.8290e+02     1.2703      0.224      0.325    22.9345 0.0000e+00
      0.228     -0.002     8.0058     93.223     31.603  30.300413     1.2370      7.043   289.2424 1.1464e+02     1.2673      0.224      0.324    22.9340 0.0000e+00
      0.227     -0.003     8.0207     93.395     31.590  30.286894     1.2313      7.047   289.3296 1.0569e+02     1.2733      0.223      0.324    22.9344 0.0000e+00
      0.226     -0.005     8.0372     93.585     31.566  30.263950     1.2526      7.051   289.3176 1.0314e+02     1.2829      0.221      0.321    22.9346 0.0000e+00
      0.225     -0.007     8.0513     93.750     31.579  30.277015     1.2924      7.055   289.3553 1.0370e+02     1.2920      0.221      0.320    22.9347 0.0000e+00
      0.223     -0.008     8.0593     93.847     31.622  30.317857     1.3180      7.058   289.3559 1.0189e+02     1.2911      0.219      0.317    22.9336 0.0000e+00
      0.220     -0.008     8.0637     93.898     31.617  30.313229     1.3235      7.060   289.3249 9.6268e+01     1.2724      0.216      0.313    22.9316 0.0000e+00
      0.216     -0.008     8.0653     93.913     31.588  30.284562     1.3118      7.062   289.4100 9.4348e+01     1.2497      0.212      0.308    22.9307 0.0000e+00
      0.214     -0.007     8.0638     93.891     31.594  30.288779     1.2968      7.062   289.5240 9.5743e+01     1.2602      0.209      0.304    22.9319 0.0000e+00
      0.213     -0.005     8.0608     93.850     31.609  30.300709     1.2978      7.062   289.6719 9.4524e+01     1.2775      0.208      0.302    22.9341 0.0000e+00
      0.213     -0.003     8.0593     93.826     31.613  30.301784     1.3049      7.062   289.8214 9.3426e+01     1.3058      0.208      0.302    22.9345 0.0000e+00
      0.212     -0.001     8.0610     93.839     31.615  30.301779     1.2999      7.062   289.7824 9.5006e+01     1.3278      0.208      0.302    22.9320 0.0000e+00
      0.212     -0.000     8.0646     93.877     31.615  30.300652     1.2936      7.062   289.6308 9.5448e+01     1.2998      0.207      0.301    22.9293 0.0000e+00
      0.213      0.001     8.0696     93.934     31.602  30.288151     1.3016      7.060   289.5368 9.3602e+01     1.2713      0.208      0.302    22.9261 0.0000e+00
      0.214      0.004     8.0736     93.983     31.590  30.277646     1.3143      7.056   289.6796 9.1942e+01     1.2578      0.210      0.304    22.9212 0.0000e+00
      0.214      0.008     8.0739     93.988     31.614  30.300644     1.3273      7.051   289.9800 9.1212e+01     1.2593      0.210      0.304    22.9173 0.0000e+00
      0.214      0.009     8.0696     93.939     31.626  30.312189     1.3581      7.045   290.0719 9.1116e+01     1.2901      0.208      0.302    22.9152 0.0000e+00
      0.218      0.008     8.0610     93.840     31.602  30.290231     1.3833      7.040   290.0161 9.0956e+01     1.3249      0.212      0.308    22.9152 0.0000e+00
      0.224      0.001     8.0515     93.730     31.601  30.289171     1.3749      7.040   289.9926 9.0034e+01     1.3443      0.222      0.321    22.9167 0.0000e+00
      0.229     -0.010     8.0450     93.656     31.612  30.299374     1.3487      7.041   289.9605 8.9401e+01     1.3408      0.225      0.326    22.9174 0.0000e+00
      0.229     -0.025     8.0428     93.632     31.597  30.286580     1.3138      7.040   289.9725 8.9797e+01     1.2829      0.227      0.329    22.9176 0.0000e+00
      0.222     -0.037     8.0464     93.681     31.569  30.261490     1.2932      7.033   290.1382 9.0771e+01     1.2244      0.222      0.322    22.9186 0.0000e+00
      0.203     -0.045     8.0554     93.792     31.554  30.250046     1.3018      7.018   290.3291 9.2065e+01     1.2435      0.200      0.289    22.9196 0.0000e+00
      0.180     -0.047     8.0660     93.919     31.579  30.275228     1.3175      7.005   290.4727 9.4137e+01     1.2696      0.174      0.253    22.9194 0.0000e+00
      0.162     -0.043     8.0763     94.037     31.618  30.311938     1.3351      6.999   290.4983 9.6604e+01     1.2656      0.154      0.223    22.9201 0.0000e+00
      0.153     -0.033     8.0846     94.127     31.621  30.312874     1.3591      6.998   290.3798 9.8294e+01     1.2563      0.147      0.214    22.9247 0.0000e+00
      0.152     -0.023     8.0904     94.188     31.596  30.286547     1.3771      7.003   290.3314 1.0141e+02     1.2479      0.149      0.217    22.9294 0.0000e+00
      0.152     -0.015     8.0933     94.217     31.558  30.247638     1.3871      7.009   290.4293 1.0462e+02     1.2563      0.150      0.217    22.9313 0.0000e+00
      0.151     -0.010     8.0937     94.218     31.534  30.223454     1.3982      7.015   290.5318 1.0396e+02     1.2654      0.149      0.216    22.9301 0.0000e+00
      0.148     -0.009     8.0923     94.198     31.561  30.248160     1.4188      7.023   290.6239 1.0300e+02     1.2976      0.145      0.210    22.9262 0.0000e+00
      0.144     -0.009     8.0886     94.152     31.608  30.292330     1.4429      7.030   290.7683 1.0438e+02     1.3405      0.140      0.204    22.9219 0.0000e+00
      0.140     -0.009     8.0858     94.116     31.631  30.312979     1.4507      7.038   290.8148 1.0728e+02     1.3264      0.137      0.199    22.9187 0.0000e+00
      0.138     -0.007     8.0859     94.117     31.625  30.307299     1.4216      7.045   290.8424 1.0983e+02     1.2792      0.135      0.196    22.9162 0.0000e+00
      0.136     -0.004     8.0859     94.121     31.602  30.287165     1.3765      7.050   291.0156 1.0930e+02     1.2585      0.133      0.193    22.9146 0.0000e+00
      0.135     -0.001     8.0833     94.098     31.571  30.260056     1.3643      7.054   291.2739 1.0677e+02     1.2591      0.132      0.192    22.9133 0.0000e+00
      0.136      0.001     8.0796     94.063     31.540  30.233553     1.3761      7.056   291.3843 1.0643e+02     1.2569      0.133      0.193    22.9109 0.0000e+00
      0.137      0.001     8.0757     94.024     31.525  30.220742     1.3815      7.059   291.3181 1.0952e+02     1.2623      0.135      0.195    22.9103 0.0000e+00
      0.139      0.001     8.0676     93.934     31.535  30.232172     1.3741      7.061   291.2475 1.1183e+02     1.2625      0.138      0.200    22.9136 0.0000e+00
      0.140      0.001     8.0570     93.818     31.546  30.244748     1.3696      7.064   291.2197 1.1137e+02     1.2601      0.138      0.201    22.9175 0.0000e+00
      0.138      0.001     8.0511     93.755     31.545  30.245787     1.3816      7.066   291.3265 1.1022e+02     1.2942      0.135      0.196    22.9227 0.0000e+00
      0.136      0.003     8.0513     93.760     31.543  30.244734     1.4000      7.066   291.4195 1.1017e+02     1.3692      0.133      0.193    22.9264 0.0000e+00
      0.136      0.007     8.0562     93.825     31.527  30.232021     1.4174      7.063   291.3983 1.1453e+02     1.4341      0.133      0.193    22.9277 0.0000e+00
      0.138      0.014     8.0677     93.974     31.508  30.219088     1.4267      7.056   291.4137 1.1818e+02     1.4685      0.135      0.196    22.9325 0.0000e+00
      0.142      0.025     8.0829     94.171     31.497  30.215373     1.4299      7.047   291.5199 1.1438e+02     1.5100      0.138      0.201    22.9370 0.0000e+00
      0.148      0.039     8.0939     94.318     31.460  30.187120     1.4373      7.039   291.6497 1.1117e+02     1.5399      0.143      0.208    22.9361 0.0000e+00
      0.158      0.054     8.0996     94.401     31.396  30.131510     1.4699      7.035   291.7792 1.1177e+02     1.5244      0.155      0.226    22.9387 0.0000e+00
      0.172      0.070     8.1026     94.437     31.311  30.051042     1.5209      7.036   292.1383 1.0757e+02     1.4758      0.165      0.240    22.9498 0.0000e+00
      0.193      0.085     8.1040     94.420     31.179  29.912745     1.5491      7.037   292.8081 9.7633e+01     1.4703      0.187      0.270    22.9607 0.0000e+00
      0.221      0.097     8.1036     94.343     31.014  29.729441     1.5624      7.037   293.4253 8.9328e+01     1.5194      0.219      0.318    22.9711 0.0000e+00
      0.249      0.105     8.1016     94.218     30.863  29.549293     1.5621      7.036   293.8359 8.4319e+01     1.5823      0.243      0.353    22.9838 0.0000e+00
      0.279      0.107     8.0989     94.084     30.730  29.385628     1.5363      7.036   294.2445 8.0804e+01     1.6503      0.271      0.395    22.9879 0.0000e+00
      0.311      0.104     8.0962     93.966     30.578  29.211081     1.5082      7.037   294.6668 7.8066e+01     1.6699      0.307      0.446    22.9723 0.0000e+00
      0.339      0.099     8.0928     93.859     30.408  29.026374     1.4971      7.038   294.9837 7.5873e+01     1.6668      0.335      0.486    22.9291 0.0000e+00
      0.361      0.094     8.0861     93.717     30.264  28.866861     1.5038      7.040   295.2373 7.3865e+01     1.6440      0.355      0.515    22.8661 0.0000e+00
      0.380      0.090     8.0749     93.520     30.158  28.742921     1.5061      7.042   295.4961 7.1722e+01     1.5765      0.373      0.540    22.8035 0.0000e+00
      0.400      0.087     8.0589     93.269     30.105  28.670808     1.4976      7.044   295.6183 6.9859e+01     1.5221      0.392      0.567    22.7560 0.0000e+00
      0.423      0.087     8.0385     92.979     30.081  28.629914     1.4930      7.047   295.6816 6.7710e+01     1.5045      0.415      0.602    22.7224 0.0000e+00
      0.447      0.090     8.0187     92.708     30.029  28.565954     1.4965      7.052   295.8307 6.5442e+01     1.5171      0.439      0.637    22.6882 0.0000e+00
      0.471      0.096     8.0032     92.489     30.008  28.532448     1.5029      7.059   295.9584 6.3675e+01     1.5221      0.463      0.670    22.6479 0.0000e+00
      0.492      0.101     7.9896     92.288     30.302  28.796277     1.5062      7.064   296.1079 6.2482e+01     1.5026      0.481      0.698    22.6104 0.0000e+00
      0.516      0.106     7.9766     92.079     30.965  29.406321     1.5087      7.066   296.1752 6.1504e+01     1.4963      0.500      0.727    22.5799 0.0000e+00
      0.546      0.107     7.9637     91.849     31.490  29.875728     1.5062      7.067   295.9979 6.0656e+01     1.5681      0.536      0.777    22.5565 0.0000e+00
      0.579      0.107     7.9498     91.601     31.817  30.153635     1.5022      7.070   295.8572 5.9870e+01     1.6986      0.569      0.825    22.5362 0.0000e+00
      0.610      0.106     7.9413     91.429     32.391  30.670763     1.5064      7.072   295.9363 5.9000e+01     1.7614      0.600      0.869    22.5125 0.0000e+00
      0.637      0.105     7.9468     91.438     33.214  31.428778     1.5026      7.074   296.0940 5.8336e+01     1.7478      0.628      0.912    22.4838 0.0000e+00
      0.658      0.106     7.9710     91.672     34.054  32.205823     1.4930      7.073   296.3007 5.7783e+01     1.7182      0.645      0.936    22.4341 0.0000e+00
      0.679      0.111     8.0144     92.131     34.658  32.762263     1.4819      7.067   296.6292 5.7123e+01     1.7081      0.664      0.962    22.3750 0.0000e+00
      0.704      0.116     8.0784     92.826     34.872  32.948649     1.4606      7.058   296.9685 5.6174e+01     1.7179      0.688      0.998    22.3357 0.0000e+00
      0.736      0.120     8.1720     93.855     34.877  32.935077     1.4464      7.049   297.3918 5.4922e+01     1.7140      0.720      1.044    22.3071 0.0000e+00
      0.776      0.123     8.3036     95.324     34.941  32.979218     1.4389      7.042   298.2202 5.3785e+01     1.6913      0.761      1.104    22.2801 0.0000e+00
      0.815      0.124     8.4650     97.125     35.091  33.101245     1.4341      7.034   299.0686 5.2984e+01     1.6878      0.803      1.165    22.2602 0.0000e+00
      0.846      0.123     8.6342     98.966     35.171  33.140193     1.4437      7.025   299.5622 5.2568e+01     1.7328      0.835      1.210    22.2393 0.0000e+00
      0.870      0.122     8.7885    100.592     35.150  33.068994     1.4456      7.015   300.0586 5.2438e+01     1.7468      0.852      1.237    22.2083 0.0000e+00
      0.896      0.121     8.9149    101.882     35.140  33.002481     1.4377      7.003   300.5962 5.2267e+01     1.7359      0.875      1.269    22.1857 0.0000e+00
      0.927      0.123     9.0071    102.762     35.172  32.971049     1.4952      6.993   300.9860 5.2027e+01     1.8448      0.909      1.318    22.1725 0.0000e+00
      0.961      0.127     9.0591    103.180     35.208  32.942926     1.6174      6.986   301.3298 5.1942e+01     2.0263      0.942      1.366    22.1174 0.0000e+00
      0.996      0.127     9.0719    103.184     35.233  32.916409     1.6931      6.980   301.5691 5.1931e+01     2.0984      0.975      1.415    22.0322 0.0000e+00
      1.034      0.124     9.0419    102.731     35.263  32.904422     1.7126      6.975   301.6429 5.1793e+01     2.1065      1.016      1.473    21.9580 0.0000e+00
      1.068      0.118     8.9610    101.692     35.332  32.924963     1.8062      6.971   301.7923 5.1559e+01     2.3072      1.051      1.524    21.8688 0.0000e+00
      1.096      0.113     8.8392    100.162     35.374  32.910656     1.9799      6.967   302.0849 5.1570e+01     2.6632      1.076      1.560    21.7689 0.0000e+00
      1.118      0.110     8.6893     98.305     35.313  32.794875     2.0757      6.962   302.4277 5.2078e+01     2.8708      1.097      1.590    21.7007 0.0000e+00
      1.141      0.112     8.5275     96.321     35.239  32.668229     2.0825      6.954   302.7531 5.2505e+01     2.9255      1.117      1.619    21.6523 0.0000e+00
      1.169      0.117     8.3818     94.512     35.217  32.586054     2.0247      6.946   302.9216 5.2456e+01     2.9585      1.146      1.661    21.5971 0.0000e+00
      1.199      0.123     8.2665     93.023     35.272  32.563377     1.9101      6.942   303.0019 5.2499e+01     3.0256      1.174      1.702    21.5164 0.0000e+00
      1.234      0.125     8.1784     91.828     35.452  32.647995     1.8463      6.940   303.1228 5.2822e+01     3.0961      1.206      1.748    21.4261 0.0000e+00
      1.274      0.122     8.1215     90.994     35.613  32.719876     1.8416      6.937   303.2652 5.2769e+01     3.1082      1.251      1.815    21.3514 0.0000e+00
      1.311      0.117     8.1179     90.757     35.644  32.670218     1.8347      6.934   303.3466 5.2046e+01     3.1112      1.290      1.871    21.2651 0.0000e+00
      1.337      0.111     8.1838     91.262     35.619  32.555587     1.7804      6.931   303.3331 5.1237e+01     3.1324      1.312      1.903    21.1620 0.0000e+00
      1.357      0.103     8.3007     92.331     35.634  32.476990     1.6901      6.927   303.3595 5.0827e+01     3.1506      1.330      1.929    21.0370 0.0000e+00
      1.378      0.097     8.4252     93.552     35.709  32.481938     1.6443      6.923   303.4926 5.0634e+01     3.1476      1.351      1.959    20.9307 0.0000e+00
      1.403      0.093     8.5179     94.507     35.747  32.488300     1.6404      6.920   303.7384 5.0275e+01     3.1278      1.375      1.995    20.8364 0.0000e+00
      1.429      0.093     8.5630     94.975     35.693  32.426848     1.6517      6.917   304.0944 4.9800e+01     3.0942      1.402      2.035    20.6972 0.0000e+00
      1.454      0.095     8.5707     94.996     35.732  32.437550     1.6796      6.913   304.4421 4.9523e+01     3.0769      1.426      2.069    20.5489 0.0000e+00
      1.476      0.096     8.5557     94.687     35.922  32.554153     1.6927      6.910   304.7588 4.9432e+01     3.1024      1.448      2.100    20.4549 0.0000e+00
      1.499      0.096     8.5214     94.087     35.959  32.502839     1.6912      6.908   305.0840 4.9386e+01     3.1271      1.470      2.132    20.4294 0.0000e+00
      1.524      0.096     8.4705     93.281     35.725  32.198075     1.6613      6.905   305.2767 4.9360e+01     3.1621      1.494      2.167    20.4254 0.0000e+00
      1.550      0.097     8.4095     92.414     35.144  31.600176     1.5972      6.901   305.3679 4.9257e+01     3.2202      1.520      2.204    20.4016 0.0000e+00
      1.576      0.099     8.3407     91.535     34.021  30.544940     1.5596      6.898   305.6704 4.9124e+01     3.2494      1.546      2.242    20.3244 0.0000e+00
      1.601      0.102     8.2724     90.658     32.595  29.219418     1.5562      6.898   306.1817 4.8874e+01     3.2715      1.571      2.278    20.1972 0.0000e+00
      1.625      0.107     8.2277     89.916     31.569  28.210739     1.5657      6.904   306.4728 4.8245e+01     3.3042      1.591      2.309    20.0458 0.0000e+00
      1.651      0.110     8.2436     89.704     31.272  27.810751     1.5734      6.914   306.4369 4.7264e+01     3.3097      1.618      2.347    19.9333 0.0000e+00
      1.680      0.111     8.3700     90.703     31.203  27.621516     1.5664      6.926   306.3506 4.6104e+01     3.3073      1.647      2.389    19.8814 0.0000e+00
      1.713      0.111     8.6499     93.423     31.049  27.382982     1.5638      6.939   306.2901 4.5024e+01     3.3362      1.679      2.435    19.8433 0.0000e+00
      1.745      0.108     9.0874     97.824     30.969  27.212427     1.5503      6.952   306.0496 4.4121e+01     3.4152      1.715      2.487    19.7144 0.0000e+00
      1.772      0.103     9.6413    103.445     30.937  27.083144     1.5144      6.963   305.6790 4.3445e+01     3.4990      1.740      2.524    19.4488 0.0000e+00
      1.796      0.099    10.2570    109.728     30.902  26.962630     1.4976      6.972   305.5947 4.3038e+01     3.5256      1.760      2.553    19.2320 0.0000e+00
      1.818      0.098    10.8742    116.017     30.923  26.898114     1.5027      6.980   305.8050 4.2637e+01     3.5227      1.785      2.588    19.0999 0.0000e+00
      1.839      0.102    11.4172    121.479     30.992  26.874443     1.5029      6.985   305.9845 4.2152e+01     3.5257      1.803      2.615    18.9314 0.0000e+00
      1.861      0.109    11.8297    125.507     31.084  26.866793     1.5272      6.992   306.1302 4.1788e+01     3.5918      1.823      2.643    18.7576 0.0000e+00
      1.889      0.115    12.0894    127.896     31.189  26.869008     1.5855      6.999   306.1903 4.1338e+01     3.7120      1.849      2.682    18.6177 0.0000e+00
      1.926      0.118    12.1908    128.628     31.321  26.901114     1.6285      7.005   306.1083 4.0550e+01     3.7584      1.888      2.737    18.4890 0.0000e+00
      1.965      0.118    12.1454    127.848     31.522  27.000898     1.6435      7.011   306.1715 3.9780e+01     3.7550      1.932      2.801    18.3574 0.0000e+00
      1.997      0.115    11.9780    125.814     31.743  27.122954     1.6557      7.016   306.3521 3.9327e+01     3.6410      1.962      2.845    18.2128 0.0000e+00
      2.022      0.110    11.7129    122.775     31.873  27.170379     1.6748      7.017   306.5719 3.8996e+01     3.3565      1.984      2.877    18.0652 0.0000e+00
      2.044      0.106    11.3713    118.958     32.047  27.256740     1.6813      7.014   306.9362 3.8519e+01     3.1536      2.004      2.906    17.9349 0.0000e+00
      2.068      0.105    10.9712    114.552     32.442  27.532087     1.6798      7.008   307.3149 3.7919e+01     3.1108      2.027      2.940    17.8221 0.0000e+00
      2.094      0.107    10.5247    109.692     32.788  27.769110     1.7033      6.999   307.5369 3.7316e+01     3.0825      2.053      2.978    17.7187 0.0000e+00
      2.123      0.109    10.0463    104.550     32.848  27.773069     1.7353      6.989   307.5551 3.6768e+01     2.9951      2.081      3.016    17.6167 0.0000e+00
      2.156      0.109     9.5557     99.322     32.891  27.770401     1.7451      6.978   307.5354 3.6261e+01     2.9079      2.115      3.067    17.5216 0.0000e+00
      2.188      0.109     9.0502     93.951     33.351  28.117801     1.7568      6.963   307.7290 3.5789e+01     2.8831      2.148      3.116    17.4293 0.0000e+00
      2.213      0.109     8.5228     88.356     34.893  29.369903     1.8495      6.945   308.1755 3.5562e+01     2.9092      2.171      3.150    17.3353 0.0000e+00
      2.236      0.111     7.9940     82.754     40.721  34.209585     2.0023      6.920   308.6310 3.5499e+01     2.9483      2.191      3.177    17.2650 0.0000e+00
      2.261      0.116     7.4782     77.289     58.949  49.411518     2.0784      6.885   308.9353 3.5176e+01     2.9289      2.216      3.214    17.2137 0.0000e+00
      2.289      0.125     6.9593     71.792     87.737  73.385221     2.0807      6.838   309.1004 3.4669e+01     2.8878      2.243      3.254    17.1536 0.0000e+00
      2.321      0.132     6.3974     65.861    109.880  91.714235     2.1037      6.786   308.9932 3.4248e+01     3.0009      2.273      3.297    17.0872 0.0000e+00
      2.359      0.135     5.7369     58.955    119.670  99.688365     2.1635      6.735   308.5856 3.3855e+01     3.2590      2.311      3.352    17.0177 0.0000e+00
      2.403      0.132     4.9018     50.307    127.940 106.418094     2.2061      6.680   307.6139 3.3607e+01     3.3841      2.358      3.420    16.9399 0.0000e+00
      2.443      0.127     3.8847     39.833    140.338 116.604093     2.2060      6.620   304.2129 3.3661e+01     3.4142      2.400      3.482    16.8443 0.0000e+00
      2.472      0.119     2.7718     28.400    152.403 126.496736     2.1159      6.564   289.2328 3.3878e+01     4.0203      2.427      3.519    16.7349 0.0000e+00
      2.495      0.112     1.6581     16.976    161.223 133.664714     1.9436      6.520   261.7442 3.4195e+01     5.0963      2.447      3.548    16.6389 0.0000e+00
      2.516      0.106     0.6383      6.533    167.035 138.304896     1.8411      6.492   238.5730 3.4521e+01     5.6517      2.466      3.577    16.5809 0.0000e+00
      2.541      0.101    -0.2086     -2.121    169.290 139.958323     1.8233      6.482   225.3742 3.4611e+01     5.6998      2.491      3.612    16.5452 0.0000e+00
      2.571      0.096    -0.8317     -8.473    169.525 139.929879     1.8111      6.484   215.8157 3.4430e+01     5.7994      2.521      3.656    16.5006 0.0000e+00
      2.603      0.088    -1.2073    -12.291    170.606 140.642452     1.7301      6.492   207.8376 3.4255e+01     7.1312      2.554      3.705    16.4520 0.0000e+00
      2.629      0.078    -1.3479    -13.715    173.013 142.507378     1.5890      6.501   200.7542 3.4133e+01     9.5954      2.582      3.745    16.4018 0.0000e+00
      2.645      0.065    -1.3139    -13.360    177.409 146.003592     1.5108      6.510   193.5818 3.3979e+01    10.9655      2.596      3.766    16.3356 0.0000e+00
      2.655      0.051    -1.1814    -11.998    182.106 149.637330     1.5003      6.521   186.4206 3.3764e+01    11.0623      2.604      3.776    16.2608 0.0000e+00
      2.664      0.039    -1.0073    -10.213    182.405 149.586174     1.5454      6.536   180.4191 3.3279e+01     9.9419      2.612      3.788    16.2072 0.0000e+00
      2.671      0.031    -0.8191     -8.295    180.631 147.942716     1.6332      6.554   176.2558 3.2375e+01     7.7948      2.620      3.800    16.1782 0.0000e+00
      2.678      0.026    -0.6334     -6.412    178.686 146.312116     1.6890      6.574   173.4226 3.1028e+01     6.6474      2.626      3.809    16.1601 0.0000e+00
      2.683      0.024    -0.4679     -4.737    175.730 143.921515     1.7421      6.596   170.9430 2.9335e+01     6.6897      2.630      3.817    16.0960 0.0000e+00
      2.689      0.024    -0.3286     -3.328    173.564 142.222100     2.1473      6.620   168.0432 2.7400e+01     8.0929      2.637      3.824    15.9803 0.0000e+00
      2.694      0.024    -0.2173     -2.203    171.661 140.773066     2.8757      6.642   165.8942 2.5304e+01    10.6732      2.642      3.832    15.9303 0.0000e+00
      2.700      0.023    -0.1286     -1.304    169.798 139.364142     3.2697      6.662   166.0383 2.3038e+01    12.1011      2.647      3.839    15.9353 0.0000e+00
      2.707      0.022    -0.0581     -0.589    168.428 138.340874     3.2905      6.681   166.4298 2.0841e+01    12.1424      2.655      3.850    15.9398 0.0000e+00
      2.714      0.020    -0.0051     -0.051    167.500 137.658817     3.1182      6.697   165.5516 1.9337e+01    10.9891      2.662      3.862    15.9639 0.0000e+00
      2.719      0.019     0.0360      0.366    167.688 137.885201     2.7946      6.711   164.0244 1.8533e+01     8.8991      2.667      3.870    15.9983 0.0000e+00
      2.722      0.016     0.0704      0.716    167.771 138.013472     2.6219      6.725   162.5056 1.7815e+01     7.7778      2.669      3.872    16.0373 0.0000e+00
      2.725      0.014     0.1013      1.030    167.146 137.549524     2.6107      6.736   162.0723 1.6891e+01     7.6558      2.672      3.876    16.0674 0.0000e+00
      2.729      0.012     0.1314      1.337    167.422 137.830113     2.6681      6.746   163.0014 1.5866e+01     7.5150      2.676      3.881    16.0879 0.0000e+00
      2.732      0.011     0.1608      1.635    167.828 138.214201     2.7830      6.756   164.7058 1.4917e+01     7.2955      2.679      3.886    16.1113 0.0000e+00
      2.735      0.011     0.1900      1.933    167.127 137.660801     2.8515      6.765   165.8159 1.4083e+01     7.1682      2.682      3.890    16.1294 0.0000e+00
      2.737      0.011     0.2189      2.227    166.269 136.948776     2.8800      6.773   164.9797 1.3287e+01     7.1668      2.684      3.893    16.1418 0.0000e+00
      2.739      0.010     0.2450      2.492    166.448 137.074790     3.0355      6.780   163.1141 1.2447e+01     7.5840      2.686      3.896    16.1581 0.0000e+00
      2.742      0.010     0.2672      2.717    167.725 138.099140     3.3165      6.787   161.8438 1.1421e+01     8.3671      2.688      3.899    16.1768 0.0000e+00
      2.745      0.009     0.2852      2.899    168.924 139.055085     3.4746      6.793   161.6663 1.0278e+01     8.7919      2.692      3.904    16.1846 0.0000e+00
      2.748      0.009     0.3004      3.054    167.854 138.162168     3.5416      6.799   162.6877 9.2248e+00     8.9666      2.696      3.909    16.1801 0.0000e+00
      2.750      0.008     0.3120      3.173    163.842 134.899952     4.1454      6.805   164.4713 8.2879e+00    10.3575      2.696      3.910    16.1729 0.0000e+00
      2.751      0.007     0.3188      3.244    158.491 130.573786     5.2420      6.810   165.4217 7.4792e+00    12.8525      2.697      3.913    16.1659 0.0000e+00
      2.753      0.005     0.3231      3.290    153.359 126.449593     5.8373      6.817   163.7682 6.8131e+00    14.1999      2.700      3.916    16.1541 0.0000e+00
      2.754      0.003     0.3262      3.325    149.704 123.579732     5.8648      6.824   159.8797 6.2095e+00    14.3500      2.701      3.917    16.1442 0.0000e+00
      2.755      0.002     0.3286      3.354    146.999 121.525343     5.4287      6.830   155.5750 5.6220e+00    14.5768      2.701      3.918    16.1593 0.0000e+00
      2.755      0.001     0.3314      3.387    144.548 119.664579     4.5992      6.834   151.8149 5.1177e+00    14.9575      2.702      3.919    16.1892 0.0000e+00
      2.755      0.001     0.3381      3.458    142.931 118.432715     4.1515      6.839   148.8323 4.7772e+00    15.1687      2.702      3.919    16.2172 0.0000e+00
      2.755      0.000     0.3541      3.623    141.885 117.602510     4.1235      6.843   146.0126 4.6064e+00    15.0555      2.702      3.919    16.2653 0.0000e+00
      2.755 4.2859e-07     0.3798      3.886    142.200 117.854511     4.2601      6.848   142.6736 4.5373e+00    13.5282      2.702      3.919    16.3342 0.0000e+00
      2.755      0.000     0.4153      4.248    144.911 120.076027     4.5445      6.852   139.4347 4.4954e+00    10.7406      2.702      3.918    16.3971 0.0000e+00
      2.755      0.000     0.4602      4.706    148.044 122.647429     4.7135      6.855   136.7928 4.4531e+00     9.2134      2.702      3.919    16.4358 0.0000e+00
      2.755      0.001     0.5115      5.230    149.929 124.194240     4.7221      6.857   134.1328 4.4166e+00     9.1004      2.702      3.919    16.4442 0.0000e+00
      2.755      0.001     0.5639      5.765    151.528 125.508505     4.5936      6.860   131.1063 4.4093e+00     9.6191      2.702      3.919    16.4374 0.0000e+00
      2.756      0.001     0.5895      6.026    152.474 126.287421     4.4743      6.862   129.5395 4.4655e+00    10.1138      2.702      3.919    16.4272 0.0000e+00
      2.756 -9.990e-29 -9.990e-29 -9.990e-29 -9.990e-29 -9.990e-29 -9.990e-29 -9.990e-29 -9.990e-29 4.6375e+00 -9.990e-29      2.702      3.919    16.4170 0.0000e+00
      2.757 -9.990e-29 -9.990e-29 -9.990e-29 -9.990e-29 -9.990e-29 -9.990e-29 -9.990e-29 -9.990e-29 5.1031e+00 -9.990e-29      2.703      3.921    16.4137 0.0000e+00
      2.759 -9.990e-29 -9.990e-29 -9.990e-29 -9.990e-29 -9.990e-29 -9.990e-29 -9.990e-29 -9.990e-29 6.0227e+00 -9.990e-29      2.705      3.924    16.4103 0.0000e+00
      2.759 -9.990e-29 -9.990e-29 -9.990e-29 -9.990e-29 -9.990e-29 -9.990e-29 -9.990e-29 -9.990e-29 6.5993e+00 -9.990e-29      2.707      3.926    16.4068 0.0000e+00
