* Sea-Bird SBE19plus  Data File:
* FileName = C:\DATA\060418_fcr50_0005.hex
* Software version 2.6.3.104 SB_Terminal.dll
* Temperature SN = 7809
* Conductivity SN = 7809
* System UpLoad Time = Jun 04 2018 16:28:41
* <ApplicationData>
* <Seaterm232>
* <SoftwareVersion>2.6.3.104</SoftwareVersion>
* <BuildDate>30-Jun-2017</BuildDate>
* </Seaterm232>
* </ApplicationData>
* cast   5 04 Jun 2018 14:58:54 samples 4032 to 4562, avg = 1, stop = mag switch
# nquan = 15
# nvalues = 311                         
# units = specified
# name 0 = depFM: Depth [fresh water, m]
# name 1 = dz/dtM: Descent Rate [m/s]
# name 2 = sbeox0Mg/L: Oxygen, SBE 43 [mg/l]
# name 3 = sbeox0PS: Oxygen, SBE 43 [% saturation]
# name 4 = specc: Specific Conductance [uS/cm]
# name 5 = c0uS/cm: Conductivity [uS/cm]
# name 6 = flECO-AFL: Fluorescence, WET Labs ECO-AFL/FL [mg/m^3]
# name 7 = ph: pH
# name 8 = orp: Oxidation Reduction Potential [mV]
# name 9 = par/sat/log: PAR/Logarithmic, Satlantic
# name 10 = turbWETntu0: Turbidity, WET Labs ECO [NTU]
# name 11 = prdM: Pressure, Strain Gauge [db]
# name 12 = prdE: Pressure, Strain Gauge [psi]
# name 13 = tv290C: Temperature [ITS-90, deg C]
# name 14 = flag:  0.000e+00
# span 0 =     -0.625,      5.437       
# span 1 =     -0.046,      0.198       
# span 2 =     0.6204,    10.3721       
# span 3 =      5.639,    112.086       
# span 4 =      0.474,     44.926       
# span 5 =   0.426164,  33.093318       
# span 6 =    -0.4478,     2.5909       
# span 7 =      5.820,      7.493       
# span 8 = -1240.7455,   509.0908       
# span 9 = 3.0550e+00, 2.0944e+03       
# span 10 =    -0.6745,     5.2936      
# span 11 =     -0.613,      5.333      
# span 12 =     -0.889,      7.734      
# span 13 =    10.0800,    23.4358      
# span 14 = 0.0000e+00, 0.0000e+00      
# interval = seconds: 0.25
# start_time = Jun 04 2018 14:58:54 [Instrument's time stamp, header]
# bad_flag = -9.990e-29
# <Sensors count="9" >
#   <sensor Channel="1" >
#     <!-- Count, Temperature -->
#     <TemperatureSensor SensorID="58" >
#       <SerialNumber>7809</SerialNumber>
#       <CalibrationDate>09-Mar-18</CalibrationDate>
#       <A0>1.21093245e-003</A0>
#       <A1>2.84356597e-004</A1>
#       <A2>-1.94507398e-006</A2>
#       <A3>2.12806664e-007</A3>
#       <Slope>1.00000000</Slope>
#       <Offset>0.0000</Offset>
#     </TemperatureSensor>
#   </sensor>
#   <sensor Channel="2" >
#     <!-- Frequency 0, Conductivity -->
#     <ConductivitySensor SensorID="3" >
#       <SerialNumber>7809</SerialNumber>
#       <CalibrationDate>09-Mar-18</CalibrationDate>
#       <UseG_J>1</UseG_J>
#       <!-- Cell const and series R are applicable only for wide range sensors. -->
#       <SeriesR>0.0000</SeriesR>
#       <CellConst>2000.0000</CellConst>
#       <ConductivityType>0</ConductivityType>
#       <Coefficients equation="0" >
#         <A>0.00000000e+000</A>
#         <B>0.00000000e+000</B>
#         <C>0.00000000e+000</C>
#         <D>0.00000000e+000</D>
#         <M>0.0</M>
#         <CPcor>-9.57000000e-008</CPcor>
#       </Coefficients>
#       <Coefficients equation="1" >
#         <G>-1.00672082e+000</G>
#         <H>1.26906489e-001</H>
#         <I>-1.40584351e-004</I>
#         <J>2.47837121e-005</J>
#         <CPcor>-9.57000000e-008</CPcor>
#         <CTcor>3.2500e-006</CTcor>
#         <!-- WBOTC not applicable unless ConductivityType = 1. -->
#         <WBOTC>0.00000000e+000</WBOTC>
#       </Coefficients>
#       <Slope>1.00000000</Slope>
#       <Offset>0.00000</Offset>
#     </ConductivitySensor>
#   </sensor>
#   <sensor Channel="3" >
#     <!-- Count, Pressure, Strain Gauge -->
#     <PressureSensor SensorID="46" >
#       <SerialNumber>7809</SerialNumber>
#       <CalibrationDate>07-Mar-18</CalibrationDate>
#       <PA0>-4.08176359e-002</PA0>
#       <PA1>4.85188419e-004</PA1>
#       <PA2>-3.51168169e-012</PA2>
#       <PTEMPA0>-5.37806900e+001</PTEMPA0>
#       <PTEMPA1>5.36620721e+001</PTEMPA1>
#       <PTEMPA2>4.87214332e-002</PTEMPA2>
#       <PTCA0>5.25213435e+005</PTCA0>
#       <PTCA1>1.79532409e+000</PTCA1>
#       <PTCA2>-2.84353509e-001</PTCA2>
#       <PTCB0>2.51668750e+001</PTCB0>
#       <PTCB1>3.75000000e-004</PTCB1>
#       <PTCB2>0.00000000e+000</PTCB2>
#       <Offset>0.000000</Offset>
#     </PressureSensor>
#   </sensor>
#   <sensor Channel="4" >
#     <!-- A/D voltage 0, pH -->
#     <pH_Sensor SensorID="43" >
#       <SerialNumber>0363</SerialNumber>
#       <CalibrationDate>16-Mar-18</CalibrationDate>
#       <Slope>4.6194</Slope>
#       <Offset>2.5947</Offset>
#     </pH_Sensor>
#   </sensor>
#   <sensor Channel="5" >
#     <!-- A/D voltage 1, Oxidation Reduction Potential -->
#     <OxidationReductionPotentialSensor SensorID="41" >
#       <SerialNumber>0363</SerialNumber>
#       <CalibrationDate>16-Mar-18</CalibrationDate>
#       <B>2.499480</B>
#       <M>-0.496195</M>
#       <Offset>0.0</Offset>
#     </OxidationReductionPotentialSensor>
#   </sensor>
#   <sensor Channel="6" >
#     <!-- A/D voltage 2, Oxygen, SBE 43 -->
#     <OxygenSensor SensorID="38" >
#       <SerialNumber>0434</SerialNumber>
#       <CalibrationDate>13-Mar-18</CalibrationDate>
#       <Use2007Equation>1</Use2007Equation>
#       <CalibrationCoefficients equation="0" >
#         <!-- Coefficients for Owens-Millard equation. -->
#         <Boc>0.0000</Boc>
#         <Soc>0.0000e+000</Soc>
#         <offset>0.0000</offset>
#         <Pcor>0.00e+000</Pcor>
#         <Tcor>0.0000</Tcor>
#         <Tau>0.0</Tau>
#       </CalibrationCoefficients>
#       <CalibrationCoefficients equation="1" >
#         <!-- Coefficients for Sea-Bird equation - SBE calibration in 2007 and later. -->
#         <Soc>4.5718e-001</Soc>
#         <offset>-0.6113</offset>
#         <A>-4.0649e-003</A>
#         <B> 2.0945e-004</B>
#         <C>-3.3182e-006</C>
#         <D0> 2.5826e+000</D0>
#         <D1> 1.92634e-004</D1>
#         <D2>-4.64803e-002</D2>
#         <E> 3.6000e-002</E>
#         <Tau20> 1.2200</Tau20>
#         <H1>-3.3000e-002</H1>
#         <H2> 5.0000e+003</H2>
#         <H3> 1.4500e+003</H3>
#       </CalibrationCoefficients>
#     </OxygenSensor>
#   </sensor>
#   <sensor Channel="7" >
#     <!-- A/D voltage 3, PAR/Logarithmic, Satlantic -->
#     <PARLog_SatlanticSensor SensorID="76" >
#       <SerialNumber>1122</SerialNumber>
#       <CalibrationDate>22-Jun-2017</CalibrationDate>
#       <a0>9.6090e-001</a0>
#       <a1>8.0780e-001</a1>
#       <Im>1.3589e+000</Im>
#       <Multiplier>1.0000e+000</Multiplier>
#     </PARLog_SatlanticSensor>
#   </sensor>
#   <sensor Channel="8" >
#     <!-- A/D voltage 4, Fluorometer, WET Labs ECO-AFL/FL -->
#     <FluoroWetlabECO_AFL_FL_Sensor SensorID="20" >
#       <SerialNumber>FLNTURT-2496</SerialNumber>
#       <CalibrationDate>25-Jan-2017</CalibrationDate>
#       <ScaleFactor>5.30000000e+001</ScaleFactor>
#       <!-- Dark output -->
#       <Vblank>0.0560</Vblank>
#     </FluoroWetlabECO_AFL_FL_Sensor>
#   </sensor>
#   <sensor Channel="9" >
#     <!-- A/D voltage 5, Turbidity Meter, WET Labs, ECO-NTU -->
#     <TurbidityMeter SensorID="67" >
#       <SerialNumber>FLNTURT-2496</SerialNumber>
#       <CalibrationDate>25-Jan-2017</CalibrationDate>
#       <ScaleFactor>176.000000</ScaleFactor>
#       <!-- Dark output -->
#       <DarkVoltage>0.072000</DarkVoltage>
#     </TurbidityMeter>
#   </sensor>
# </Sensors>
# datcnv_date = Jun 04 2018 16:37:17, 7.26.7.114 [datcnv_vars = 14]
# datcnv_in = C:\DATA\060418_fcr30.hex C:\DATA\SBE19plusV2_7809.xmlcon
# datcnv_skipover = 0
# datcnv_ox_hysteresis_correction = yes
# datcnv_ox_tau_correction = yes
# filter_date = Jun 04 2018 16:37:48, 7.26.7.114
# filter_in = C:\DATA\060418_fcr30.cnv
# filter_low_pass_tc_A = 0.030
# filter_low_pass_tc_B = 0.150
# filter_low_pass_A_vars = prdM prdE tv290C
# filter_low_pass_B_vars = depFM dz/dtM sbeox0Mg/L sbeox0PS specc c0uS/cm flECO-AFL ph orp par/sat/log turbWETntu0
# alignctd_date = Jun 04 2018 16:38:15, 7.26.7.114
# alignctd_in = C:\DATA\060418_fcr30.cnv
# alignctd_adv = dz/dtM 1.000, sbeox0Mg/L 1.000, sbeox0PS 1.000, specc 1.000, c0uS/cm 1.000, flECO-AFL 1.000, ph 1.000, orp 1.000, turbWETntu0 1.000                                                                                 
# file_type = ascii
*END*
     -0.624 4.3139e-20     8.5411     93.782      0.550   0.494293    -0.1927      5.820 -1240.7455 2.0489e+03    -0.0218     -0.612     -0.887    19.9117 0.0000e+00
     -0.624 3.9217e-21     8.5405     93.777      0.549   0.493035    -0.1953      5.822 -1240.7455 2.0799e+03    -0.0346     -0.612     -0.887    19.9123 0.0000e+00
     -0.624 3.5608e-22     8.5405     93.779      0.522   0.468813    -0.1817      5.826 -1240.7455 2.0944e+03    -0.1851     -0.612     -0.888    19.9130 0.0000e+00
     -0.624 2.7577e-23     8.5401     93.775      0.506   0.455082    -0.1658      5.830 -1240.7455 2.0489e+03    -0.4673     -0.612     -0.887    19.9137 0.0000e+00
     -0.624 -5.022e-23     8.5399     93.774      0.505   0.453834    -0.1693      5.832 -1240.7455 1.5630e+03    -0.6087     -0.612     -0.888    19.9143 0.0000e+00
     -0.624 -5.846e-22     8.5405     93.783      0.505   0.453721    -0.1859      5.832 -1240.7455 6.7248e+02    -0.6435     -0.612     -0.887    19.9150 0.0000e+00
     -0.624 -6.434e-21     8.5409     93.788      0.505   0.453720    -0.1926      5.835 -1240.7455 1.7833e+02    -0.6745     -0.612     -0.888    19.9158 0.0000e+00
     -0.624 -7.077e-20     8.5409     93.790      0.505   0.453823    -0.1855      5.838 -1240.7455 1.2267e+02    -0.5265     -0.612     -0.888    19.9164 0.0000e+00
     -0.625 -7.785e-19     8.5420     93.804      0.506   0.454967    -0.1835      5.838 -1240.7455 1.2043e+02    -0.2274     -0.613     -0.888    19.9170 0.0000e+00
     -0.625 -8.563e-18     8.5432     93.819      0.520   0.467544    -0.1870      5.834 -1240.7455 2.3421e+02    -0.0181     -0.613     -0.888    19.9177 0.0000e+00
     -0.625 -9.420e-17     8.5431     93.819      0.533   0.479074    -0.1813      5.832 -1240.7455 3.4928e+02     0.0818     -0.613     -0.888    19.9186 0.0000e+00
     -0.625 -1.036e-15     8.5425     93.813      0.521   0.467544    -0.1791      5.834 -1240.7455 2.4993e+02     0.0960     -0.613     -0.888    19.9195 0.0000e+00
     -0.625 -1.140e-14     8.5421     93.810      0.506   0.454967    -0.1881      5.836 -1240.7455 1.2465e+02     0.0318     -0.613     -0.888    19.9203 0.0000e+00
     -0.625 -1.254e-13     8.5417     93.807      0.505   0.453823    -0.1976      5.836 -1240.7455 1.0616e+02     0.0072     -0.612     -0.888    19.9211 0.0000e+00
     -0.625 -1.379e-12     8.5412     93.803      0.505   0.453709    -0.1932      5.836 -1240.7455 1.0908e+02     0.0127     -0.613     -0.888    19.9219 0.0000e+00
     -0.625 -1.517e-11     8.5405     93.797      0.505   0.453595    -0.1811      5.836 -1240.7455 1.1608e+02    -0.0252     -0.613     -0.888    19.9226 0.0000e+00
     -0.625 -1.669e-10     8.5393     93.785      0.504   0.452441    -0.1803      5.834 -1240.7455 1.2125e+02    -0.0547     -0.613     -0.889    19.9234 0.0000e+00
     -0.625 -1.836e-09     8.5393     93.786      0.490   0.439760    -0.1748      5.834 -1240.7455 1.2325e+02    -0.0385     -0.612     -0.888    19.9240 0.0000e+00
     -0.625 -2.019e-08     8.5404     93.798      0.475   0.427098    -0.1595      5.838 -1240.7455 1.2440e+02    -0.0121     -0.613     -0.889    19.9245 0.0000e+00
     -0.625 -2.221e-07     8.5399     93.793      0.474   0.426164    -0.1614      5.843 -1240.7455 1.2605e+02    -0.1016     -0.612     -0.888    19.9252 0.0000e+00
     -0.625 -4.072e-07     8.5398     93.793      0.477   0.428460    -0.1791      5.847 -1240.7455 1.2815e+02    -0.2963     -0.613     -0.889    19.9256 0.0000e+00
     -0.625 -2.220e-07     8.5404     93.799      0.506   0.454867    -0.1805      5.847 -1240.7455 1.2771e+02    -0.3825     -0.612     -0.888    19.9262 0.0000e+00
     -0.625 -1.961e-08     8.5405     93.801      0.547   0.491801    -0.1687      5.848 -1240.7455 1.2142e+02    -0.4110     -0.613     -0.889    19.9265 0.0000e+00
     -0.625 4.4944e-09     8.5412     93.810      0.551   0.494558    -0.1657      5.852 -1240.7455 1.1177e+02    -0.4586     -0.613     -0.889    19.9269 0.0000e+00
     -0.625 6.9461e-08     8.5416     93.815      0.543   0.488204    -0.1802      5.855 -1240.7452 1.0274e+02    -0.3475     -0.613     -0.888    19.9274 0.0000e+00
     -0.625 7.6590e-07     8.5413     93.812      0.603   0.541795    -0.2160      5.858 -1240.7421 9.5324e+01    -0.1047     -0.613     -0.889    19.9277 0.0000e+00
     -0.625      0.000     8.5403     93.803      0.707   0.635226    -0.2489      5.862 -1240.7079 8.9104e+01     0.0050     -0.613     -0.888    19.9280 0.0000e+00
     -0.625      0.000     8.5382     93.796      0.812   0.730099    -0.2659      5.865 -1240.3321 8.4508e+01    -0.0281     -0.613     -0.889    19.9285 0.0000e+00
     -0.625      0.001     8.5230     93.792      1.162   1.054764    -0.3116      5.873 -1236.1985 8.2346e+01    -0.0782     -0.613     -0.888    19.9282 0.0000e+00
     -0.625      0.006     8.4661     93.790      4.959   4.560726    -0.3966      5.926 -1190.7282 8.2191e+01    -0.1430     -0.612     -0.888    19.9293 0.0000e+00
     -0.625      0.018     8.3639     93.799     12.378  11.466353    -0.4478      6.099 -1032.6474 8.4282e+01    -0.2011     -0.613     -0.888    19.9286 0.0000e+00
     -0.625      0.037     8.2559     93.814     19.907  18.641064    -0.4434      6.376  -402.6707 8.9148e+01    -0.2320     -0.613     -0.888    19.9300 0.0000e+00
     -0.620      0.060     8.1761     93.841     26.982  25.505506    -0.3709      6.674   394.0538 9.4520e+01    -0.2725     -0.612     -0.888    19.9297 0.0000e+00
     -0.604      0.085     8.1249     93.866     30.986  29.460156    -0.2525      6.944   509.0908 9.7108e+01    -0.3542     -0.599     -0.868    20.2245 0.0000e+00
     -0.574      0.103     8.0909     93.874     31.564  30.143972    -0.1965      7.149   322.0301 9.6698e+01    -0.4265     -0.564     -0.818    20.9867 0.0000e+00
     -0.534      0.112     8.0668     93.879     31.602  30.280985    -0.1995      7.286   299.5614 9.5661e+01    -0.4453     -0.526     -0.762    21.7416 0.0000e+00
     -0.491      0.112     8.0474     93.877     31.597  30.354847    -0.1970      7.373   296.2743 9.5416e+01    -0.1841     -0.478     -0.694    22.2404 0.0000e+00
     -0.456      0.104     8.0323     93.877     31.581  30.402094    -0.1849      7.424   297.6013 9.6964e+01     0.3511     -0.439     -0.636    22.5618 0.0000e+00
     -0.437      0.095     8.0201     93.880     31.534  30.407789    -0.1734      7.461   298.5703 9.9357e+01     0.6551     -0.427     -0.619    22.7616 0.0000e+00
     -0.427      0.092     8.0098     93.884     31.439  30.360271    -0.1676      7.487   296.8913 9.9702e+01     0.7441     -0.420     -0.610    22.9136 0.0000e+00
     -0.414      0.096     8.0051     93.932     31.310  30.272158    -0.1418      7.493   294.6803 9.9848e+01     1.7322     -0.409     -0.592    23.0377 0.0000e+00
     -0.394      0.103     8.0078     94.037     31.175  30.168040     0.2305      7.478   293.6914 1.0321e+02     3.7213     -0.391     -0.567    23.1349 0.0000e+00
     -0.360      0.108     8.0168     94.183     31.108  30.117507     0.9336      7.456   289.6674 1.0892e+02     4.9879     -0.356     -0.518    23.2124 0.0000e+00
     -0.316      0.108     8.0321     94.357     31.163  30.169231     1.3288      7.433   281.1309 1.1366e+02     5.2061     -0.308     -0.447    23.2836 0.0000e+00
     -0.276      0.107     8.0519     94.552     31.297  30.285391     1.3691      7.408   273.9346 1.1866e+02     5.1389     -0.264     -0.384    23.3442 0.0000e+00
     -0.251      0.109     8.0708     94.748     31.403  30.378866     1.3478      7.387   270.6283 1.2694e+02     4.1754     -0.238     -0.345    23.3853 0.0000e+00
     -0.243      0.118     8.0876     94.952     31.433  30.410342     1.3093      7.373   269.1176 1.3567e+02     2.4065     -0.238     -0.343    23.4117 0.0000e+00
     -0.234      0.132     8.1058     95.196     31.424  30.411947     1.2899      7.362   268.2309 1.3817e+02     1.4212     -0.240     -0.349    23.4094 0.0000e+00
     -0.201      0.152     8.1298     95.511     31.398  30.398290     1.2888      7.352   267.5636 1.2923e+02     1.2952     -0.207     -0.301    23.3725 0.0000e+00
     -0.144      0.174     8.1635     95.933     31.362  30.372243     1.2953      7.342   267.0724 1.0377e+02     1.2800     -0.143     -0.206    23.3542 0.0000e+00
     -0.080      0.191     8.2097     96.494     31.333  30.351051     1.2954      7.334   267.0243 7.3335e+01     1.2988     -0.075     -0.109    23.3638 0.0000e+00
     -0.021      0.198     8.2676     97.184     31.311  30.332579     1.2904      7.329   267.2400 6.1142e+01     1.3083     -0.017     -0.025    23.3838 0.0000e+00
      0.029      0.191     8.3338     97.967     31.316  30.339417     1.2898      7.324   267.5296 5.8932e+01     1.3038      0.030      0.044    23.4045 0.0000e+00
      0.074      0.175     8.3954     98.691     31.348  30.370225     1.2882      7.319   267.9446 5.3277e+01     1.2750      0.073      0.105    23.4172 0.0000e+00
      0.115      0.153     8.4193     98.964     31.369  30.387555     1.2892      7.317   268.3006 4.9870e+01     1.2657      0.114      0.165    23.4283 0.0000e+00
      0.153      0.130     8.3751     98.427     31.411  30.421932     1.2919      7.317   268.5638 4.9510e+01     1.2832      0.150      0.218    23.4332 0.0000e+00
      0.188      0.110     8.2576     97.017     31.469  30.468333     1.2929      7.314   269.2340 4.9437e+01     1.3030      0.187      0.271    23.4351 0.0000e+00
      0.214      0.100     8.0870     94.990     31.448  30.440530     1.3107      7.305   270.4685 4.9550e+01     1.3216      0.215      0.312    23.4358 0.0000e+00
      0.228      0.100     7.8954     92.731     31.347  30.339774     1.3425      7.290   271.4443 5.0047e+01     1.2944      0.226      0.328    23.4330 0.0000e+00
      0.237      0.106     7.7116     90.569     31.273  30.266187     1.3550      7.272   271.7393 5.0621e+01     1.2484      0.230      0.334    23.4230 0.0000e+00
      0.257      0.114     7.5561     88.720     31.264  30.249357     1.3522      7.257   271.9707 5.1936e+01     1.2535      0.240      0.348    23.4045 0.0000e+00
      0.298      0.121     7.4362     87.278     31.292  30.263274     1.3542      7.247   272.4350 5.6682e+01     1.2954      0.289      0.418    23.3866 0.0000e+00
      0.349      0.121     7.3511     86.255     31.347  30.307432     1.3708      7.242   272.8792 6.3805e+01     1.2668      0.349      0.505    23.3855 0.0000e+00
      0.389      0.112     7.2934     85.568     31.383  30.338708     1.3968      7.245   273.1253 6.9640e+01     1.1520      0.383      0.556    23.3924 0.0000e+00
      0.417      0.092     7.2494     85.051     31.368  30.323906     1.4103      7.253   273.1733 7.7555e+01     1.0980      0.413      0.599    23.3754 0.0000e+00
      0.434      0.066     7.2050     84.527     31.364  30.318985     1.4147      7.261   273.2880 9.8805e+01     1.1020      0.430      0.624    23.3468 0.0000e+00
      0.441      0.041     7.1500     83.876     31.391  30.342706     1.4133      7.266   273.6522 1.6236e+02     1.0782      0.432      0.627    23.3317 0.0000e+00
      0.443      0.023     7.0804     83.054     31.408  30.356695     1.4033      7.271   274.0487 2.1171e+02     1.0848      0.435      0.630    23.3297 0.0000e+00
      0.444      0.012     7.0026     82.135     31.415  30.361100     1.4033      7.275   274.2962 1.8235e+02     1.1209      0.437      0.633    23.3302 0.0000e+00
      0.444      0.007     6.9240     81.207     31.454  30.395967     1.4139      7.277   274.5801 1.5038e+02     1.1476      0.436      0.632    23.3280 0.0000e+00
      0.446      0.006     6.8488     80.321     31.523  30.460733     1.4020      7.277   274.9858 1.4295e+02     1.1939      0.437      0.634    23.3245 0.0000e+00
      0.448      0.006     6.7837     79.557     31.573  30.509125     1.3705      7.276   275.3299 1.3237e+02     1.2542      0.440      0.638    23.3208 0.0000e+00
      0.450      0.006     6.7307     78.938     31.600  30.536531     1.3644      7.274   275.5574 1.3137e+02     1.2975      0.441      0.639    23.3162 0.0000e+00
      0.452      0.006     6.6873     78.435     31.599  30.538077     1.3735      7.272   275.6713 1.2855e+02     1.3201      0.442      0.642    23.3115 0.0000e+00
      0.454      0.006     6.6549     78.063     31.585  30.527816     1.3613      7.272   275.7605 1.0952e+02     1.3443      0.445      0.646    23.3092 0.0000e+00
      0.455      0.005     6.6365     77.854     31.595  30.539488     1.3457      7.272   275.9470 9.3901e+01     1.3462      0.446      0.648    23.3076 0.0000e+00
      0.455      0.004     6.6372     77.869     31.605  30.552198     1.3497      7.272   276.1201 9.0552e+01     1.3126      0.446      0.648    23.3106 0.0000e+00
      0.456      0.004     6.6666     78.216     31.606  30.554480     1.3632      7.271   276.3044 8.9697e+01     1.2736      0.448      0.649    23.3159 0.0000e+00
      0.457      0.004     6.7255     78.904     31.619  30.567076     1.3812      7.269   276.6269 9.0222e+01     1.1798      0.449      0.651    23.3203 0.0000e+00
      0.458      0.004     6.8007     79.779     31.634  30.577487     1.4012      7.265   276.9214 9.0819e+01     1.0631      0.449      0.650    23.3252 0.0000e+00
      0.459      0.003     6.8809     80.706     31.615  30.553346     1.4122      7.262   277.1123 9.0401e+01     1.0523      0.449      0.652    23.3296 0.0000e+00
      0.461      0.002     6.9589     81.606     31.596  30.529206     1.4130      7.261   277.3003 8.9729e+01     1.0802      0.452      0.656    23.3326 0.0000e+00
      0.461      0.001     7.0227     82.346     31.611  30.539617     1.4111      7.263   277.4733 8.8168e+01     1.0656      0.452      0.655    23.3313 0.0000e+00
      0.461      0.001     7.0637     82.822     31.626  30.552214     1.4074      7.265   277.6553 8.4940e+01     1.0583      0.454      0.657    23.3256 0.0000e+00
      0.461      0.002     7.0786     82.995     31.628  30.554494     1.4057      7.265   277.8665 8.2550e+01     1.0529      0.454      0.658    23.3167 0.0000e+00
      0.460      0.003     7.0655     82.840     31.642  30.567194     1.4172      7.264   278.0482 8.7015e+01     1.0611      0.450      0.653    23.3048 0.0000e+00
      0.460      0.004     7.0320     82.445     31.655  30.578750     1.4280      7.263   278.2178 1.0917e+02     1.0966      0.450      0.652    23.2988 0.0000e+00
      0.462      0.005     6.9900     81.955     31.642  30.567203     1.4077      7.263   278.3676 1.2646e+02     1.1159      0.453      0.658    23.2977 0.0000e+00
      0.466      0.007     6.9503     81.494     31.627  30.554598     1.3637      7.263   278.4833 1.1150e+02     1.1119      0.458      0.663    23.2967 0.0000e+00
      0.468      0.007     6.9202     81.144     31.624  30.553348     1.3375      7.263   278.5846 9.4753e+01     1.0791      0.460      0.666    23.2959 0.0000e+00
      0.470      0.006     6.8993     80.902     31.622  30.552100     1.3485      7.263   278.6456 9.2054e+01     1.0547      0.460      0.667    23.2939 0.0000e+00
      0.471      0.005     6.8833     80.718     31.608  30.539503     1.3679      7.263   278.7045 8.9340e+01     1.0917      0.462      0.668    23.2944 0.0000e+00
      0.473      0.004     6.8674     80.537     31.594  30.528058     1.3606      7.262   278.7808 8.6548e+01     1.1296      0.464      0.673    23.2979 0.0000e+00
      0.474      0.003     6.8475     80.309     31.604  30.540740     1.3520      7.260   278.8790 8.4671e+01     1.1154      0.465      0.675    23.3008 0.0000e+00
      0.474      0.002     6.8225     80.021     31.628  30.565829     1.3559      7.259   279.1176 8.3485e+01     1.0729      0.465      0.674    23.3028 0.0000e+00
      0.474      0.002     6.7950     79.704     31.637  30.577374     1.3524      7.259   279.4298 8.2990e+01     1.0426      0.464      0.673    23.3054 0.0000e+00
      0.474      0.001     6.7708     79.426     31.610  30.553325     1.3560      7.259   279.5560 8.3174e+01     1.0545      0.465      0.675    23.3085 0.0000e+00
      0.474      0.001     6.7542     79.236     31.582  30.529087     1.3624      7.258   279.5252 8.3666e+01     1.0647      0.465      0.675    23.3117 0.0000e+00
      0.475      0.001     6.7451     79.135     31.590  30.538343     1.3568      7.257   279.5736 8.3653e+01     1.0743      0.466      0.675    23.3150 0.0000e+00
      0.475      0.001     6.7446     79.134     31.588  30.538230     1.3514      7.255   279.7108 8.3210e+01     1.1713      0.466      0.676    23.3189 0.0000e+00
      0.475      0.001     6.7534     79.241     31.575  30.527724     1.3527      7.253   279.8935 8.2757e+01     1.2906      0.466      0.675    23.3233 0.0000e+00
      0.475      0.001     6.7692     79.430     31.585  30.538333     1.3544      7.252   280.1471 8.2273e+01     1.2961      0.465      0.676    23.3271 0.0000e+00
      0.476      0.001     6.7877     79.650     31.585  30.539487     1.3539      7.253   280.3678 8.1819e+01     1.2376      0.466      0.677    23.3304 0.0000e+00
      0.476      0.001     6.8029     79.830     31.586  30.541672     1.3549      7.253   280.4109 8.1314e+01     1.1939      0.467      0.677    23.3339 0.0000e+00
      0.476      0.001     6.8102     79.916     31.610  30.564753     1.3586      7.253   280.4106 8.0675e+01     1.1339      0.468      0.679    23.3363 0.0000e+00
      0.476      0.001     6.8082     79.890     31.611  30.564538     1.3617      7.253   280.6229 8.0616e+01     1.0618      0.467      0.678    23.3378 0.0000e+00
      0.476      0.001     6.7983     79.768     31.586  30.539077     1.3648      7.253   280.8259 8.0556e+01     1.0229      0.467      0.677    23.3398 0.0000e+00
      0.476      0.001     6.7798     79.542     31.561  30.510917     1.3683      7.252   280.8011 8.0049e+01     1.0299      0.467      0.678    23.3415 0.0000e+00
      0.477      0.000     6.7521     79.200     31.535  30.478073     1.3668      7.251   280.6673 7.9731e+01     1.0867      0.468      0.679    23.3418 0.0000e+00
      0.478     -0.001     6.7171     78.767     31.526  30.459486     1.3656      7.248   280.4978 7.9170e+01     1.1604      0.469      0.681    23.3398 0.0000e+00
      0.479     -0.003     6.6748     78.248     31.554  30.476690     1.3725      7.246   280.4733 7.7910e+01     1.1580      0.471      0.682    23.3372 0.0000e+00
      0.477     -0.004     6.6278     77.681     31.580  30.495560     1.3761      7.247   280.6293 7.6484e+01     1.0882      0.469      0.680    23.3320 0.0000e+00
      0.474     -0.004     6.5801     77.116     31.585  30.497106     1.3725      7.248   280.8345 7.5499e+01     1.1101      0.465      0.675    23.3202 0.0000e+00
      0.472     -0.004     6.5316     76.546     31.584  30.495372     1.3651      7.249   280.9759 7.5419e+01     1.2692      0.463      0.671    23.3036 0.0000e+00
      0.471     -0.004     6.4860     76.009     31.563  30.474603     1.3613      7.247   280.8755 7.6226e+01     1.3643      0.461      0.669    23.2855 0.0000e+00
      0.472     -0.003     6.4505     75.588     31.526  30.436502     1.3624      7.243   280.7404 7.7349e+01     1.3139      0.462      0.670    23.2742 0.0000e+00
      0.472     -0.002     6.4225     75.252     31.508  30.415722     1.3609      7.239   280.8045 7.8514e+01     1.2696      0.464      0.672    23.2716 0.0000e+00
      0.472     -0.002     6.3961     74.935     31.510  30.413875     1.3610      7.237   280.8756 7.9500e+01     1.2863      0.464      0.672    23.2717 0.0000e+00
      0.471     -0.003     6.3700     74.620     31.515  30.414161     1.3542      7.237   280.9122 8.0561e+01     1.3029      0.462      0.670    23.2711 0.0000e+00
      0.470     -0.003     6.3425     74.290     31.523  30.419175     1.3522      7.238   281.0744 8.1538e+01     1.2874      0.461      0.668    23.2672 0.0000e+00
      0.468     -0.002     6.3129     73.936     31.517  30.410986     1.3650      7.239   281.3746 8.1970e+01     1.2206      0.459      0.666    23.2613 0.0000e+00
      0.468     -0.001     6.2830     73.580     31.487  30.378656     1.3617      7.239   281.6160 8.1880e+01     1.1357      0.458      0.664    23.2549 0.0000e+00
      0.468     -0.001     6.2519     73.206     31.458  30.345797     1.3577      7.240   281.6700 8.1495e+01     1.0850      0.458      0.664    23.2479 0.0000e+00
      0.469     -0.001     6.2172     72.788     31.448  30.331212     1.3721      7.241   281.5984 8.1554e+01     1.0356      0.460      0.668    23.2428 0.0000e+00
      0.469     -0.002     6.1790     72.328     31.453  30.329308     1.3790      7.242   281.6098 8.1989e+01     1.0269      0.461      0.669    23.2391 0.0000e+00
      0.469     -0.003     6.1388     71.845     31.452  30.322777     1.3859      7.240   281.7226 8.1999e+01     1.0713      0.460      0.667    23.2344 0.0000e+00
      0.468     -0.006     6.0975     71.352     31.449  30.315734     1.4103      7.236   281.7573 8.2114e+01     1.0835      0.459      0.666    23.2271 0.0000e+00
      0.465     -0.011     6.0548     70.849     31.441  30.307649     1.4345      7.232   281.7709 8.3016e+01     1.0825      0.457      0.662    23.2177 0.0000e+00
      0.463     -0.014     6.0100     70.328     31.420  30.288535     1.4398      7.229   281.8876 8.3801e+01     1.0900      0.454      0.658    23.2081 0.0000e+00
      0.459     -0.013     5.9651     69.801     31.407  30.275146     1.4284      7.223   282.1360 8.3616e+01     1.0823      0.452      0.656    23.1990 0.0000e+00
      0.453     -0.009     5.9255     69.323     31.412  30.272775     1.4161      7.210   282.2782 8.3099e+01     1.0816      0.446      0.646    23.1908 0.0000e+00
      0.445     -0.009     5.8972     68.976     31.407  30.259852     1.4105      7.199   282.1449 8.3328e+01     1.1116      0.434      0.630    23.1901 0.0000e+00
      0.444     -0.014     5.8821     68.776     31.404  30.245893     1.4157      7.194   281.9004 8.3632e+01     1.1407      0.429      0.622    23.1948 0.0000e+00
      0.451     -0.023     5.8766     68.664     31.413  30.230999     1.4246      7.196   281.7313 8.3352e+01     1.1272      0.444      0.644    23.1975 0.0000e+00
      0.456     -0.033     5.8804     68.649     31.418  30.206747     1.4252      7.200   281.7349 8.3530e+01     1.1009      0.455      0.659    23.1807 0.0000e+00
      0.443     -0.040     5.9033     68.873     31.439  30.206636     1.4235      7.204   281.7724 8.3882e+01     1.0978      0.440      0.638    23.1654 0.0000e+00
      0.418     -0.045     5.9578     69.486     31.474  30.229633     1.4235      7.207   281.7548 8.2558e+01     1.0897      0.409      0.593    23.1623 0.0000e+00
      0.393     -0.046     6.0498     70.547     31.481  30.230769     1.4065      7.210   281.8658 8.0436e+01     1.1243      0.379      0.550    23.1170 0.0000e+00
      0.381     -0.040     6.1653     71.888     31.473  30.220369     1.3647      7.212   281.9968 7.9996e+01     1.2114      0.369      0.535    23.0592 0.0000e+00
      0.378     -0.027     6.2758     73.173     31.486  30.230885     1.3412      7.213   282.0482 7.9941e+01     1.2584      0.370      0.536    23.0300 0.0000e+00
      0.378     -0.013     6.3646     74.208     31.486  30.230895     1.3512      7.214   282.2287 7.9583e+01     1.2958      0.371      0.537    23.0145 0.0000e+00
      0.378     -0.002     6.4241     74.904     31.474  30.220494     1.3395      7.215   282.4583 8.0313e+01     1.2669      0.371      0.538    23.0076 0.0000e+00
      0.378      0.007     6.4475     75.185     31.482  30.232143     1.3007      7.215   282.5866 8.1478e+01     1.1225      0.371      0.538    23.0036 0.0000e+00
      0.378      0.016     6.4356     75.061     31.489  30.244747     1.2953      7.213   282.6614 8.2388e+01     1.0147      0.369      0.537    23.0014 0.0000e+00
      0.380      0.026     6.3942     74.599     31.481  30.245881     1.3104      7.207   282.8465 8.2074e+01     1.0321      0.370      0.536    23.0003 0.0000e+00
      0.386      0.038     6.3337     73.921     31.468  30.245869     1.2998      7.197   283.1042 8.0437e+01     1.1486      0.375      0.545    23.0014 0.0000e+00
      0.399      0.049     6.2684     73.193     31.450  30.244618     1.2775      7.187   283.1967 7.8541e+01     1.2333      0.389      0.565    23.0062 0.0000e+00
      0.417      0.059     6.2079     72.523     31.418  30.230772     1.2705      7.177   283.1903 7.6654e+01     1.2323      0.409      0.593    23.0186 0.0000e+00
      0.435      0.065     6.1555     71.937     31.379  30.205493     1.2802      7.167   283.1992 7.4959e+01     1.2586      0.427      0.619    23.0322 0.0000e+00
      0.455      0.066     6.1115     71.431     31.363  30.193011     1.2927      7.162   283.2172 7.3256e+01     1.3068      0.446      0.648    23.0514 0.0000e+00
      0.474      0.062     6.0713     70.958     31.379  30.206868     1.3118      7.165   283.2369 7.1871e+01     1.3270      0.465      0.675    23.0795 0.0000e+00
      0.491      0.058     6.0288     70.461     31.420  30.246021     1.3363      7.172   283.2645 7.1079e+01     1.3198      0.483      0.701    23.1063 0.0000e+00
      0.503      0.057     5.9843     69.949     31.456  30.285371     1.3501      7.180   283.4649 7.0409e+01     1.3118      0.496      0.719    23.1302 0.0000e+00
      0.511      0.059     5.9420     69.474     31.463  30.301629     1.3594      7.184   283.6811 6.9920e+01     1.3513      0.502      0.726    23.1330 0.0000e+00
      0.521      0.064     5.9074     69.090     31.468  30.315597     1.3659      7.184   283.7271 6.9624e+01     1.3400      0.509      0.738    23.1258 0.0000e+00
      0.536      0.070     5.8850     68.850     31.468  30.327258     1.3650      7.182   283.7631 6.9352e+01     1.2668      0.522      0.758    23.1247 0.0000e+00
      0.561      0.078     5.8766     68.778     31.443  30.315628     1.3662      7.180   283.7727 6.8936e+01     1.2597      0.550      0.797    23.1295 0.0000e+00
      0.588      0.086     5.8805     68.846     31.418  30.302001     1.3620      7.178   283.7570 6.8509e+01     1.2850      0.579      0.841    23.1497 0.0000e+00
      0.610      0.091     5.8923     69.001     31.397  30.289519     1.3698      7.173   283.7458 6.8405e+01     1.2368      0.597      0.867    23.1642 0.0000e+00
      0.631      0.092     5.9094     69.216     31.392  30.291733     1.4052      7.172   283.8094 6.8461e+01     1.1348      0.618      0.897    23.1791 0.0000e+00
      0.655      0.092     5.9283     69.454     31.422  30.328781     1.4218      7.173   284.0101 6.8380e+01     1.0898      0.641      0.931    23.2030 0.0000e+00
      0.680      0.094     5.9444     69.660     31.442  30.356438     1.4234      7.175   284.1932 6.8225e+01     1.1199      0.667      0.969    23.2190 0.0000e+00
      0.703      0.099     5.9589     69.845     31.451  30.372125     1.4613      7.179   284.3018 6.8040e+01     1.1932      0.691      1.001    23.2322 0.0000e+00
      0.725      0.105     5.9782     70.083     31.465  30.391447     1.5214      7.184   284.4630 6.7484e+01     1.2747      0.708      1.027    23.2409 0.0000e+00
      0.751      0.110     6.0079     70.432     31.473  30.399551     1.5534      7.188   284.5933 6.6774e+01     1.2811      0.735      1.065    23.2548 0.0000e+00
      0.781      0.114     6.0464     70.871     31.486  30.406602     1.5549      7.188   284.6724 6.6051e+01     1.2397      0.765      1.109    23.2695 0.0000e+00
      0.815      0.118     6.0867     71.332     31.498  30.413186     1.5667      7.187   284.8174 6.5221e+01     1.2013      0.799      1.159    23.2781 0.0000e+00
      0.848      0.120     6.1216     71.739     31.502  30.415643     1.6035      7.186   284.9700 6.4587e+01     1.1535      0.834      1.210    23.2927 0.0000e+00
      0.878      0.120     6.1476     72.045     31.523  30.436308     1.6236      7.184   285.1412 6.4155e+01     1.1195      0.862      1.251    23.2949 0.0000e+00
      0.906      0.119     6.1688     72.295     31.560  30.472529     1.6161      7.180   285.3380 6.3870e+01     1.0946      0.888      1.289    23.2786 0.0000e+00
      0.935      0.118     6.1902     72.549     31.559  30.472554     1.6145      7.175   285.5431 6.3712e+01     1.0656      0.917      1.330    23.2694 0.0000e+00
      0.965      0.118     6.2126     72.810     31.521  30.436619     1.6131      7.169   285.8136 6.3539e+01     1.1049      0.947      1.373    23.2705 0.0000e+00
      0.996      0.117     6.2357     73.074     31.506  30.419065     1.6084      7.163   286.2866 6.3344e+01     1.2035      0.977      1.415    23.2713 0.0000e+00
      1.027      0.117     6.2587     73.328     31.546  30.450830     1.6134      7.155   286.8740 6.3185e+01     1.2503      1.007      1.461    23.2716 0.0000e+00
      1.059      0.118     6.2797     73.551     31.611  30.503147     1.6179      7.147   287.4946 6.2950e+01     1.2748      1.039      1.507    23.2746 0.0000e+00
      1.088      0.123     6.2985     73.734     31.671  30.543564     1.6352      7.139   288.2836 6.2678e+01     1.2856      1.069      1.550    23.2754 0.0000e+00
      1.114      0.133     6.3262     73.945     31.805  30.621960     1.6667      7.133   289.1003 6.2413e+01     1.2898      1.092      1.585    23.2724 0.0000e+00
      1.142      0.144     6.3864     74.273     31.917  30.561874     1.6761      7.127   289.7122 6.1818e+01     1.3256      1.115      1.618    23.2590 0.0000e+00
      1.179      0.155     6.4932     74.707     31.978  30.261372     1.6754      7.121   290.1750 6.0878e+01     1.3212      1.151      1.670    23.2418 0.0000e+00
      1.227      0.165     6.6582     75.522     32.104  29.909360     1.7140      7.116   290.6526 5.9804e+01     1.3591      1.202      1.744    23.2249 0.0000e+00
      1.279      0.174     6.9177     77.470     32.161  29.543799     1.7848      7.111   291.0124 5.8722e+01     1.4788      1.256      1.822    23.1896 0.0000e+00
      1.326      0.176     7.3066     81.056     32.200  29.270023     1.8233      7.110   291.1707 5.7808e+01     1.5173      1.303      1.890    23.0058 0.0000e+00
      1.369      0.169     7.8222     86.198     32.297  29.138874     1.8221      7.109   291.2755 5.7124e+01     1.4883      1.342      1.946    22.3923 0.0000e+00
      1.414      0.156     8.4139     92.289     32.355  29.037334     1.8151      7.108   291.4190 5.6798e+01     1.5853      1.386      2.010    21.5245 0.0000e+00
      1.457      0.143     9.0006     98.405     32.356  28.931149     1.8211      7.107   291.6148 5.6690e+01     1.8054      1.433      2.079    20.8572 0.0000e+00
      1.491      0.133     9.5203    103.830     32.309  28.807389     1.8307      7.106   291.7500 5.6485e+01     1.9223      1.465      2.123    20.4025 0.0000e+00
      1.517      0.126     9.9362    108.111     32.256  28.683872     1.8204      7.103   291.9361 5.6227e+01     1.8999      1.488      2.158    20.0687 0.0000e+00
      1.542      0.124    10.2205    110.902     32.239  28.580642     1.8069      7.098   292.1438 5.5858e+01     1.8706      1.512      2.192    19.8456 0.0000e+00
      1.571      0.124    10.3614    112.086     32.274  28.511637     1.8058      7.091   292.1104 5.5448e+01     1.9034      1.539      2.231    19.6875 0.0000e+00
      1.604      0.127    10.3721    111.855     32.357  28.484403     1.8075      7.085   292.1340 5.5043e+01     1.9603      1.572      2.281    19.5735 0.0000e+00
      1.640      0.132    10.2811    110.560     32.412  28.441738     1.8095      7.081   292.4296 5.4366e+01     1.9486      1.606      2.329    19.4664 0.0000e+00
      1.679      0.136    10.1220    108.560     32.435  28.376656     1.8106      7.079   292.7589 5.3675e+01     1.8840      1.649      2.391    19.3287 0.0000e+00
      1.714      0.139     9.9288    106.204     32.482  28.332394     1.7937      7.076   292.9329 5.3091e+01     1.8510      1.685      2.444    19.1663 0.0000e+00
      1.744      0.140     9.7253    103.762     32.524  28.287459     1.7706      7.072   293.0703 5.2341e+01     1.8847      1.708      2.477    19.0055 0.0000e+00
      1.778      0.139     9.5273    101.420     32.522  28.214248     1.7610      7.067   293.3008 5.1526e+01     1.9255      1.742      2.526    18.8673 0.0000e+00
      1.817      0.137     9.3441     99.248     32.452  28.082113     1.7510      7.060   293.3974 5.0810e+01     1.9174      1.783      2.586    18.7415 0.0000e+00
      1.856      0.136     9.1795     97.252     32.331  27.896215     1.7328      7.053   293.5501 5.0212e+01     1.9088      1.821      2.642    18.6070 0.0000e+00
      1.891      0.134     9.0347     95.487     32.243  27.744435     1.7061      7.045   293.9430 4.9545e+01     1.9132      1.855      2.690    18.4726 0.0000e+00
      1.924      0.131     8.9135     94.017     32.273  27.707325     1.6940      7.039   294.2762 4.8895e+01     1.9092      1.887      2.737    18.3706 0.0000e+00
      1.955      0.130     8.8237     92.872     32.492  27.828434     1.6975      7.034   294.5677 4.8418e+01     1.8915      1.919      2.784    18.2746 0.0000e+00
      1.985      0.132     8.7714     92.085     32.790  28.002196     1.7114      7.028   294.8854 4.7922e+01     1.8206      1.946      2.823    18.1331 0.0000e+00
      2.016      0.136     8.7575     91.679     33.003  28.093698     1.7431      7.022   295.1922 4.7350e+01     1.7538      1.975      2.864    18.0073 0.0000e+00
      2.051      0.138     8.7690     91.538     33.204  28.172667     1.7590      7.017   295.4387 4.6609e+01     1.7550      2.009      2.913    17.9279 0.0000e+00
      2.092      0.140     8.7750     91.349     33.409  28.258384     1.7565      7.011   295.6281 4.5755e+01     1.7750      2.052      2.976    17.8295 0.0000e+00
      2.133      0.140     8.7387     90.733     33.564  28.304495     1.7671      7.005   295.7607 4.4978e+01     1.8421      2.094      3.038    17.7007 0.0000e+00
      2.169      0.138     8.6386     89.466     33.715  28.349088     1.7961      6.997   295.9243 4.4337e+01     1.9570      2.128      3.085    17.5589 0.0000e+00
      2.201      0.135     8.4750     87.548     33.894  28.416448     1.8135      6.989   296.4019 4.3842e+01     2.0042      2.158      3.130    17.4177 0.0000e+00
      2.232      0.134     8.2600     85.104     34.076  28.483832     1.8115      6.980   296.9747 4.3416e+01     1.9850      2.189      3.174    17.2858 0.0000e+00
      2.263      0.135     8.0085     82.282     34.240  28.528706     1.8545      6.970   297.2575 4.3024e+01     2.0614      2.218      3.218    17.1601 0.0000e+00
      2.296      0.138     7.7411     79.301     34.415  28.577895     1.9465      6.960   297.2400 4.2536e+01     2.2260      2.249      3.263    17.0386 0.0000e+00
      2.335      0.139     7.4876     76.476     34.600  28.633942     1.9964      6.954   297.1932 4.1975e+01     2.2962      2.289      3.319    16.9166 0.0000e+00
      2.375      0.138     7.2649     73.974     34.800  28.698245     1.9989      6.949   297.3801 4.1420e+01     2.2993      2.330      3.380    16.7953 0.0000e+00
      2.412      0.135     7.0742     71.814     35.025  28.783735     2.0044      6.942   297.8650 4.0931e+01     2.2941      2.366      3.432    16.6581 0.0000e+00
      2.446      0.133     6.9132     69.985     35.285  28.905445     2.0345      6.932   298.5824 4.0606e+01     2.2342      2.401      3.483    16.5141 0.0000e+00
      2.476      0.134     6.7713     68.373     35.616  29.090183     2.0962      6.919   299.1714 4.0306e+01     2.1853      2.430      3.525    16.3780 0.0000e+00
      2.503      0.135     6.6319     66.777     35.915  29.239206     2.1437      6.908   299.3933 3.9940e+01     2.1911      2.454      3.559    16.2280 0.0000e+00
      2.533      0.135     6.4847     65.102     36.125  29.310095     2.1590      6.898   299.3725 3.9349e+01     2.1826      2.479      3.595    16.0834 0.0000e+00
      2.576      0.134     6.3290     63.383     36.308  29.375637     2.2083      6.891   299.3498 3.8598e+01     2.1121      2.522      3.658    15.9490 0.0000e+00
      2.622      0.131     6.1545     61.514     36.495  29.460036     2.2884      6.884   299.7218 3.8048e+01     2.0101      2.579      3.740    15.8420 0.0000e+00
      2.657      0.128     5.9505     59.364     36.710  29.568425     2.3282      6.875   300.4280 3.7615e+01     1.9561      2.610      3.786    15.7127 0.0000e+00
      2.682      0.126     5.7227     56.971     36.927  29.670010     2.3412      6.864   300.9201 3.7205e+01     1.9181      2.628      3.813    15.5474 0.0000e+00
      2.705      0.126     5.4722     54.329     37.127  29.735634     2.3987      6.852   301.1115 3.6883e+01     1.8252      2.654      3.848    15.4433 0.0000e+00
      2.730      0.126     5.2082     51.546     37.331  29.790228     2.4916      6.841   301.2798 3.6471e+01     1.7178      2.674      3.878    15.3576 0.0000e+00
      2.765      0.130     4.9541     48.886     37.578  29.885431     2.5353      6.831   301.4921 3.5896e+01     1.6868      2.707      3.926    15.2711 0.0000e+00
      2.808      0.133     4.7126     46.386     37.830  29.997525     2.5319      6.822   301.7852 3.5310e+01     1.7256      2.756      3.997    15.1868 0.0000e+00
      2.849      0.134     4.4789     43.995     38.005  30.065850     2.5427      6.813   302.2426 3.4778e+01     1.7289      2.797      4.057    15.0500 0.0000e+00
      2.882      0.133     4.2617     41.784     38.180  30.139895     2.5742      6.802   302.7197 3.4316e+01     1.6962      2.828      4.101    14.8901 0.0000e+00
      2.911      0.130     4.0643     39.762     38.428  30.257657     2.5909      6.791   303.0807 3.3956e+01     1.6967      2.856      4.142    14.7567 0.0000e+00
      2.939      0.126     3.8726     37.790     38.657  30.346492     2.5887      6.779   303.3374 3.3591e+01     1.7350      2.880      4.177    14.6358 0.0000e+00
      2.970      0.124     3.6761     35.777     38.830  30.388294     2.5744      6.766   303.5013 3.3170e+01     1.7621      2.910      4.220    14.5471 0.0000e+00
      3.005      0.124     3.4783     33.767     39.017  30.445439     2.5381      6.755   303.5990 3.2753e+01     1.7500      2.948      4.276    14.4777 0.0000e+00
      3.040      0.123     3.2779     31.753     39.224  30.529254     2.5080      6.744   303.6581 3.2329e+01     1.7104      2.983      4.326    14.3719 0.0000e+00
      3.072      0.120     3.0734     29.715     39.372  30.576019     2.5043      6.733   303.6992 3.1929e+01     1.7109      3.014      4.371    14.2481 0.0000e+00
      3.101      0.115     2.8670     27.670     39.441  30.566231     2.5121      6.724   303.8382 3.1604e+01     1.7569      3.041      4.411    14.1258 0.0000e+00
      3.129      0.109     2.6570     25.602     39.478  30.537845     2.4917      6.715   304.1346 3.1332e+01     1.7167      3.069      4.449    14.0041 0.0000e+00
      3.156      0.103     2.4485     23.557     39.484  30.486775     2.4324      6.705   304.4437 3.1076e+01     1.5902      3.096      4.490    13.9093 0.0000e+00
      3.181      0.100     2.2579     21.689     39.436  30.393244     2.3928      6.695   304.7366 3.0806e+01     1.5092      3.120      4.525    13.8270 0.0000e+00
      3.205      0.098     2.0881     20.020     39.396  30.296007     2.3897      6.685   305.0086 3.0547e+01     1.5010      3.144      4.560    13.7406 0.0000e+00
      3.228      0.098     1.9355     18.515     39.459  30.263625     2.3856      6.675   305.0645 3.0326e+01     1.5829      3.167      4.593    13.6745 0.0000e+00
      3.252      0.100     1.8113     17.289     39.717  30.382663     2.3804      6.665   305.0684 3.0106e+01     1.7054      3.188      4.622    13.6019 0.0000e+00
      3.277      0.104     1.7230     16.410     40.178  30.655566     2.3907      6.655   305.3144 2.9858e+01     1.7310      3.212      4.661    13.5365 0.0000e+00
      3.304      0.110     1.6703     15.865     40.618  30.895847     2.3899      6.643   305.6294 2.9576e+01     1.7092      3.240      4.700    13.4592 0.0000e+00
      3.332      0.116     1.6553     15.677     40.892  31.001462     2.3340      6.632   305.8664 2.9262e+01     1.7780      3.267      4.738    13.3391 0.0000e+00
      3.361      0.121     1.6754     15.826     40.905  30.916280     2.2484      6.622   306.0281 2.8889e+01     1.8906      3.295      4.779    13.2463 0.0000e+00
      3.395      0.124     1.7213     16.221     40.635  30.627915     2.2008      6.612   306.0371 2.8445e+01     1.9115      3.329      4.827    13.1586 0.0000e+00
      3.430      0.125     1.7727     16.670     40.400  30.372670     2.1896      6.603   305.9742 2.8013e+01     1.8787      3.365      4.882    13.0314 0.0000e+00
      3.464      0.124     1.8069     16.959     40.406  30.306866     2.1777      6.593   306.0421 2.7622e+01     1.8905      3.397      4.928    12.8996 0.0000e+00
      3.496      0.121     1.8136     16.994     40.615  30.403774     2.1575      6.583   306.2560 2.7248e+01     1.9321      3.429      4.973    12.7819 0.0000e+00
      3.526      0.118     1.7947     16.795     40.929  30.591697     2.1380      6.574   306.6674 2.6916e+01     1.9541      3.459      5.016    12.6800 0.0000e+00
      3.553      0.120     1.7667     16.513     41.438  30.927767     2.1079      6.563   307.3168 2.6571e+01     1.9732      3.483      5.053    12.5848 0.0000e+00
      3.579      0.127     1.7490     16.323     42.427  31.609200     1.9411      6.550   307.7403 2.6183e+01     2.1335      3.509      5.090    12.4954 0.0000e+00
      3.608      0.134     1.7480     16.282     43.528  32.352628     1.6556      6.539   307.6588 2.5715e+01     2.3965      3.537      5.130    12.4196 0.0000e+00
      3.642      0.136     1.7633     16.387     44.077  32.675992     1.5051      6.532   307.3639 2.4950e+01     2.4982      3.567      5.173    12.3670 0.0000e+00
      3.687      0.134     1.7886     16.593     44.235  32.724292     1.4908      6.528   307.1862 2.3943e+01     2.4772      3.612      5.240    12.3208 0.0000e+00
      3.734      0.129     1.8056     16.733     44.494  32.873024     1.4734      6.524   307.3164 2.3143e+01     2.5097      3.669      5.322    12.2600 0.0000e+00
      3.767      0.123     1.7900     16.573     44.819  33.076904     1.4050      6.518   307.5606 2.2661e+01     2.6463      3.700      5.366    12.1676 0.0000e+00
      3.786      0.115     1.7220     15.920     44.926  33.093318     1.2979      6.510   307.7301 2.2232e+01     2.8171      3.712      5.384    12.0542 0.0000e+00
      3.806      0.110     1.5934     14.697     44.847  32.944398     1.2352      6.498   307.9901 2.1674e+01     2.8657      3.730      5.411    11.9740 0.0000e+00
      3.832      0.111     1.4144     13.015     44.700  32.737087     1.2169      6.485   308.2950 2.0946e+01     2.8681      3.756      5.447    11.9332 0.0000e+00
      3.862      0.117     1.2058     11.066     44.509  32.492098     1.1873      6.473   308.5765 2.0109e+01     2.9061      3.787      5.493    11.9117 0.0000e+00
      3.895      0.125     0.9916      9.075     44.264  32.205167     1.1336      6.463   308.8130 1.9188e+01     2.9294      3.818      5.538    11.8432 0.0000e+00
      3.931      0.129     0.8058      7.354     44.032  31.935305     1.0918      6.454   309.0035 1.8236e+01     2.9363      3.853      5.589    11.7248 0.0000e+00
      3.968      0.128     0.6759      6.154     43.922  31.769644     1.0960      6.448   309.3316 1.7398e+01     2.9288      3.893      5.646    11.6192 0.0000e+00
      4.003      0.124     0.6204      5.639     43.774  31.599362     1.2665      6.444   309.5960 1.6693e+01     3.0823      3.926      5.695    11.5011 0.0000e+00
      4.034      0.119     0.6538      5.934     43.478  31.337143     1.5732      6.440   309.8771 1.6056e+01     3.4185      3.956      5.738    11.3702 0.0000e+00
      4.061      0.114     0.7787      7.056     43.104  31.012557     1.7345      6.436   310.4943 1.5499e+01     3.6062      3.984      5.777    11.2557 0.0000e+00
      4.086      0.114     0.9869      8.924     42.627  30.596241     1.7465      6.432   311.0355 1.5012e+01     3.6429      4.007      5.811    11.1533 0.0000e+00
      4.110      0.118     1.2661     11.419     42.168  30.177480     1.7923      6.429   311.1715 1.4512e+01     4.0454      4.030      5.845    11.0823 0.0000e+00
      4.138      0.124     1.5990     14.385     41.892  29.886760     1.8835      6.426   311.1075 1.3879e+01     4.8106      4.055      5.881    11.0405 0.0000e+00
      4.173      0.129     1.9680     17.667     41.724  29.684865     1.9399      6.426   311.0355 1.3137e+01     5.2343      4.089      5.932    10.9796 0.0000e+00
      4.212      0.134     2.3678     21.217     41.489  29.450969     1.9399      6.426   311.1614 1.2448e+01     5.2624      4.132      5.992    10.8932 0.0000e+00
      4.250      0.138     2.8032     25.082     41.145  29.154347     1.8202      6.425   311.4241 1.1871e+01     5.2423      4.169      6.047    10.7814 0.0000e+00
      4.284      0.140     3.2719     29.238     40.932  28.956092     1.6038      6.425   311.4589 1.1394e+01     5.2349      4.204      6.097    10.6616 0.0000e+00
      4.315      0.138     3.7584     33.544     40.907  28.895460     1.4926      6.426   311.3242 1.0909e+01     5.2644      4.230      6.136    10.5644 0.0000e+00
      4.350      0.134     4.2509     37.905     40.912  28.865725     1.4875      6.428   311.1719 1.0291e+01     5.2936      4.261      6.181    10.4834 0.0000e+00
      4.390      0.130     4.7441     42.278     40.921  28.850551     1.4869      6.431   310.9941 9.6984e+00     5.2529      4.307      6.247    10.4232 0.0000e+00
      4.425      0.128     5.2334     46.622     40.924  28.838972     1.4749      6.434   310.8957 9.2573e+00     4.8634      4.344      6.301    10.3685 0.0000e+00
      4.454      0.125     5.7177     50.924     40.955  28.852719     1.4534      6.436   310.9282 8.8223e+00     4.1854      4.366      6.333    10.3100 0.0000e+00
      4.482      0.123     6.1928     55.140     41.022  28.889753     1.4379      6.437   311.3021 8.3714e+00     3.8305      4.394      6.374    10.2709 0.0000e+00
      4.513      0.125     6.6427     59.124     41.062  28.905709     1.4262      6.435   311.9737 7.9492e+00     3.7767      4.425      6.417    10.2456 0.0000e+00
      4.543      0.133     7.0392     62.632     41.097  28.918620     1.4029      6.430   312.2512 7.5560e+00     3.5346      4.457      6.463    10.2286 0.0000e+00
      4.573      0.142     7.3692     65.551     41.112  28.918849     1.3766      6.427   312.1629 7.1966e+00     3.1312      4.485      6.504    10.2240 0.0000e+00
      4.608      0.148     7.6349     67.898     41.108  28.908461     1.3664      6.427   312.2823 6.7211e+00     2.9279      4.513      6.545    10.2125 0.0000e+00
      4.654      0.151     7.8339     69.657     41.133  28.920008     1.3617      6.428   312.4053 6.1685e+00     2.8769      4.564      6.619    10.1939 0.0000e+00
      4.702      0.151     7.9709     70.869     41.153  28.931458     1.3747      6.428   312.3591 5.7656e+00     2.6981      4.616      6.695    10.1802 0.0000e+00
      4.742      0.150     8.0523     71.590     41.139  28.919893     1.4043      6.427   312.4974 5.4786e+00     2.4449      4.651      6.746    10.1683 0.0000e+00
      4.777      0.147     8.0776     71.811     41.124  28.907182     1.4164      6.426   312.7873 5.2343e+00     2.3172      4.685      6.795    10.1578 0.0000e+00
      4.809      0.144     8.0600     71.650     41.124  28.904769     1.4203      6.424   312.9390 5.0428e+00     2.3137      4.717      6.842    10.1500 0.0000e+00
      4.840      0.141     8.0184     71.275     41.108  28.890714     1.3778      6.422   313.0403 4.8505e+00     2.2817      4.744      6.882    10.1473 0.0000e+00
      4.877      0.141     7.9602     70.753     41.073  28.864253     1.2789      6.420   313.2376 4.6345e+00     2.2039      4.780      6.933    10.1469 0.0000e+00
      4.919      0.142     7.8907     70.130     41.041  28.838843     1.2264      6.417   313.5180 4.4427e+00     2.1665      4.826      6.999    10.1445 0.0000e+00
      4.958      0.145     7.8226     69.518     41.044  28.837490     1.2215      6.414   313.9362 4.2904e+00     2.1660      4.864      7.056    10.1407 0.0000e+00
      4.993      0.149     7.7641     68.991     41.063  28.847895     1.1640      6.410   314.3358 4.1463e+00     2.0753      4.895      7.100    10.1377 0.0000e+00
      5.027      0.152     7.7151     68.551     41.052  28.837635     1.0732      6.406   314.3909 4.0006e+00     1.8634      4.929      7.148    10.1356 0.0000e+00
      5.064      0.153     7.6820     68.254     41.059  28.840435     1.0340      6.404   314.1731 3.8552e+00     1.7400      4.964      7.199    10.1325 0.0000e+00
      5.104      0.152     7.6627     68.080     41.119  28.881747     1.0301      6.404   314.1120 3.7142e+00     1.7438      5.003      7.256    10.1278 0.0000e+00
      5.150      0.150     7.6500     67.965     41.226  28.956112     1.0256      6.403   314.2536 3.5766e+00     1.7258      5.050      7.325    10.1228 0.0000e+00
      5.194      0.149     7.6428     67.896     41.350  29.041040     0.9895      6.401   314.2501 3.4671e+00     1.7056      5.097      7.393    10.1206 0.0000e+00
      5.228      0.145     7.6348     67.818     41.416  29.083043     0.9241      6.397   314.0697 3.4085e+00     1.7129      5.130      7.441    10.1194 0.0000e+00
      5.257      0.136     7.6209     67.683     41.424  29.082939     0.8969      6.395   313.7936 3.3508e+00     1.7217      5.153      7.473    10.1176 0.0000e+00
      5.290      0.125     7.6014     67.502     41.459  29.103286     0.9089      6.396   313.4933 3.2719e+00     1.7212      5.184      7.518    10.1167 0.0000e+00
      5.329      0.113     7.5718     67.236     41.512  29.138539     0.9024      6.398   313.1915 3.2061e+00     1.6456      5.230      7.586    10.1148 0.0000e+00
      5.361      0.101     7.5256     66.826     41.497  29.128150     0.8648      6.401   312.8979 3.1638e+00     1.5094      5.263      7.634    10.1094 0.0000e+00
      5.382      0.087     7.4645     66.281     41.466  29.104686     0.8398      6.404   312.6972 3.1328e+00     1.4473      5.278      7.653    10.1011 0.0000e+00
      5.400      0.069     7.3925     65.635     41.476  29.108851     0.8398      6.405   312.4855 3.1083e+00     1.4745      5.297      7.682    10.0950 0.0000e+00
      5.416      0.052     7.3151     64.940     41.491  29.114998     0.8278      6.406   312.2305 3.0881e+00     1.4416      5.314      7.708    10.0931 0.0000e+00
      5.427      0.044     7.2761     64.590     41.494  29.115507     0.8139      6.407   312.1098 3.0768e+00     1.3859      5.323      7.720    10.0946 0.0000e+00
      5.433 -9.990e-29 -9.990e-29 -9.990e-29 -9.990e-29 -9.990e-29 -9.990e-29 -9.990e-29 -9.990e-29 3.0727e+00 -9.990e-29      5.329      7.729    10.0945 0.0000e+00
      5.436 -9.990e-29 -9.990e-29 -9.990e-29 -9.990e-29 -9.990e-29 -9.990e-29 -9.990e-29 -9.990e-29 3.0625e+00 -9.990e-29      5.331      7.732    10.0888 0.0000e+00
      5.437 -9.990e-29 -9.990e-29 -9.990e-29 -9.990e-29 -9.990e-29 -9.990e-29 -9.990e-29 -9.990e-29 3.0551e+00 -9.990e-29      5.332      7.734    10.0824 0.0000e+00
      5.437 -9.990e-29 -9.990e-29 -9.990e-29 -9.990e-29 -9.990e-29 -9.990e-29 -9.990e-29 -9.990e-29 3.0550e+00 -9.990e-29      5.333      7.734    10.0800 0.0000e+00
