* Sea-Bird SBE19plus  Data File:
* FileName = C:\DATA\081618_bvr50_0001.hex
* Software version 2.6.3.104
* Temperature SN = 7809
* Conductivity SN = 7809
* System UpLoad Time = Aug 16 2018 20:44:10
* <ApplicationData>
* <Seaterm232>
* <SoftwareVersion>2.6.3.104</SoftwareVersion>
* <BuildDate>30-Jun-2017</BuildDate>
* </Seaterm232>
* </ApplicationData>
* <InstrumentState>
* <HardwareData DeviceType='SBE19plus' SerialNumber='01907809'>
*
*    <Manufacturer>Sea-Bird Electronics, Inc.</Manufacturer>
*
*    <FirmwareVersion>3.1.8</FirmwareVersion>
*
*    <FirmwareDate>Mar  9 2016 16:22:29</FirmwareDate>
*
*    <CommandSetVersion>1.4</CommandSetVersion>
*
*    <PCBAssembly PCBSerialNum='120721' AssemblyNum='41054J'/>
*
*    <PCBAssembly PCBSerialNum='120715' AssemblyNum='41967A'/>
*
*    <PCBAssembly PCBSerialNum='116699' AssemblyNum='41606'/>
*
*    <PCBAssembly PCBSerialNum='120719' AssemblyNum='41059D'/>
*
*    <MfgDate>28-Apr-2017</MfgDate>
*
*    <InternalSensors>
*
*       <Sensor id='Main Temperature'>
*
*          <type>temperature0</type>
*
*          <SerialNumber>01907809</SerialNumber>
*
*       </Sensor>
*
*       <Sensor id='Main Conductivity'>
*
*          <type>conductivity-0</type>
*
*          <SerialNumber>01907809</SerialNumber>
*
*       </Sensor>
*
*       <Sensor id='Main Pressure'>
*
*          <type>strain-0</type>
*
*          <SerialNumber>10586018</SerialNumber>
*
*       </Sensor>
*
*    </InternalSensors>
*
*    <ExternalSensors>
*
*       <Sensor id='volt 0'>
*
*          <type>pH</type>
*
*          <SerialNumber>27-0363</SerialNumber>
*
*       </Sensor>
*
*       <Sensor id='volt 1'>
*
*          <type>ORP</type>
*
*          <SerialNumber>27-0363</SerialNumber>
*
*       </Sensor>
*
*       <Sensor id='volt 2'>
*
*          <type>OXY</type>
*
*          <SerialNumber>43-0434</SerialNumber>
*
*       </Sensor>
*
*       <Sensor id='volt 3'>
*
*          <type>PAR</type>
*
*          <SerialNumber>1122</SerialNumber>
*
*       </Sensor>
*
*       <Sensor id='volt 4'>
*
*          <type>ECO AFL/FL</type>
*
*          <SerialNumber>FLNTURT-2496</SerialNumber>
*
*       </Sensor>
*
*       <Sensor id='volt 5'>
*
*          <type>ECO-NTU</type>
*
*          <SerialNumber>FLNTURT-2496</SerialNumber>
*
*       </Sensor>
*
*       <Sensor id='serial'>
*
*          <type>not assigned</type>
*
*          <SerialNumber>not assigned</SerialNumber>
*
*       </Sensor>
*
*    </ExternalSensors>
*
* </HardwareData>
* <StatusData DeviceType='SBE19plus' SerialNumber='01907809'>
*
*    <DateTime>2018-08-17T00:43:34</DateTime>
*
*    <LoggingState>not logging</LoggingState>
*
*    <EventSummary numEvents='0'/>
*
*    <Power>
*
*       <vMain>13.1</vMain>
*
*       <vLith>8.8</vLith>
*
*       <iMain>63.3</iMain>
*
*       <iPump>48.9</iPump>
*
*       <iExt01>13.4</iExt01>
*
*       <iExt2345>41.8</iExt2345>
*
*    </Power>
*
*    <MemorySummary>
*
*       <Bytes>45632</Bytes>
*
*       <Samples>1984</Samples>
*
*       <SamplesFree>2858804</SamplesFree>
*
*       <SampleLength>23</SampleLength>
*
*       <Profiles>2</Profiles>
*
*    </MemorySummary>
*
* </StatusData>
* <ConfigurationData DeviceType='SBE19plus' SerialNumber='01907809'>
*
*    <ProfileMode>
*
*       <ScansToAverage>1</ScansToAverage>
*
*       <MinimumCondFreq>5</MinimumCondFreq>
*
*       <PumpDelay>45</PumpDelay>
*
*       <AutoRun>no</AutoRun>
*
*       <IgnoreSwitch>no</IgnoreSwitch>
*
*    </ProfileMode>
*
*    <Battery>
*
*       <Type>alkaline</Type>
*
*       <CutOff>7.5</CutOff>
*
*    </Battery>
*
*    <DataChannels>
*
*       <ExtVolt0>yes</ExtVolt0>
*
*       <ExtVolt1>yes</ExtVolt1>
*
*       <ExtVolt2>yes</ExtVolt2>
*
*       <ExtVolt3>yes</ExtVolt3>
*
*       <ExtVolt4>yes</ExtVolt4>
*
*       <ExtVolt5>yes</ExtVolt5>
*
*       <SBE38>no</SBE38>
*
*       <WETLABS>no</WETLABS>
*
*       <OPTODE>no</OPTODE>
*
*       <SBE63>no</SBE63>
*
*       <SeaFET>no</SeaFET>
*
*       <GTD>no</GTD>
*
*    </DataChannels>
*
*    <EchoCharacters>yes</EchoCharacters>
*
*    <OutputExecutedTag>yes</OutputExecutedTag>
*
*    <OutputFormat>raw HEX</OutputFormat>
*
* </ConfigurationData>
* <CalibrationCoefficients DeviceType='SBE19plus' SerialNumber='01907809'>
*
*    <Calibration format='TEMP1' id='Main Temperature'>
*
*       <SerialNum>01907809</SerialNum>
*
*       <CalDate>09-Mar-18</CalDate>
*
*       <TA0>1.210932e-03</TA0>
*
*       <TA1>2.843566e-04</TA1>
*
*       <TA2>-1.945074e-06</TA2>
*
*       <TA3>2.128067e-07</TA3>
*
*       <TOFFSET>0.000000e+00</TOFFSET>
*
*    </Calibration>
*
*    <Calibration format='WBCOND0' id='Main Conductivity'>
*
*       <SerialNum>01907809</SerialNum>
*
*       <CalDate>09-Mar-18</CalDate>
*
*       <G>-1.006721e+00</G>
*
*       <H>1.269065e-01</H>
*
*       <I>-1.405844e-04</I>
*
*       <J>2.478371e-05</J>
*
*       <CPCOR>-9.570000e-08</CPCOR>
*
*       <CTCOR>3.250000e-06</CTCOR>
*
*       <CSLOPE>1.000000e+00</CSLOPE>
*
*    </Calibration>
*
*    <Calibration format='STRAIN0' id='Main Pressure'>
*
*       <SerialNum>10586018</SerialNum>
*
*       <CalDate>07-Mar-18</CalDate>
*
*       <PA0>-4.081764e-02</PA0>
*
*       <PA1>4.851884e-04</PA1>
*
*       <PA2>-3.511682e-12</PA2>
*
*       <PTCA0>5.252134e+05</PTCA0>
*
*       <PTCA1>1.795324e+00</PTCA1>
*
*       <PTCA2>-2.843535e-01</PTCA2>
*
*       <PTCB0>2.516687e+01</PTCB0>
*
*       <PTCB1>3.750000e-04</PTCB1>
*
*       <PTCB2>0.000000e+00</PTCB2>
*
*       <PTEMPA0>-5.378069e+01</PTEMPA0>
*
*       <PTEMPA1>5.366207e+01</PTEMPA1>
*
*       <PTEMPA2>4.872143e-02</PTEMPA2>
*
*       <POFFSET>5.000000e-01</POFFSET>
*
*       <PRANGE>1.600000e+02</PRANGE>
*
*    </Calibration>
*
*    <Calibration format='VOLT0' id='Volt 0'>
*
*       <OFFSET>-4.920000e-02</OFFSET>
*
*       <SLOPE>1.248122e+00</SLOPE>
*
*    </Calibration>
*
*    <Calibration format='VOLT0' id='Volt 1'>
*
*       <OFFSET>-4.784000e-02</OFFSET>
*
*       <SLOPE>1.248871e+00</SLOPE>
*
*    </Calibration>
*
*    <Calibration format='VOLT0' id='Volt 2'>
*
*       <OFFSET>-4.864632e-02</OFFSET>
*
*       <SLOPE>1.248714e+00</SLOPE>
*
*    </Calibration>
*
*    <Calibration format='VOLT0' id='Volt 3'>
*
*       <OFFSET>-4.743790e-02</OFFSET>
*
*       <SLOPE>1.248571e+00</SLOPE>
*
*    </Calibration>
*
*    <Calibration format='VOLT0' id='Volt 4'>
*
*       <OFFSET>-4.671263e-02</OFFSET>
*
*       <SLOPE>1.248951e+00</SLOPE>
*
*    </Calibration>
*
*    <Calibration format='VOLT0' id='Volt 5'>
*
*       <OFFSET>-4.871053e-02</OFFSET>
*
*       <SLOPE>1.249136e+00</SLOPE>
*
*    </Calibration>
*
*    <Calibration format='FREQ0' id='external frequency channel'>
*
*       <EXTFREQSF>1.000014e+00</EXTFREQSF>
*
*    </Calibration>
*
* </CalibrationCoefficients>
* <EventCounters DeviceType='SBE19plus' SerialNumber='01907809'>
*
*    <EventSummary numEvents='0'/>
*
* </EventCounters></InstrumentState>
* <Headers>
*
* cast   1 16 Aug 2018 14:44:43 samples 1 to 1076, avg = 1, stop = mag switch
*
# nquan = 17
# nvalues = 970                         
# units = specified
# name 0 = depFM: Depth [fresh water, m]
# name 1 = tv290C: Temperature [ITS-90, deg C]
# name 2 = sbeox0Mg/L: Oxygen, SBE 43 [mg/l]
# name 3 = sbeox0PS: Oxygen, SBE 43 [% saturation]
# name 4 = c0uS/cm: Conductivity [uS/cm]
# name 5 = specc: Specific Conductance [uS/cm]
# name 6 = ph: pH
# name 7 = orp: Oxidation Reduction Potential [mV]
# name 8 = flECO-AFL: Fluorescence, WET Labs ECO-AFL/FL [mg/m^3]
# name 9 = turbWETntu0: Turbidity, WET Labs ECO [NTU]
# name 10 = sal00: Salinity, Practical [PSU]
# name 11 = dz/dtM: Descent Rate [m/s]
# name 12 = prdM: Pressure, Strain Gauge [db]
# name 13 = prdE: Pressure, Strain Gauge [psi]
# name 14 = scan: Scan Count
# name 15 = par/sat/log: PAR/Logarithmic, Satlantic
# name 16 = flag:  0.000e+00
# span 0 =     -0.596,     10.426       
# span 1 =     7.8008,    31.2200       
# span 2 =    -0.1805,    10.5760       
# span 3 =     -1.755,    131.486       
# span 4 =   0.527732, 210.913593       
# span 5 =      0.677,    322.327       
# span 6 =      6.419,      9.151       
# span 7 = -1240.7455,   283.7282       
# span 8 =    -0.1981,    13.4694       
# span 9 =    -0.5063,    14.5867       
# span 10 =     0.0138,     0.1500      
# span 11 =     -0.177,      0.262      
# span 12 =     -0.585,     10.223      
# span 13 =     -0.848,     14.828      
# span 14 =          1,        970      
# span 15 = 1.2391e-01, 1.5968e+03      
# span 16 = 0.0000e+00, 0.0000e+00      
# interval = seconds: 0.25
# start_time = Aug 16 2018 14:44:43 [Instrument's time stamp, header]
# bad_flag = -9.990e-29
# <Sensors count="9" >
#   <sensor Channel="1" >
#     <!-- Count, Temperature -->
#     <TemperatureSensor SensorID="58" >
#       <SerialNumber>7809</SerialNumber>
#       <CalibrationDate>09-Mar-18</CalibrationDate>
#       <A0>1.21093245e-003</A0>
#       <A1>2.84356597e-004</A1>
#       <A2>-1.94507398e-006</A2>
#       <A3>2.12806664e-007</A3>
#       <Slope>1.00000000</Slope>
#       <Offset>0.0000</Offset>
#     </TemperatureSensor>
#   </sensor>
#   <sensor Channel="2" >
#     <!-- Frequency 0, Conductivity -->
#     <ConductivitySensor SensorID="3" >
#       <SerialNumber>7809</SerialNumber>
#       <CalibrationDate>09-Mar-18</CalibrationDate>
#       <UseG_J>1</UseG_J>
#       <!-- Cell const and series R are applicable only for wide range sensors. -->
#       <SeriesR>0.0000</SeriesR>
#       <CellConst>2000.0000</CellConst>
#       <ConductivityType>0</ConductivityType>
#       <Coefficients equation="0" >
#         <A>0.00000000e+000</A>
#         <B>0.00000000e+000</B>
#         <C>0.00000000e+000</C>
#         <D>0.00000000e+000</D>
#         <M>0.0</M>
#         <CPcor>-9.57000000e-008</CPcor>
#       </Coefficients>
#       <Coefficients equation="1" >
#         <G>-1.00672082e+000</G>
#         <H>1.26906489e-001</H>
#         <I>-1.40584351e-004</I>
#         <J>2.47837121e-005</J>
#         <CPcor>-9.57000000e-008</CPcor>
#         <CTcor>3.2500e-006</CTcor>
#         <!-- WBOTC not applicable unless ConductivityType = 1. -->
#         <WBOTC>0.00000000e+000</WBOTC>
#       </Coefficients>
#       <Slope>1.00000000</Slope>
#       <Offset>0.00000</Offset>
#     </ConductivitySensor>
#   </sensor>
#   <sensor Channel="3" >
#     <!-- Count, Pressure, Strain Gauge -->
#     <PressureSensor SensorID="46" >
#       <SerialNumber>7809</SerialNumber>
#       <CalibrationDate>07-Mar-18</CalibrationDate>
#       <PA0>-4.08176359e-002</PA0>
#       <PA1>4.85188419e-004</PA1>
#       <PA2>-3.51168169e-012</PA2>
#       <PTEMPA0>-5.37806900e+001</PTEMPA0>
#       <PTEMPA1>5.36620721e+001</PTEMPA1>
#       <PTEMPA2>4.87214332e-002</PTEMPA2>
#       <PTCA0>5.25213435e+005</PTCA0>
#       <PTCA1>1.79532409e+000</PTCA1>
#       <PTCA2>-2.84353509e-001</PTCA2>
#       <PTCB0>2.51668750e+001</PTCB0>
#       <PTCB1>3.75000000e-004</PTCB1>
#       <PTCB2>0.00000000e+000</PTCB2>
#       <Offset>0.000000</Offset>
#     </PressureSensor>
#   </sensor>
#   <sensor Channel="4" >
#     <!-- A/D voltage 0, pH -->
#     <pH_Sensor SensorID="43" >
#       <SerialNumber>0363</SerialNumber>
#       <CalibrationDate>16-Mar-18</CalibrationDate>
#       <Slope>4.6194</Slope>
#       <Offset>2.5947</Offset>
#     </pH_Sensor>
#   </sensor>
#   <sensor Channel="5" >
#     <!-- A/D voltage 1, Oxidation Reduction Potential -->
#     <OxidationReductionPotentialSensor SensorID="41" >
#       <SerialNumber>0363</SerialNumber>
#       <CalibrationDate>16-Mar-18</CalibrationDate>
#       <B>2.499480</B>
#       <M>-0.496195</M>
#       <Offset>0.0</Offset>
#     </OxidationReductionPotentialSensor>
#   </sensor>
#   <sensor Channel="6" >
#     <!-- A/D voltage 2, Oxygen, SBE 43 -->
#     <OxygenSensor SensorID="38" >
#       <SerialNumber>0434</SerialNumber>
#       <CalibrationDate>13-Mar-18</CalibrationDate>
#       <Use2007Equation>1</Use2007Equation>
#       <CalibrationCoefficients equation="0" >
#         <!-- Coefficients for Owens-Millard equation. -->
#         <Boc>0.0000</Boc>
#         <Soc>0.0000e+000</Soc>
#         <offset>0.0000</offset>
#         <Pcor>0.00e+000</Pcor>
#         <Tcor>0.0000</Tcor>
#         <Tau>0.0</Tau>
#       </CalibrationCoefficients>
#       <CalibrationCoefficients equation="1" >
#         <!-- Coefficients for Sea-Bird equation - SBE calibration in 2007 and later. -->
#         <Soc>4.5718e-001</Soc>
#         <offset>-0.6113</offset>
#         <A>-4.0649e-003</A>
#         <B> 2.0945e-004</B>
#         <C>-3.3182e-006</C>
#         <D0> 2.5826e+000</D0>
#         <D1> 1.92634e-004</D1>
#         <D2>-4.64803e-002</D2>
#         <E> 3.6000e-002</E>
#         <Tau20> 1.2200</Tau20>
#         <H1>-3.3000e-002</H1>
#         <H2> 5.0000e+003</H2>
#         <H3> 1.4500e+003</H3>
#       </CalibrationCoefficients>
#     </OxygenSensor>
#   </sensor>
#   <sensor Channel="7" >
#     <!-- A/D voltage 3, PAR/Logarithmic, Satlantic -->
#     <PARLog_SatlanticSensor SensorID="76" >
#       <SerialNumber>1122</SerialNumber>
#       <CalibrationDate>22-Jun-2017</CalibrationDate>
#       <a0>9.6090e-001</a0>
#       <a1>8.0780e-001</a1>
#       <Im>1.3589e+000</Im>
#       <Multiplier>1.0000e+000</Multiplier>
#     </PARLog_SatlanticSensor>
#   </sensor>
#   <sensor Channel="8" >
#     <!-- A/D voltage 4, Fluorometer, WET Labs ECO-AFL/FL -->
#     <FluoroWetlabECO_AFL_FL_Sensor SensorID="20" >
#       <SerialNumber>FLNTURT-2496</SerialNumber>
#       <CalibrationDate>25-Jan-2017</CalibrationDate>
#       <ScaleFactor>5.30000000e+001</ScaleFactor>
#       <!-- Dark output -->
#       <Vblank>0.0560</Vblank>
#     </FluoroWetlabECO_AFL_FL_Sensor>
#   </sensor>
#   <sensor Channel="9" >
#     <!-- A/D voltage 5, Turbidity Meter, WET Labs, ECO-NTU -->
#     <TurbidityMeter SensorID="67" >
#       <SerialNumber>FLNTURT-2496</SerialNumber>
#       <CalibrationDate>25-Jan-2017</CalibrationDate>
#       <ScaleFactor>176.000000</ScaleFactor>
#       <!-- Dark output -->
#       <DarkVoltage>0.072000</DarkVoltage>
#     </TurbidityMeter>
#   </sensor>
# </Sensors>
# datcnv_date = Aug 16 2018 20:50:13, 7.26.7.114 [datcnv_vars = 16]
# datcnv_in = C:\DATA\081618_bvr50.hex C:\DATA\SBE19plusV2_7809.xmlcon
# datcnv_skipover = 0
# datcnv_ox_hysteresis_correction = yes
# datcnv_ox_tau_correction = yes
# filter_date = Aug 16 2018 20:50:30, 7.26.7.114
# filter_in = C:\DATA\081618_bvr50.cnv
# filter_low_pass_tc_A = 0.030
# filter_low_pass_tc_B = 0.150
# filter_low_pass_A_vars = tv290C c0uS/cm par/sat/log
# filter_low_pass_B_vars = prdM prdE
# alignctd_date = Aug 16 2018 20:50:48, 7.26.7.114
# alignctd_in = C:\DATA\081618_bvr50.cnv
# alignctd_adv = tv290C 0.500, sbeox0Mg/L 3.000, sbeox0PS 3.000                                                                                                                                                                      
# file_type = ascii
*END*
     -0.596    31.1964     7.5490    101.957   0.773555      0.677      6.419 -1240.7455    -0.1779    -0.2377     0.0139      0.000     -0.585     -0.848          1 1.4317e+03 0.0000e+00
     -0.596    31.1966     7.5668    101.986   0.857876      0.776      6.454 -1240.7455    -0.1658    -0.2780     0.0139      0.000     -0.585     -0.848          2 1.4431e+03 0.0000e+00
     -0.596    31.1975     7.6760    102.056   0.884565      0.776      6.460 -1240.7455    -0.1698    -0.2377     0.0139      0.000     -0.584     -0.847          3 1.5567e+03 0.0000e+00
     -0.595    31.1973     7.7754    102.130   0.858767      0.776      6.469 -1240.7455    -0.1658    -0.1437     0.0139      0.001     -0.584     -0.847          4 1.3393e+03 0.0000e+00
     -0.595    31.1995     7.8505    102.165   0.949195      0.826      6.482 -1240.7455    -0.1981    -0.2243     0.0139      0.001     -0.584     -0.847          5 4.1046e+02 0.0000e+00
     -0.596    31.1974     7.9207    102.197   0.890453      0.826      6.490 -1240.7455    -0.1658    -0.2377     0.0139      0.001     -0.584     -0.847          6 2.0424e+02 0.0000e+00
     -0.596    31.2020     8.0069    102.484   1.050294      0.875      6.494 -1240.7455    -0.1698    -0.1974     0.0139      0.001     -0.584     -0.847          7 3.5671e+02 0.0000e+00
     -0.596    31.1961     8.0956    103.005   1.223977      1.173      6.505 -1240.7455    -0.1658    -0.1706     0.0138      0.000     -0.585     -0.848          8 3.1206e+02 0.0000e+00
     -0.596    31.2072     8.1824    103.706   1.444074      1.173      6.525 -1240.7455    -0.1981    -0.0900     0.0138     -0.000     -0.585     -0.848          9 3.8051e+02 0.0000e+00
     -0.596    31.1903     8.2566    104.389   1.013238      1.074      6.510 -1240.7455    -0.1658     0.0845     0.0138     -0.000     -0.585     -0.848         10 3.6811e+02 0.0000e+00
     -0.596    31.2200     8.3175    104.988   1.464078      1.024      6.508 -1240.7455    -0.1577    -0.0229     0.0138     -0.001     -0.585     -0.847         11 4.5526e+02 0.0000e+00
     -0.596    31.0439     8.3715    105.559   0.527732      0.925      6.517 -1240.7455    -0.1819    -0.0229     0.0139     -0.001     -0.580     -0.841         12 4.1845e+02 0.0000e+00
     -0.583    30.3045     8.4029    105.863   2.119292      1.123      6.473 -1240.7455     0.0809    -0.5063     0.0138      0.003     -0.556     -0.807         13 5.5716e+02 0.0000e+00
     -0.519    29.5704     8.4246    106.047  15.298952     14.114      6.619  -531.7171     0.0930    -0.4257     0.0172      0.023     -0.505     -0.733         14 1.3906e+03 0.0000e+00
     -0.446    29.0534     8.4314    106.046  27.878976     25.053      7.351   283.7282     0.1092    -0.3452     0.0210      0.056     -0.438     -0.635         15 1.4521e+03 0.0000e+00
     -0.376    28.5515     8.4176    105.790  32.096502     29.675      8.050   241.1766     0.0890    -0.4391     0.0227      0.098     -0.368     -0.535         16 6.7462e+02 0.0000e+00
     -0.306    28.1062     8.3788    105.236  32.163560     29.580      8.445   217.2887     1.6822    14.4524     0.0225      0.144     -0.297     -0.431         17 4.3153e+02 0.0000e+00
     -0.223    27.7647     8.0684    101.270  31.620385     29.616      8.709   208.2029     1.6701    14.5867     0.0224      0.192     -0.225     -0.326         18 3.9036e+02 0.0000e+00
     -0.161    27.5488     7.7787     97.553  31.734870     29.817      8.868   201.9565     1.6741    14.5061     0.0224      0.233     -0.163     -0.236         19 3.0447e+02 0.0000e+00
     -0.112    27.4073     7.7169     96.678  31.576500     29.954      8.993   192.6815     1.7024    14.5196     0.0223      0.257     -0.112     -0.162         20 2.4110e+02 0.0000e+00
     -0.066    27.3179     7.8908     98.760  31.669362     30.106      9.078   193.0979     8.0469     2.5016     0.0223      0.262     -0.071     -0.102         21 2.0076e+02 0.0000e+00
     -0.038    27.2575     8.0437    100.618  31.708359     30.265      9.105   190.5615     8.0550     2.5150     0.0224      0.244     -0.043     -0.061         22 1.7395e+02 0.0000e+00
     -0.025    27.2098     8.1677    102.139  31.794900     30.371      9.109   184.3529     8.0388     2.5150     0.0224      0.215     -0.028     -0.041         23 1.4333e+02 0.0000e+00
     -0.022    27.1622     8.2206    102.794  31.769268     30.405      9.113   196.3915     8.0590     2.5553     0.0224      0.178     -0.023     -0.033         24 1.3939e+02 0.0000e+00
     -0.021    27.1165     8.3286    104.153  31.680981     30.326      9.114   196.9215     8.9567     2.3270     0.0223      0.137     -0.022     -0.031         25 1.3785e+02 0.0000e+00
     -0.022    27.0739     8.4144    105.236  31.667578     30.354      9.111   195.0665     8.9729     2.2196     0.0223      0.094     -0.023     -0.032         26 1.5543e+02 0.0000e+00
     -0.024    27.0376     8.3947    105.004  31.697015     30.408      9.115   194.6500     8.9931     2.2464     0.0224      0.060     -0.024     -0.034         27 1.6483e+02 0.0000e+00
     -0.025    27.0007     8.3001    103.836  31.674020     30.406      9.119   184.7314     8.9810     2.2867     0.0223      0.033     -0.025     -0.036         28 1.6611e+02 0.0000e+00
     -0.026    26.9543     8.1703    102.224  31.666560     30.427      9.116   181.0971     8.9850     2.2330     0.0223      0.013     -0.025     -0.036         29 1.6991e+02 0.0000e+00
     -0.025    26.8969     8.0496    100.719  31.735966     30.502      9.113   191.1293     8.5362     2.2733     0.0224      0.003     -0.026     -0.037         30 1.6732e+02 0.0000e+00
     -0.027    26.8431     7.9563     99.552  31.913832     30.718      9.107   190.7886     8.5402     2.1927     0.0224     -0.002     -0.028     -0.039         31 1.6652e+02 0.0000e+00
     -0.032    26.8112     7.8857     98.667  32.038269     30.859      9.102   191.0157     8.5726     2.3404     0.0225     -0.004     -0.030     -0.043         32 1.6331e+02 0.0000e+00
     -0.031    26.7959     7.8317     97.972  32.114870     30.973      9.102   188.6307     8.5726     2.3002     0.0225     -0.005     -0.031     -0.045         33 1.5466e+02 0.0000e+00
     -0.031    26.7918     7.8242     97.866  32.204007     31.072      9.101   187.6843     8.7586     2.3136     0.0225     -0.005     -0.035     -0.050         34 1.5651e+02 0.0000e+00
     -0.045    26.7962     7.8404     98.070  32.253531     31.135      9.090   186.9272     8.7424     2.2599     0.0226     -0.008     -0.045     -0.066         35 1.6628e+02 0.0000e+00
     -0.064    26.8018     7.8228     97.851  32.260813     31.138      9.071   178.6743     8.7343     2.2464     0.0226     -0.015     -0.059     -0.086         36 1.7385e+02 0.0000e+00
     -0.072    26.8091     7.7541     96.993  32.254252     31.135      9.066   185.7536     8.7505     2.3673     0.0226     -0.022     -0.062     -0.091         37 1.8243e+02 0.0000e+00
     -0.055    26.8172     7.7064     96.400  32.261696     31.132      9.063   178.9393     8.5766     2.2330     0.0226     -0.022     -0.050     -0.072         38 1.8479e+02 0.0000e+00
     -0.026    26.8237     7.6827     96.102  32.340506     31.208      9.040   177.5386     8.5523     2.2733     0.0226     -0.012     -0.031     -0.044         39 1.7722e+02 0.0000e+00
     -0.014    26.8262     7.6671     95.901  32.393394     31.257      9.016   177.3871     8.5564     2.3002     0.0226      0.001     -0.022     -0.031         40 1.6524e+02 0.0000e+00
     -0.027    26.8272     7.6565     95.765  32.314486     31.172      8.994   175.9864     8.5483     2.2464     0.0226      0.007     -0.027     -0.040         41 1.7320e+02 0.0000e+00
     -0.042    26.8252     7.6421     95.576  32.260786     31.117      8.985   182.8764     8.8354     2.3404     0.0226      0.010     -0.039     -0.057         42 1.8358e+02 0.0000e+00
     -0.051    26.8151     7.6295     95.411  32.193346     31.063      9.006   175.2293     8.8596     2.2733     0.0225      0.011     -0.047     -0.068         43 1.8046e+02 0.0000e+00
     -0.051    26.8085     7.6328     95.442  32.042583     30.902      9.035   174.9264     8.8394     2.3002     0.0225      0.009     -0.048     -0.070         44 1.9224e+02 0.0000e+00
     -0.046    26.8090     7.6663     95.861  32.003623     30.881      9.065   174.9264     8.8556     2.2867     0.0225      0.002     -0.048     -0.069         45 1.9674e+02 0.0000e+00
     -0.049    26.8097     7.7030     96.327  32.034268     30.912      9.078   174.2450     9.1548     2.2867     0.0225     -0.009     -0.051     -0.073         46 1.9833e+02 0.0000e+00
     -0.060    26.8108     7.7263     96.619  32.034101     30.912      9.089   173.7150     9.1791     2.2867     0.0225     -0.019     -0.056     -0.081         47 2.0236e+02 0.0000e+00
     -0.060    26.8127     7.7117     96.436  31.974178     30.857      9.099   173.5636     9.1508     2.2464     0.0225     -0.019     -0.056     -0.082         48 1.9819e+02 0.0000e+00
     -0.054    26.8115     7.6733     95.955  31.990232     30.857      9.103   174.0936     9.1831     2.1927     0.0225     -0.012     -0.051     -0.074         49 1.9301e+02 0.0000e+00
     -0.042    26.8084     7.6136     95.207  32.014122     30.909      9.108   179.4693     9.1589     2.2196     0.0225     -0.003     -0.038     -0.055         50 1.8835e+02 0.0000e+00
     -0.019    26.8057     7.5350     94.241  32.033403     30.883      9.108   175.0021     9.3489     2.2733     0.0225      0.008     -0.021     -0.029         51 1.7932e+02 0.0000e+00
     -0.001    26.8014     7.4274     92.920  32.114500     31.020      9.098   184.2393     9.3772     2.2733     0.0225      0.020     -0.006     -0.008         52 1.6876e+02 0.0000e+00
      0.003    26.7962     7.3218     91.614  32.061462     30.913      9.087   176.7814     9.4015     2.2464     0.0225      0.029     -0.003     -0.004         53 1.7023e+02 0.0000e+00
     -0.010    26.7907     7.2426     90.636  32.069755     30.970      9.082   180.4157     9.3651     2.3136     0.0225      0.033     -0.013     -0.020         54 1.8012e+02 0.0000e+00
     -0.034    26.7908     7.1846     89.935  32.044875     30.919      9.095   173.4500     9.5632     2.2867     0.0225      0.027     -0.031     -0.045         55 1.9206e+02 0.0000e+00
     -0.048    26.7947     7.1587     89.638  32.033124     30.923      9.102   173.1471     9.5754     2.3404     0.0225      0.013     -0.045     -0.065         56 1.9165e+02 0.0000e+00
     -0.055    26.7950     7.1249     89.244  32.054730     30.950      9.108   172.9578     9.5713     2.3002     0.0225     -0.004     -0.051     -0.074         57 1.9297e+02 0.0000e+00
     -0.053    26.7951     7.0961     88.911  31.988334     30.866      9.113   173.4500     9.5673     2.3136     0.0225     -0.019     -0.051     -0.073         58 1.9571e+02 0.0000e+00
     -0.047    26.7942     7.0542     88.410  32.086098     30.974      9.111   173.4121     9.4783     2.1927     0.0225     -0.028     -0.046     -0.067         59 1.9413e+02 0.0000e+00
     -0.043    26.7940     7.0093     87.864  32.199936     31.082      9.109   173.7528     9.4945     2.2196     0.0225     -0.028     -0.042     -0.062         60 1.9695e+02 0.0000e+00
     -0.041    26.8035     6.9479     87.110  32.261799     31.136      9.109   173.8664     9.4985     2.1390     0.0226     -0.020     -0.041     -0.060         61 1.9270e+02 0.0000e+00
     -0.041    26.8180     6.8848     86.337  32.305637     31.190      9.106   183.0279     9.5066     2.0584     0.0226     -0.008     -0.042     -0.061         62 1.9195e+02 0.0000e+00
     -0.047    26.8273     6.8154     85.489  32.323298     31.185      9.098   184.2772     9.6077     2.3136     0.0226      0.001     -0.046     -0.067         63 1.9235e+02 0.0000e+00
     -0.052    26.8361     6.7388     84.551  32.269470     31.149      9.107   182.6493     9.6077     2.2733     0.0226      0.003     -0.050     -0.072         64 1.9223e+02 0.0000e+00
     -0.053    26.8508     6.6775     83.806  32.165050     31.009      9.110   182.2329     9.6279     2.2464     0.0225      0.001     -0.050     -0.072         65 1.9469e+02 0.0000e+00
     -0.047    26.8682     6.6223     83.136  32.127061     31.003      9.112   182.0057     9.6360     2.4076     0.0225     -0.001     -0.046     -0.067         66 1.9447e+02 0.0000e+00
     -0.042    26.8862     6.5709     82.512  32.168477     30.995      9.114   182.7250     9.5592     2.2062     0.0225     -0.002     -0.043     -0.062         67 1.9463e+02 0.0000e+00
     -0.043    26.9038     6.5206     81.903  32.291420     31.146      9.112   182.8007     9.5713     2.2330     0.0226     -0.001     -0.043     -0.062         68 1.9362e+02 0.0000e+00
     -0.047    26.9180     6.4791     81.403  32.329886     31.135      9.113   182.4221     9.5552     2.2867     0.0226     -0.001     -0.046     -0.065         69 1.9300e+02 0.0000e+00
     -0.049    26.9290     6.4369     80.896  32.328166     31.151      9.116   182.0436     9.5471     2.3539     0.0226      0.000     -0.047     -0.067         70 1.9319e+02 0.0000e+00
     -0.048    26.9394     6.3970     80.415  32.263901     31.062      9.121   181.4379     9.5996     2.2464     0.0226      0.002     -0.046     -0.067         71 1.9303e+02 0.0000e+00
     -0.046    26.9514     6.3655     80.038  32.202288     31.002      9.122   181.1350     9.5309     2.2867     0.0225      0.002     -0.045     -0.065         72 1.9351e+02 0.0000e+00
     -0.045    26.9649     6.3297     79.607  32.256573     31.049      9.124   181.8164     9.5552     2.1659     0.0226      0.001     -0.045     -0.064         73 1.9411e+02 0.0000e+00
     -0.045    26.9804     6.2981     79.227  32.314949     31.096      9.120   182.0814     9.5632     2.3673     0.0226     -0.001     -0.045     -0.065         74 1.9362e+02 0.0000e+00
     -0.047    26.9968     6.2717     78.913  32.307550     31.088      9.118   182.0814     9.5471     2.3941     0.0226     -0.001     -0.046     -0.066         75 1.9364e+02 0.0000e+00
     -0.047    27.0118     6.2487     78.642  32.295428     31.052      9.118   181.6650     9.5673     2.3673     0.0226     -0.000     -0.046     -0.067         76 1.9405e+02 0.0000e+00
     -0.048    27.0266     6.2315     78.443  32.300375     31.069      9.120   181.2486     9.5511     2.3136     0.0226      0.000     -0.046     -0.067         77 1.9423e+02 0.0000e+00
     -0.046    27.0415     6.2109     78.200  32.271733     31.006      9.116   181.2486     9.5592     2.1793     0.0226      0.000     -0.045     -0.066         78 1.9404e+02 0.0000e+00
     -0.046    27.0567     6.1988     78.064  32.301413     31.051      9.117   181.6271     9.5754     2.3404     0.0226     -0.000     -0.045     -0.066         79 1.9402e+02 0.0000e+00
     -0.046    27.0724     6.1886     77.950  32.322740     31.042      9.118   181.4000     9.6360     2.2599     0.0226     -0.000     -0.045     -0.066         80 1.9426e+02 0.0000e+00
     -0.047    27.0867     6.1831     77.896  32.393450     31.113      9.116   180.8700     9.6077     2.3002     0.0226     -0.001     -0.046     -0.066         81 1.9391e+02 0.0000e+00
     -0.047    27.1000     6.1703     77.751  32.391324     31.104      9.117   181.0214     9.6077     2.2464     0.0226     -0.000     -0.046     -0.066         82 1.9345e+02 0.0000e+00
     -0.047    27.1131     6.1584     77.617  32.325379     31.015      9.118   180.5293     9.5996     2.2733     0.0226      0.000     -0.046     -0.066         83 1.9394e+02 0.0000e+00
     -0.047    27.1258     6.1550     77.588  32.386554     31.088      9.119   180.3400     9.6360     2.2599     0.0226      0.000     -0.046     -0.066         84 1.9452e+02 0.0000e+00
     -0.047    27.1385     6.1438     77.461  32.404145     31.080      9.119   181.0214     9.6360     2.3404     0.0226     -0.000     -0.046     -0.066         85 1.9417e+02 0.0000e+00
     -0.047    27.1513     6.1336     77.346  32.392438     31.072      9.118   180.4914     9.6199     2.3673     0.0226     -0.000     -0.046     -0.066         86 1.9397e+02 0.0000e+00
     -0.046    27.1636     6.1305     77.321  32.401117     31.065      9.116   180.6050     9.6199     2.2733     0.0226     -0.000     -0.045     -0.066         87 1.9355e+02 0.0000e+00
     -0.046    27.1753     6.1303     77.332  32.393338     31.057      9.115   180.5293     9.4702     2.2464     0.0226      0.000     -0.045     -0.065         88 1.9320e+02 0.0000e+00
     -0.045    27.1870     6.1253     77.280  32.402113     31.050      9.115   180.3021     9.5026     2.3673     0.0226      0.001     -0.045     -0.065         89 1.9315e+02 0.0000e+00
     -0.046    27.1983     6.1175     77.190  32.449499     31.096      9.116   180.4536     9.5107     2.2330     0.0226      0.001     -0.046     -0.066         90 1.9300e+02 0.0000e+00
     -0.048    27.2090     6.0933     76.887  32.452974     31.089      9.114   180.1129     9.4702     2.2196     0.0226      0.000     -0.047     -0.068         91 1.9379e+02 0.0000e+00
     -0.049    27.2201     6.0703     76.584  32.397781     31.029      9.113   180.0371     9.5026     2.2464     0.0226     -0.001     -0.048     -0.070         92 1.9516e+02 0.0000e+00
     -0.049    27.2312     6.0597     76.422  32.399567     31.023      9.117   179.6964     9.1508     2.3136     0.0226     -0.001     -0.048     -0.070         93 1.9747e+02 0.0000e+00
     -0.050    27.2417     6.0520     76.299  32.450747     31.070      9.115   179.7721     9.1751     2.3136     0.0226     -0.002     -0.048     -0.070         94 1.9955e+02 0.0000e+00
     -0.049    27.2518     6.0509     76.273  32.452697     31.063      9.116   179.8857     9.1993     2.2867     0.0226     -0.002     -0.047     -0.068         95 1.9817e+02 0.0000e+00
     -0.044    27.2617     6.1005     76.889  32.397137     31.003      9.117   180.0371     9.1710     2.2733     0.0226     -0.001     -0.043     -0.063         96 1.9777e+02 0.0000e+00
     -0.038    27.2721     6.1957     78.072  32.401274     30.997      9.117   175.2293     9.0982     2.2196     0.0226      0.002     -0.039     -0.057         97 1.9607e+02 0.0000e+00
     -0.036    27.2821     6.3104     79.500  32.447544     31.045      9.118   180.2264     9.0861     2.3539     0.0226      0.005     -0.036     -0.053         98 1.9193e+02 0.0000e+00
     -0.037    27.2899     6.4177     80.839  32.398857     30.985      9.123   180.1507     9.1063     2.2733     0.0226      0.007     -0.036     -0.052         99 1.9262e+02 0.0000e+00
     -0.037    27.2955     6.4948     81.799  32.283943     30.872      9.123   180.3779     9.0820     2.3404     0.0226      0.008     -0.037     -0.054        100 1.9206e+02 0.0000e+00
     -0.040    27.2975     6.5202     82.105  32.205063     30.788      9.128   180.5671     9.2964     2.2330     0.0226      0.007     -0.040     -0.058        101 1.9269e+02 0.0000e+00
     -0.046    27.2886     6.5066     81.915  32.141186     30.731      9.129   179.5829     9.2964     2.3673     0.0225      0.004     -0.044     -0.063        102 1.9580e+02 0.0000e+00
     -0.047    27.2683     6.4544     81.244  32.037256     30.623      9.129   179.7343     9.2964     2.2599     0.0225     -0.000     -0.044     -0.063        103 1.9676e+02 0.0000e+00
     -0.040    27.2491     6.3741     80.228  31.978573     30.574      9.131   179.5071     9.3166     2.2464     0.0225     -0.002     -0.040     -0.057        104 1.9780e+02 0.0000e+00
     -0.033    27.2398     6.2814     79.060  31.977000     30.586      9.132   180.3400     9.3489     2.0853     0.0225     -0.001     -0.035     -0.050        105 1.9631e+02 0.0000e+00
     -0.033    27.2325     6.2038     78.078  31.950264     30.571      9.128   179.9236     9.3570     2.1524     0.0225      0.001     -0.032     -0.046        106 1.9453e+02 0.0000e+00
     -0.031    27.2208     6.1371     77.222  31.982202     30.603      9.129   174.5857     9.3611     2.1793     0.0225      0.004     -0.030     -0.043        107 1.8997e+02 0.0000e+00
     -0.027    27.2090     6.0946     76.672  32.026217     30.661      9.130   174.1314     9.3732     2.1390     0.0225      0.007     -0.028     -0.040        108 1.9000e+02 0.0000e+00
     -0.026    27.2000     6.0553     76.172  31.984449     30.614      9.130   176.0621     9.5026     2.3404     0.0225      0.010     -0.028     -0.041        109 1.9884e+02 0.0000e+00
     -0.032    27.1921     6.0151     75.671  31.974881     30.621      9.128   173.7907     9.4783     2.2867     0.0225      0.010     -0.032     -0.047        110 2.0201e+02 0.0000e+00
     -0.039    27.1826     5.9876     75.333  31.978824     30.627      9.125   173.9800     9.5228     2.3270     0.0225      0.005     -0.037     -0.055        111 2.0375e+02 0.0000e+00
     -0.044    27.1705     5.9539     74.915  31.949895     30.604      9.127   173.6771     9.5026     2.2867     0.0225     -0.002     -0.042     -0.061        112 2.0612e+02 0.0000e+00
     -0.044    27.1608     5.9184     74.473  31.921931     30.583      9.127   173.5636     9.4783     2.3539     0.0224     -0.007     -0.042     -0.062        113 2.0718e+02 0.0000e+00
     -0.041    27.1569     5.8765     73.949  31.924671     30.590      9.127   173.5257     9.4864     2.0719     0.0224     -0.008     -0.040     -0.058        114 2.0796e+02 0.0000e+00
     -0.038    27.1564     5.8409     73.508  31.976140     30.650      9.127   176.9328     9.4743     2.1524     0.0225     -0.008     -0.039     -0.056        115 2.0716e+02 0.0000e+00
     -0.039    27.1524     5.8128     73.160  32.035795     30.705      9.127   174.8507     9.4945     2.1659     0.0225     -0.007     -0.039     -0.056        116 2.0678e+02 0.0000e+00
     -0.042    27.1406     5.7817     72.768  32.028348     30.706      9.127   173.7907     9.5066     2.1659     0.0225     -0.005     -0.040     -0.058        117 2.0652e+02 0.0000e+00
     -0.042    27.1288     5.7575     72.454  31.955757     30.628      9.127   177.3493     9.4460     2.3539     0.0225     -0.002     -0.040     -0.058        118 2.0539e+02 0.0000e+00
     -0.039    27.1248     5.7653     72.536  31.918570     30.608      9.127   181.0214     9.4258     2.3404     0.0224      0.001     -0.040     -0.058        119 2.0539e+02 0.0000e+00
     -0.042    27.1280     5.8197     73.196  31.926371     30.615      9.126   179.9236     9.4298     2.2599     0.0224      0.001     -0.042     -0.061        120 2.0530e+02 0.0000e+00
     -0.047    27.1339     5.9038     74.226  31.975706     30.671      9.123   180.9457     9.4460     2.2733     0.0225     -0.001     -0.045     -0.066        121 2.0724e+02 0.0000e+00
     -0.050    27.1390     5.9938     75.323  31.916480     30.615      9.122   180.8700     9.3489     2.3136     0.0224     -0.004     -0.047     -0.067        122 2.0600e+02 0.0000e+00
     -0.045    27.1429     6.0905     76.505  31.851814     30.531      9.125   180.6807     9.3611     2.2599     0.0224     -0.005     -0.043     -0.062        123 2.0938e+02 0.0000e+00
     -0.036    27.1456     6.1924     77.766  31.907917     30.609      9.127   180.4914     9.3611     2.2330     0.0224     -0.002     -0.032     -0.047        124 2.0397e+02 0.0000e+00
     -0.016    27.1498     6.3405     79.612  31.846660     30.526      9.123   175.3807     9.3894     2.3673     0.0224      0.007     -0.015     -0.023        125 1.8013e+02 0.0000e+00
      0.003    27.1547     6.5437     82.161  31.839092     30.525      9.115   175.1157     9.5026     2.2599     0.0224      0.017     -0.000      0.000        126 1.7319e+02 0.0000e+00
      0.011    27.1544     6.7992     85.360  31.917332     30.602      9.105   174.4721     9.5228     2.3136     0.0224      0.027      0.009      0.014        127 1.6938e+02 0.0000e+00
      0.015    27.1470     7.0766     88.816  31.838244     30.519      9.093   180.9457     9.4945     2.3404     0.0224      0.035      0.013      0.019        128 1.6180e+02 0.0000e+00
      0.015    27.1338     7.3240     91.895  31.729951     30.412      9.078   180.9079     9.4864     2.2464     0.0224      0.039      0.013      0.019        129 1.6636e+02 0.0000e+00
      0.010    27.1157     7.5107     94.219  31.755582     30.443      9.076   180.3779     9.6724     2.2733     0.0224      0.036      0.010      0.014        130 1.7341e+02 0.0000e+00
      0.004    27.0947     7.6150     95.518  31.717393     30.424      9.093   180.2643     9.6805     2.3539     0.0224      0.027      0.006      0.009        131 1.7366e+02 0.0000e+00
      0.003    27.0692     7.6299     95.701  31.629223     30.328      9.104   175.1536     9.6967     2.3136     0.0223      0.015      0.007      0.010        132 1.7049e+02 0.0000e+00
      0.014    27.0456     7.5827     95.113  31.657754     30.393      9.114   173.9800     9.6562     2.2867     0.0223      0.006      0.017      0.025        133 1.6730e+02 0.0000e+00
      0.038    27.0312     7.4866     93.927  31.622593     30.355      9.114   172.5793     9.6643     2.1524     0.0223      0.007      0.034      0.050        134 1.6805e+02 0.0000e+00
      0.053    27.0223     7.3584     92.347  31.672991     30.422      9.103   179.2800     9.5511     2.3404     0.0223      0.015      0.045      0.066        135 1.6601e+02 0.0000e+00
      0.047    27.0200     7.2415     90.917  31.980520     30.726      9.106   174.8128     9.5552     2.2867     0.0225      0.020      0.043      0.062        136 1.5578e+02 0.0000e+00
      0.030    27.0142     7.1305     89.620  31.981186     30.758      9.119   177.8793     9.5875     2.3404     0.0225      0.020      0.034      0.049        137 1.5588e+02 0.0000e+00
      0.028    26.9977     7.0388     88.582  31.642515     30.383      9.130   176.8193     9.5552     2.2733     0.0223      0.018      0.033      0.047        138 1.5595e+02 0.0000e+00
      0.042    26.9815     6.9594     87.666  31.542085     30.333      9.133   174.8507     9.8989     2.2733     0.0223      0.018      0.042      0.060        139 1.5019e+02 0.0000e+00
      0.056    26.9709     6.9009     86.982  31.572437     30.343      9.133   177.0843     9.8746     2.2733     0.0223      0.017      0.053      0.075        140 1.5104e+02 0.0000e+00
      0.063    26.9652     6.8641     86.550  31.604748     30.406      9.120   178.2200     9.9110     2.2599     0.0223      0.014      0.058      0.085        141 1.5127e+02 0.0000e+00
      0.062    26.9630     6.8624     86.555  31.739095     30.520      9.116   174.9264     9.8786     2.2464     0.0224      0.010      0.058      0.085        142 1.5672e+02 0.0000e+00
      0.056    26.9652     6.8665     86.635  31.909332     30.711      9.118   176.2136     9.0416     2.1927     0.0224      0.010      0.054      0.079        143 1.6090e+02 0.0000e+00
      0.049    26.9772     6.8700     86.711  31.985934     30.766      9.118   174.0178     9.0578     2.3270     0.0225      0.011      0.049      0.072        144 1.6236e+02 0.0000e+00
      0.047    26.9933     6.8663     86.687  32.029243     30.819      9.124   179.2421     9.0537     2.4210     0.0225      0.011      0.046      0.068        145 1.6018e+02 0.0000e+00
      0.047    27.0179     6.8712     86.766  32.092652     30.866      9.128   179.3557     9.0618     2.2062     0.0225      0.005      0.045      0.065        146 1.6304e+02 0.0000e+00
      0.043    27.0765     6.8746     86.823  32.084932     30.855      9.132   179.2421     9.1306     2.2867     0.0225     -0.004      0.040      0.059        147 1.7574e+02 0.0000e+00
      0.034    27.1490     6.8741     86.831  32.098147     30.842      9.139   179.6207     9.1306     2.2464     0.0225     -0.012      0.034      0.049        148 1.7248e+02 0.0000e+00
      0.028    27.2021     6.8510     86.556  32.105846     30.833      9.139   179.9614     9.1306     2.3807     0.0225     -0.016      0.029      0.042        149 1.7512e+02 0.0000e+00
      0.026    27.2359     6.8106     86.060  32.045674     30.710      9.142   180.1129     9.1144     2.2599     0.0225     -0.017      0.027      0.039        150 1.7469e+02 0.0000e+00
      0.028    27.2570     6.7548     85.367  31.965433     30.625      9.137   175.1536     9.0457     2.2464     0.0225     -0.015      0.028      0.041        151 1.7225e+02 0.0000e+00
      0.031    27.2742     6.6991     84.671  31.849854     30.472      9.133   176.6300     9.0537     2.1390     0.0224     -0.012      0.029      0.043        152 1.8266e+02 0.0000e+00
      0.030    27.2927     6.6453     83.996  31.833670     30.459      9.133   175.0778     9.0578     2.2464     0.0224     -0.010      0.026      0.038        153 1.8194e+02 0.0000e+00
      0.018    27.3122     6.5914     83.313  31.926260     30.530      9.125   180.5671     9.0457     2.2599     0.0224     -0.010      0.018      0.026        154 1.8997e+02 0.0000e+00
      0.006    27.3276     6.5422     82.685  31.942184     30.546      9.128   180.0371     9.0537     2.2062     0.0225     -0.012      0.009      0.014        155 1.9158e+02 0.0000e+00
      0.005    27.3381     6.4871     81.983  31.843498     30.427      9.133   180.3779     9.1670     2.2330     0.0224     -0.013      0.009      0.013        156 1.8383e+02 0.0000e+00
      0.017    27.3473     6.4442     81.435  31.722892     30.311      9.132   180.1129     9.1751     2.2867     0.0224     -0.011      0.017      0.024        157 1.7920e+02 0.0000e+00
      0.027    27.3574     6.4142     81.041  31.736445     30.305      9.131   180.3021     9.1751     2.2330     0.0224     -0.007      0.024      0.035        158 1.7691e+02 0.0000e+00
      0.029    27.3678     6.4160     81.040  31.767324     30.353      9.128   176.2136     9.1751     2.3002     0.0224     -0.003      0.026      0.038        159 1.8604e+02 0.0000e+00
      0.024    27.3771     6.4336     81.235  31.743764     30.294      9.125   175.6078     9.4298     2.1927     0.0224     -0.000      0.023      0.033        160 1.8114e+02 0.0000e+00
      0.018    27.3849     6.4418     81.317  31.795410     30.368      9.121   180.6050     9.4298     2.2464     0.0224      0.002      0.019      0.028        161 1.7580e+02 0.0000e+00
      0.018    27.3908     6.4459     81.355  31.732698     30.283      9.127   180.1886     9.4217     2.1927     0.0224      0.006      0.019      0.027        162 1.7611e+02 0.0000e+00
      0.020    27.3936     6.4446     81.327  31.614244     30.172      9.129   180.8321     9.4581     2.3404     0.0223      0.006      0.020      0.028        163 1.7900e+02 0.0000e+00
      0.020    27.3922     6.4399     81.250  31.616652     30.168      9.130   182.4600     9.2195     2.0450     0.0223      0.003      0.020      0.029        164 1.8601e+02 0.0000e+00
      0.020    27.3884     6.4272     81.068  31.611090     30.167      9.130   182.5736     9.2276     2.1256     0.0223     -0.002      0.018      0.026        165 1.8675e+02 0.0000e+00
      0.014    27.3852     6.3958     80.653  31.621164     30.167      9.129   177.9550     9.2155     2.1927     0.0223     -0.005      0.013      0.018        166 1.9381e+02 0.0000e+00
      0.005    27.3804     6.3620     80.209  31.633767     30.196      9.130   176.2136     9.2276     2.1122     0.0223     -0.008      0.009      0.012        167 1.9629e+02 0.0000e+00
      0.008    27.3702     6.3191     79.653  31.565755     30.118      9.134   175.8728     9.5390     2.2464     0.0223     -0.007      0.012      0.017        168 1.9148e+02 0.0000e+00
      0.023    27.3536     6.2902     79.277  31.498246     30.068      9.132   177.7657     9.4985     2.2196     0.0223     -0.003      0.022      0.033        169 1.8126e+02 0.0000e+00
      0.037    27.3350     6.2541     78.812  31.510224     30.073      9.130   181.5893     9.4905     2.2464     0.0223      0.003      0.034      0.050        170 1.7237e+02 0.0000e+00
      0.045    27.3207     6.2670     78.905  31.550853     30.136      9.125   181.2864     9.4985     2.3673     0.0223      0.010      0.042      0.061        171 1.6890e+02 0.0000e+00
      0.045    27.3113     6.5378     82.036  31.506992     30.094      9.122   181.1350     9.6967     2.3807     0.0223      0.016      0.043      0.062        172 1.7227e+02 0.0000e+00
      0.040    27.3024     7.1798     89.789  31.535162     30.129      9.115   181.2486     9.6886     2.3404     0.0223      0.018      0.041      0.059        173 1.7490e+02 0.0000e+00
      0.040    27.2904     8.0298    100.182  31.545454     30.161      9.110   176.2893     9.7250     2.2464     0.0223      0.020      0.041      0.059        174 1.7301e+02 0.0000e+00
      0.047    27.2752     8.8148    109.814  31.464539     30.059      9.113   175.4943     9.6603     2.2464     0.0223      0.020      0.045      0.064        175 1.7854e+02 0.0000e+00
      0.049    27.2622     9.5032    118.285  31.487606     30.119      9.110   181.1350     9.6684     2.2733     0.0223      0.015      0.047      0.067        176 1.7059e+02 0.0000e+00
      0.047    27.2495    10.0434    124.940  31.457448     30.075      9.112   180.9457     9.7371     2.2464     0.0223      0.009      0.046      0.067        177 1.7095e+02 0.0000e+00
      0.047    27.2400    10.4052    129.392  31.442773     30.082      9.116   175.7971     9.7614     2.2464     0.0223      0.004      0.046      0.066        178 1.7623e+02 0.0000e+00
      0.046    27.2294    10.5760    131.486  31.446572     30.089      9.122   175.5700     9.7695     2.1927     0.0223      0.002      0.044      0.064        179 1.6913e+02 0.0000e+00
      0.041    27.2261    10.5675    131.362  31.541681     30.176      9.127   175.1914     9.7371     2.2330     0.0223      0.001      0.041      0.060        180 1.6510e+02 0.0000e+00
      0.040    27.1687    10.4203    129.519  31.472675     30.154      9.130   175.1157     9.8139     2.2867     0.0223      0.000      0.041      0.059        181 1.6788e+02 0.0000e+00
      0.044    26.9884    10.2420    127.295  31.295241     29.917      9.136   175.0778     9.8382     2.2733     0.0222     -0.001      0.043      0.064        182 1.6980e+02 0.0000e+00
      0.049    26.7974    10.0989    125.509  31.465987     30.186      9.137   175.2671     9.8139     2.1927     0.0223     -0.002      0.047      0.069        183 1.6651e+02 0.0000e+00
      0.051    26.6681     9.9817    124.048  31.586381     30.350      9.142   175.1914     9.8503     2.2196     0.0223      0.000      0.050      0.072        184 1.7245e+02 0.0000e+00
      0.052    26.5844     9.8951    122.971  31.590252     30.514      9.147   175.0778     9.7412     2.2464     0.0223      0.003      0.051      0.074        185 1.7183e+02 0.0000e+00
      0.053    26.5363     9.8439    122.331  31.550200     30.510      9.145   175.0400     9.7654     2.3270     0.0223      0.005      0.052      0.077        186 1.7189e+02 0.0000e+00
      0.056    26.5049     9.8193    122.022  31.547328     30.586      9.146   174.6993     9.7573     2.3673     0.0223      0.007      0.055      0.080        187 1.7380e+02 0.0000e+00
      0.058    26.4845     9.7879    121.631  31.564214     30.615      9.149   180.9079     9.7493     2.2196     0.0223      0.009      0.057      0.082        188 1.6810e+02 0.0000e+00
      0.058    26.4713     9.7714    121.425  31.558861     30.633      9.149   175.7214     9.6077     2.2733     0.0223      0.009      0.057      0.082        189 1.7242e+02 0.0000e+00
      0.057    26.4637     9.7553    121.223  31.613306     30.700      9.149   181.8921     9.6441     2.3136     0.0223      0.006      0.056      0.081        190 1.6736e+02 0.0000e+00
      0.057    26.4584     9.7322    120.936  31.615073     30.707      9.148   181.5893     9.6360     2.3673     0.0223      0.004      0.056      0.081        191 1.6854e+02 0.0000e+00
      0.057    26.4546     9.7186    120.765  31.586321     30.685      9.150   181.0971     9.6441     2.3539     0.0223      0.003      0.056      0.081        192 1.7468e+02 0.0000e+00
      0.058    26.4513     9.7021    120.562  31.560136     30.661      9.151   177.8414     9.7452     2.2464     0.0223      0.002      0.057      0.082        193 1.6740e+02 0.0000e+00
      0.058    26.4495     9.6784    120.269  31.558705     30.663      9.149   181.2486     9.7614     2.2196     0.0223      0.001      0.057      0.083        194 1.7233e+02 0.0000e+00
      0.058    26.4491     9.6656    120.112  31.617756     30.719      9.149   181.2486     9.7654     2.3136     0.0223      0.000      0.057      0.083        195 1.7239e+02 0.0000e+00
      0.058    26.4476     9.6709    120.178  31.605258     30.720      9.150   176.6678     9.7816     2.3002     0.0223      0.000      0.057      0.083        196 1.7039e+02 0.0000e+00
      0.059    26.4458     9.6782    120.269  31.514955     30.612      9.147   176.3271     9.7614     2.3270     0.0223      0.001      0.058      0.084        197 1.7023e+02 0.0000e+00
      0.061    26.4453     9.6817    120.313  31.581877     30.694      9.145   176.1378     9.5632     2.1659     0.0223      0.002      0.059      0.085        198 1.7254e+02 0.0000e+00
      0.060    26.4448     9.6856    120.358  31.670233     30.777      9.145   181.4757     9.5471     2.2867     0.0223      0.002      0.059      0.085        199 1.6907e+02 0.0000e+00
      0.060    26.4443     9.6870    120.373  31.612560     30.723      9.145   181.2486     9.5632     2.3807     0.0223      0.002      0.059      0.085        200 1.6746e+02 0.0000e+00
      0.060    26.4439     9.6833    120.328  31.564697     30.669      9.145   181.1729     9.5592     2.1927     0.0223      0.002      0.060      0.086        201 1.7007e+02 0.0000e+00
      0.062    26.4436     9.6777    120.262  31.551889     30.669      9.146   181.3243     9.3449     2.2599     0.0223      0.002      0.061      0.088        202 1.6406e+02 0.0000e+00
      0.063    26.4440     9.6748    120.227  31.569197     30.669      9.147   181.3243     9.3813     2.3941     0.0223      0.002      0.061      0.089        203 1.7251e+02 0.0000e+00
      0.062    26.4449     9.6721    120.196  31.632113     30.751      9.144   181.4379     9.3570     2.2733     0.0223      0.002      0.060      0.088        204 1.7193e+02 0.0000e+00
      0.060    26.4457     9.6614    120.065  31.621849     30.724      9.145   181.3243     9.3691     2.2464     0.0223      0.001      0.059      0.086        205 1.7171e+02 0.0000e+00
      0.059    26.4460     9.6431    119.840  31.611620     30.723      9.145   181.5893     9.6886     2.2330     0.0223     -0.000      0.059      0.085        206 1.7549e+02 0.0000e+00
      0.060    26.4463     9.6347    119.735  31.615189     30.723      9.140   181.5136     9.6765     2.2464     0.0223     -0.000      0.059      0.086        207 1.6662e+02 0.0000e+00
      0.061    26.4460     9.6355    119.739  31.617407     30.722      9.143   181.3243     9.6765     2.2464     0.0223     -0.000      0.060      0.087        208 1.7010e+02 0.0000e+00
      0.062    26.4447     9.6446    119.847  31.608862     30.722      9.141   181.8164     9.6926     2.2330     0.0223     -0.000      0.060      0.087        209 1.7363e+02 0.0000e+00
      0.061    26.4440     9.6500    119.912  31.596172     30.695      9.141   181.4757     9.8827     2.3673     0.0223     -0.001      0.060      0.087        210 1.6638e+02 0.0000e+00
      0.061    26.4443     9.6568    120.001  31.662850     30.778      9.143   182.8007     9.8706     2.1927     0.0223     -0.000      0.059      0.086        211 1.6948e+02 0.0000e+00
      0.059    26.4456     9.6597    120.044  31.614839     30.724      9.144   181.2864     9.8786     2.3002     0.0223     -0.000      0.059      0.086        212 1.7530e+02 0.0000e+00
      0.061    26.4464     9.6765    120.258  31.566967     30.669      9.144   181.3621     9.8867     2.2330     0.0223      0.000      0.060      0.086        213 1.7245e+02 0.0000e+00
      0.062    26.4470     9.6943    120.486  31.603818     30.723      9.143   181.5514     9.8948     2.2196     0.0223      0.001      0.061      0.087        214 1.6772e+02 0.0000e+00
      0.062    26.4482     9.6988    120.548  31.628281     30.722      9.144   182.0814     9.8584     2.0853     0.0223      0.000      0.061      0.087        215 1.7764e+02 0.0000e+00
      0.061    26.4493     9.7037    120.616  31.625479     30.749      9.144   181.6271     9.8827     2.1256     0.0223     -0.000      0.060      0.086        216 1.7568e+02 0.0000e+00
      0.060    26.4492     9.7055    120.644  31.577655     30.667      9.141   181.8164     9.8625     2.0719     0.0223     -0.000      0.059      0.085        217 1.6562e+02 0.0000e+00
      0.060    26.4468     9.7036    120.630  31.598842     30.720      9.141   181.6650     9.9070     2.1122     0.0223     -0.000      0.059      0.085        218 1.7133e+02 0.0000e+00
      0.060    26.4438     9.7026    120.629  31.628761     30.721      9.144   181.3243     9.8261     2.3404     0.0223     -0.000      0.059      0.086        219 1.7317e+02 0.0000e+00
      0.061    26.4431     9.6934    120.512  31.599722     30.722      9.142   181.7786     9.8261     2.3002     0.0223     -0.000      0.059      0.086        220 1.7214e+02 0.0000e+00
      0.060    26.4453     9.6778    120.307  31.575678     30.669      9.144   181.3243     9.8220     2.2599     0.0223     -0.001      0.059      0.086        221 1.6945e+02 0.0000e+00
      0.061    26.4483     9.6628    120.119  31.599383     30.724      9.146   181.4757     9.8180     2.3136     0.0223     -0.000      0.059      0.086        222 1.7445e+02 0.0000e+00
      0.060    26.4510     9.6688    120.201  31.599875     30.696      9.144   181.7407     9.9514     2.2464     0.0223     -0.000      0.059      0.086        223 1.7325e+02 0.0000e+00
      0.061    26.4539     9.6726    120.251  31.604717     30.721      9.143   182.0057     9.9757     2.2599     0.0223      0.000      0.059      0.086        224 1.7146e+02 0.0000e+00
      0.060    26.4568     9.6736    120.250  31.623008     30.720      9.143   181.7407     9.9474     2.1927     0.0223      0.000      0.059      0.086        225 1.7284e+02 0.0000e+00
      0.061    26.4599     9.6709    120.206  31.606763     30.718      9.141   181.6271     9.9676     2.2733     0.0223      0.000      0.060      0.087        226 1.7086e+02 0.0000e+00
      0.062    26.4627     9.6824    120.342  31.624931     30.716      9.140   181.9679     9.8261     2.2330     0.0223      0.001      0.061      0.088        227 1.7087e+02 0.0000e+00
      0.063    26.4671     9.7046    120.617  31.659700     30.768      9.138   181.8921     9.8220     2.3673     0.0223      0.001      0.062      0.090        228 1.6964e+02 0.0000e+00
      0.065    26.4720     9.7309    120.948  31.652447     30.740      9.140   182.2707     9.8139     2.2733     0.0223      0.002      0.060      0.086        229 1.6576e+02 0.0000e+00
      0.054    26.4709     9.7468    121.137  31.604303     30.710      9.138   178.9771     9.8099     2.1659     0.0223     -0.001      0.049      0.071        230 1.8014e+02 0.0000e+00
      0.030    26.4660     9.7677    121.397  31.571354     30.652      9.139   177.9928     9.9474     2.1390     0.0223     -0.009      0.032      0.047        231 1.9209e+02 0.0000e+00
      0.016    26.4653     9.7813    121.584  31.604496     30.708      9.135   178.4471     9.9717     2.1659     0.0223     -0.018      0.016      0.023        232 1.9298e+02 0.0000e+00
      0.000    26.4690     9.7676    121.445  31.622364     30.711      9.130   178.4471     9.9433     2.1256     0.0223     -0.029      0.002      0.003        233 1.8798e+02 0.0000e+00
     -0.012    26.4699     9.7469    121.215  31.667725     30.765      9.129   178.4093     9.9312     2.1122     0.0223     -0.040     -0.008     -0.011        234 1.6792e+02 0.0000e+00
     -0.010    26.4642     9.7043    120.709  31.636998     30.736      9.121   178.7121     9.1063     2.0719     0.0223     -0.045     -0.010     -0.016        235 1.5507e+02 0.0000e+00
     -0.011    26.4585     9.6615    120.191  31.571646     30.654      9.115   178.2578     9.1225     2.1793     0.0223     -0.045     -0.014     -0.021        236 1.9657e+02 0.0000e+00
     -0.023    26.4555     9.6298    119.804  31.600795     30.712      9.116   178.5607     9.0982     2.1256     0.0223     -0.043     -0.026     -0.038        237 1.7673e+02 0.0000e+00
     -0.046    26.4557     9.6134    119.598  31.571074     30.661      9.113   178.1821     9.1144     2.1122     0.0223     -0.041     -0.046     -0.066        238 2.4586e+02 0.0000e+00
     -0.071    26.4568     9.6078    119.518  31.549334     30.662      9.112   178.1064     9.0982     2.1927     0.0223     -0.042     -0.066     -0.096        239 1.6664e+02 0.0000e+00
     -0.085    26.4537     9.6061    119.492  31.568547     30.663      9.111   178.4471     8.4391     2.2733     0.0223     -0.046     -0.083     -0.120        240 3.4095e+02 0.0000e+00
     -0.097    26.4533     9.6032    119.458  31.576814     30.689      9.112   178.4471     8.4310     2.3539     0.0223     -0.050     -0.099     -0.142        241 1.1530e+03 0.0000e+00
     -0.118    26.4618     9.6069    119.512  31.509394     30.609      9.109   178.1821     8.4391     2.3136     0.0223     -0.057     -0.126     -0.182        242 1.5168e+03 0.0000e+00
     -0.169    26.4754     9.6097    119.548  31.504192     30.610      9.109   178.1821     8.4553     2.3404     0.0223     -0.075     -0.171     -0.248        243 1.3807e+03 0.0000e+00
     -0.236    26.4881     9.6082    119.516  31.553635     30.659      9.108   185.5264     7.4363     2.0719     0.0223     -0.099     -0.228     -0.330        244 5.6834e+02 0.0000e+00
     -0.293    26.4987     9.6015    119.416  31.507162     30.596      9.111   179.1664     7.4363     2.0987     0.0223     -0.123     -0.273     -0.396        245 6.5229e+02 0.0000e+00
     -0.306    26.5060     9.6068    119.467  31.502717     30.589      9.115   178.5986     7.4242     2.0853     0.0223     -0.136     -0.292     -0.423        246 1.3323e+03 0.0000e+00
     -0.295    26.5092     9.6211    119.620  31.529510     30.610      9.112   178.5986     7.4322     2.1256     0.0223     -0.135     -0.292     -0.423        247 1.0655e+03 0.0000e+00
     -0.294    26.5079     9.6420    119.844  31.503467     30.578      9.110   178.1821     7.6749     2.2464     0.0223     -0.126     -0.289     -0.419        248 1.3708e+03 0.0000e+00
     -0.294    26.5035     9.6508    119.920  31.505473     30.576      9.114   178.8257     7.6668     2.2062     0.0223     -0.107     -0.288     -0.419        249 1.5968e+03 0.0000e+00
     -0.295    26.5011     9.6690    120.128  31.497362     30.577      9.112   177.8414     7.6587     2.2196     0.0223     -0.078     -0.291     -0.423        250 1.4722e+03 0.0000e+00
     -0.301    26.5024     9.6890    120.354  31.513561     30.580      9.113   179.7343     7.6749     2.2464     0.0223     -0.045     -0.301     -0.435        251 1.1016e+03 0.0000e+00
     -0.327    26.5059     9.7019    120.493  31.544617     30.635      9.117   178.2578     7.8730     2.2867     0.0223     -0.024     -0.311     -0.450        252 9.1963e+02 0.0000e+00
     -0.320    26.5062     9.7149    120.644  31.488366     30.553      9.112   184.8450     7.8770     2.2733     0.0223     -0.012     -0.305     -0.441        253 1.4026e+03 0.0000e+00
     -0.285    26.5005     9.7301    120.824  31.494609     30.578      9.111   186.6243     7.8407     2.2062     0.0223     -0.004     -0.280     -0.406        254 1.3513e+03 0.0000e+00
     -0.255    26.4931     9.7415    120.956  31.507195     30.578      9.108   179.8479     7.8892     2.3136     0.0223      0.007     -0.252     -0.365        255 6.0245e+02 0.0000e+00
     -0.229    26.4855     9.7374    120.890  31.502355     30.581      9.105   179.2800     7.9013     2.2464     0.0223      0.025     -0.228     -0.331        256 5.7815e+02 0.0000e+00
     -0.214    26.4740     9.7324    120.816  31.500635     30.586      9.103   179.0529     7.8730     2.1927     0.0223      0.043     -0.211     -0.306        257 1.3643e+03 0.0000e+00
     -0.202    26.4573     9.7268    120.737  31.450035     30.536      9.108   178.9014     7.8609     2.1793     0.0222      0.059     -0.198     -0.287        258 1.4809e+03 0.0000e+00
     -0.190    26.4426     9.7293    120.758  31.446722     30.543      9.111   178.8257     7.8932     2.3136     0.0222      0.071     -0.187     -0.271        259 1.3748e+03 0.0000e+00
     -0.181    26.4336     9.7372    120.845  31.475112     30.580      9.113   178.3336     7.8568     2.1927     0.0223      0.077     -0.178     -0.259        260 1.4365e+03 0.0000e+00
     -0.174    26.4235     9.7383    120.853  31.503666     30.616      9.116   178.2578     7.8568     2.2599     0.0223      0.069     -0.171     -0.249        261 1.3845e+03 0.0000e+00
     -0.168    26.4138     9.7486    120.975  31.500148     30.621      9.116   178.6743     7.8609     2.2599     0.0223      0.054     -0.165     -0.240        262 1.4406e+03 0.0000e+00
     -0.163    26.4087     9.7483    120.964  31.509147     30.627      9.117   178.6364     7.8811     2.3002     0.0223      0.042     -0.158     -0.229        263 1.3579e+03 0.0000e+00
     -0.152    26.4050     9.7254    120.670  31.492471     30.633      9.122   178.3336     7.8851     2.2867     0.0223      0.035     -0.146     -0.212        264 1.4388e+03 0.0000e+00
     -0.134    26.4002     9.6899    120.221  31.461601     30.582      9.121   178.7500     8.3138     2.3136     0.0222      0.035     -0.128     -0.187        265 1.2302e+03 0.0000e+00
     -0.107    26.3938     9.6484    119.700  31.458613     30.611      9.117   178.5607     8.3259     2.3404     0.0223      0.040     -0.105     -0.153        266 3.5616e+02 0.0000e+00
     -0.081    26.3882     9.6403    119.592  31.466540     30.587      9.116   178.9771     8.3097     2.3270     0.0222      0.049     -0.081     -0.118        267 1.6231e+02 0.0000e+00
     -0.061    26.3841     9.6546    119.758  31.481389     30.645      9.113   179.3179     8.3057     2.1793     0.0223      0.060     -0.060     -0.086        268 2.4676e+02 0.0000e+00
     -0.040    26.3792     9.6792    120.055  31.469788     30.594      9.111   179.3936     9.1144     2.2733     0.0222      0.070     -0.039     -0.056        269 1.5507e+02 0.0000e+00
     -0.018    26.3747     9.6962    120.266  31.480981     30.651      9.112   179.4314     9.1225     2.2867     0.0223      0.079     -0.020     -0.029        270 1.4024e+02 0.0000e+00
     -0.006    26.3714     9.7040    120.363  31.467463     30.599      9.111   179.2421     9.0982     2.2599     0.0222      0.083     -0.006     -0.008        271 1.2055e+02 0.0000e+00
      0.007    26.3687     9.7093    120.430  31.456962     30.629      9.112   186.1322     9.1063     2.1927     0.0223      0.081      0.008      0.013        272 1.5000e+02 0.0000e+00
      0.026    26.3655     9.7118    120.460  31.464399     30.604      9.115   180.6807     9.7452     2.2330     0.0222      0.077      0.027      0.040        273 1.3445e+02 0.0000e+00
      0.051    26.3610     9.7104    120.442  31.428557     30.606      9.118   180.5293     9.7493     2.3136     0.0222      0.073      0.054      0.079        274 1.4182e+02 0.0000e+00
      0.090    26.3571     9.6975    120.280  31.382962     30.526      9.114   180.0750     9.7614     2.2464     0.0222      0.077      0.086      0.124        275 1.4472e+02 0.0000e+00
      0.120    26.3541     9.6780    120.033  31.432190     30.610      9.114   179.6964     9.7371     2.2196     0.0222      0.084      0.115      0.167        276 1.3893e+02 0.0000e+00
      0.143    26.3505     9.6749    119.994  31.456250     30.612      9.114   179.1664     9.7897     2.2196     0.0222      0.090      0.139      0.202        277 1.3118e+02 0.0000e+00
      0.164    26.3457     9.6767    120.021  31.412324     30.587      9.113   178.5229     9.7573     2.2867     0.0222      0.096      0.161      0.233        278 1.3005e+02 0.0000e+00
      0.185    26.3422     9.6913    120.202  31.368252     30.535      9.118   178.5607     9.7533     2.2733     0.0222      0.101      0.183      0.265        279 1.2082e+02 0.0000e+00
      0.212    26.3417     9.7185    120.528  31.362841     30.538      9.117   178.4471     9.7654     2.2330     0.0222      0.103      0.204      0.296        280 1.1509e+02 0.0000e+00
      0.227    26.3421     9.7389    120.773  31.448711     30.621      9.118   178.8257     9.7614     2.2330     0.0222      0.100      0.219      0.318        281 1.1150e+02 0.0000e+00
      0.232    26.3424     9.7536    120.955  31.439299     30.622      9.117   178.3336     9.8261     2.3002     0.0222      0.089      0.228      0.330        282 1.0979e+02 0.0000e+00
      0.238    26.3422     9.7576    121.007  31.374555     30.540      9.119   178.3336     9.8342     2.2733     0.0222      0.075      0.234      0.340        283 1.0378e+02 0.0000e+00
      0.248    26.3417     9.7532    120.951  31.410679     30.594      9.124   178.1064     9.8342     2.3404     0.0222      0.064      0.244      0.355        284 9.9845e+01 0.0000e+00
      0.262    26.3407     9.7476    120.880  31.453647     30.621      9.129   177.7657     9.8382     2.1927     0.0222      0.056      0.258      0.375        285 9.6762e+01 0.0000e+00
      0.280    26.3388     9.7372    120.753  31.439687     30.622      9.132   178.3714     9.8180     2.1927     0.0222      0.051      0.277      0.402        286 9.4477e+01 0.0000e+00
      0.306    26.3381     9.7365    120.746  31.368748     30.541      9.131   179.2800     9.8099     2.2464     0.0222      0.051      0.301      0.437        287 9.2329e+01 0.0000e+00
      0.335    26.3407     9.7354    120.736  31.364021     30.542      9.128   179.7343     9.8180     2.2599     0.0222      0.056      0.329      0.477        288 8.9451e+01 0.0000e+00
      0.366    26.3405     9.7222    120.580  31.445570     30.624      9.122   180.6807     9.8261     2.1927     0.0222      0.067      0.357      0.519        289 8.7976e+01 0.0000e+00
      0.393    26.3353     9.7124    120.470  31.415518     30.595      9.117   181.6271    10.0121     2.2196     0.0222      0.081      0.382      0.554        290 8.6371e+01 0.0000e+00
      0.409    26.3317     9.7191    120.573  31.371769     30.541      9.116   181.5893    10.0040     2.2867     0.0222      0.090      0.398      0.577        291 8.6193e+01 0.0000e+00
      0.415    26.3315     9.7286    120.711  31.351761     30.544      9.115   182.2707    10.0080     2.3673     0.0222      0.091      0.405      0.587        292 8.5913e+01 0.0000e+00
      0.416    26.3323     9.7309    120.746  31.381117     30.546      9.114   181.8921    10.0242     2.3002     0.0222      0.084      0.408      0.591        293 8.5471e+01 0.0000e+00
      0.417    26.3319     9.7141    120.533  31.424191     30.628      9.114   182.0436    10.0000     2.2196     0.0222      0.071      0.409      0.593        294 8.5772e+01 0.0000e+00
      0.417    26.3313     9.6942    120.279  31.387111     30.546      9.115   182.4221    10.0040     2.1927     0.0222      0.053      0.409      0.594        295 8.5993e+01 0.0000e+00
      0.418    26.3319     9.6838    120.147  31.427262     30.628      9.116   182.0057    10.0242     2.2733     0.0222      0.035      0.409      0.594        296 8.5968e+01 0.0000e+00
      0.419    26.3327     9.6842    120.151  31.374224     30.546      9.118   182.8764    10.0040     2.3136     0.0222      0.020      0.409      0.593        297 8.6774e+01 0.0000e+00
      0.415    26.3344     9.6773    120.066  31.364161     30.546      9.118   182.4221    10.1657     2.2733     0.0222      0.008      0.403      0.584        298 9.0145e+01 0.0000e+00
      0.398    26.3379     9.6724    120.002  31.439785     30.627      9.124   182.4600    10.1172     2.1927     0.0222     -0.002      0.388      0.562        299 9.3065e+01 0.0000e+00
      0.372    26.3433     9.6717    119.993  31.369065     30.544      9.128   182.0814    10.1536     2.3539     0.0222     -0.015      0.364      0.528        300 9.7168e+01 0.0000e+00
      0.343    26.3524     9.6748    120.034  31.363216     30.542      9.133   181.8543    10.1455     2.2330     0.0222     -0.031      0.338      0.489        301 1.0100e+02 0.0000e+00
      0.317    26.3614     9.6757    120.051  31.447061     30.621      9.132   181.7786    10.1415     2.3270     0.0222     -0.048      0.315      0.457        302 1.0210e+02 0.0000e+00
      0.305    26.3644     9.6823    120.134  31.472277     30.642      9.131   182.3086    10.1455     2.3136     0.0223     -0.062      0.300      0.435        303 1.0330e+02 0.0000e+00
      0.294    26.3624     9.6944    120.281  31.450438     30.610      9.129   182.4979    10.1294     2.2330     0.0222     -0.071      0.288      0.418        304 1.0434e+02 0.0000e+00
      0.282    26.3598     9.7181    120.573  31.444585     30.608      9.122   182.2329    10.1294     2.2867     0.0222     -0.075      0.275      0.399        305 1.0578e+02 0.0000e+00
      0.264    26.3581     9.7512    120.982  31.360955     30.528      9.115   182.4221    10.1374     2.3539     0.0222     -0.075      0.262      0.381        306 1.1006e+02 0.0000e+00
      0.257    26.3574     9.7861    121.413  31.376607     30.529      9.114   182.3843     9.9070     2.1793     0.0222     -0.068      0.256      0.372        307 1.1626e+02 0.0000e+00
      0.263    26.3576     9.7942    121.511  31.425107     30.612      9.117   182.5357     9.8827     2.1793     0.0222     -0.054      0.258      0.374        308 1.1903e+02 0.0000e+00
      0.269    26.3566     9.7816    121.354  31.448854     30.585      9.114   183.1414     9.8827     2.2733     0.0222     -0.038      0.259      0.376        309 1.2402e+02 0.0000e+00
      0.262    26.3561     9.7732    121.248  31.465659     30.667      9.112   182.9143     9.8867     2.2733     0.0223     -0.027      0.254      0.368        310 1.3501e+02 0.0000e+00
      0.245    26.3574     9.7834    121.377  31.404195     30.531      9.112   182.8764     9.9029     2.3270     0.0222     -0.024      0.241      0.349        311 1.5334e+02 0.0000e+00
      0.228    26.3597     9.7762    121.296  31.406739     30.613      9.109   183.0279     9.8584     2.2733     0.0222     -0.024      0.228      0.331        312 1.9244e+02 0.0000e+00
      0.224    26.3605     9.7778    121.330  31.403190     30.531      9.103   183.1414     9.8746     2.2733     0.0222     -0.024      0.222      0.322        313 2.2483e+02 0.0000e+00
      0.225    26.3590     9.7467    120.958  31.467915     30.665      9.101   183.7472     9.8948     2.3136     0.0223     -0.023      0.220      0.318        314 2.9442e+02 0.0000e+00
      0.220    26.3582     9.7347    120.820  31.444795     30.583      9.097   183.7472     9.8220     2.2599     0.0222     -0.025      0.216      0.313        315 5.9597e+02 0.0000e+00
      0.213    26.3575     9.7214    120.662  31.431961     30.611      9.100   182.9900     9.8261     2.3673     0.0222     -0.029      0.212      0.308        316 7.9841e+02 0.0000e+00
      0.217    26.3562     9.7140    120.574  31.454235     30.612      9.103   183.5200     9.8261     2.3002     0.0222     -0.026      0.214      0.311        317 7.9000e+02 0.0000e+00
      0.223    26.3556     9.7158    120.602  31.446728     30.612      9.099   183.0279     9.8301     2.1524     0.0222     -0.018      0.220      0.318        318 9.1948e+02 0.0000e+00
      0.230    26.3549     9.7260    120.735  31.441304     30.613      9.105   182.6493     9.5066     2.3270     0.0222     -0.006      0.225      0.326        319 8.7232e+02 0.0000e+00
      0.234    26.3543     9.7350    120.854  31.460986     30.613      9.108   182.5357     9.5228     2.2464     0.0222      0.002      0.225      0.326        320 8.1488e+02 0.0000e+00
      0.223    26.3551     9.7319    120.824  31.451886     30.641      9.111   183.2171     9.5026     2.2196     0.0223      0.004      0.212      0.306        321 9.4431e+02 0.0000e+00
      0.191    26.3591     9.7228    120.719  31.393326     30.532      9.110   182.6871     9.5228     2.3136     0.0222     -0.005      0.179      0.260        322 7.7357e+02 0.0000e+00
      0.136    26.3655     9.7184    120.673  31.474559     30.668      9.113   182.5357     9.4783     2.1659     0.0223     -0.025      0.128      0.186        323 8.3098e+02 0.0000e+00
      0.066    26.3719     9.7075    120.547  31.469397     30.611      9.118   182.3086     9.1751     2.3270     0.0222     -0.059      0.066      0.096        324 1.3349e+03 0.0000e+00
     -0.000    26.3769     9.7047    120.516  31.488702     30.662      9.124   181.8543     9.1710     2.3404     0.0223     -0.103      0.008      0.011        325 1.4351e+03 0.0000e+00
     -0.042    26.3799     9.6926    120.366  31.509834     30.658      9.128   181.9679     9.1710     2.2599     0.0223     -0.142     -0.034     -0.049        326 1.3028e+03 0.0000e+00
     -0.060    26.3820     9.6862    120.287  31.472747     30.628      9.128   182.1950     9.1831     2.1927     0.0223     -0.167     -0.059     -0.085        327 1.3317e+03 0.0000e+00
     -0.079    26.3843     9.6862    120.285  31.445899     30.599      9.127   182.2707     8.2329     2.3270     0.0222     -0.177     -0.080     -0.115        328 1.3578e+03 0.0000e+00
     -0.104    26.3872     9.7032    120.502  31.454289     30.598      9.128   181.8164     8.2571     2.3002     0.0222     -0.171     -0.101     -0.145        329 1.3430e+03 0.0000e+00
     -0.124    26.3907     9.7274    120.809  31.491956     30.651      9.123   182.6493     8.2450     2.2733     0.0223     -0.152     -0.118     -0.170        330 1.3325e+03 0.0000e+00
     -0.131    26.3944     9.7374    120.935  31.458326     30.595      9.122   183.1793     8.2208     2.2733     0.0222     -0.123     -0.126     -0.183        331 1.3421e+03 0.0000e+00
     -0.132    26.3982     9.7307    120.847  31.496139     30.647      9.117   182.3843     6.3890     2.0450     0.0223     -0.091     -0.128     -0.186        332 1.3531e+03 0.0000e+00
     -0.130    26.4023     9.7180    120.692  31.504199     30.645      9.115   182.8007     6.3890     2.1927     0.0223     -0.064     -0.126     -0.183        333 1.3545e+03 0.0000e+00
     -0.124    26.4063     9.7016    120.494  31.477947     30.615      9.118   182.9900     6.4254     2.1793     0.0223     -0.044     -0.122     -0.176        334 1.3438e+03 0.0000e+00
     -0.118    26.4082     9.6761    120.189  31.499157     30.640      9.121   183.4443     6.4416     2.1256     0.0223     -0.028     -0.116     -0.168        335 1.3559e+03 0.0000e+00
     -0.114    26.4087     9.6512    119.870  31.448151     30.583      9.118   182.7250     6.1464     2.3270     0.0222     -0.012     -0.111     -0.160        336 1.3911e+03 0.0000e+00
     -0.107    26.4083     9.6343    119.617  31.452467     30.582      9.122   182.6493     6.1625     2.2733     0.0222      0.004     -0.103     -0.150        337 1.3976e+03 0.0000e+00
     -0.095    26.4080     9.6298    119.526  31.493784     30.636      9.123   182.6493     6.1787     2.3270     0.0223      0.015     -0.093     -0.135        338 1.3903e+03 0.0000e+00
     -0.083    26.4105     9.6373    119.603  31.456036     30.582      9.125   182.3464     6.1545     2.2330     0.0222      0.023     -0.080     -0.117        339 1.3761e+03 0.0000e+00
     -0.067    26.4138     9.6597    119.862  31.469792     30.609      9.129   182.3843     6.1423     2.2196     0.0223      0.030     -0.065     -0.094        340 1.3830e+03 0.0000e+00
     -0.048    26.4139     9.6772    120.047  31.447012     30.581      9.128   182.3086     6.1342     2.1793     0.0222      0.038     -0.047     -0.068        341 1.3540e+03 0.0000e+00
     -0.029    26.4122     9.6937    120.228  31.454733     30.579      9.130   182.3843     6.1706     2.1793     0.0222      0.046     -0.028     -0.041        342 1.4075e+03 0.0000e+00
     -0.010    26.4133     9.7117    120.439  31.489834     30.633      9.129   182.4979     6.1625     2.2599     0.0223      0.054     -0.007     -0.011        343 1.1295e+03 0.0000e+00
      0.017    26.4164     9.7246    120.592  31.462631     30.580      9.120   183.1414     6.1585     2.3404     0.0222      0.064      0.017      0.024        344 9.8280e+02 0.0000e+00
      0.043    26.4211     9.7344    120.712  31.488587     30.633      9.115   183.3307     6.5709     2.3270     0.0223      0.073      0.042      0.061        345 1.0518e+03 0.0000e+00
      0.067    26.4166     9.7302    120.663  31.427883     30.550      9.110   183.7472     6.5871     2.1927     0.0222      0.081      0.069      0.100        346 7.4417e+02 0.0000e+00
      0.101    26.3975     9.7149    120.469  31.360267     30.493      9.108   183.5957     6.5993     2.3404     0.0222      0.089      0.100      0.145        347 8.6435e+02 0.0000e+00
      0.138    26.3804     9.7087    120.373  31.365174     30.495      9.107   183.9364     6.6235     2.1927     0.0222      0.099      0.134      0.194        348 8.1306e+02 0.0000e+00
      0.169    26.3730     9.7153    120.434  31.451431     30.589      9.108   183.9364     7.2826     2.1927     0.0222      0.107      0.166      0.240        349 7.7587e+02 0.0000e+00
      0.199    26.3640     9.7241    120.528  31.490139     30.653      9.110   184.5422     7.2907     2.2464     0.0223      0.114      0.196      0.284        350 8.6477e+02 0.0000e+00
      0.230    26.3498     9.7386    120.699  31.376312     30.521      9.108   184.6557     7.2907     2.2733     0.0222      0.120      0.226      0.328        351 8.6726e+02 0.0000e+00
      0.263    26.3387     9.7456    120.779  31.355880     30.527      9.109   184.6557     7.3109     2.3673     0.0222      0.123      0.257      0.373        352 9.4693e+02 0.0000e+00
      0.294    26.3329     9.7396    120.698  31.367314     30.535      9.108   184.9207     7.2948     2.3404     0.0222      0.125      0.287      0.416        353 7.6828e+02 0.0000e+00
      0.321    26.3298     9.7290    120.561  31.362087     30.542      9.111   185.1100     7.2907     2.3136     0.0222      0.124      0.313      0.453        354 7.4985e+02 0.0000e+00
      0.341    26.3293     9.7189    120.435  31.362389     30.545      9.109   185.4886     7.2867     2.2464     0.0222      0.119      0.334      0.484        355 8.0147e+02 0.0000e+00
      0.359    26.3308     9.7251    120.504  31.366943     30.547      9.108   186.5486     7.2907     2.3136     0.0222      0.112      0.355      0.514        356 6.2441e+02 0.0000e+00
      0.386    26.3286     9.7301    120.556  31.445377     30.629      9.105   187.3436     9.1184     2.2733     0.0222      0.106      0.381      0.552        357 6.3751e+02 0.0000e+00
      0.420    26.3197     9.7247    120.481  31.413037     30.601      9.101   187.9114     9.0982     2.2599     0.0222      0.104      0.413      0.600        358 8.1065e+02 0.0000e+00
      0.458    26.3101     9.7180    120.388  31.318234     30.493      9.097   188.2522     9.0820     2.2867     0.0222      0.105      0.448      0.650        359 5.9851e+02 0.0000e+00
      0.491    26.3036     9.7208    120.414  31.296497     30.499      9.099   188.3279     9.0982     2.2733     0.0222      0.108      0.481      0.697        360 5.1870e+02 0.0000e+00
      0.522    26.2994     9.7292    120.511  31.262186     30.450      9.098   188.5929     9.7048     2.2867     0.0222      0.112      0.512      0.742        361 5.5689e+02 0.0000e+00
      0.553    26.2963     9.7435    120.681  31.301635     30.508      9.099   188.5929     9.7048     2.2733     0.0222      0.118      0.542      0.787        362 4.7563e+02 0.0000e+00
      0.585    26.2931     9.7617    120.890  31.306709     30.511      9.099   188.8579     9.6926     2.3404     0.0222      0.124      0.572      0.829        363 4.8319e+02 0.0000e+00
      0.611    26.2911     9.7606    120.849  31.315177     30.513      9.099   188.9715     9.7048     2.2599     0.0222      0.126      0.598      0.867        364 4.9570e+02 0.0000e+00
      0.633    26.2901     9.7680    120.920  31.350401     30.569      9.101   189.2743     9.6967     2.2733     0.0222      0.123      0.621      0.900        365 4.4215e+02 0.0000e+00
      0.656    26.2866     9.7575    120.773  31.322176     30.516      9.102   189.3879     9.5915     2.3673     0.0222      0.116      0.645      0.934        366 4.3904e+02 0.0000e+00
      0.682    26.2821     9.7328    120.456  31.291000     30.516      9.097   189.7665     9.5713     2.2733     0.0222      0.109      0.670      0.972        367 4.5097e+02 0.0000e+00
      0.712    26.2782     9.6977    120.014  31.270594     30.464      9.093   190.0693     9.5390     2.2062     0.0222      0.106      0.700      1.015        368 4.3100e+02 0.0000e+00
      0.747    26.2735     9.6721    119.691  31.288270     30.521      9.089   190.2586     9.5471     2.2196     0.0222      0.106      0.732      1.061        369 4.2310e+02 0.0000e+00
      0.778    26.2696     9.6409    119.299  31.269005     30.469      9.087   190.2586     9.5309     2.2867     0.0222      0.107      0.761      1.103        370 4.0320e+02 0.0000e+00
      0.801    26.2666     9.6180    119.011  31.235270     30.472      9.088   190.4100     9.5026     2.3002     0.0222      0.108      0.785      1.138        371 3.9938e+02 0.0000e+00
      0.822    26.2631     9.6118    118.932  31.270953     30.474      9.090   190.7129     9.5188     2.2733     0.0222      0.108      0.808      1.172        372 3.9578e+02 0.0000e+00
      0.849    26.2555     9.6366    119.230  31.283901     30.530      9.091   190.1072     9.5107     2.2464     0.0222      0.109      0.832      1.207        373 3.8978e+02 0.0000e+00
      0.875    26.2435     9.6664    119.591  31.219157     30.423      9.090   190.5236     9.8261     2.2599     0.0221      0.108      0.856      1.242        374 3.7068e+02 0.0000e+00
      0.894    26.2335     9.6706    119.635  31.232924     30.482      9.088   190.6372     9.8099     2.3136     0.0222      0.104      0.877      1.273        375 3.7302e+02 0.0000e+00
      0.915    26.2263     9.6668    119.584  31.266773     30.490      9.090   190.3722     9.8301     2.2464     0.0222      0.098      0.898      1.303        376 3.5675e+02 0.0000e+00
      0.938    26.2211     9.6722    119.647  31.236340     30.495      9.089   190.6750     9.8423     2.2599     0.0222      0.092      0.919      1.333        377 3.4805e+02 0.0000e+00
      0.959    26.2176     9.6809    119.750  31.211499     30.445      9.086   190.7886     9.9636     2.2464     0.0221      0.089      0.939      1.363        378 3.4887e+02 0.0000e+00
      0.976    26.2143     9.6870    119.824  31.238389     30.503      9.086   190.9779     9.9595     2.2733     0.0222      0.087      0.957      1.389        379 3.3547e+02 0.0000e+00
      0.994    26.2119     9.6897    119.855  31.262181     30.505      9.090   190.5615     9.9393     2.2733     0.0222      0.084      0.975      1.415        380 3.2066e+02 0.0000e+00
      1.014    26.2101     9.6892    119.851  31.181891     30.452      9.090   190.7129     9.9636     2.2330     0.0221      0.080      0.995      1.444        381 3.1154e+02 0.0000e+00
      1.036    26.2081     9.6920    119.887  31.160403     30.399      9.089   191.0157     9.9717     2.2196     0.0221      0.079      1.017      1.475        382 3.0182e+02 0.0000e+00
      1.061    26.2047     9.6933    119.906  31.229621     30.509      9.086   190.6372    10.0768     2.1927     0.0222      0.080      1.041      1.510        383 2.8722e+02 0.0000e+00
      1.088    26.2008     9.7014    120.009  31.214356     30.456      9.081   191.1672    10.0768     2.3673     0.0221      0.082      1.066      1.545        384 2.7574e+02 0.0000e+00
      1.112    26.1976     9.6960    119.944  31.238704     30.513      9.081   191.3565    10.0525     2.2464     0.0222      0.084      1.089      1.580        385 2.6090e+02 0.0000e+00
      1.132    26.1952     9.6825    119.780  31.199322     30.460      9.082   191.2429    10.0849     2.2867     0.0221      0.087      1.110      1.611        386 2.5364e+02 0.0000e+00
      1.153    26.1934     9.6625    119.537  31.144764     30.408      9.081   191.6593     9.8827     2.2599     0.0221      0.089      1.132      1.642        387 2.4641e+02 0.0000e+00
      1.177    26.1921     9.6406    119.268  31.187998     30.464      9.082   191.6215     9.8948     2.3136     0.0221      0.091      1.154      1.674        388 2.3691e+02 0.0000e+00
      1.201    26.1908     9.6330    119.172  31.204821     30.465      9.079   191.8865     9.9110     2.3136     0.0221      0.092      1.174      1.703        389 2.3050e+02 0.0000e+00
      1.214    26.1902     9.6261    119.089  31.183130     30.466      9.075   192.1515     9.8867     2.2733     0.0221      0.088      1.184      1.717        390 2.3080e+02 0.0000e+00
      1.206    26.1907     9.6201    119.020  31.155692     30.412      9.078   191.8107    10.0606     2.2330     0.0221      0.077      1.180      1.711        391 2.3293e+02 0.0000e+00
      1.189    26.1914     9.6216    119.042  31.179666     30.467      9.083   191.8107    10.0687     2.2867     0.0221      0.059      1.171      1.697        392 2.3449e+02 0.0000e+00
      1.186    26.1929     9.6334    119.190  31.212596     30.466      9.085   191.8865    10.0889     2.2867     0.0221      0.040      1.169      1.695        393 2.3375e+02 0.0000e+00
      1.201    26.1942     9.6569    119.478  31.233316     30.521      9.089   192.2650    10.0930     2.2330     0.0222      0.026      1.184      1.717        394 2.2133e+02 0.0000e+00
      1.236    26.1949     9.6649    119.574  31.213182     30.465      9.084   192.5300    10.3396     2.1927     0.0221      0.023      1.211      1.757        395 2.1049e+02 0.0000e+00
      1.267    26.1964     9.6641    119.568  31.178351     30.464      9.078   192.3786    10.3356     2.2733     0.0221      0.027      1.238      1.796        396 2.0600e+02 0.0000e+00
      1.282    26.1982     9.6497    119.390  31.158059     30.409      9.075   192.4165    10.3598     2.2464     0.0221      0.036      1.256      1.822        397 1.9754e+02 0.0000e+00
      1.294    26.1989     9.6478    119.373  31.179132     30.463      9.074   192.7193    10.3801     2.1927     0.0221      0.049      1.267      1.837        398 1.8883e+02 0.0000e+00
      1.299    26.1986     9.6441    119.333  31.211427     30.462      9.073   192.5300    10.3477     2.4076     0.0221      0.062      1.272      1.844        399 1.8594e+02 0.0000e+00
      1.297    26.1996     9.6338    119.211  31.236472     30.516      9.072   192.5300    10.3194     2.1927     0.0222      0.066      1.271      1.843        400 1.8327e+02 0.0000e+00
      1.291    26.2019     9.6264    119.124  31.207266     30.462      9.071   192.1893    10.3477     2.2599     0.0221      0.056      1.266      1.836        401 1.7812e+02 0.0000e+00
      1.285    26.2035     9.6202    119.049  31.188471     30.461      9.074   192.2272    10.3275     2.1927     0.0221      0.038      1.264      1.832        402 1.7394e+02 0.0000e+00
      1.291    26.2041     9.6303    119.175  31.200560     30.460      9.075   192.4543    10.7197     2.2062     0.0221      0.019      1.266      1.837        403 1.6902e+02 0.0000e+00
      1.298    26.2031     9.6557    119.488  31.192222     30.459      9.075   192.8707    10.7278     2.2599     0.0221      0.008      1.270      1.842        404 1.7136e+02 0.0000e+00
      1.295    26.2022     9.6879    119.885  31.198847     30.458      9.072   192.8707    10.7157     2.2330     0.0221      0.002      1.267      1.838        405 1.7388e+02 0.0000e+00
      1.283    26.2030     9.7011    120.042  31.192315     30.459      9.072   193.0600    10.7197     2.3136     0.0221     -0.003      1.258      1.823        406 1.7680e+02 0.0000e+00
      1.269    26.2041     9.7038    120.063  31.200351     30.460      9.070   192.7193    10.7157     2.2599     0.0221     -0.009      1.243      1.802        407 1.8275e+02 0.0000e+00
      1.248    26.2064     9.7113    120.144  31.248148     30.514      9.074   192.4922    10.8451     2.3002     0.0222     -0.017      1.226      1.777        408 1.9294e+02 0.0000e+00
      1.232    26.2095     9.7145    120.173  31.251436     30.513      9.077   192.4543    10.8855     2.2733     0.0222     -0.026      1.215      1.761        409 1.9853e+02 0.0000e+00
      1.236    26.2116     9.7080    120.086  31.196258     30.457      9.077   192.6057    10.8329     2.2733     0.0221     -0.033      1.216      1.764        410 1.9796e+02 0.0000e+00
      1.251    26.2134     9.6795    119.729  31.198210     30.455      9.080   192.6436    10.8289     2.2464     0.0221     -0.033      1.228      1.781        411 2.0576e+02 0.0000e+00
      1.267    26.2148     9.6438    119.286  31.189703     30.454      9.084   192.3029    10.4084     2.2733     0.0221     -0.025      1.243      1.802        412 2.0060e+02 0.0000e+00
      1.283    26.2153     9.6051    118.805  31.147541     30.398      9.080   192.6436    10.4084     2.1390     0.0221     -0.009      1.257      1.823        413 1.9658e+02 0.0000e+00
      1.296    26.2146     9.5854    118.560  31.191378     30.452      9.080   192.5679    10.4326     2.2599     0.0221      0.010      1.270      1.842        414 1.9880e+02 0.0000e+00
      1.305    26.2135     9.5804    118.498  31.194452     30.452      9.081   192.6815    10.3922     2.2330     0.0221      0.027      1.280      1.857        415 1.9367e+02 0.0000e+00
      1.317    26.2108     9.5848    118.552  31.143714     30.398      9.077   192.7193    10.5095     2.3002     0.0221      0.042      1.293      1.877        416 1.8694e+02 0.0000e+00
      1.336    26.2053     9.6073    118.832  31.195217     30.453      9.075   192.9465    10.5378     2.3136     0.0221      0.052      1.311      1.902        417 1.8160e+02 0.0000e+00
      1.357    26.1997     9.6334    119.155  31.189661     30.454      9.076   193.2115    10.5337     2.2599     0.0221      0.056      1.331      1.931        418 1.7534e+02 0.0000e+00
      1.378    26.1954     9.6667    119.567  31.150630     30.403      9.072   192.9465    10.5378     2.2464     0.0221      0.059      1.351      1.960        419 1.6982e+02 0.0000e+00
      1.398    26.1923     9.6941    119.905  31.184490     30.461      9.069   193.3250    10.2143     2.2196     0.0221      0.063      1.371      1.988        420 1.6551e+02 0.0000e+00
      1.418    26.1903     9.6957    119.922  31.147526     30.409      9.066   193.3629    10.1981     2.2733     0.0221      0.068      1.391      2.018        421 1.5872e+02 0.0000e+00
      1.440    26.1891     9.6819    119.751  31.196635     30.465      9.069   193.3629    10.2345     2.3539     0.0221      0.073      1.411      2.047        422 1.5640e+02 0.0000e+00
      1.459    26.1882     9.6576    119.450  31.241981     30.521      9.068   193.1736    10.1819     2.2330     0.0222      0.078      1.428      2.072        423 1.5488e+02 0.0000e+00
      1.471    26.1875     9.6314    119.123  31.150397     30.413      9.069   193.2872    10.1981     2.2330     0.0221      0.078      1.442      2.092        424 1.5245e+02 0.0000e+00
      1.482    26.1872     9.6070    118.817  31.192006     30.468      9.071   192.9465    10.2304     2.3404     0.0221      0.074      1.452      2.107        425 1.5279e+02 0.0000e+00
      1.489    26.1875     9.5968    118.688  31.249503     30.523      9.073   193.5143    10.2102     2.3136     0.0222      0.067      1.460      2.118        426 1.5338e+02 0.0000e+00
      1.495    26.1880     9.5964    118.679  31.197449     30.468      9.077   192.9843    10.2224     2.2464     0.0221      0.059      1.466      2.128        427 1.5266e+02 0.0000e+00
      1.502    26.1884     9.6071    118.808  31.197483     30.468      9.081   193.0600    10.1860     2.2196     0.0221      0.050      1.475      2.139        428 1.5202e+02 0.0000e+00
      1.515    26.1882     9.6203    118.968  31.130855     30.413      9.083   192.9465    10.5095     2.1793     0.0221      0.043      1.490      2.159        429 1.4995e+02 0.0000e+00
      1.539    26.1877     9.6331    119.124  31.102460     30.359      9.083   193.3629    10.5378     2.2464     0.0221      0.042      1.510      2.189        430 1.4649e+02 0.0000e+00
      1.563    26.1869     9.6347    119.133  31.173519     30.468      9.082   193.2872    10.5337     2.2867     0.0221      0.046      1.531      2.221        431 1.4469e+02 0.0000e+00
      1.581    26.1865     9.6333    119.101  31.161027     30.414      9.082   193.5143    10.4892     2.2062     0.0221      0.052      1.551      2.249        432 1.4181e+02 0.0000e+00
      1.600    26.1863     9.6144    118.853  31.177307     30.469      9.077   193.0979    10.5297     2.2196     0.0221      0.060      1.568      2.274        433 1.3948e+02 0.0000e+00
      1.615    26.1850     9.6020    118.693  31.153260     30.414      9.075   193.3629    10.5418     2.1659     0.0221      0.067      1.583      2.296        434 1.3813e+02 0.0000e+00
      1.627    26.1832     9.5860    118.489  31.131652     30.414      9.075   193.7415    10.5337     2.3002     0.0221      0.071      1.595      2.313        435 1.3625e+02 0.0000e+00
      1.636    26.1813     9.5742    118.323  31.144896     30.415      9.079   193.2115    10.5256     2.3941     0.0221      0.069      1.605      2.328        436 1.3495e+02 0.0000e+00
      1.647    26.1797     9.5708    118.246  31.136778     30.416      9.075   193.2872    10.6227     2.2062     0.0221      0.064      1.616      2.344        437 1.3315e+02 0.0000e+00
      1.659    26.1779     9.5509    117.965  31.141756     30.417      9.078   193.2115    10.5903     2.2733     0.0221      0.057      1.628      2.361        438 1.3168e+02 0.0000e+00
      1.674    26.1765     9.5165    117.519  31.138703     30.418      9.078   193.1736    10.5903     2.2196     0.0221      0.052      1.641      2.381        439 1.2965e+02 0.0000e+00
      1.688    26.1750     9.4808    117.064  31.140578     30.419      9.078   192.8707    10.5903     2.3136     0.0221      0.049      1.655      2.401        440 1.2806e+02 0.0000e+00
      1.701    26.1706     9.4371    116.512  31.139423     30.420      9.080   193.0979    10.4084     2.3136     0.0221      0.048      1.668      2.419        441 1.2713e+02 0.0000e+00
      1.713    26.1638     9.3947    115.979  31.080838     30.366      9.083   193.2115    10.4043     2.2464     0.0221      0.049      1.680      2.436        442 1.2614e+02 0.0000e+00
      1.724    26.1573     9.3622    115.569  31.035581     30.315      9.082   192.9465    10.3801     2.3673     0.0221      0.049      1.692      2.454        443 1.2534e+02 0.0000e+00
      1.739    26.1540     9.3291    115.153  31.077144     30.373      9.082   193.2872    10.4084     2.2464     0.0221      0.051      1.706      2.474        444 1.2389e+02 0.0000e+00
      1.755    26.1512     9.3184    115.016  31.058768     30.350      9.081   193.4765    10.6146     2.4747     0.0221      0.052      1.720      2.495        445 1.2253e+02 0.0000e+00
      1.768    26.1418     9.3246    115.089  30.969499     30.270      9.079   192.9465    10.5984     2.4479     0.0221      0.053      1.735      2.515        446 1.2164e+02 0.0000e+00
      1.782    26.1253     9.3484    115.381  30.891730     30.189      9.081   193.5522    10.6065     2.4747     0.0220      0.053      1.750      2.538        447 1.2018e+02 0.0000e+00
      1.802    26.1094     9.3811    115.782  30.829394     30.140      9.079   193.5900    10.6025     2.4210     0.0220      0.055      1.767      2.563        448 1.1850e+02 0.0000e+00
      1.820    26.0992     9.4149    116.200  30.839525     30.150      9.077   193.8929    10.6065     2.5150     0.0220      0.058      1.784      2.588        449 1.1717e+02 0.0000e+00
      1.837    26.0925     9.4398    116.504  30.879128     30.214      9.075   193.8929    10.6833     2.2196     0.0220      0.061      1.801      2.613        450 1.1598e+02 0.0000e+00
      1.855    26.0868     9.4392    116.495  30.839416     30.166      9.069   193.9308    10.6752     2.2196     0.0220      0.064      1.817      2.636        451 1.1482e+02 0.0000e+00
      1.868    26.0820     9.4280    116.352  30.770349     30.115      9.064   194.1579    10.6550     2.2196     0.0220      0.064      1.829      2.654        452 1.1425e+02 0.0000e+00
      1.877    26.0778     9.4115    116.146  30.727880     30.064      9.062   194.2336    10.6752     2.3807     0.0220      0.063      1.839      2.668        453 1.1370e+02 0.0000e+00
      1.884    26.0746     9.4003    116.005  30.773667     30.121      9.058   194.1579    10.7359     2.2733     0.0220      0.060      1.848      2.680        454 1.1260e+02 0.0000e+00
      1.893    26.0720     9.4014    116.017  30.772670     30.123      9.057   194.2336    10.7359     2.2196     0.0220      0.054      1.858      2.694        455 1.1229e+02 0.0000e+00
      1.904    26.0701     9.3949    115.937  30.729123     30.071      9.054   194.1579    10.7197     2.2733     0.0220      0.049      1.869      2.711        456 1.1129e+02 0.0000e+00
      1.922    26.0691     9.3847    115.812  30.768561     30.127      9.052   194.3850    10.7682     2.3002     0.0220      0.046      1.884      2.732        457 1.0958e+02 0.0000e+00
      1.936    26.0684     9.3700    115.629  30.782893     30.128      9.041   194.3093    10.6510     2.3270     0.0220      0.045      1.897      2.752        458 1.0937e+02 0.0000e+00
      1.944    26.0682     9.3663    115.555  30.770590     30.129      9.037   194.3472    10.6672     2.3270     0.0220      0.044      1.908      2.767        459 1.0884e+02 0.0000e+00
      1.956    26.0673     9.3630    115.439  30.783873     30.129      9.036   194.8015    10.6510     2.2464     0.0220      0.045      1.919      2.783        460 1.0771e+02 0.0000e+00
      1.970    26.0658     9.3467    115.151  30.766363     30.129      9.031   194.5365    10.6591     2.2867     0.0220      0.047      1.931      2.801        461 1.0714e+02 0.0000e+00
      1.981    26.0643     9.3288    114.891  30.733081     30.075      9.028   194.5365    10.7723     2.3136     0.0220      0.049      1.944      2.819        462 1.0616e+02 0.0000e+00
      1.996    26.0628     9.3107    114.617  30.765990     30.131      9.023   194.9150    10.7723     2.2464     0.0220      0.050      1.956      2.838        463 1.0502e+02 0.0000e+00
      2.007    26.0618     9.2973    114.292  30.725407     30.077      9.019   194.8015    10.7763     2.3002     0.0220      0.049      1.968      2.854        464 1.0436e+02 0.0000e+00
      2.018    26.0610     9.2746    113.855  30.724285     30.078      9.019   194.9908    10.8046     2.2599     0.0220      0.047      1.978      2.869        465 1.0372e+02 0.0000e+00
      2.027    26.0609     9.2139    112.987  30.767387     30.133      9.019   195.2936    10.7925     2.3404     0.0220      0.046      1.988      2.883        466 1.0284e+02 0.0000e+00
      2.037    26.0616     9.1301    111.815  30.731070     30.079      9.018   195.4450    10.8572     2.2062     0.0220      0.046      1.997      2.897        467 1.0245e+02 0.0000e+00
      2.046    26.0604     9.0197    110.271  30.710181     30.079      9.021   195.2936    10.8653     2.3270     0.0220      0.044      2.006      2.910        468 1.0218e+02 0.0000e+00
      2.055    26.0465     8.9015    108.577  30.734083     30.078      9.019   195.2558    10.8491     2.1927     0.0220      0.042      2.015      2.923        469 1.0135e+02 0.0000e+00
      2.064    26.0114     8.7075    105.917  30.701324     30.079      9.018   195.5208    10.8653     2.1659     0.0220      0.040      2.025      2.937        470 1.0065e+02 0.0000e+00
      2.076    25.9699     8.4020    101.934  30.513747     29.868      9.019   195.6343    10.8572     2.3136     0.0219      0.038      2.035      2.952        471 1.0025e+02 0.0000e+00
      2.084    25.9513     8.0000     96.858  30.493121     29.889      9.022   195.7858    10.8855     2.3673     0.0219      0.038      2.045      2.967        472 9.9258e+01 0.0000e+00
      2.096    25.9242     7.4875     90.558  30.489804     29.914      9.021   195.7100    10.8410     2.2599     0.0219      0.038      2.059      2.986        473 9.7804e+01 0.0000e+00
      2.119    25.8503     6.9350     83.873  30.191740     29.623      9.017   196.1265    10.8410     2.2196     0.0217      0.042      2.077      3.012        474 9.6469e+01 0.0000e+00
      2.139    25.7737     6.4084     77.470  29.944922     29.390      9.009   196.4672    10.7359     2.1659     0.0216      0.047      2.093      3.036        475 9.5684e+01 0.0000e+00
      2.145    25.7137     5.9515     71.889  30.026087     29.517      9.002   196.2779    10.7116     2.1524     0.0217      0.051      2.106      3.054        476 9.4891e+01 0.0000e+00
      2.160    25.6427     5.5561     67.066  29.912862     29.479      9.004   196.7700    10.7359     2.3673     0.0216      0.054      2.121      3.076        477 9.3209e+01 0.0000e+00
      2.185    25.5475     5.2933     63.861  29.492880     29.045      8.998   197.3379    10.7157     2.2733     0.0214      0.059      2.144      3.109        478 9.1442e+01 0.0000e+00
      2.212    25.4217     5.1338     61.915  29.333167     28.975      8.993   198.1708    10.7885     2.2464     0.0214      0.065      2.170      3.147        479 8.9393e+01 0.0000e+00
      2.242    25.2721     5.0560     60.958  29.311132     28.975      8.976   198.6629    10.7885     2.3673     0.0214      0.074      2.196      3.185        480 8.7707e+01 0.0000e+00
      2.263    25.1299     5.0351     60.688  29.283152     29.047      8.950   198.9658    10.7804     2.2867     0.0214      0.080      2.217      3.215        481 8.6643e+01 0.0000e+00
      2.276    25.0181     5.0538     60.906  29.308742     29.134      8.929   199.1929    10.7885     2.2196     0.0214      0.082      2.232      3.237        482 8.6050e+01 0.0000e+00
      2.288    24.9629     5.0572     60.945  29.308992     29.245      8.909   200.1015    10.6591     2.1927     0.0214      0.082      2.244      3.255        483 8.5528e+01 0.0000e+00
      2.301    24.9576     5.0550     60.909  29.312544     29.282      8.887   200.1015    10.6793     2.3136     0.0214      0.082      2.258      3.274        484 8.4235e+01 0.0000e+00
      2.318    24.9357     5.0663     61.030  29.334013     29.371      8.854   200.4422    10.6550     2.3673     0.0214      0.076      2.271      3.294        485 8.3625e+01 0.0000e+00
      2.327    24.8918     5.0663     60.999  29.311946     29.316      8.816   200.4422    10.6752     2.2733     0.0214      0.067      2.281      3.309        486 8.3560e+01 0.0000e+00
      2.334    24.8541     5.0664     60.964  29.340014     29.386      8.789   201.0101    10.6550     2.1927     0.0214      0.057      2.291      3.323        487 8.2642e+01 0.0000e+00
      2.349    24.8259     5.0267     60.446  29.358388     29.412      8.757   201.2751    10.6469     2.2330     0.0214      0.050      2.303      3.340        488 8.1709e+01 0.0000e+00
      2.360    24.8066     4.9016     58.866  29.378042     29.462      8.724   201.2372    10.6267     2.2196     0.0214      0.047      2.315      3.358        489 8.1037e+01 0.0000e+00
      2.374    24.7905     4.6927     56.263  29.345220     29.451      8.693   201.8429    10.6833     2.3404     0.0214      0.047      2.329      3.378        490 8.0043e+01 0.0000e+00
      2.390    24.7752     4.4437     53.195  29.251002     29.350      8.662   201.7672    10.6591     2.2464     0.0213      0.048      2.343      3.398        491 7.9212e+01 0.0000e+00
      2.402    24.7678     4.1450     49.568  29.287763     29.416      8.632   201.5022    10.7844     2.1793     0.0213      0.049      2.357      3.418        492 7.8410e+01 0.0000e+00
      2.418    24.7654     3.8101     45.517  29.299478     29.425      8.603   202.2215    10.7844     2.2733     0.0213      0.050      2.371      3.438        493 7.7444e+01 0.0000e+00
      2.432    24.7575     3.4833     41.565  29.295725     29.429      8.573   202.7136    10.8208     2.2599     0.0213      0.053      2.384      3.458        494 7.6940e+01 0.0000e+00
      2.442    24.7438     3.1712     37.800  29.292437     29.430      8.544   203.7358    10.7966     2.2464     0.0213      0.054      2.398      3.477        495 7.5920e+01 0.0000e+00
      2.461    24.7166     2.8949     34.480  29.214627     29.351      8.516   203.3572    10.8572     2.5150     0.0213      0.055      2.414      3.502        496 7.4365e+01 0.0000e+00
      2.483    24.6851     2.6559     31.615  29.244319     29.387      8.484   203.5844    10.8249     2.4613     0.0213      0.058      2.433      3.530        497 7.3564e+01 0.0000e+00
      2.499    24.6473     2.4755     29.449  29.285141     29.459      8.458   203.9251    10.8653     2.3941     0.0213      0.060      2.451      3.555        498 7.2686e+01 0.0000e+00
      2.516    24.5794     2.3333     27.741  29.252781     29.422      8.433   204.6444    10.8410     2.4747     0.0213      0.062      2.467      3.577        499 7.1567e+01 0.0000e+00
      2.531    24.4886     2.2359     26.556  29.284604     29.500      8.407   206.8401    11.4233     2.5687     0.0213      0.064      2.482      3.598        500 7.0825e+01 0.0000e+00
      2.544    24.4066     2.1677     25.719  29.245556     29.485      8.385   208.5437    11.4395     2.4747     0.0213      0.064      2.497      3.620        501 6.9957e+01 0.0000e+00
      2.563    24.3490     2.0960     24.846  29.271754     29.567      8.362   210.0201    11.4314     2.5150     0.0213      0.065      2.514      3.645        502 6.8948e+01 0.0000e+00
      2.582    24.2949     1.9954     23.633  29.340981     29.702      8.343   210.2851    11.4395     2.4747     0.0214      0.067      2.529      3.668        503 6.8436e+01 0.0000e+00
      2.591    24.2331     1.8925     22.396  29.307679     29.678      8.317   209.5658    12.5313     2.7164     0.0213      0.063      2.540      3.684        504 6.7988e+01 0.0000e+00
      2.598    24.1756     1.7745     20.988  29.342871     29.768      8.302   210.0958    12.5313     2.6090     0.0214      0.059      2.548      3.694        505 6.7632e+01 0.0000e+00
      2.603    24.1349     1.6495     19.500  29.356506     29.805      8.285   209.7172    12.5151     2.6224     0.0213      0.054      2.554      3.704        506 6.7375e+01 0.0000e+00
      2.611    24.1017     1.5322     18.092  29.290735     29.784      8.271   210.5122    12.5070     2.7433     0.0213      0.048      2.562      3.716        507 6.6737e+01 0.0000e+00
      2.622    24.0709     1.4233     16.790  29.306149     29.808      8.254   210.2094    12.5151     2.5150     0.0213      0.043      2.572      3.731        508 6.6352e+01 0.0000e+00
      2.634    24.0377     1.3197     15.558  29.366989     29.914      8.236   210.4744    12.6364     2.4881     0.0214      0.040      2.586      3.752        509 6.5251e+01 0.0000e+00
      2.657    23.9849     1.2011     14.147  29.303981     29.848      8.220   211.3072    12.6647     2.4747     0.0213      0.040      2.605      3.777        510 6.4016e+01 0.0000e+00
      2.674    23.9280     1.1084     13.035  29.236332     29.810      8.197   211.5344    12.6445     2.4344     0.0213      0.043      2.622      3.802        511 6.3563e+01 0.0000e+00
      2.687    23.8787     1.0044     11.793  29.243652     29.843      8.175   212.4051    12.6445     2.4344     0.0213      0.049      2.636      3.822        512 6.2789e+01 0.0000e+00
      2.701    23.8327     0.8902     10.435  29.235594     29.877      8.155   212.7079    12.5313     2.5150     0.0213      0.054      2.649      3.842        513 6.2096e+01 0.0000e+00
      2.716    23.7888     0.7588      8.881  29.246381     29.908      8.138   213.2001    12.5232     2.4210     0.0213      0.058      2.664      3.864        514 6.1269e+01 0.0000e+00
      2.734    23.7616     0.6198      7.242  29.259896     29.964      8.115   213.4651    12.5394     2.4076     0.0213      0.061      2.679      3.886        515 6.0545e+01 0.0000e+00
      2.747    23.7320     0.4605      5.371  29.248443     29.963      8.092   213.4651    12.5070     2.4747     0.0213      0.061      2.694      3.908        516 5.9762e+01 0.0000e+00
      2.763    23.6744     0.3315      3.861  29.290300     30.037      8.073   213.9572    13.3036     2.4344     0.0213      0.061      2.710      3.930        517 5.8727e+01 0.0000e+00
      2.781    23.6211     0.2210      2.571  29.296765     30.054      8.058   214.1465    13.2510     2.5016     0.0213      0.060      2.727      3.954        518 5.8070e+01 0.0000e+00
      2.796    23.5842     0.1292      1.501  29.240412     30.034      8.039   214.9037    13.2753     2.4344     0.0213      0.060      2.742      3.978        519 5.7207e+01 0.0000e+00
      2.813    23.5341     0.0742      0.861  29.241856     30.066      8.020   215.1687    13.2510     2.4747     0.0213      0.062      2.757      3.999        520 5.6491e+01 0.0000e+00
      2.826    23.4549     0.0451      0.522  29.354286     30.204      8.000   214.9794    13.4411     2.2196     0.0213      0.062      2.771      4.019        521 5.5898e+01 0.0000e+00
      2.838    23.3682     0.0321      0.372  29.485947     30.378      7.981   215.3580    13.4451     2.2196     0.0214      0.061      2.783      4.037        522 5.5158e+01 0.0000e+00
      2.851    23.2867     0.0434      0.502  29.552409     30.487      7.965   215.7365    13.4694     2.3136     0.0214      0.059      2.795      4.054        523 5.4693e+01 0.0000e+00
      2.862    23.2035     0.0682      0.789  29.657041     30.656      7.947   216.0015    13.4573     2.2196     0.0214      0.057      2.807      4.071        524 5.4118e+01 0.0000e+00
      2.875    23.1123     0.0880      1.016  29.889453     30.940      7.930   216.2665    12.8345     2.2867     0.0215      0.054      2.819      4.089        525 5.3467e+01 0.0000e+00
      2.887    23.0186     0.1142      1.316  30.063744     31.195      7.914   216.0015    12.8386     2.3941     0.0216      0.051      2.830      4.105        526 5.3017e+01 0.0000e+00
      2.895    22.9339     0.1347      1.551  30.211064     31.371      7.898   216.1908    12.8669     2.2464     0.0217      0.048      2.839      4.118        527 5.2609e+01 0.0000e+00
      2.905    22.8793     0.1473      1.694  30.358452     31.636      7.878   216.1530    12.8467     2.2464     0.0217      0.045      2.849      4.131        528 5.2159e+01 0.0000e+00
      2.914    22.8381     0.1575      1.807  30.443712     31.721      7.863   216.2665    12.8184     2.2464     0.0218      0.043      2.859      4.146        529 5.1587e+01 0.0000e+00
      2.927    22.7728     0.1715      1.963  30.698000     32.079      7.846   216.7965    12.3857     2.3136     0.0219      0.043      2.869      4.161        530 5.1130e+01 0.0000e+00
      2.935    22.7038     0.1787      2.042  30.842587     32.221      7.829   216.5694    12.4100     2.3002     0.0219      0.041      2.876      4.172        531 5.1016e+01 0.0000e+00
      2.938    22.6499     0.1829      2.085  30.767859     32.209      7.808   217.1372    12.3938     2.2464     0.0219      0.038      2.881      4.179        532 5.1055e+01 0.0000e+00
      2.940    22.6215     0.1788      2.035  30.731720     32.196      7.792   217.2508    12.3776     2.2464     0.0219      0.034      2.885      4.184        533 5.0904e+01 0.0000e+00
      2.946    22.5888     0.1804      2.050  30.709683     32.233      7.773   217.1372    12.3655     2.3136     0.0219      0.030      2.893      4.196        534 5.0049e+01 0.0000e+00
      2.965    22.5131     0.1755      1.991  30.736005     32.252      7.756   217.5915    12.3938     2.2464     0.0219      0.030      2.908      4.217        535 4.9109e+01 0.0000e+00
      2.983    22.4238     0.1739      1.968  30.817583     32.390      7.736   217.6294    12.4261     2.3136     0.0219      0.033      2.923      4.239        536 4.8743e+01 0.0000e+00
      2.993    22.3508     0.1764      1.992  30.845385     32.443      7.718   217.8944    12.4019     2.4344     0.0219      0.036      2.934      4.255        537 4.8594e+01 0.0000e+00
      2.998    22.2802     0.1705      1.921  30.879340     32.563      7.697   217.8187    12.0784     2.0719     0.0219      0.037      2.944      4.270        538 4.7984e+01 0.0000e+00
      3.017    22.1724     0.1717      1.929  31.220130     32.938      7.678   218.3487    12.0541     2.1390     0.0221      0.043      2.961      4.295        539 4.6797e+01 0.0000e+00
      3.045    22.0530     0.1692      1.896  31.548067     33.400      7.653   219.1058    12.0743     2.1659     0.0222      0.052      2.983      4.326        540 4.5954e+01 0.0000e+00
      3.061    21.9453     0.1788      1.999  31.479418     33.328      7.630   218.9544    12.0905     2.1122     0.0222      0.059      3.002      4.353        541 4.5313e+01 0.0000e+00
      3.077    21.8305     0.1785      1.992  31.483516     33.474      7.611   219.7494    10.8087     2.0719     0.0222      0.063      3.017      4.375        542 4.4748e+01 0.0000e+00
      3.091    21.7274     0.1779      1.984  31.572668     33.608      7.593   219.9008    10.7642     2.0450     0.0222      0.063      3.029      4.394        543 4.4396e+01 0.0000e+00
      3.099    21.6501     0.1813      2.022  31.546430     33.693      7.579   219.9765    10.8046     2.1122     0.0222      0.063      3.039      4.408        544 4.4041e+01 0.0000e+00
      3.108    21.5813     0.1839      2.051  31.456912     33.646      7.567   219.7115    10.8168     2.1390     0.0222      0.062      3.049      4.421        545 4.3771e+01 0.0000e+00
      3.119    21.4728     0.1880      2.096  31.239336     33.494      7.554   220.1280    10.3962     1.7899     0.0221      0.058      3.059      4.436        546 4.3364e+01 0.0000e+00
      3.130    21.3352     0.1941      2.165  30.957336     33.211      7.539   220.1280    10.4124     1.8302     0.0220      0.052      3.069      4.451        547 4.3000e+01 0.0000e+00
      3.139    21.2019     0.1993      2.223  30.770091     33.109      7.528   220.1280    10.4003     1.9510     0.0219      0.045      3.078      4.465        548 4.2687e+01 0.0000e+00
      3.148    21.0722     0.2061      2.296  30.553219     32.967      7.514   219.9387    10.4003     1.9376     0.0218      0.041      3.087      4.478        549 4.2205e+01 0.0000e+00
      3.159    20.9449     0.2183      2.424  30.308108     32.789      7.502   220.2415    10.3841     1.9645     0.0217      0.039      3.097      4.492        550 4.1780e+01 0.0000e+00
      3.169    20.8273     0.2251      2.491  30.126366     32.700      7.491   220.7337    11.0917     1.8570     0.0216      0.038      3.107      4.506        551 4.1535e+01 0.0000e+00
      3.176    20.7358     0.2569      2.836  30.038192     32.668      7.480   220.3930    11.1079     1.9107     0.0215      0.038      3.115      4.518        552 4.1326e+01 0.0000e+00
      3.182    20.6954     0.3346      3.686  30.062090     32.815      7.466   221.0744    11.0837     1.9779     0.0216      0.037      3.122      4.528        553 4.1046e+01 0.0000e+00
      3.192    20.6984     0.4745      5.216  30.155972     32.940      7.451   221.1501    11.0998     1.9242     0.0216      0.036      3.131      4.541        554 4.0603e+01 0.0000e+00
      3.204    20.6983     0.6521      7.154  30.217894     33.094      7.441   220.8851    10.5903     1.6422     0.0216      0.035      3.142      4.557        555 4.0138e+01 0.0000e+00
      3.216    20.7047     0.8554      9.366  30.222249     33.027      7.424   221.3773    10.6065     1.6422     0.0216      0.036      3.155      4.575        556 3.9668e+01 0.0000e+00
      3.230    20.7096     1.0718     11.713  30.209856     33.091      7.411   221.5287    10.5782     1.6959     0.0216      0.038      3.167      4.593        557 3.9272e+01 0.0000e+00
      3.241    20.7003     1.2946     14.123  30.174013     32.962      7.397   221.5665    10.6227     1.7228     0.0216      0.040      3.179      4.610        558 3.8927e+01 0.0000e+00
      3.253    20.6359     1.5181     16.526  30.088952     32.959      7.383   221.8694    10.7561     1.8973     0.0216      0.043      3.191      4.628        559 3.8237e+01 0.0000e+00
      3.269    20.4812     1.7504     19.007  29.693068     32.446      7.370   221.6044    10.7399     1.9913     0.0214      0.046      3.205      4.648        560 3.7809e+01 0.0000e+00
      3.283    20.3150     1.9474     21.096  29.273160     32.092      7.360   222.1723    10.7197     1.8302     0.0212      0.049      3.218      4.667        561 3.7511e+01 0.0000e+00
      3.293    20.1833     2.1287     23.013  29.099433     31.959      7.348   222.2858    10.7197     1.8705     0.0211      0.050      3.228      4.682        562 3.7361e+01 0.0000e+00
      3.299    20.0743     2.3013     24.829  29.108800     32.137      7.336   222.1723    10.8491     1.9913     0.0211      0.049      3.235      4.693        563 3.7088e+01 0.0000e+00
      3.307    19.9703     2.4538     26.423  29.083672     32.169      7.326   222.7401    10.8491     1.9242     0.0211      0.046      3.244      4.706        564 3.6695e+01 0.0000e+00
      3.319    19.8676     2.5989     27.924  28.982516     32.153      7.311   222.3615    10.8329     1.9645     0.0211      0.044      3.255      4.721        565 3.6485e+01 0.0000e+00
      3.331    19.7695     2.7253     29.204  28.878951     32.104      7.301   221.9830    10.8491     1.8033     0.0210      0.042      3.267      4.739        566 3.5960e+01 0.0000e+00
      3.345    19.6742     2.8485     30.433  28.827169     32.115      7.289   221.9451    10.1941     1.6690     0.0210      0.042      3.279      4.756        567 3.5688e+01 0.0000e+00
      3.354    19.5832     2.9474     31.394  28.809813     32.185      7.275   221.8315    10.2264     1.6556     0.0210      0.041      3.290      4.773        568 3.5364e+01 0.0000e+00
      3.368    19.4784     3.0444     32.333  28.722702     32.129      7.268   222.2480    10.2345     1.6959     0.0209      0.042      3.305      4.793        569 3.4657e+01 0.0000e+00
      3.387    19.3536     3.1358     33.213  28.579836     32.069      7.260   222.1723    10.2143     1.6690     0.0209      0.046      3.321      4.817        570 3.4149e+01 0.0000e+00
      3.403    19.2361     3.2161     33.980  28.483626     31.987      7.249   222.0587    10.1900     1.6690     0.0208      0.051      3.335      4.838        571 3.3858e+01 0.0000e+00
      3.412    19.1339     3.2850     34.625  28.486700     32.141      7.237   222.4373     9.6441     1.4273     0.0208      0.053      3.346      4.853        572 3.3446e+01 0.0000e+00
      3.422    19.0360     3.3644     35.369  28.368523     32.037      7.230   222.3615     9.6482     1.5213     0.0207      0.052      3.356      4.868        573 3.3125e+01 0.0000e+00
      3.433    18.9380     3.4201     35.860  28.334264     32.111      7.223   222.5130     9.6522     1.4408     0.0207      0.052      3.368      4.885        574 3.2761e+01 0.0000e+00
      3.448    18.8289     3.4742     36.334  28.232900     32.055      7.215   222.7401     9.6360     1.4408     0.0207      0.051      3.385      4.908        575 3.1847e+01 0.0000e+00
      3.472    18.6986     3.5415     36.944  28.049995     31.904      7.210   222.5508     9.3530     1.5482     0.0206      0.054      3.405      4.938        576 3.0808e+01 0.0000e+00
      3.495    18.5517     3.6237     37.723  27.968977     31.920      7.197   223.0051     9.3611     1.4139     0.0206      0.057      3.426      4.969        577 3.0120e+01 0.0000e+00
      3.514    18.4022     3.7355     38.833  27.829766     31.823      7.188   222.8915     9.3853     1.4810     0.0205      0.061      3.446      4.999        578 2.9427e+01 0.0000e+00
      3.535    18.2591     3.8600     40.078  27.689644     31.803      7.179   222.9294     9.3732     1.4139     0.0204      0.067      3.466      5.028        579 2.8852e+01 0.0000e+00
      3.554    18.1271     4.0146     41.602  27.520829     31.687      7.172   223.1187     7.8770     1.1856     0.0203      0.073      3.484      5.054        580 2.8403e+01 0.0000e+00
      3.570    18.0073     4.1456     42.856  27.446977     31.727      7.165   223.4973     7.8811     1.2662     0.0203      0.077      3.502      5.079        581 2.7756e+01 0.0000e+00
      3.590    17.8896     4.2744     44.101  27.396201     31.759      7.160   223.2323     7.8730     1.2528     0.0203      0.078      3.521      5.106        582 2.7122e+01 0.0000e+00
      3.610    17.7632     4.3894     45.196  27.287605     31.718      7.150   222.9294     7.8245     1.2125     0.0202      0.078      3.540      5.134        583 2.6629e+01 0.0000e+00
      3.629    17.6347     4.5020     46.245  27.167119     31.674      7.145   223.4594     7.8123     1.1588     0.0201      0.076      3.558      5.160        584 2.6271e+01 0.0000e+00
      3.644    17.5101     4.6144     47.288  27.012559     31.573      7.141   223.6108     7.7840     1.2393     0.0201      0.074      3.574      5.183        585 2.5965e+01 0.0000e+00
      3.658    17.3889     4.7008     48.066  26.857436     31.504      7.137   223.8001     7.8002     1.3333     0.0200      0.072      3.588      5.204        586 2.5660e+01 0.0000e+00
      3.673    17.2887     4.7842     48.808  26.826591     31.530      7.134   224.2166     7.8043     1.2393     0.0199      0.069      3.602      5.223        587 2.5381e+01 0.0000e+00
      3.685    17.2217     4.8475     49.348  26.843472     31.687      7.134   223.9894     7.4484     0.9842     0.0200      0.066      3.615      5.242        588 2.5069e+01 0.0000e+00
      3.699    17.1620     4.8911     49.697  26.777180     31.630      7.132   224.2166     7.4161     1.0648     0.0199      0.063      3.628      5.262        589 2.4733e+01 0.0000e+00
      3.714    17.0680     4.9249     49.952  26.731253     31.680      7.128   224.1408     7.4080     0.9708     0.0199      0.059      3.643      5.283        590 2.4452e+01 0.0000e+00
      3.730    16.9540     4.9549     50.180  26.574556     31.492      7.123   224.6330     7.4080     1.0648     0.0198      0.057      3.658      5.305        591 2.4147e+01 0.0000e+00
      3.746    16.8589     4.9965     50.531  26.438596     31.430      7.123   224.7844     7.3797     0.9842     0.0197      0.056      3.674      5.329        592 2.3799e+01 0.0000e+00
      3.764    16.7628     5.0285     50.786  26.396516     31.450      7.121   224.9358     7.0441     0.9842     0.0197      0.058      3.691      5.354        593 2.3484e+01 0.0000e+00
      3.783    16.6492     5.0854     51.289  26.271223     31.387      7.116   225.2008     7.0481     1.0648     0.0197      0.060      3.709      5.380        594 2.3212e+01 0.0000e+00
      3.800    16.5372     5.1176     51.537  26.090596     31.225      7.113   225.5037     7.0441     1.1185     0.0196      0.063      3.727      5.405        595 2.2869e+01 0.0000e+00
      3.818    16.4307     5.1371     51.654  25.969156     31.176      7.112   225.4280     7.0360     1.1051     0.0195      0.066      3.745      5.431        596 2.2410e+01 0.0000e+00
      3.837    16.3240     5.1187     51.398  25.918435     31.193      7.111   225.3523     5.9199     0.8634     0.0195      0.068      3.763      5.458        597 2.1979e+01 0.0000e+00
      3.856    16.2228     5.0389     50.544  25.857312     31.206      7.108   225.8444     5.9037     0.8231     0.0194      0.070      3.782      5.485        598 2.1596e+01 0.0000e+00
      3.875    16.1316     4.8809     48.910  25.748817     31.151      7.105   225.9958     5.9240     0.8231     0.0194      0.071      3.800      5.510        599 2.1163e+01 0.0000e+00
      3.892    16.0489     4.6505     46.541  25.668118     31.126      7.105   226.3366     5.9401     0.8634     0.0193      0.072      3.816      5.534        600 2.0891e+01 0.0000e+00
      3.906    15.9763     4.3380     43.357  25.602047     31.127      7.103   226.5637     5.2285     0.6217     0.0193      0.071      3.830      5.554        601 2.0715e+01 0.0000e+00
      3.918    15.9111     4.0124     40.064  25.564279     31.122      7.104   226.9801     5.2082     0.5277     0.0192      0.068      3.842      5.573        602 2.0442e+01 0.0000e+00
      3.931    15.8481     3.6760     36.683  25.537287     31.177      7.103   227.0937     5.2163     0.6754     0.0192      0.065      3.855      5.592        603 2.0212e+01 0.0000e+00
      3.945    15.7826     3.3393     33.315  25.398515     31.022      7.103   227.6994     5.2082     0.6485     0.0192      0.062      3.870      5.613        604 1.9895e+01 0.0000e+00
      3.962    15.7124     3.0304     30.222  25.381277     31.070      7.103   227.2073     5.1031     0.8365     0.0191      0.059      3.887      5.638        605 1.9436e+01 0.0000e+00
      3.985    15.6403     2.7726     27.620  25.380900     31.120      7.100   228.0401     5.0788     0.7828     0.0191      0.059      3.905      5.665        606 1.9109e+01 0.0000e+00
      4.000    15.5760     2.5785     25.655  25.280433     31.036      7.094   228.1159     5.0708     0.7694     0.0191      0.060      3.919      5.685        607 1.8994e+01 0.0000e+00
      4.005    15.5273     2.4351     24.204  25.269181     31.091      7.089   228.0401     5.0950     0.8634     0.0191      0.059      3.927      5.697        608 1.8955e+01 0.0000e+00
      4.012    15.4802     2.3303     23.147  25.276353     31.141      7.089   228.1916     5.1152     0.6217     0.0191      0.056      3.937      5.710        609 1.8721e+01 0.0000e+00
      4.028    15.4207     2.1927     21.750  25.271530     31.178      7.084   228.1916     5.0869     0.5679     0.0191      0.055      3.950      5.730        610 1.8417e+01 0.0000e+00
      4.046    15.3599     2.0374     20.170  25.186271     31.110      7.083   228.5323     5.0748     0.5142     0.0190      0.054      3.964      5.750        611 1.8302e+01 0.0000e+00
      4.053    15.3151     1.8554     18.333  25.145327     31.088      7.080   228.8351     5.0788     0.6351     0.0190      0.051      3.973      5.763        612 1.8262e+01 0.0000e+00
      4.056    15.2867     1.6558     16.337  25.263218     31.308      7.076   228.7594     5.0829     0.5948     0.0191      0.045      3.976      5.768        613 1.8248e+01 0.0000e+00
      4.056    15.2745     1.4054     13.853  25.276725     31.342      7.073   228.9487     5.0263     0.8768     0.0191      0.038      3.979      5.771        614 1.8250e+01 0.0000e+00
      4.059    15.2564     1.0899     10.726  25.187819     31.260      7.072   229.5166     5.0182     0.8768     0.0190      0.033      3.985      5.780        615 1.8008e+01 0.0000e+00
      4.078    15.2075     0.7993      7.855  25.136722     31.201      7.072   229.8194     5.0141     0.7425     0.0190      0.033      4.000      5.801        616 1.7716e+01 0.0000e+00
      4.098    15.1490     0.5175      5.079  25.132817     31.213      7.067   229.6680     5.0263     0.8902     0.0190      0.034      4.016      5.826        617 1.7618e+01 0.0000e+00
      4.111    15.1048     0.2843      2.786  25.133400     31.253      7.062   230.4630     4.4885     0.5814     0.0190      0.035      4.031      5.847        618 1.7392e+01 0.0000e+00
      4.124    15.0696     0.0983      0.962  25.136012     31.298      7.061   230.6144     4.4521     0.6217     0.0190      0.039      4.045      5.867        619 1.7191e+01 0.0000e+00
      4.139    15.0069    -0.0366     -0.357  25.218515     31.438      7.060   230.7280     4.4602     0.5545     0.0190      0.045      4.059      5.887        620 1.7021e+01 0.0000e+00
      4.153    14.9164    -0.1230     -1.199  25.564326     31.882      7.062   230.9930     4.4763     0.6082     0.0192      0.052      4.073      5.906        621 1.6849e+01 0.0000e+00
      4.165    14.8281    -0.1776     -1.730  26.069294     32.596      7.058   231.0309     4.6583     0.6619     0.0195      0.057      4.084      5.923        622 1.6774e+01 0.0000e+00
      4.175    14.7626    -0.1805     -1.755  26.339130     32.985      7.056   231.2959     4.6664     0.6082     0.0196      0.057      4.095      5.940        623 1.6611e+01 0.0000e+00
      4.189    14.7130    -0.1729     -1.678  26.266111     32.988      7.056   231.2580     4.6624     0.5142     0.0196      0.053      4.109      5.960        624 1.6391e+01 0.0000e+00
      4.205    14.6453    -0.1523     -1.476  26.426997     33.184      7.053   231.4094     4.6745     0.6351     0.0196      0.052      4.123      5.980        625 1.6263e+01 0.0000e+00
      4.217    14.5731    -0.1242     -1.202  26.939363     33.961      7.046   231.6744     4.4116     0.6217     0.0199      0.052      4.137      5.999        626 1.6124e+01 0.0000e+00
      4.232    14.5126    -0.0937     -0.905  27.199723     34.268      7.042   232.2423     4.4157     0.6888     0.0200      0.052      4.150      6.019        627 1.5939e+01 0.0000e+00
      4.245    14.4524    -0.0640     -0.617  27.318493     34.542      7.037   232.3937     4.4116     0.6082     0.0201      0.052      4.165      6.042        628 1.5746e+01 0.0000e+00
      4.266    14.3808    -0.0306     -0.294  27.414156     34.666      7.027   232.9994     4.4036     0.5679     0.0201      0.055      4.184      6.068        629 1.5496e+01 0.0000e+00
      4.288    14.3039     0.0051      0.049  27.436454     34.789      7.020   233.1509     4.4642     0.9842     0.0202      0.059      4.203      6.096        630 1.5307e+01 0.0000e+00
      4.304    14.2322     0.0295      0.283  27.468649     34.853      7.013   233.6052     4.4561     1.0916     0.0202      0.063      4.221      6.122        631 1.5130e+01 0.0000e+00
      4.321    14.1602     0.0504      0.483  27.492706     34.992      7.005   233.7944     4.4683     1.0379     0.0202      0.065      4.237      6.145        632 1.4936e+01 0.0000e+00
      4.336    14.0867     0.0736      0.706  27.525131     35.056      6.998   234.7409     4.4683     0.9305     0.0202      0.067      4.252      6.167        633 1.4761e+01 0.0000e+00
      4.352    14.0130     0.0903      0.865  27.517264     35.156      6.987   234.9302     4.4319     1.0916     0.0202      0.068      4.267      6.189        634 1.4611e+01 0.0000e+00
      4.367    13.9358     0.0929      0.891  27.472877     35.115      6.983   235.9144     5.0869     2.2464     0.0202      0.067      4.283      6.211        635 1.4388e+01 0.0000e+00
      4.383    13.8534     0.1018      0.976  27.491458     35.253      6.974   237.0123     5.0991     2.3404     0.0202      0.066      4.298      6.234        636 1.4154e+01 0.0000e+00
      4.399    13.7720     0.0990      0.948  27.583108     35.394      6.964   236.5202     5.0586     2.1927     0.0202      0.064      4.313      6.255        637 1.4044e+01 0.0000e+00
      4.411    13.6930     0.1114      1.065  27.625671     35.578      6.954   236.6716     5.0708     2.3136     0.0203      0.061      4.326      6.274        638 1.3890e+01 0.0000e+00
      4.425    13.6140     0.1143      1.092  27.586755     35.544      6.950   237.0123     5.9078     3.8041     0.0202      0.060      4.339      6.294        639 1.3656e+01 0.0000e+00
      4.439    13.5442     0.1231      1.179  27.572276     35.653      6.939   236.8609     5.9078     3.6967     0.0202      0.058      4.351      6.311        640 1.3505e+01 0.0000e+00
      4.445    13.4940     0.1189      1.144  27.584427     35.689      6.938   237.1259     5.9159     3.6967     0.0202      0.055      4.358      6.321        641 1.3481e+01 0.0000e+00
      4.448    13.4584     0.1161      1.120  27.630956     35.863      6.928   237.0123     5.8997     3.7235     0.0203      0.050      4.362      6.326        642 1.3445e+01 0.0000e+00
      4.450    13.4380     0.1160      1.120  27.573690     35.801      6.923   237.6180     6.2636     5.8586     0.0202      0.042      4.364      6.330        643 1.3438e+01 0.0000e+00
      4.452    13.4480     0.1200      1.155  27.566771     35.834      6.917   238.1480     6.2596     5.8586     0.0202      0.034      4.365      6.331        644 1.3465e+01 0.0000e+00
      4.451    13.4592     0.1332      1.279  27.639582     35.962      6.915   237.7316     6.2879     5.8183     0.0203      0.026      4.367      6.334        645 1.3405e+01 0.0000e+00
      4.457    13.4334     0.1452      1.392  27.572027     35.844      6.906   238.2237     6.2717     5.8451     0.0202      0.019      4.374      6.344        646 1.3244e+01 0.0000e+00
      4.472    13.3824     0.1620      1.552  27.591545     35.868      6.906   237.9209     6.0089     5.8854     0.0202      0.017      4.388      6.364        647 1.2897e+01 0.0000e+00
      4.495    13.3244     0.1753      1.677  27.555998     35.858      6.900   238.5266     6.0331     5.9257     0.0202      0.021      4.402      6.384        648 1.2690e+01 0.0000e+00
      4.499    13.3250     0.1887      1.801  27.527334     35.831      6.891   239.1702     6.0331     5.9123     0.0202      0.026      4.404      6.386        649 1.3022e+01 0.0000e+00
      4.475    13.4352     0.1926      1.835  27.538294     35.960      6.883   239.6245     6.0493     5.7646     0.0202      0.024      4.389      6.365        650 1.3405e+01 0.0000e+00
      4.453    13.6099     0.1964      1.869  27.483080     35.815      6.877   240.3437     6.0331     5.8183     0.0202      0.014      4.373      6.342        651 1.3461e+01 0.0000e+00
      4.450    13.7540     0.1824      1.734  27.477452     35.783      6.875   240.3816     5.5479     5.4691     0.0202      0.004      4.369      6.337        652 1.3334e+01 0.0000e+00
      4.463    13.7422     0.1702      1.617  27.485967     35.549      6.869   240.1166     5.5277     5.4020     0.0202     -0.002      4.377      6.348        653 1.3119e+01 0.0000e+00
      4.476    13.6077     0.1620      1.540  27.561368     35.594      6.860   240.5330     5.5398     5.4557     0.0202     -0.006      4.387      6.363        654 1.2941e+01 0.0000e+00
      4.481    13.5084     0.1472      1.400  27.531807     35.496      6.853   240.0787     5.5317     5.3349     0.0202     -0.008      4.392      6.371        655 1.2992e+01 0.0000e+00
      4.480    13.4543     0.1331      1.266  27.493108     35.625      6.845   240.6087     5.2770     4.1398     0.0202     -0.007      4.395      6.376        656 1.2925e+01 0.0000e+00
      4.487    13.3993     0.1322      1.258  27.520626     35.715      6.842   240.4573     5.2891     4.1666     0.0202      0.003      4.403      6.387        657 1.2725e+01 0.0000e+00
      4.502    13.3369     0.1281      1.219  27.556893     35.838      6.839   240.4952     5.2851     4.1398     0.0202      0.019      4.418      6.409        658 1.2313e+01 0.0000e+00
      4.529    13.2564     0.1264      1.203  27.566586     35.889      6.833   241.5173     5.2891     4.1532     0.0202      0.034      4.443      6.444        659 1.1599e+01 0.0000e+00
      4.561    13.1723     0.1301      1.236  27.597526     35.983      6.821   242.2745     5.6611     4.5158     0.0202      0.046      4.470      6.482        660 1.1176e+01 0.0000e+00
      4.583    13.1066     0.1267      1.202  27.637003     36.133      6.813   243.1830     5.6328     4.5292     0.0203      0.056      4.489      6.512        661 1.0860e+01 0.0000e+00
      4.591    13.0639     0.1280      1.212  27.576781     36.103      6.802   243.2966     5.6611     4.6366     0.0202      0.063      4.499      6.525        662 1.0889e+01 0.0000e+00
      4.588    13.0446     0.1364      1.288  27.553911     36.165      6.796   242.2366     5.6530     4.6098     0.0202      0.066      4.499      6.525        663 1.0915e+01 0.0000e+00
      4.584    13.0611     0.1377      1.297  27.576547     36.206      6.794   242.5395     6.3485     5.2140     0.0202      0.062      4.496      6.521        664 1.0926e+01 0.0000e+00
      4.581    13.0897     0.1409      1.325  27.548628     36.224      6.794   242.0852     6.3526     5.2006     0.0202      0.050      4.498      6.523        665 1.0730e+01 0.0000e+00
      4.595    13.1045     0.1382      1.297  27.588663     36.209      6.791   242.1609     6.3485     5.2812     0.0202      0.038      4.510      6.542        666 1.0011e+01 0.0000e+00
      4.623    13.1207     0.1415      1.327  27.674956     36.363      6.782   242.0852     6.3809     5.2140     0.0203      0.031      4.530      6.570        667 9.5788e+00 0.0000e+00
      4.637    13.1334     0.1406      1.316  27.678406     36.278      6.771   242.5773     7.4403     6.3151     0.0203      0.028      4.545      6.593        668 9.4756e+00 0.0000e+00
      4.644    13.1198     0.1431      1.338  27.614009     36.260      6.768   242.7666     7.3999     6.3017     0.0203      0.030      4.558      6.612        669 8.9535e+00 0.0000e+00
      4.666    13.0478     0.1407      1.314  27.695798     36.250      6.763   242.6909     7.4201     6.3688     0.0203      0.040      4.577      6.639        670 7.8831e+00 0.0000e+00
      4.692    12.9567     0.1408      1.313  28.080628     36.883      6.754   242.1987     7.4242     6.3420     0.0205      0.054      4.598      6.669        671 7.4682e+00 0.0000e+00
      4.706    12.8725     0.1317      1.227  28.202414     37.028      6.749   242.2745     7.4242     6.2748     0.0206      0.064      4.616      6.695        672 7.0024e+00 0.0000e+00
      4.725    12.7600     0.1362      1.267  28.611586     37.671      6.748   241.5930     7.6870     6.9462     0.0208      0.070      4.633      6.720        673 6.3038e+00 0.0000e+00
      4.745    12.6523     0.1329      1.236  29.231781     38.636      6.746   241.2523     7.6829     6.9731     0.0212      0.071      4.651      6.746        674 5.8372e+00 0.0000e+00
      4.759    12.5756     0.1294      1.204  29.328163     38.792      6.746   241.2902     7.6749     6.8791     0.0212      0.070      4.667      6.769        675 5.4626e+00 0.0000e+00
      4.773    12.5196     0.1276      1.186  29.381159     39.050      6.745   241.1009     7.6668     6.9462     0.0213      0.070      4.682      6.790        676 5.1561e+00 0.0000e+00
      4.789    12.4555     0.1211      1.124  29.936770     39.763      6.746   240.7980     6.2798     6.4628     0.0215      0.070      4.697      6.812        677 4.7292e+00 0.0000e+00
      4.806    12.3724     0.1184      1.098  30.652988     40.938      6.744   240.4573     6.2879     6.4360     0.0220      0.067      4.712      6.835        678 4.4701e+00 0.0000e+00
      4.819    12.3063     0.1186      1.098  30.772989     41.007      6.744   239.9273     6.3000     6.5165     0.0220      0.063      4.726      6.855        679 4.2207e+00 0.0000e+00
      4.833    12.2554     0.1160      1.073  30.914210     41.399      6.743   239.5487     6.2798     6.5702     0.0221      0.062      4.740      6.875        680 3.9469e+00 0.0000e+00
      4.847    12.2047     0.1131      1.044  31.159269     41.734      6.739   239.3973     6.4779     6.3017     0.0223      0.059      4.752      6.892        681 3.7669e+00 0.0000e+00
      4.856    12.1590     0.1132      1.043  31.239004     41.941      6.738   238.3373     6.4699     6.2077     0.0223      0.056      4.762      6.907        682 3.5954e+00 0.0000e+00
      4.866    12.1241     0.1198      1.102  31.378401     42.149      6.739   237.6180     6.4820     6.2211     0.0224      0.054      4.771      6.920        683 3.4436e+00 0.0000e+00
      4.873    12.1053     0.1234      1.134  31.489908     42.388      6.737   236.7852     6.4901     6.3420     0.0225      0.049      4.778      6.931        684 3.3450e+00 0.0000e+00
      4.881    12.0898     0.1279      1.174  31.456089     42.354      6.735   236.1037     5.9361     5.5363     0.0224      0.045      4.787      6.944        685 3.1831e+00 0.0000e+00
      4.892    12.0624     0.1310      1.201  31.479810     42.412      6.732   234.7787     5.9118     5.4960     0.0225      0.041      4.798      6.959        686 3.0387e+00 0.0000e+00
      4.903    12.0168     0.1248      1.142  31.727276     42.769      6.732   233.5294     5.8876     5.4154     0.0226      0.039      4.809      6.976        687 2.8626e+00 0.0000e+00
      4.918    11.9595     0.1240      1.133  32.156343     43.365      6.726   232.0151     5.9037     5.4557     0.0229      0.039      4.824      6.998        688 2.6605e+00 0.0000e+00
      4.937    11.8991     0.1244      1.136  32.725084     44.212      6.722   230.5766     5.7865     5.4557     0.0232      0.042      4.844      7.026        689 2.4495e+00 0.0000e+00
      4.962    11.8308     0.1208      1.102  33.213932     44.923      6.715   229.7437     5.7946     5.4691     0.0235      0.049      4.868      7.061        690 2.1456e+00 0.0000e+00
      4.994    11.7580     0.1163      1.061  33.564547     45.489      6.706   228.3051     5.7582     5.4154     0.0237      0.060      4.897      7.103        691 1.9098e+00 0.0000e+00
      5.024    11.6892     0.1211      1.102  33.801216     45.877      6.692   226.8287     5.7703     5.4289     0.0238      0.073      4.925      7.143        692 1.7465e+00 0.0000e+00
      5.048    11.6241     0.1141      1.037  33.987055     46.234      6.677   225.9201     5.7380     5.4557     0.0240      0.084      4.950      7.180        693 1.6306e+00 0.0000e+00
      5.072    11.5680     0.1208      1.096  34.104376     46.473      6.665   225.8066     4.6300     5.5094     0.0240      0.093      4.973      7.213        694 1.5201e+00 0.0000e+00
      5.092    11.5169     0.1210      1.097  34.218722     46.708      6.654   225.4658     4.6017     5.4154     0.0241      0.098      4.995      7.244        695 1.4344e+00 0.0000e+00
      5.117    11.4571     0.1195      1.083  34.408266     47.048      6.643   221.3394     4.5855     5.4557     0.0242      0.100      5.018      7.279        696 1.3715e+00 0.0000e+00
      5.143    11.3966     0.1208      1.094  34.580290     47.342      6.638   218.1215     4.5936     5.4020     0.0243      0.100      5.042      7.314        697 1.2910e+00 0.0000e+00
      5.166    11.3408     0.1205      1.091  34.775760     47.689      6.628   213.2758     4.6624     5.0932     0.0245      0.098      5.065      7.347        698 1.2436e+00 0.0000e+00
      5.187    11.2903     0.1185      1.072  35.114085     48.229      6.623   209.1872     4.6826     5.2140     0.0247      0.094      5.087      7.378        699 1.2100e+00 0.0000e+00
      5.209    11.2552     0.1153      1.043  35.345605     48.649      6.614   206.1208     4.6826     5.1872     0.0248      0.092      5.109      7.409        700 1.1678e+00 0.0000e+00
      5.231    11.2200     0.1125      1.017  35.496052     48.871      6.612   202.7893     4.6462     5.1603     0.0249      0.090      5.130      7.439        701 1.0916e+00 0.0000e+00
      5.251    11.1630     0.1059      0.958  35.757328     49.342      6.606   199.4579     4.4723     5.1872     0.0251      0.089      5.151      7.470        702 1.0212e+00 0.0000e+00
      5.274    11.0994     0.1095      0.990  35.969563     49.620      6.606   196.5429     4.4561     5.3886     0.0252      0.088      5.172      7.501        703 9.7602e-01 0.0000e+00
      5.297    11.0421     0.1005      0.908  36.151391     50.009      6.599   194.0822     4.4561     5.2274     0.0254      0.087      5.193      7.532        704 9.3609e-01 0.0000e+00
      5.315    10.9949     0.1017      0.919  36.124265     50.020      6.598   192.3407     4.4804     5.3483     0.0253      0.085      5.211      7.558        705 8.8372e-01 0.0000e+00
      5.330    10.9642     0.0991      0.895  35.944031     49.866      6.596   190.1450     4.1650     4.1264     0.0252      0.082      5.225      7.578        706 8.6202e-01 0.0000e+00
      5.339    10.9413     0.0984      0.888  35.901162     49.855      6.595   188.7822     4.1407     4.1532     0.0252      0.077      5.236      7.594        707 8.6133e-01 0.0000e+00
      5.349    10.9161     0.1020      0.919  35.821723     49.819      6.596   187.0407     4.1569     4.1532     0.0252      0.071      5.246      7.609        708 8.6284e-01 0.0000e+00
      5.361    10.8983     0.1046      0.941  35.657336     49.579      6.593   185.9807     4.1367     4.1129     0.0251      0.064      5.256      7.622        709 8.5654e-01 0.0000e+00
      5.367    10.8964     0.1061      0.953  35.571884     49.535      6.595   183.7472     3.9021     3.7235     0.0250      0.056      5.262      7.631        710 8.3335e-01 0.0000e+00
      5.368    10.8859     0.1007      0.906  35.601827     49.561      6.592   182.6493     3.8658     3.6564     0.0250      0.046      5.265      7.636        711 8.3074e-01 0.0000e+00
      5.371    10.8648     0.1029      0.926  35.709058     49.757      6.593   181.2864     3.8819     3.7504     0.0251      0.036      5.268      7.640        712 8.2175e-01 0.0000e+00
      5.375    10.8471     0.0941      0.847  35.735032     49.771      6.592   179.9614     3.8981     3.6564     0.0251      0.029      5.277      7.653        713 8.0229e-01 0.0000e+00
      5.399    10.8294     0.0958      0.864  35.836441     49.958      6.589   178.4093     3.8779     3.6698     0.0252      0.028      5.293      7.677        714 7.7636e-01 0.0000e+00
      5.416    10.8223     0.0943      0.849  35.998098     50.215      6.584   176.5164     3.4533     3.5221     0.0253      0.032      5.311      7.703        715 7.3080e-01 0.0000e+00
      5.431    10.8116     0.0909      0.817  35.949097     50.163      6.580   175.0021     3.4654     3.6027     0.0253      0.037      5.332      7.734        716 7.1154e-01 0.0000e+00
      5.469    10.7725     0.1001      0.898  36.283008     50.602      6.570   173.3743     3.4331     3.4818     0.0255      0.049      5.362      7.777        717 6.9450e-01 0.0000e+00
      5.502    10.7162     0.0972      0.872  36.857946     51.513      6.566   171.4057     3.4452     3.4952     0.0259      0.065      5.392      7.821        718 6.5271e-01 0.0000e+00
      5.526    10.6531     0.0981      0.879  37.102215     51.805      6.568   168.0742     3.2390     3.0253     0.0260      0.081      5.417      7.856        719 6.3327e-01 0.0000e+00
      5.544    10.6230     0.0965      0.864  37.462089     52.473      6.564   165.4242     3.2430     3.0655     0.0262      0.092      5.432      7.878        720 6.3905e-01 0.0000e+00
      5.546    10.6490     0.1009      0.903  37.359287     52.409      6.564   163.1528     3.2269     2.9984     0.0262      0.092      5.437      7.886        721 6.4735e-01 0.0000e+00
      5.543    10.6820     0.0935      0.837  36.755599     51.555      6.566   159.5942     3.2309     3.0924     0.0258      0.082      5.437      7.886        722 6.5051e-01 0.0000e+00
      5.545    10.7117     0.1021      0.914  36.582009     51.316      6.568   155.5814     3.1986     3.3207     0.0257      0.069      5.440      7.890        723 6.5653e-01 0.0000e+00
      5.554    10.7208     0.0940      0.842  36.804116     51.546      6.571   152.0985     3.1905     3.2938     0.0258      0.054      5.448      7.902        724 6.4698e-01 0.0000e+00
      5.569    10.6767     0.1006      0.900  37.754615     52.832      6.572   148.7671     3.1541     3.2535     0.0264      0.039      5.462      7.922        725 6.2791e-01 0.0000e+00
      5.587    10.6129     0.0980      0.876  38.780591     54.343      6.577   145.3978     3.1622     3.3341     0.0271      0.032      5.477      7.946        726 6.0052e-01 0.0000e+00
      5.602    10.5582     0.1004      0.897  39.027507     54.647      6.580   142.8992     3.1662     2.8238     0.0272      0.032      5.492      7.966        727 5.8116e-01 0.0000e+00
      5.613    10.5108     0.1026      0.916  39.197494     55.059      6.581   141.3470     3.1783     2.9178     0.0273      0.036      5.504      7.983        728 5.6539e-01 0.0000e+00
      5.623    10.4726     0.0940      0.839  39.281017     55.222      6.581   139.6813     3.1864     2.8507     0.0274      0.043      5.514      7.998        729 5.6341e-01 0.0000e+00
      5.632    10.4474     0.1048      0.934  39.220238     55.218      6.584   137.6370     3.1824     2.7970     0.0273      0.048      5.525      8.013        730 5.6281e-01 0.0000e+00
      5.646    10.4354     0.1007      0.897  39.213829     55.277      6.585   135.7442     2.9762     3.1595     0.0274      0.050      5.538      8.031        731 5.4497e-01 0.0000e+00
      5.660    10.4346     0.0984      0.876  39.051698     55.080      6.587   133.5106     3.0085     3.0924     0.0273      0.050      5.553      8.054        732 5.2380e-01 0.0000e+00
      5.680    10.4407     0.1034      0.920  38.858401     54.822      6.587   130.7470     3.0125     3.0521     0.0271      0.050      5.570      8.079        733 5.0580e-01 0.0000e+00
      5.699    10.4426     0.1035      0.921  38.683124     54.587      6.589   128.2484     3.0004     3.0387     0.0270      0.052      5.589      8.106        734 4.9508e-01 0.0000e+00
      5.718    10.4226     0.0971      0.864  38.646886     54.499      6.588   126.1663     2.9762     3.1193     0.0270      0.057      5.608      8.134        735 4.8150e-01 0.0000e+00
      5.740    10.3820     0.0906      0.806  38.844170     54.810      6.587   123.8570     3.1339     3.2535     0.0271      0.063      5.628      8.163        736 4.8406e-01 0.0000e+00
      5.759    10.3495     0.0920      0.818  39.119880     55.196      6.585   122.1155     3.1379     3.3475     0.0273      0.069      5.647      8.191        737 4.7563e-01 0.0000e+00
      5.778    10.3264     0.0846      0.752  39.075046     55.261      6.583   120.7148     3.1096     3.3878     0.0273      0.073      5.666      8.217        738 4.6201e-01 0.0000e+00
      5.795    10.2904     0.0904      0.803  39.226289     55.391      6.582   119.6170     3.1096     3.2938     0.0273      0.075      5.683      8.242        739 4.3953e-01 0.0000e+00
      5.812    10.2484     0.0856      0.760  40.236944     57.008      6.581   118.4055     2.9721     3.0387     0.0280      0.075      5.698      8.265        740 4.4368e-01 0.0000e+00
      5.827    10.2139     0.0882      0.783  41.021198     58.098      6.577   116.8912     2.9883     3.1327     0.0285      0.073      5.713      8.286        741 4.6503e-01 0.0000e+00
      5.840    10.1902     0.0883      0.783  41.068592     58.285      6.578   115.6420     2.9883     3.1595     0.0286      0.070      5.727      8.306        742 4.4075e-01 0.0000e+00
      5.853    10.1764     0.0937      0.831  40.919650     58.065      6.578   114.3927     3.0206     3.1461     0.0285      0.066      5.740      8.326        743 4.2562e-01 0.0000e+00
      5.868    10.1666     0.0955      0.846  40.820902     58.024      6.580   112.5755     3.2471     3.1327     0.0284      0.062      5.752      8.343        744 4.2685e-01 0.0000e+00
      5.875    10.1652     0.0955      0.846  40.716825     57.849      6.581   110.9098     3.2430     3.0924     0.0284      0.057      5.762      8.357        745 4.3572e-01 0.0000e+00
      5.884    10.1714     0.0978      0.865  40.455846     57.546      6.582   109.5091     3.2228     3.1595     0.0282      0.052      5.771      8.370        746 4.4819e-01 0.0000e+00
      5.896    10.1649     0.0929      0.822  40.463361     57.470      6.581   108.0705     3.2430     3.0655     0.0282      0.049      5.785      8.390        747 4.0109e-01 0.0000e+00
      5.917    10.1396     0.0964      0.852  40.440476     57.577      6.584   107.6919     2.6810     3.1461     0.0282      0.048      5.805      8.420        748 3.8175e-01 0.0000e+00
      5.947    10.1082     0.0996      0.880  39.742681     56.436      6.581   105.7612     2.6810     3.0521     0.0277      0.053      5.828      8.453        749 4.1844e-01 0.0000e+00
      5.963    10.0833     0.0971      0.858  39.314496     55.959      6.579   104.2469     2.6486     3.0924     0.0275      0.058      5.846      8.479        750 3.8626e-01 0.0000e+00
      5.972    10.0672     0.0931      0.821  39.282431     55.931      6.579   103.1491     2.6850     3.1595     0.0275      0.061      5.857      8.495        751 3.6477e-01 0.0000e+00
      5.982    10.0509     0.0946      0.834  39.159639     55.811      6.577   101.7483     2.1310     2.1390     0.0274      0.063      5.867      8.509        752 3.7899e-01 0.0000e+00
      5.993    10.0318     0.0893      0.787  39.052020     55.677      6.576   100.9533     2.1472     2.2330     0.0273      0.063      5.880      8.528        753 3.7267e-01 0.0000e+00
      6.011    10.0088     0.0922      0.812  38.912079     55.503      6.579    99.4012     2.1229     2.2062     0.0273      0.063      5.898      8.553        754 3.7284e-01 0.0000e+00
      6.037     9.9766     0.0907      0.799  38.799845     55.375      6.575    98.1140     2.1310     2.2062     0.0272      0.063      5.919      8.585        755 3.7544e-01 0.0000e+00
      6.059     9.9451     0.0928      0.817  38.687414     55.250      6.576    97.0162     2.0825     1.8436     0.0271      0.062      5.938      8.612        756 3.6894e-01 0.0000e+00
      6.068     9.9247     0.0901      0.793  38.696046     55.302      6.573    95.8805     2.0946     1.9242     0.0271      0.061      5.951      8.631        757 3.4249e-01 0.0000e+00
      6.079     9.9082     0.0925      0.814  38.759457     55.472      6.575    94.4040     2.0946     1.9107     0.0272      0.062      5.963      8.649        758 3.2227e-01 0.0000e+00
      6.096     9.8855     0.0940      0.826  38.697507     55.384      6.574    93.2305     2.0906     1.7630     0.0272      0.064      5.979      8.672        759 3.3780e-01 0.0000e+00
      6.115     9.8568     0.0928      0.816  38.506180     55.170      6.575    92.3219     2.0623     1.7765     0.0270      0.066      5.998      8.700        760 3.2956e-01 0.0000e+00
      6.138     9.8299     0.0948      0.833  38.344972     54.925      6.577    91.1862     2.0946     1.8705     0.0269      0.067      6.020      8.731        761 3.1618e-01 0.0000e+00
      6.161     9.8061     0.0909      0.798  38.304872     54.971      6.582    90.2397     2.0866     1.9107     0.0269      0.068      6.041      8.762        762 3.1200e-01 0.0000e+00
      6.180     9.7889     0.0931      0.817  38.289129     54.932      6.583    88.6119     2.0623     1.8167     0.0269      0.069      6.059      8.788        763 3.1007e-01 0.0000e+00
      6.194     9.7775     0.0858      0.752  38.334915     55.091      6.587    87.5140     2.0866     1.9107     0.0270      0.071      6.074      8.809        764 3.3285e-01 0.0000e+00
      6.206     9.7618     0.0935      0.820  38.336895     55.078      6.586    86.5676     2.0340     1.9242     0.0270      0.073      6.087      8.829        765 3.0711e-01 0.0000e+00
      6.222     9.7382     0.0927      0.812  38.316338     55.096      6.588    84.9397     2.0219     1.8973     0.0270      0.072      6.101      8.849        766 2.9673e-01 0.0000e+00
      6.235     9.7132     0.0950      0.832  38.330843     55.121      6.590    84.1447     2.0178     1.9376     0.0270      0.068      6.114      8.868        767 3.1479e-01 0.0000e+00
      6.245     9.6938     0.0874      0.765  38.378179     55.239      6.596    82.9333     2.0016     1.8302     0.0270      0.063      6.129      8.889        768 2.9548e-01 0.0000e+00
      6.270     9.6728     0.0990      0.866  38.494745     55.440      6.593    81.9111     2.0582     1.9242     0.0271      0.060      6.149      8.919        769 3.0346e-01 0.0000e+00
      6.296     9.6471     0.0918      0.803  38.690069     55.753      6.594    80.8890     2.1027     1.8973     0.0272      0.061      6.172      8.951        770 3.0495e-01 0.0000e+00
      6.312     9.6297     0.0934      0.817  38.787714     55.947      6.592    80.1319     2.0987     1.9376     0.0273      0.064      6.194      8.983        771 2.9411e-01 0.0000e+00
      6.342     9.6112     0.0935      0.817  38.818197     55.989      6.594    79.2233     2.0663     1.8570     0.0273      0.071      6.220      9.022        772 2.9930e-01 0.0000e+00
      6.375     9.5867     0.0940      0.821  39.156436     56.543      6.592    78.2011     1.8520     1.8705     0.0275      0.081      6.246      9.060        773 2.6509e-01 0.0000e+00
      6.390     9.5691     0.0925      0.808  39.316049     56.813      6.589    77.1411     1.9046     2.0182     0.0276      0.087      6.266      9.089        774 2.8148e-01 0.0000e+00
      6.405     9.5485     0.0823      0.719  39.272189     56.735      6.590    76.2704     1.8763     1.9779     0.0276      0.090      6.283      9.114        775 2.7626e-01 0.0000e+00
      6.430     9.5263     0.0860      0.752  39.507678     57.166      6.587    75.0590     1.8884     1.8302     0.0278      0.091      6.303      9.143        776 2.2477e-01 0.0000e+00
      6.448     9.5103     0.0854      0.746  39.586630     57.282      6.591    74.2261     1.7954     1.8033     0.0278      0.088      6.323      9.170        777 2.4932e-01 0.0000e+00
      6.465     9.4903     0.0845      0.738  39.707916     57.480      6.593    73.1283     1.8318     1.8705     0.0279      0.084      6.341      9.196        778 2.4588e-01 0.0000e+00
      6.484     9.4635     0.0885      0.773  40.484047     58.642      6.591    72.2954     1.8197     2.0182     0.0284      0.081      6.360      9.224        779 2.3711e-01 0.0000e+00
      6.507     9.4416     0.0825      0.720  41.053379     59.566      6.595    71.6897     1.8399     1.9376     0.0288      0.077      6.380      9.254        780 2.4255e-01 0.0000e+00
      6.527     9.4309     0.0881      0.769  41.046389     59.492      6.598    70.7433     1.7995     1.8973     0.0287      0.075      6.400      9.282        781 2.2533e-01 0.0000e+00
      6.544     9.4213     0.0908      0.792  41.204767     59.854      6.597    70.2511     1.8803     1.8973     0.0289      0.077      6.417      9.306        782 2.3245e-01 0.0000e+00
      6.557     9.4136     0.0914      0.797  41.508977     60.239      6.598    69.3425     1.8642     1.8705     0.0291      0.075      6.430      9.326        783 2.4427e-01 0.0000e+00
      6.568     9.4153     0.0856      0.745  41.379834     60.173      6.602    68.3204     1.8884     1.9242     0.0290      0.071      6.441      9.342        784 2.3333e-01 0.0000e+00
      6.578     9.4107     0.0892      0.776  41.217150     59.782      6.603    67.9797     1.8965     1.9376     0.0288      0.066      6.452      9.357        785 2.0806e-01 0.0000e+00
      6.591     9.4012     0.0900      0.782  41.474097     60.345      6.602    67.2604     1.9410     1.9645     0.0291      0.061      6.463      9.373        786 2.0330e-01 0.0000e+00
      6.601     9.3993     0.0871      0.757  41.594090     60.355      6.605    66.3518     1.9531     1.8705     0.0291      0.055      6.474      9.389        787 2.1265e-01 0.0000e+00
      6.612     9.4011     0.0913      0.793  41.750185     60.737      6.608    65.2161     1.9127     1.9376     0.0293      0.049      6.484      9.404        788 1.9962e-01 0.0000e+00
      6.622     9.4052     0.0855      0.742  41.932544     60.903      6.608    64.6104     1.9733     1.9376     0.0293      0.045      6.495      9.421        789 2.1943e-01 0.0000e+00
      6.636     9.4005     0.0867      0.752  41.930848     60.981      6.611    64.2697     1.9046     1.6825     0.0294      0.044      6.509      9.441        790 2.3304e-01 0.0000e+00
      6.656     9.3732     0.0909      0.788  42.167655     61.218      6.611    63.1718     1.8722     1.6825     0.0295      0.046      6.530      9.471        791 2.1643e-01 0.0000e+00
      6.687     9.3296     0.0921      0.798  42.765268     62.200      6.608    62.7175     1.8844     1.6153     0.0299      0.053      6.556      9.508        792 2.0274e-01 0.0000e+00
      6.713     9.2818     0.0866      0.750  43.471693     63.186      6.605    62.5661     1.8965     1.6690     0.0303      0.063      6.580      9.542        793 2.1371e-01 0.0000e+00
      6.728     9.2411     0.0840      0.727  43.869845     63.958      6.604    61.8847     1.9086     1.6959     0.0307      0.070      6.596      9.567        794 2.0941e-01 0.0000e+00
      6.740     9.2093     0.0907      0.784  44.287425     64.497      6.602    61.4682     1.8965     1.6556     0.0309      0.074      6.608      9.585        795 1.8351e-01 0.0000e+00
      6.751     9.1893     0.0988      0.854  44.791704     65.512      6.604    60.4461     1.8763     1.6422     0.0313      0.075      6.618      9.599        796 2.0183e-01 0.0000e+00
      6.754     9.1858     0.0886      0.765  44.369848     64.797      6.602    59.8782     1.8722     1.7093     0.0310      0.071      6.625      9.609        797 2.2161e-01 0.0000e+00
      6.763     9.1786     0.0896      0.773  44.248659     64.672      6.602    59.5375     1.9814     1.6825     0.0309      0.063      6.635      9.624        798 2.2406e-01 0.0000e+00
      6.781     9.1552     0.0873      0.754  45.387637     66.395      6.603    58.7425     1.9612     1.6825     0.0317      0.055      6.653      9.649        799 2.0112e-01 0.0000e+00
      6.807     9.1243     0.0869      0.750  46.453874     67.963      6.604    58.2504     1.9572     1.6825     0.0324      0.050      6.679      9.687        800 2.0882e-01 0.0000e+00
      6.845     9.0923     0.0873      0.753  47.639992     69.689      6.601    57.8339     1.9369     1.7093     0.0331      0.057      6.714      9.737        801 1.9831e-01 0.0000e+00
      6.885     9.0622     0.0848      0.731  49.045553     71.923      6.599    57.8718     1.9450     1.6556     0.0341      0.071      6.750      9.790        802 1.6387e-01 0.0000e+00
      6.919     9.0301     0.0808      0.696  50.402890     73.838      6.597    57.0389     1.9531     1.9645     0.0349      0.088      6.783      9.839        803 1.8358e-01 0.0000e+00
      6.947     8.9967     0.0864      0.744  51.590022     75.831      6.593    56.3575     1.9572     1.8839     0.0358      0.104      6.812      9.879        804 1.6908e-01 0.0000e+00
      6.971     8.9697     0.0821      0.707  52.317265     76.767      6.592    55.9411     2.0057     1.8973     0.0362      0.116      6.838      9.918        805 1.5088e-01 0.0000e+00
      7.003     8.9481     0.0875      0.753  52.852047     77.830      6.585    54.9568     1.9612     1.9107     0.0367      0.123      6.866      9.959        806 1.8334e-01 0.0000e+00
      7.031     8.9308     0.0867      0.745  53.269564     78.304      6.584    54.1618     1.9895     1.8570     0.0369      0.124      6.891      9.995        807 1.6060e-01 0.0000e+00
      7.046     8.9205     0.0915      0.786  53.549096     78.971      6.581    54.5025     2.0259     1.8705     0.0372      0.118      6.911     10.024        808 1.4888e-01 0.0000e+00
      7.065     8.9079     0.0844      0.725  54.077523     79.548      6.581    54.7296     2.0340     1.8436     0.0374      0.107      6.933     10.055        809 1.7594e-01 0.0000e+00
      7.098     8.8844     0.0889      0.763  54.897814     81.056      6.582    54.1618     2.0178     1.9779     0.0381      0.101      6.963     10.098        810 1.5071e-01 0.0000e+00
      7.135     8.8555     0.0893      0.766  55.675109     81.952      6.583    53.6696     1.9410     1.9107     0.0385      0.101      6.994     10.143        811 1.4137e-01 0.0000e+00
      7.160     8.8309     0.0841      0.721  56.761877     83.867      6.582    52.9882     1.9329     1.7899     0.0393      0.102      7.019     10.180        812 1.3746e-01 0.0000e+00
      7.177     8.8146     0.0884      0.758  57.078412     84.269      6.585    52.3068     1.9572     1.8705     0.0395      0.102      7.038     10.207        813 1.3395e-01 0.0000e+00
      7.192     8.7994     0.0851      0.729  57.181364     84.455      6.587    50.8303     1.9450     1.8705     0.0396      0.097      7.055     10.232        814 1.4906e-01 0.0000e+00
      7.214     8.7775     0.0845      0.724  57.880808     85.654      6.592    50.2246     1.9774     1.8167     0.0401      0.095      7.078     10.266        815 1.3639e-01 0.0000e+00
      7.246     8.7517     0.0841      0.720  58.642711     86.644      6.592    50.3003     1.9572     1.8973     0.0405      0.096      7.111     10.314        816 1.3103e-01 0.0000e+00
      7.295     8.7246     0.0877      0.751  59.885438     88.730      6.592    50.4139     1.9572     1.9376     0.0415      0.102      7.154     10.377        817 1.2793e-01 0.0000e+00
      7.346     8.6960     0.0910      0.779  61.115061     90.456      6.588    49.5811     1.9369     1.8436     0.0422      0.110      7.198     10.440        818 1.2932e-01 0.0000e+00
      7.379     8.6687     0.0927      0.793  62.160773     92.230      6.588    49.3539     2.0178     1.9107     0.0430      0.119      7.232     10.489        819 1.4130e-01 0.0000e+00
      7.398     8.6465     0.0940      0.804  62.652613     92.931      6.585    49.4296     2.0421     1.9376     0.0433      0.127      7.254     10.521        820 1.2989e-01 0.0000e+00
      7.415     8.6287     0.0921      0.788  62.819458     93.298      6.587    48.9753     2.0016     1.8973     0.0435      0.131      7.273     10.548        821 1.2958e-01 0.0000e+00
      7.435     8.6133     0.0929      0.794  63.497526     94.316      6.589    48.5210     2.0138     1.9779     0.0439      0.129      7.293     10.577        822 1.2805e-01 0.0000e+00
      7.458     8.6035     0.0795      0.679  64.184799     95.489      6.592    48.0668     2.0785     1.8570     0.0445      0.120      7.314     10.608        823 1.2391e-01 0.0000e+00
      7.480     8.5980     0.0847      0.724  64.191714     95.450      6.596    47.6125     2.0866     1.8705     0.0444      0.107      7.335     10.639        824 1.2634e-01 0.0000e+00
      7.503     8.5900     0.0791      0.676  64.617574     96.103      6.601    47.2718     2.0866     1.8570     0.0447      0.093      7.358     10.672        825 1.2493e-01 0.0000e+00
      7.526     8.5798     0.0811      0.693  65.377555     97.367      6.605    46.7039     2.0704     1.8436     0.0453      0.085      7.381     10.705        826 1.2582e-01 0.0000e+00
      7.550     8.5680     0.0797      0.681  65.592428     97.557      6.608    45.7953     2.0542     1.9376     0.0454      0.084      7.404     10.739        827 1.2526e-01 0.0000e+00
      7.572     8.5524     0.0826      0.706  66.340292     98.796      6.612    45.3410     2.0663     1.8705     0.0459      0.087      7.425     10.770        828 1.2563e-01 0.0000e+00
      7.592     8.5368     0.0896      0.765  67.328187    100.290      6.616    44.2432     2.0785     1.9645     0.0466      0.088      7.445     10.798        829 1.2536e-01 0.0000e+00
      7.611     8.5228     0.0911      0.777  67.808813    101.045      6.618    43.9782     2.0987     1.8570     0.0469      0.087      7.465     10.827        830 1.2549e-01 0.0000e+00
      7.634     8.5081     0.0891      0.761  68.326600    101.844      6.622    42.9560     2.0906     1.9645     0.0473      0.086      7.487     10.860        831 1.2552e-01 0.0000e+00
      7.661     8.4943     0.0807      0.689  69.000982    102.930      6.624    42.4639     1.9612     1.7899     0.0478      0.087      7.512     10.895        832 1.2546e-01 0.0000e+00
      7.685     8.4830     0.0820      0.699  69.494743    103.686      6.629    41.9717     1.9531     1.6959     0.0481      0.088      7.536     10.930        833 1.2546e-01 0.0000e+00
      7.706     8.4748     0.0751      0.641  69.851157    104.272      6.635    41.3282     1.9531     1.6153     0.0484      0.088      7.556     10.960        834 1.2541e-01 0.0000e+00
      7.724     8.4690     0.0800      0.682  70.250878    104.893      6.634    40.6089     1.9491     1.7899     0.0486      0.087      7.574     10.985        835 1.2535e-01 0.0000e+00
      7.738     8.4667     0.0804      0.686  70.482804    105.294      6.639    40.1167     1.8884     1.6825     0.0488      0.085      7.589     11.007        836 1.2551e-01 0.0000e+00
      7.753     8.4645     0.0806      0.688  70.394424    105.145      6.638    40.2682     1.9046     1.6153     0.0487      0.082      7.604     11.028        837 1.2542e-01 0.0000e+00
      7.770     8.4572     0.0800      0.682  70.717398    105.613      6.643    39.2460     1.9208     1.7496     0.0490      0.078      7.620     11.052        838 1.2548e-01 0.0000e+00
      7.789     8.4496     0.0794      0.677  71.417873    106.748      6.645    38.8674     1.9127     1.7630     0.0495      0.073      7.638     11.078        839 1.2551e-01 0.0000e+00
      7.809     8.4409     0.0830      0.707  71.780770    107.233      6.648    38.6403     1.8884     1.6556     0.0497      0.069      7.658     11.107        840 1.2544e-01 0.0000e+00
      7.830     8.4298     0.0844      0.719  72.434776    108.261      6.650    38.7160     1.8682     1.6556     0.0502      0.069      7.681     11.141        841 1.2543e-01 0.0000e+00
      7.860     8.4203     0.0848      0.722  73.397036    109.754      6.654    39.3596     1.8682     1.7228     0.0508      0.073      7.708     11.179        842 1.2538e-01 0.0000e+00
      7.889     8.4121     0.0796      0.678  74.030106    110.713      6.662    38.8674     1.8965     1.6153     0.0513      0.080      7.734     11.217        843 1.2544e-01 0.0000e+00
      7.909     8.4056     0.0739      0.629  74.499590    111.457      6.665    38.1103     2.0259     1.9376     0.0516      0.086      7.753     11.246        844 1.2559e-01 0.0000e+00
      7.921     8.4026     0.0805      0.685  74.684886    111.777      6.665    37.8453     2.0138     1.8705     0.0517      0.088      7.768     11.267        845 1.2552e-01 0.0000e+00
      7.933     8.3981     0.0818      0.696  74.720724    111.800      6.669    37.9210     2.0421     1.8705     0.0517      0.086      7.783     11.289        846 1.2549e-01 0.0000e+00
      7.956     8.3892     0.0808      0.688  75.346511    112.773      6.672    37.7696     2.0219     1.8302     0.0522      0.083      7.805     11.321        847 1.2551e-01 0.0000e+00
      7.988     8.3786     0.0746      0.635  75.986342    113.794      6.676    36.6339     1.9288     1.6959     0.0527      0.083      7.839     11.370        848 1.2547e-01 0.0000e+00
      8.040     8.3666     0.0837      0.712  76.539669    114.538      6.674    35.9903     1.9572     1.6153     0.0530      0.090      7.881     11.430        849 1.2540e-01 0.0000e+00
      8.079     8.3548     0.0789      0.670  77.065159    115.539      6.676    35.4224     1.9288     1.7496     0.0534      0.100      7.916     11.480        850 1.2539e-01 0.0000e+00
      8.093     8.3480     0.0840      0.714  76.907527    115.161      6.680    35.1196     1.9612     1.6825     0.0533      0.106      7.936     11.511        851 1.2539e-01 0.0000e+00
      8.108     8.3421     0.0799      0.679  77.033046    115.496      6.685    35.0060     1.7914     1.7362     0.0534      0.110      7.955     11.537        852 1.2544e-01 0.0000e+00
      8.136     8.3313     0.0792      0.673  77.503373    116.191      6.687    33.4917     1.8075     1.6825     0.0537      0.114      7.978     11.571        853 1.2547e-01 0.0000e+00
      8.161     8.3197     0.0806      0.685  77.748812    116.589      6.690    33.3781     1.8116     1.6153     0.0539      0.114      8.006     11.611        854 1.2543e-01 0.0000e+00
      8.194     8.3099     0.0778      0.660  77.975892    116.964      6.695    32.3939     1.8075     1.6959     0.0541      0.110      8.038     11.658        855 1.2545e-01 0.0000e+00
      8.235     8.3007     0.0779      0.661  78.171873    117.299      6.702    31.7881     1.8035     1.6825     0.0542      0.108      8.075     11.711        856 1.2551e-01 0.0000e+00
      8.273     8.2910     0.0776      0.659  78.337139    117.585      6.705    31.8639     1.8075     1.9376     0.0543      0.108      8.110     11.762        857 1.2563e-01 0.0000e+00
      8.301     8.2804     0.0759      0.644  78.453838    117.786      6.711    31.6367     1.8197     1.9376     0.0544      0.114      8.141     11.807        858 1.2550e-01 0.0000e+00
      8.330     8.2685     0.0807      0.685  78.561652    117.989      6.716    31.1067     1.8642     1.9242     0.0545      0.123      8.171     11.851        859 1.2544e-01 0.0000e+00
      8.366     8.2548     0.0844      0.716  78.648814    118.152      6.721    30.5389     1.7914     1.8705     0.0546      0.129      8.202     11.897        860 1.2554e-01 0.0000e+00
      8.396     8.2421     0.0806      0.684  78.702049    118.279      6.726    30.0467     1.9895     1.9107     0.0546      0.130      8.232     11.939        861 1.2549e-01 0.0000e+00
      8.420     8.2341     0.0832      0.706  78.792642    118.454      6.734    29.4410     2.0138     1.8570     0.0547      0.128      8.257     11.975        862 1.2543e-01 0.0000e+00
      8.442     8.2276     0.0826      0.701  78.744148    118.458      6.737    28.7217     2.0097     1.8973     0.0547      0.122      8.279     12.009        863 1.2534e-01 0.0000e+00
      8.466     8.2211     0.0747      0.634  78.732691    118.401      6.741    28.2674     2.0340     1.9376     0.0547      0.114      8.302     12.042        864 1.2541e-01 0.0000e+00
      8.490     8.2147     0.0777      0.659  78.866356    118.720      6.748    27.9646     2.0178     2.1659     0.0548      0.107      8.324     12.073        865 1.2542e-01 0.0000e+00
      8.510     8.2069     0.0753      0.639  78.964209    118.785      6.750    27.2074     2.0016     2.0987     0.0548      0.102      8.343     12.101        866 1.2541e-01 0.0000e+00
      8.525     8.2020     0.0742      0.630  79.086491    119.102      6.755    26.4124     2.0340     2.1390     0.0550      0.095      8.358     12.122        867 1.2551e-01 0.0000e+00
      8.533     8.2007     0.0751      0.637  79.130309    119.089      6.760    25.8824     2.0259     2.0584     0.0550      0.084      8.372     12.142        868 1.2549e-01 0.0000e+00
      8.553     8.1999     0.0776      0.658  79.206918    119.317      6.763    25.3146     1.8844     1.8570     0.0551      0.077      8.390     12.168        869 1.2545e-01 0.0000e+00
      8.580     8.1984     0.0789      0.669  79.258670    119.322      6.770    24.5195     1.9086     1.9913     0.0551      0.075      8.414     12.202        870 1.2547e-01 0.0000e+00
      8.604     8.1967     0.0797      0.676  79.482038    119.704      6.770    24.4060     1.9005     1.8973     0.0552      0.075      8.436     12.235        871 1.2541e-01 0.0000e+00
      8.621     8.1953     0.0802      0.680  79.701761    120.047      6.777    23.9517     1.9046     1.9242     0.0554      0.074      8.453     12.260        872 1.2530e-01 0.0000e+00
      8.634     8.1937     0.0802      0.680  79.668878    119.969      6.778    23.6488     2.2604     1.8436     0.0554      0.073      8.467     12.280        873 1.2542e-01 0.0000e+00
      8.647     8.1901     0.0823      0.697  79.701304    120.058      6.784    23.1567     2.2443     1.9510     0.0554      0.072      8.480     12.300        874 1.2556e-01 0.0000e+00
      8.662     8.1855     0.0816      0.692  79.780307    120.149      6.787    22.6645     2.2523     1.9510     0.0554      0.071      8.495     12.321        875 1.2552e-01 0.0000e+00
      8.680     8.1834     0.0773      0.655  79.808358    120.245      6.791    22.4374     2.2523     1.9107     0.0555      0.070      8.512     12.346        876 1.2546e-01 0.0000e+00
      8.700     8.1806     0.0741      0.628  80.112267    120.644      6.795    22.9295     1.9127     1.8839     0.0557      0.067      8.532     12.374        877 1.2548e-01 0.0000e+00
      8.720     8.1765     0.0753      0.638  80.412743    121.240      6.798    22.0588     1.8803     1.8570     0.0559      0.065      8.554     12.405        878 1.2546e-01 0.0000e+00
      8.746     8.1718     0.0735      0.623  80.682871    121.463      6.801    21.8317     1.8682     1.9242     0.0560      0.067      8.580     12.444        879 1.2558e-01 0.0000e+00
      8.782     8.1653     0.0792      0.671  81.559648    122.997      6.803    20.7338     1.8844     1.8973     0.0567      0.076      8.613     12.491        880 1.2557e-01 0.0000e+00
      8.820     8.1586     0.0746      0.632  81.996983    123.564      6.806    20.3931     1.8682     1.9376     0.0570      0.089      8.646     12.539        881 1.2543e-01 0.0000e+00
      8.846     8.1531     0.0766      0.649  81.862764    123.418      6.813    19.9388     1.8803     1.9242     0.0569      0.099      8.672     12.578        882 1.2538e-01 0.0000e+00
      8.863     8.1476     0.0769      0.651  81.875324    123.445      6.814    19.5981     1.8844     1.9242     0.0569      0.105      8.694     12.609        883 1.2535e-01 0.0000e+00
      8.887     8.1408     0.0808      0.684  81.773269    123.337      6.816    19.4088     1.8844     1.9376     0.0569      0.108      8.716     12.642        884 1.2546e-01 0.0000e+00
      8.913     8.1331     0.0837      0.709  81.573597    123.020      6.820    19.1817     1.8965     1.9645     0.0567      0.108      8.740     12.677        885 1.2559e-01 0.0000e+00
      8.937     8.1261     0.0812      0.687  81.499550    122.960      6.823    19.1060     1.9652     2.0584     0.0567      0.106      8.765     12.713        886 1.2560e-01 0.0000e+00
      8.964     8.1218     0.0792      0.670  81.568158    123.074      6.826    18.9545     1.9652     2.0853     0.0568      0.103      8.791     12.751        887 1.2538e-01 0.0000e+00
      8.993     8.1188     0.0749      0.634  81.607135    123.185      6.829    18.2731     1.9410     2.0853     0.0568      0.099      8.818     12.790        888 1.2538e-01 0.0000e+00
      9.018     8.1144     0.0834      0.706  81.778048    123.412      6.836    17.5917     1.9652     2.2330     0.0569      0.097      8.844     12.827        889 1.2559e-01 0.0000e+00
      9.044     8.1092     0.0783      0.663  82.009462    123.846      6.842    17.2131     1.8803     2.2733     0.0571      0.099      8.869     12.864        890 1.2554e-01 0.0000e+00
      9.070     8.1043     0.0769      0.651  82.062332    123.863      6.845    16.9102     1.8803     2.2599     0.0571      0.102      8.894     12.901        891 1.2550e-01 0.0000e+00
      9.095     8.0999     0.0749      0.634  82.217628    124.178      6.846    16.4560     1.8844     2.2196     0.0572      0.103      8.919     12.937        892 1.2565e-01 0.0000e+00
      9.121     8.0961     0.0738      0.624  82.381035    124.408      6.849    16.0017     1.9127     2.2464     0.0573      0.102      8.945     12.974        893 1.2555e-01 0.0000e+00
      9.148     8.0931     0.0790      0.669  82.453539    124.552      6.852    15.5095     1.8561     1.8705     0.0574      0.103      8.970     13.010        894 1.2538e-01 0.0000e+00
      9.171     8.0901     0.0684      0.579  82.603056    124.778      6.857    15.2067     1.8601     1.9779     0.0575      0.101      8.993     13.043        895 1.2543e-01 0.0000e+00
      9.193     8.0868     0.0784      0.663  82.700351    124.958      6.858    14.4874     1.8682     1.8302     0.0576      0.099      9.016     13.076        896 1.2551e-01 0.0000e+00
      9.218     8.0830     0.0775      0.656  82.718928    124.969      6.865    13.8059     1.8884     1.9376     0.0576      0.098      9.039     13.111        897 1.2548e-01 0.0000e+00
      9.242     8.0793     0.0770      0.651  82.877227    125.236      6.865    13.8059     1.7995     1.9779     0.0577      0.097      9.063     13.145        898 1.2548e-01 0.0000e+00
      9.265     8.0761     0.0776      0.656  83.068204    125.547      6.869    13.4274     1.8358     1.9107     0.0579      0.095      9.086     13.178        899 1.2554e-01 0.0000e+00
      9.288     8.0720     0.0808      0.684  83.194760    125.730      6.872    13.1624     1.8075     1.8570     0.0579      0.094      9.109     13.212        900 1.2546e-01 0.0000e+00
      9.313     8.0672     0.0790      0.668  83.492696    126.208      6.876    12.3674     1.8116     1.9242     0.0582      0.093      9.133     13.246        901 1.2546e-01 0.0000e+00
      9.337     8.0656     0.0752      0.636  83.827158    126.732      6.877    12.1024     1.7995     1.9645     0.0584      0.093      9.156     13.280        902 1.2554e-01 0.0000e+00
      9.359     8.0661     0.0776      0.656  83.908267    126.877      6.879    11.4588     1.8237     1.9107     0.0585      0.093      9.178     13.312        903 1.2561e-01 0.0000e+00
      9.381     8.0623     0.0693      0.586  84.045826    127.054      6.883    10.7395     1.8116     1.9376     0.0585      0.093      9.200     13.343        904 1.2551e-01 0.0000e+00
      9.404     8.0578     0.0800      0.676  84.250583    127.431      6.886    10.2474     1.8318     1.8570     0.0587      0.091      9.218     13.370        905 1.2540e-01 0.0000e+00
      9.414     8.0553     0.0711      0.601  84.218333    127.321      6.889    10.1717     1.8722     1.8436     0.0587      0.087      9.231     13.388        906 1.2553e-01 0.0000e+00
      9.420     8.0546     0.0767      0.648  84.115693    127.252      6.891     9.3388     1.8399     1.9107     0.0586      0.080      9.241     13.403        907 1.2562e-01 0.0000e+00
      9.435     8.0550     0.0768      0.650  84.081015    127.135      6.895     9.0359     1.8561     1.8436     0.0586      0.072      9.256     13.425        908 1.2543e-01 0.0000e+00
      9.460     8.0535     0.0756      0.639  84.172300    127.350      6.894     8.6574     1.8561     1.9242     0.0587      0.068      9.277     13.456        909 1.2543e-01 0.0000e+00
      9.485     8.0510     0.0745      0.630  84.299399    127.475      6.894     8.4302     1.8803     1.9376     0.0587      0.067      9.302     13.491        910 1.2552e-01 0.0000e+00
      9.509     8.0503     0.0732      0.619  84.368807    127.650      6.899     8.1274     1.9693     2.1793     0.0588      0.068      9.326     13.526        911 1.2554e-01 0.0000e+00
      9.533     8.0499     0.0767      0.648  84.412966    127.661      6.901     7.7488     1.9733     2.2196     0.0588      0.072      9.347     13.558        912 1.2554e-01 0.0000e+00
      9.553     8.0471     0.0731      0.618  84.541759    127.917      6.904     7.4081     1.9612     2.1122     0.0589      0.077      9.367     13.585        913 1.2541e-01 0.0000e+00
      9.569     8.0431     0.0739      0.625  84.713960    128.130      6.904     6.8402     1.9572     2.0584     0.0590      0.083      9.384     13.610        914 1.2543e-01 0.0000e+00
      9.586     8.0417     0.0758      0.641  84.733829    128.226      6.907     6.6888     2.1351     2.1659     0.0591      0.085      9.401     13.635        915 1.2557e-01 0.0000e+00
      9.605     8.0429     0.0683      0.577  84.635961    128.030      6.909     5.9316     2.1634     2.0719     0.0590      0.083      9.419     13.661        916 1.2553e-01 0.0000e+00
      9.623     8.0447     0.0744      0.629  84.627639    128.078      6.913     5.3259     2.1391     2.1390     0.0590      0.079      9.436     13.686        917 1.2542e-01 0.0000e+00
      9.639     8.0442     0.0699      0.591  84.684724    128.116      6.914     5.2502     2.1310     2.0853     0.0590      0.074      9.452     13.709        918 1.2542e-01 0.0000e+00
      9.654     8.0401     0.0736      0.622  84.802772    128.321      6.915     4.8338     2.0057     2.0450     0.0591      0.070      9.468     13.732        919 1.2542e-01 0.0000e+00
      9.671     8.0354     0.0740      0.625  84.867240    128.406      6.916     4.2281     2.0259     2.1122     0.0591      0.067      9.483     13.755        920 1.2542e-01 0.0000e+00
      9.686     8.0331     0.0740      0.626  84.872080    128.424      6.918     3.8873     2.0259     2.0450     0.0592      0.066      9.498     13.776        921 1.2544e-01 0.0000e+00
      9.699     8.0344     0.0720      0.609  84.915681    128.526      6.921     3.7359     2.0057     2.1390     0.0592      0.064      9.511     13.795        922 1.2550e-01 0.0000e+00
      9.711     8.0365     0.0781      0.660  84.931913    128.536      6.925     3.0923     1.9369     2.2464     0.0592      0.062      9.523     13.812        923 1.2536e-01 0.0000e+00
      9.723     8.0360     0.0719      0.608  84.911346    128.530      6.923     2.8652     1.9450     2.2464     0.0592      0.058      9.536     13.830        924 1.2528e-01 0.0000e+00
      9.738     8.0325     0.0753      0.636  84.822349    128.352      6.926     3.0923     1.9491     2.2733     0.0591      0.056      9.549     13.850        925 1.2551e-01 0.0000e+00
      9.752     8.0295     0.0729      0.616  84.804814    128.354      6.926     2.3352     1.9410     2.2599     0.0591      0.054      9.562     13.869        926 1.2551e-01 0.0000e+00
      9.762     8.0283     0.0736      0.621  84.814241    128.368      6.928     2.4109     1.9855     2.0987     0.0591      0.053      9.573     13.885        927 1.2536e-01 0.0000e+00
      9.771     8.0284     0.0739      0.624  84.870083    128.465      6.930     1.5781     2.0057     2.0182     0.0592      0.050      9.583     13.899        928 1.2543e-01 0.0000e+00
      9.781     8.0283     0.0768      0.648  84.913714    128.554      6.931     1.5781     2.0016     2.0853     0.0592      0.047      9.596     13.918        929 1.2548e-01 0.0000e+00
      9.806     8.0262     0.0789      0.665  84.938336    128.554      6.934     1.1616     2.0057     2.0182     0.0592      0.050      9.616     13.946        930 1.2539e-01 0.0000e+00
      9.827     8.0252     0.0774      0.653  85.166494    128.935      6.934     0.6695     1.9652     2.0182     0.0594      0.054      9.636     13.975        931 1.2555e-01 0.0000e+00
      9.844     8.0224     0.0808      0.681  85.373079    129.241      6.936     0.1016     1.9693     2.1390     0.0595      0.057      9.654     14.002        932 1.2549e-01 0.0000e+00
      9.864     8.0164     0.0766      0.645  85.959746    130.093      6.938    -0.1634     1.9531     2.1390     0.0599      0.062      9.673     14.028        933 1.2537e-01 0.0000e+00
      9.881     8.0112     0.0779      0.657  86.041976    130.401      6.941    -0.3148     1.9410     2.0584     0.0600      0.066      9.689     14.052        934 1.2552e-01 0.0000e+00
      9.895     8.0067     0.0729      0.614  86.727686    131.061      6.942    -1.1477     2.0138     2.1793     0.0603      0.069      9.704     14.074        935 1.2550e-01 0.0000e+00
      9.912     8.0028     0.0753      0.634  88.436732    134.265      6.943    -1.8291     2.0097     2.1122     0.0618      0.071      9.720     14.098        936 1.2543e-01 0.0000e+00
      9.930     7.9966     0.0761      0.641  89.951522    135.897      6.943    -2.6620     2.0340     2.1793     0.0626      0.071      9.738     14.125        937 1.2532e-01 0.0000e+00
      9.950     7.9792     0.0729      0.614  92.693592    140.710      6.947    -2.7377     2.0340     2.0719     0.0648      0.069      9.756     14.150        938 1.2542e-01 0.0000e+00
      9.964     7.9570     0.0748      0.630  94.154845    142.563      6.948    -3.1920     1.9935     2.1256     0.0656      0.068      9.771     14.172        939 1.2544e-01 0.0000e+00
      9.977     7.9440     0.0706      0.595  94.676460    143.529      6.950    -3.6084     2.0057     2.3270     0.0661      0.066      9.786     14.192        940 1.2542e-01 0.0000e+00
      9.996     7.9339     0.0684      0.576  95.970915    145.629      6.954    -4.1005     1.9895     2.3002     0.0670      0.065      9.803     14.217        941 1.2544e-01 0.0000e+00
     10.016     7.9216     0.0670      0.564  96.857295    146.960      6.952    -4.2141     2.0259     2.1659     0.0676      0.066      9.822     14.244        942 1.2535e-01 0.0000e+00
     10.033     7.9101     0.0763      0.642  97.708430    148.368      6.955    -4.5548     2.0340     2.3002     0.0683      0.067      9.840     14.271        943 1.2530e-01 0.0000e+00
     10.053     7.8983     0.0698      0.588  98.362690    149.360      6.958    -5.0848     2.6405     2.2062     0.0687      0.068      9.859     14.300        944 1.2533e-01 0.0000e+00
     10.075     7.8870     0.0753      0.634  99.256213    150.775      6.961    -5.6905     2.6688     2.2867     0.0694      0.070      9.879     14.330        945 1.2536e-01 0.0000e+00
     10.096     7.8796     0.0780      0.657 100.047739    152.107      6.958    -6.4098     2.6365     2.2733     0.0700      0.072      9.899     14.358        946 1.2530e-01 0.0000e+00
     10.113     7.8752     0.0766      0.645 100.114943    152.160      6.960    -6.6370     2.6607     2.2062     0.0700      0.075      9.917     14.384        947 1.2540e-01 0.0000e+00
     10.131     7.8683     0.0777      0.653 101.017350    153.559      6.960    -7.5077     2.4303     2.3002     0.0706      0.077      9.935     14.411        948 1.2558e-01 0.0000e+00
     10.151     7.8615     0.0743      0.625 102.822728    156.437      6.961    -7.8863     2.3979     2.3136     0.0720      0.077      9.954     14.437        949 1.2549e-01 0.0000e+00
     10.166     7.8656     0.0723      0.608 103.670753    157.706      6.962    -8.2648     2.3979     2.2733     0.0725      0.075      9.969     14.458        950 1.2535e-01 0.0000e+00
     10.177     7.8752     0.0710      0.597 103.800755    157.911      6.964    -8.6055     2.3939     2.2196     0.0726      0.072      9.981     14.477        951 1.2549e-01 0.0000e+00
     10.191     7.8780     0.0703      0.591 105.041725    159.726      6.966    -9.1734     2.4464     2.2196     0.0735      0.068      9.995     14.497        952 1.2556e-01 0.0000e+00
     10.209     7.8747     0.0704      0.592 108.376465    164.795      6.963    -9.1734     2.4869     2.3136     0.0758      0.064     10.013     14.523        953 1.2550e-01 0.0000e+00
     10.230     7.8688     0.0740      0.623 110.693301    168.538      6.965    -9.9684     2.4828     2.2599     0.0776      0.064     10.033     14.553        954 1.2550e-01 0.0000e+00
     10.255     7.8635     0.0685      0.576 111.415830    169.193      6.970   -10.3091     2.4747     2.3002     0.0779      0.066     10.058     14.589        955 1.2555e-01 0.0000e+00
     10.286     7.8549     0.0752      0.633 113.907682    173.408      6.971   -10.2713     2.5394     2.3807     0.0798      0.071     10.086     14.629        956 1.2547e-01 0.0000e+00
     10.314     7.8423     0.0744      0.625 116.524286    177.233      6.970   -10.8013     2.5556     2.3807     0.0816      0.079     10.111     14.665        957 1.2536e-01 0.0000e+00
     10.331     7.8322     0.0715      0.601 118.134385    179.800      6.971   -11.4448     2.5192     2.3404     0.0828      0.085     10.128     14.690        958 1.2540e-01 0.0000e+00
     10.339     7.8291 -9.990e-29 -9.990e-29 118.157351    179.998      6.973   -11.8613     2.5556     2.2196     0.0829      0.087     10.137     14.703        959 1.2535e-01 0.0000e+00
     10.341     7.8302 -9.990e-29 -9.990e-29 116.942407    177.917      6.973   -12.3534     2.6729     2.4344     0.0819      0.081     10.142     14.710        960 1.2545e-01 0.0000e+00
     10.348     7.8276 -9.990e-29 -9.990e-29 116.966205    178.233      6.974   -13.0727     2.6405     2.4076     0.0820      0.072     10.149     14.719        961 1.2560e-01 0.0000e+00
     10.358     7.8270 -9.990e-29 -9.990e-29 118.276630    179.978      6.977   -13.7920     2.6607     2.4747     0.0829      0.060     10.159     14.734        962 1.2542e-01 0.0000e+00
     10.371     7.8308 -9.990e-29 -9.990e-29 119.838257    182.685      6.975   -14.4356     2.6284     2.4344     0.0841      0.049     10.171     14.751        963 1.2533e-01 0.0000e+00
     10.384     7.8289 -9.990e-29 -9.990e-29 124.940851    189.788      6.978   -15.1927     2.4626     2.4076     0.0874      0.041     10.184     14.770        964 1.2554e-01 0.0000e+00
     10.397     7.8218 -9.990e-29 -9.990e-29 137.638170    209.777      6.981   -13.7541     2.4667     2.4747     0.0968      0.038     10.196     14.787        965 1.2561e-01 0.0000e+00
     10.407     7.8131 -9.990e-29 -9.990e-29 155.512481    236.542      6.981   -14.5113     2.4788     2.4344     0.1093      0.039     10.206     14.802        966 1.2552e-01 0.0000e+00
     10.416     7.8043 -9.990e-29 -9.990e-29 182.580866    277.737      6.981   -15.9120     2.4788     2.4747     0.1288      0.041     10.214     14.814        967 1.2542e-01 0.0000e+00
     10.422     7.8008 -9.990e-29 -9.990e-29 210.913593    322.327      6.983   -17.0856     2.7133     2.4210     0.1500      0.043     10.220     14.822        968 1.2551e-01 0.0000e+00
     10.425 -9.990e-29 -9.990e-29 -9.990e-29 209.510973    320.396      6.987   -17.3127     2.7174     2.4613     0.1491      0.040     10.223     14.827        969 1.2555e-01 0.0000e+00
     10.426 -9.990e-29 -9.990e-29 -9.990e-29 197.205014    298.435      6.988   -17.5399     2.7214     2.4479     0.1386      0.034     10.223     14.828        970 1.2541e-01 0.0000e+00
