* Sea-Bird SBE19plus  Data File:
* FileName = C:\DATA\043018_fcr_0008.hex
* Software version 2.6.3.104 SB_Terminal.dll
* Temperature SN = 7809
* Conductivity SN = 7809
* System UpLoad Time = May 01 2018 11:59:33
* <ApplicationData>
* <Seaterm232>
* <SoftwareVersion>2.6.3.104</SoftwareVersion>
* <BuildDate>30-Jun-2017</BuildDate>
* </Seaterm232>
* </ApplicationData>
* cast   8 30 Apr 2018 19:29:15 samples 8290 to 9073, avg = 1, stop = mag switch
# nquan = 15
# nvalues = 698                         
# units = specified
# name 0 = depFM: Depth [fresh water, m]
# name 1 = dz/dtM: Descent Rate [m/s]
# name 2 = sbeox0Mg/L: Oxygen, SBE 43 [mg/l]
# name 3 = sbeox0PS: Oxygen, SBE 43 [% saturation]
# name 4 = specc: Specific Conductance [uS/cm]
# name 5 = c0uS/cm: Conductivity [uS/cm]
# name 6 = flECO-AFL: Fluorescence, WET Labs ECO-AFL/FL [mg/m^3]
# name 7 = ph: pH
# name 8 = orp: Oxidation Reduction Potential [mV]
# name 9 = par/sat/log: PAR/Logarithmic, Satlantic
# name 10 = turbWETntu0: Turbidity, WET Labs ECO [NTU]
# name 11 = prdM: Pressure, Strain Gauge [db]
# name 12 = prdE: Pressure, Strain Gauge [psi]
# name 13 = tv290C: Temperature [ITS-90, deg C]
# name 14 = flag:  0.000e+00
# span 0 =     -0.520,      2.711       
# span 1 =     -0.163,      0.278       
# span 2 =     6.0445,    13.5502       
# span 3 =     62.310,    125.149       
# span 4 =      0.962,     36.035       
# span 5 =   0.942018,  29.771039       
# span 6 =    -0.2011,     0.6592       
# span 7 =      1.484,      7.733       
# span 8 = -1240.7455,   492.3749       
# span 9 = 1.1076e+02, 1.7496e+03       
# span 10 =    -0.6743,     6.1931      
# span 11 =     -0.511,      2.660      
# span 12 =     -0.741,      3.857      
# span 13 =    11.7740,    23.9889      
# span 14 = 0.0000e+00, 0.0000e+00      
# interval = seconds: 0.25
# start_time = Apr 30 2018 19:29:15 [Instrument's time stamp, header]
# bad_flag = -9.990e-29
# <Sensors count="9" >
#   <sensor Channel="1" >
#     <!-- Count, Temperature -->
#     <TemperatureSensor SensorID="58" >
#       <SerialNumber>7809</SerialNumber>
#       <CalibrationDate>09-Mar-18</CalibrationDate>
#       <A0>1.21093245e-003</A0>
#       <A1>2.84356597e-004</A1>
#       <A2>-1.94507398e-006</A2>
#       <A3>2.12806664e-007</A3>
#       <Slope>1.00000000</Slope>
#       <Offset>0.0000</Offset>
#     </TemperatureSensor>
#   </sensor>
#   <sensor Channel="2" >
#     <!-- Frequency 0, Conductivity -->
#     <ConductivitySensor SensorID="3" >
#       <SerialNumber>7809</SerialNumber>
#       <CalibrationDate>09-Mar-18</CalibrationDate>
#       <UseG_J>1</UseG_J>
#       <!-- Cell const and series R are applicable only for wide range sensors. -->
#       <SeriesR>0.0000</SeriesR>
#       <CellConst>2000.0000</CellConst>
#       <ConductivityType>0</ConductivityType>
#       <Coefficients equation="0" >
#         <A>0.00000000e+000</A>
#         <B>0.00000000e+000</B>
#         <C>0.00000000e+000</C>
#         <D>0.00000000e+000</D>
#         <M>0.0</M>
#         <CPcor>-9.57000000e-008</CPcor>
#       </Coefficients>
#       <Coefficients equation="1" >
#         <G>-1.00672082e+000</G>
#         <H>1.26906489e-001</H>
#         <I>-1.40584351e-004</I>
#         <J>2.47837121e-005</J>
#         <CPcor>-9.57000000e-008</CPcor>
#         <CTcor>3.2500e-006</CTcor>
#         <!-- WBOTC not applicable unless ConductivityType = 1. -->
#         <WBOTC>0.00000000e+000</WBOTC>
#       </Coefficients>
#       <Slope>1.00000000</Slope>
#       <Offset>0.00000</Offset>
#     </ConductivitySensor>
#   </sensor>
#   <sensor Channel="3" >
#     <!-- Count, Pressure, Strain Gauge -->
#     <PressureSensor SensorID="46" >
#       <SerialNumber>7809</SerialNumber>
#       <CalibrationDate>07-Mar-18</CalibrationDate>
#       <PA0>-4.08176359e-002</PA0>
#       <PA1>4.85188419e-004</PA1>
#       <PA2>-3.51168169e-012</PA2>
#       <PTEMPA0>-5.37806900e+001</PTEMPA0>
#       <PTEMPA1>5.36620721e+001</PTEMPA1>
#       <PTEMPA2>4.87214332e-002</PTEMPA2>
#       <PTCA0>5.25213435e+005</PTCA0>
#       <PTCA1>1.79532409e+000</PTCA1>
#       <PTCA2>-2.84353509e-001</PTCA2>
#       <PTCB0>2.51668750e+001</PTCB0>
#       <PTCB1>3.75000000e-004</PTCB1>
#       <PTCB2>0.00000000e+000</PTCB2>
#       <Offset>0.000000</Offset>
#     </PressureSensor>
#   </sensor>
#   <sensor Channel="4" >
#     <!-- A/D voltage 0, pH -->
#     <pH_Sensor SensorID="43" >
#       <SerialNumber>0363</SerialNumber>
#       <CalibrationDate>16-Mar-18</CalibrationDate>
#       <Slope>4.6194</Slope>
#       <Offset>2.5947</Offset>
#     </pH_Sensor>
#   </sensor>
#   <sensor Channel="5" >
#     <!-- A/D voltage 1, Oxidation Reduction Potential -->
#     <OxidationReductionPotentialSensor SensorID="41" >
#       <SerialNumber>0363</SerialNumber>
#       <CalibrationDate>16-Mar-18</CalibrationDate>
#       <B>2.499480</B>
#       <M>-0.496195</M>
#       <Offset>0.0</Offset>
#     </OxidationReductionPotentialSensor>
#   </sensor>
#   <sensor Channel="6" >
#     <!-- A/D voltage 2, Oxygen, SBE 43 -->
#     <OxygenSensor SensorID="38" >
#       <SerialNumber>0434</SerialNumber>
#       <CalibrationDate>13-Mar-18</CalibrationDate>
#       <Use2007Equation>1</Use2007Equation>
#       <CalibrationCoefficients equation="0" >
#         <!-- Coefficients for Owens-Millard equation. -->
#         <Boc>0.0000</Boc>
#         <Soc>0.0000e+000</Soc>
#         <offset>0.0000</offset>
#         <Pcor>0.00e+000</Pcor>
#         <Tcor>0.0000</Tcor>
#         <Tau>0.0</Tau>
#       </CalibrationCoefficients>
#       <CalibrationCoefficients equation="1" >
#         <!-- Coefficients for Sea-Bird equation - SBE calibration in 2007 and later. -->
#         <Soc>4.5718e-001</Soc>
#         <offset>-0.6113</offset>
#         <A>-4.0649e-003</A>
#         <B> 2.0945e-004</B>
#         <C>-3.3182e-006</C>
#         <D0> 2.5826e+000</D0>
#         <D1> 1.92634e-004</D1>
#         <D2>-4.64803e-002</D2>
#         <E> 3.6000e-002</E>
#         <Tau20> 1.2200</Tau20>
#         <H1>-3.3000e-002</H1>
#         <H2> 5.0000e+003</H2>
#         <H3> 1.4500e+003</H3>
#       </CalibrationCoefficients>
#     </OxygenSensor>
#   </sensor>
#   <sensor Channel="7" >
#     <!-- A/D voltage 3, PAR/Logarithmic, Satlantic -->
#     <PARLog_SatlanticSensor SensorID="76" >
#       <SerialNumber>1122</SerialNumber>
#       <CalibrationDate>22-Jun-2017</CalibrationDate>
#       <a0>9.6090e-001</a0>
#       <a1>8.0780e-001</a1>
#       <Im>1.3589e+000</Im>
#       <Multiplier>1.0000e+000</Multiplier>
#     </PARLog_SatlanticSensor>
#   </sensor>
#   <sensor Channel="8" >
#     <!-- A/D voltage 4, Fluorometer, WET Labs ECO-AFL/FL -->
#     <FluoroWetlabECO_AFL_FL_Sensor SensorID="20" >
#       <SerialNumber>FLNTURT-2496</SerialNumber>
#       <CalibrationDate>25-Jan-2017</CalibrationDate>
#       <ScaleFactor>5.30000000e+001</ScaleFactor>
#       <!-- Dark output -->
#       <Vblank>0.0560</Vblank>
#     </FluoroWetlabECO_AFL_FL_Sensor>
#   </sensor>
#   <sensor Channel="9" >
#     <!-- A/D voltage 5, Turbidity Meter, WET Labs, ECO-NTU -->
#     <TurbidityMeter SensorID="67" >
#       <SerialNumber>FLNTURT-2496</SerialNumber>
#       <CalibrationDate>25-Jan-2017</CalibrationDate>
#       <ScaleFactor>176.000000</ScaleFactor>
#       <!-- Dark output -->
#       <DarkVoltage>0.072000</DarkVoltage>
#     </TurbidityMeter>
#   </sensor>
# </Sensors>
# datcnv_date = May 08 2018 08:16:30, 7.26.7.114 [datcnv_vars = 14]
# datcnv_in = C:\DATA\043018_fcr10.hex C:\DATA\SBE19plusV2_7809.xmlcon
# datcnv_skipover = 0
# datcnv_ox_hysteresis_correction = yes
# datcnv_ox_tau_correction = yes
# filter_date = May 08 2018 08:16:56, 7.26.7.114
# filter_in = C:\DATA\043018_fcr10.cnv
# filter_low_pass_tc_A = 0.030
# filter_low_pass_tc_B = 0.150
# filter_low_pass_A_vars = prdM prdE tv290C
# filter_low_pass_B_vars = depFM dz/dtM sbeox0Mg/L sbeox0PS specc c0uS/cm flECO-AFL ph orp par/sat/log turbWETntu0
# alignctd_date = May 08 2018 08:17:15, 7.26.7.114
# alignctd_in = C:\DATA\043018_fcr10.cnv
# alignctd_adv = dz/dtM 1.000, sbeox0Mg/L 1.000, sbeox0PS 1.000, specc 1.000, c0uS/cm 1.000, flECO-AFL 1.000, ph 1.000, orp 1.000, turbWETntu0 1.000                                                                                 
# file_type = ascii
*END*
     -0.520 9.8169e-16     8.3400     98.986      0.962   0.942018    -0.1827      6.095 -1240.7455 3.4222e+02    -0.2385     -0.510     -0.740    23.9294 0.0000e+00
     -0.520 1.0799e-14     8.3422     98.990      0.976   0.955015    -0.1921      5.999 -1240.7455 2.7792e+02    -0.2469     -0.510     -0.740    23.9271 0.0000e+00
     -0.520 1.1878e-13     8.3476     99.015      0.981   0.959743    -0.2011      5.900 -1240.7455 4.7367e+02    -0.2476     -0.510     -0.740    23.9346 0.0000e+00
     -0.520 1.3066e-12     8.3507     99.035      1.021   0.999183    -0.1907      5.903 -1240.7455 1.1613e+03    -0.3691     -0.510     -0.739    23.9465 0.0000e+00
     -0.520 1.4373e-11     8.3492     99.034      1.075   1.051398    -0.1501      5.984 -1240.7455 1.4495e+03    -0.5561     -0.510     -0.740    23.9560 0.0000e+00
     -0.520 1.5810e-10     8.3462     99.029      1.107   1.083776    -0.1237      5.999 -1240.7455 7.8381e+02    -0.6470     -0.510     -0.740    23.9433 0.0000e+00
     -0.520 1.7391e-09     8.3433     99.027      1.161   1.137013    -0.1284      5.758 -1240.7451 2.5302e+02    -0.6743     -0.511     -0.741    23.9098 0.0000e+00
     -0.520 1.9130e-08     8.3420     99.038      1.213   1.187781    -0.1419      4.468 -1240.7414 1.9969e+02    -0.5808     -0.510     -0.740    23.8993 0.0000e+00
     -0.520 2.1043e-07     8.3410     99.043      1.215   1.190299    -0.1592      2.279 -1240.7009 1.8637e+02    -0.3704     -0.510     -0.740    23.9144 0.0000e+00
     -0.520      0.000     8.3385     99.023      1.192   1.167461    -0.1718      1.484 -1240.2545 1.7562e+02    -0.2668     -0.510     -0.739    23.9324 0.0000e+00
     -0.520      0.000     8.3374     99.012      1.189   1.165304    -0.1838      2.670 -1235.3449 1.6809e+02    -0.2447     -0.510     -0.740    23.9531 0.0000e+00
     -0.520      0.000     8.3387     99.012      1.319   1.291050    -0.1940      3.528 -1181.3391 1.6670e+02    -0.1027     -0.510     -0.740    23.9652 0.0000e+00
     -0.520      0.003     8.3468     99.005      2.762   2.687835    -0.1854      3.676  -587.2748 1.7017e+02     0.1076     -0.510     -0.740    23.9778 0.0000e+00
     -0.520      0.014     8.4131     98.978      7.736   7.399051    -0.1714      4.446   308.8528 1.7831e+02     0.2225     -0.511     -0.741    23.9766 0.0000e+00
     -0.520      0.038     8.6191     98.930     17.393  16.135387    -0.1630      5.423   492.3749 1.9334e+02     0.3700     -0.510     -0.739    23.9889 0.0000e+00
     -0.519      0.076     8.9290     98.882     27.516  24.749384    -0.0562      6.174   300.5618 2.1294e+02     1.8609     -0.511     -0.741    23.9679 0.0000e+00
     -0.509      0.123     9.2138     98.839     32.348  28.276436     0.1558      6.795   272.7943 2.4122e+02     4.6376     -0.509     -0.737    23.9838 0.0000e+00
     -0.475      0.172     9.4337     98.813     33.388  28.436741     0.2767      7.139   268.0619 2.8475e+02     6.1721     -0.477     -0.690    23.8900 0.0000e+00
     -0.415      0.216     9.6109     98.825     33.977  28.337653     0.2838      7.306   267.4339 3.3560e+02     6.1931     -0.413     -0.601    22.4974 0.0000e+00
     -0.335      0.251     9.7474     98.910     34.431  28.284143     0.2788      7.384   267.9539 4.2056e+02     4.9518     -0.330     -0.479    20.1887 0.0000e+00
     -0.252      0.273     9.8464     99.108     34.770  28.297224     0.2813      7.409   268.8437 5.6352e+02     2.6697     -0.241     -0.349    18.6058 0.0000e+00
     -0.178      0.278     9.9259     99.473     35.033  28.368495     0.2854      7.401   269.8464 5.5717e+02     1.4274     -0.170     -0.247    17.5385 0.0000e+00
     -0.112      0.268     9.9937     99.941     35.295  28.510700     0.2828      7.367   271.1292 3.2731e+02     1.3148     -0.112     -0.163    16.6015 0.0000e+00
     -0.045      0.244    10.0515    100.425     35.547  28.683006     0.2777      7.308   272.3947 1.6032e+02     1.2773     -0.046     -0.067    15.9851 0.0000e+00
      0.023      0.210    10.1035    100.933     35.698  28.800764     0.2789      7.240   273.1022 1.1994e+02     1.2489      0.025      0.036    15.6288 0.0000e+00
      0.083      0.168    10.1381    101.369     35.728  28.854972     0.2883      7.179   273.5738 1.1076e+02     1.2473      0.086      0.127    15.4516 0.0000e+00
      0.128      0.121    10.1416    101.543     35.642  28.830448     0.2905      7.135   274.1384 1.5374e+02     1.2576      0.133      0.194    15.3680 0.0000e+00
      0.151      0.072    10.0709    100.904     35.525  28.758317     0.2770      7.107   274.6807 4.7070e+02     1.2507      0.156      0.226    15.3345 0.0000e+00
      0.154      0.028     9.9061     99.236     35.436  28.681385     0.2723      7.077   275.2263 7.9117e+02     1.2248      0.155      0.224    15.3155 0.0000e+00
      0.144     -0.005     9.7263     97.386     35.354  28.598787     0.2794      7.048   275.5731 7.3690e+02     1.2187      0.142      0.206    15.3628 0.0000e+00
      0.129     -0.022     9.5698     95.771     35.279  28.521629     0.2809      7.036   275.4322 7.0667e+02     1.2378      0.124      0.180    15.4623 0.0000e+00
      0.116     -0.021     9.4058     94.096     35.202  28.446961     0.2806      7.041   275.1580 7.1214e+02     1.2428      0.111      0.161    15.4888 0.0000e+00
      0.107     -0.005     9.2399     92.386     35.159  28.394481     0.2665      7.047   275.1832 6.7189e+02     1.1883      0.105      0.153    15.4689 0.0000e+00
      0.104      0.018     9.1092     90.983     35.203  28.395090     0.2300      7.045   275.5641 8.0600e+02     1.0978      0.098      0.142    15.4443 0.0000e+00
      0.109      0.039     9.0477     90.253     35.328  28.454276     0.2071      7.034   276.1504 8.9691e+02     1.0629      0.102      0.148    15.4119 0.0000e+00
      0.128      0.050     9.0524     90.201     35.477  28.538537     0.2105      7.023   276.6796 9.4810e+02     1.0717      0.124      0.180    15.4057 0.0000e+00
      0.156      0.047     9.0839     90.447     35.491  28.524824     0.2150      7.018   277.0577 1.0613e+03     1.1129      0.154      0.222    15.3883 0.0000e+00
      0.183      0.033     9.1080     90.647     35.373  28.415449     0.2167      7.021   277.2802 1.0163e+03     1.1947      0.184      0.266    15.3310 0.0000e+00
      0.197      0.017     9.1222     90.767     35.312  28.359084     0.2214      7.026   277.4775 8.3879e+02     1.2368      0.203      0.294    15.2639 0.0000e+00
      0.189      0.003     9.1268     90.805     35.385  28.414827     0.2165      7.022   277.9809 5.9042e+02     1.2250      0.191      0.278    15.2095 0.0000e+00
      0.165     -0.004     9.1019     90.558     35.513  28.517920     0.2039      7.011   278.5482 3.8142e+02     1.2050      0.159      0.230    15.1793 0.0000e+00
      0.149     -0.001     9.0359     89.905     35.521  28.526057     0.2066      7.004   278.6577 2.9135e+02     1.2081      0.138      0.200    15.1571 0.0000e+00
      0.153      0.011     8.9336     88.889     35.426  28.449717     0.2217      7.006   278.5315 2.6562e+02     1.2326      0.145      0.211    15.1492 0.0000e+00
      0.169      0.027     8.8121     87.692     35.383  28.420404     0.2305      7.014   278.6575 3.0474e+02     1.2573      0.166      0.241    15.1457 0.0000e+00
      0.186      0.037     8.6948     86.554     35.377  28.425650     0.2213      7.025   278.9763 3.4715e+02     1.2621      0.182      0.265    15.1459 0.0000e+00
      0.201      0.037     8.5917     85.540     35.322  28.386165     0.2018      7.035   279.0298 4.5430e+02     1.2305      0.197      0.286    15.1530 0.0000e+00
      0.215      0.029     8.4967     84.572     35.255  28.323999     0.1972      7.044   278.8745 5.9472e+02     1.2106      0.215      0.312    15.1465 0.0000e+00
      0.220      0.021     8.4126     83.693     35.256  28.309008     0.2107      7.049   278.9913 6.1527e+02     1.2347      0.220      0.320    15.1511 0.0000e+00
      0.215      0.018     8.3574     83.096     35.308  28.331891     0.2276      7.046   279.3238 5.8109e+02     1.2465      0.211      0.306    15.1757 0.0000e+00
      0.210      0.021     8.3425     82.896     35.353  28.346648     0.2273      7.040   279.6251 5.2872e+02     1.2318      0.203      0.294    15.1881 0.0000e+00
      0.213      0.027     8.3736     83.157     35.393  28.360400     0.2072      7.036   279.8809 5.6929e+02     1.2397      0.205      0.298    15.1688 0.0000e+00
      0.225      0.036     8.4470     83.843     35.427  28.371141     0.2053      7.036   280.0943 7.3300e+02     1.2814      0.218      0.317    15.1434 0.0000e+00
      0.243      0.044     8.5439     84.762     35.421  28.349500     0.2233      7.034   280.3119 1.0279e+03     1.3088      0.239      0.346    15.1195 0.0000e+00
      0.260      0.049     8.6512     85.791     35.442  28.352717     0.2219      7.027   280.4460 1.4817e+03     1.2963      0.257      0.373    15.0846 0.0000e+00
      0.272      0.048     8.7531     86.805     35.512  28.410018     0.2066      7.022   280.5111 1.4572e+03     1.2820      0.268      0.389    15.0601 0.0000e+00
      0.282      0.042     8.8251     87.574     35.483  28.407313     0.2034      7.026   280.7552 8.5668e+02     1.2894      0.275      0.399    15.0382 0.0000e+00
      0.293      0.032     8.8537     87.897     35.356  28.320042     0.2114      7.036   281.0752 5.0461e+02     1.2939      0.286      0.416    15.0151 0.0000e+00
      0.304      0.023     8.8365     87.711     35.269  28.243870     0.2202      7.048   281.2828 5.3684e+02     1.2755      0.301      0.437    14.9877 0.0000e+00
      0.309      0.016     8.7792     87.104     35.292  28.248321     0.2183      7.063   281.3724 6.9983e+02     1.2507      0.305      0.444    14.9800 0.0000e+00
      0.308      0.007     8.6907     86.210     35.456  28.373835     0.2067      7.073   281.2124 9.9554e+02     1.2377      0.302      0.438    15.0312 0.0000e+00
      0.306     -0.010     8.5872     85.191     35.678  28.554928     0.2084      7.078   280.9826 1.1788e+03     1.2406      0.299      0.434    15.0610 0.0000e+00
      0.307     -0.035     8.4895     84.214     35.734  28.596380     0.2204      7.079   281.0030 1.0140e+03     1.2550      0.299      0.435    15.0412 0.0000e+00
      0.307     -0.067     8.4059     83.362     35.538  28.430510     0.2231      7.079   281.2869 8.1002e+02     1.2586      0.305      0.442    15.0128 0.0000e+00
      0.296     -0.100     8.3389     82.702     35.328  28.263931     0.2132      7.080   281.5756 8.7654e+02     1.2539      0.300      0.435    15.0015 0.0000e+00
      0.263     -0.128     8.2934     82.284     35.273  28.233312     0.2026      7.081   281.6542 1.0275e+03     1.2600      0.266      0.386    15.0207 0.0000e+00
      0.208     -0.149     8.2717     82.099     35.358  28.314318     0.2048      7.084   281.8070 1.2487e+03     1.2710      0.205      0.296    15.0154 0.0000e+00
      0.151     -0.162     8.2692     82.109     35.550  28.481383     0.2116      7.089   282.0465 1.5606e+03     1.2644      0.142      0.205    14.9873 0.0000e+00
      0.104     -0.163     8.2790     82.265     35.671  28.602258     0.2117      7.097   282.2271 1.7230e+03     1.2418      0.098      0.142    14.9910 0.0000e+00
      0.069     -0.151     8.2905     82.459     35.591  28.569323     0.2155      7.105   282.5282 1.7447e+03     1.2412      0.065      0.094    15.0217 0.0000e+00
      0.039     -0.129     8.2949     82.579     35.501  28.527719     0.2206      7.106   282.8482 1.7337e+03     1.2568      0.040      0.058    15.0359 0.0000e+00
      0.006     -0.104     8.2938     82.622     35.573  28.607272     0.2091      7.099   283.0842 1.7083e+03     1.3083      0.010      0.015    15.0475 0.0000e+00
     -0.029     -0.081     8.2869     82.594     35.675  28.705693     0.1960      7.091   283.3170 1.6756e+03     1.4069     -0.034     -0.050    15.0819 0.0000e+00
     -0.050     -0.060     8.2701     82.459     35.733  28.765223     0.1996      7.088   283.5117 1.6571e+03     1.4722     -0.057     -0.084    15.1335 0.0000e+00
     -0.055     -0.040     8.2416     82.211     35.782  28.819039     0.2073      7.091   283.6310 1.6638e+03     1.4875     -0.054     -0.078    15.1822 0.0000e+00
     -0.054     -0.022     8.2000     81.851     35.790  28.848384     0.2064      7.097   283.8135 1.6751e+03     1.4396     -0.052     -0.075    15.2073 0.0000e+00
     -0.054     -0.008     8.1455     81.376     35.776  28.866049     0.2066      7.103   284.0838 1.6799e+03     1.3196     -0.053     -0.077    15.2319 0.0000e+00
     -0.054     -0.001     8.0827     80.812     35.793  28.905649     0.2101      7.108   284.3177 1.6888e+03     1.2274     -0.053     -0.077    15.2473 0.0000e+00
     -0.055     -0.001     8.0179     80.216     35.817  28.946198     0.2118      7.113   284.4907 1.7009e+03     1.2093     -0.054     -0.078    15.2606 0.0000e+00
     -0.055     -0.002     7.9548     79.630     35.829  28.975340     0.2180      7.115   284.6268 1.7044e+03     1.2233     -0.055     -0.079    15.2950 0.0000e+00
     -0.055     -0.002     7.8945     79.069     35.842  29.004011     0.2209      7.117   284.8445 1.7123e+03     1.2445     -0.054     -0.078    15.3414 0.0000e+00
     -0.055     -0.001     7.8412     78.577     35.863  29.038876     0.2096      7.120   285.1438 1.7206e+03     1.2510     -0.054     -0.078    15.3789 0.0000e+00
     -0.056     -0.000     7.7992     78.195     35.893  29.079392     0.2014      7.124   285.4068 1.7150e+03     1.2413     -0.055     -0.081    15.4054 0.0000e+00
     -0.057     -0.000     7.7686     77.926     35.914  29.112886     0.2131      7.127   285.6148 1.7045e+03     1.2493     -0.057     -0.083    15.4317 0.0000e+00
     -0.056     -0.001     7.7469     77.749     35.909  29.126355     0.2225      7.127   285.7661 1.6998e+03     1.2559     -0.056     -0.082    15.4574 0.0000e+00
     -0.055     -0.001     7.7298     77.618     35.874  29.115261     0.2144      7.129   285.7736 1.7044e+03     1.2299     -0.054     -0.079    15.4825 0.0000e+00
     -0.055     -0.000     7.7124     77.475     35.845  29.105781     0.2067      7.133   285.6193 1.7046e+03     1.2091     -0.053     -0.077    15.5046 0.0000e+00
     -0.056      0.001     7.6915     77.286     35.874  29.138750     0.2034      7.138   285.5353 1.7020e+03     1.2181     -0.055     -0.079    15.5270 0.0000e+00
     -0.057      0.001     7.6688     77.079     35.934  29.196375     0.2014      7.143   285.6190 1.7069e+03     1.2476     -0.056     -0.082    15.5518 0.0000e+00
     -0.057      0.001     7.6437     76.854     35.961  29.231013     0.2014      7.144   285.7706 1.7071e+03     1.2605     -0.057     -0.083    15.5782 0.0000e+00
     -0.056      0.000     7.6123     76.569     35.956  29.240051     0.1938      7.146   285.9917 1.7095e+03     1.2522     -0.056     -0.081    15.5993 0.0000e+00
     -0.054     -0.001     7.5754     76.229     35.942  29.242171     0.1926      7.149   286.2274 1.7159e+03     1.2689     -0.053     -0.076    15.6085 0.0000e+00
     -0.053     -0.002     7.5355     75.865     35.940  29.256661     0.2229      7.153   286.3829 1.7057e+03     1.2796     -0.051     -0.074    15.6184 0.0000e+00
     -0.055     -0.004     7.4895     75.446     35.954  29.288261     0.2664      7.154   286.4089 1.6847e+03     1.2592     -0.054     -0.078    15.6389 0.0000e+00
     -0.058     -0.005     7.4346     74.938     35.951  29.306743     0.2866      7.152   286.4566 1.6690e+03     1.2365     -0.057     -0.082    15.6576 0.0000e+00
     -0.061     -0.005     7.3772     74.398     35.910  29.289642     0.2832      7.147   286.6156 1.6560e+03     1.2188     -0.060     -0.087    15.6743 0.0000e+00
     -0.062     -0.004     7.3223     73.873     35.872  29.272025     0.2618      7.143   286.6962 1.6534e+03     1.2578     -0.062     -0.090    15.6961 0.0000e+00
     -0.062     -0.001     7.2706     73.372     35.876  29.284263     0.2301      7.140   286.7430 1.6704e+03     1.3116     -0.061     -0.088    15.7266 0.0000e+00
     -0.062      0.002     7.2231     72.914     35.896  29.310609     0.2126      7.133   286.8365 1.6762e+03     1.2590     -0.061     -0.089    15.7576 0.0000e+00
     -0.062      0.003     7.1786     72.494     35.911  29.336576     0.2065      7.122   286.7953 1.6701e+03     1.2023     -0.062     -0.090    15.7808 0.0000e+00
     -0.060      0.003     7.1349     72.080     35.904  29.344235     0.2030      7.115   286.6742 1.6880e+03     1.2367     -0.059     -0.085    15.7993 0.0000e+00
     -0.057      0.002     7.0939     71.699     35.880  29.339730     0.2061      7.116   286.6630 1.7113e+03     1.2773     -0.056     -0.082    15.8103 0.0000e+00
     -0.055      0.002     7.0544     71.369     35.847  29.345616     0.2077      7.126   286.7467 1.7063e+03     1.2661     -0.054     -0.079    15.8210 0.0000e+00
     -0.055      0.003     7.0135     71.059     35.794  29.351931     0.2034      7.136   286.9109 1.6950e+03     1.2225     -0.053     -0.077    15.8430 0.0000e+00
     -0.058      0.004     6.9755     70.774     35.737  29.352655     0.2006      7.139   287.0998 1.6852e+03     1.2086     -0.056     -0.082    15.8650 0.0000e+00
     -0.060      0.004     6.9408     70.515     35.684  29.354419     0.2008      7.138   287.2248 1.6646e+03     1.2508     -0.061     -0.090    15.8686 0.0000e+00
     -0.056      0.003     6.9087     70.264     35.663  29.373312     0.2062      7.139   287.3892 1.6564e+03     1.3063     -0.056     -0.083    15.9166 0.0000e+00
     -0.051      0.002     6.8808     70.017     35.663  29.390631     0.2202      7.143   287.6251 1.6599e+03     1.2992     -0.047     -0.069    16.0057 0.0000e+00
     -0.048      0.001     6.8571     69.784     35.637  29.373332     0.2235      7.145   287.7532 1.6548e+03     1.2571     -0.045     -0.065    16.0614 0.0000e+00
     -0.051      0.000     6.8357     69.567     35.614  29.354662     0.2182      7.145   287.7338 1.6656e+03     1.2543     -0.050     -0.072    16.1291 0.0000e+00
     -0.055     -0.003     6.8129     69.346     35.608  29.355402     0.2203      7.145   287.7347 1.6988e+03     1.2652     -0.055     -0.080    16.1898 0.0000e+00
     -0.056     -0.004     6.7880     69.116     35.628  29.382293     0.2127      7.146   287.8506 1.7093e+03     1.2673     -0.055     -0.081    16.2081 0.0000e+00
     -0.056     -0.003     6.7614     68.873     35.664  29.425793     0.1994      7.148   287.9305 1.6969e+03     1.2484     -0.055     -0.079    16.2090 0.0000e+00
     -0.057     -0.002     6.7324     68.604     35.662  29.436849     0.1972      7.152   288.0125 1.6938e+03     1.2196     -0.056     -0.081    16.2038 0.0000e+00
     -0.057     -0.001     6.7023     68.323     35.666  29.452487     0.2038      7.156   288.1532 1.7048e+03     1.2248     -0.056     -0.082    16.2126 0.0000e+00
     -0.057     -0.001     6.6735     68.056     35.692  29.487879     0.2149      7.160   288.2547 1.7145e+03     1.2500     -0.055     -0.080    16.2302 0.0000e+00
     -0.057     -0.001     6.6457     67.802     35.670  29.483763     0.2209      7.164   288.3798 1.7120e+03     1.2502     -0.055     -0.080    16.2496 0.0000e+00
     -0.058     -0.001     6.6194     67.562     35.631  29.466238     0.2218      7.168   288.5478 1.7042e+03     1.2275     -0.057     -0.082    16.2691 0.0000e+00
     -0.059     -0.001     6.5947     67.335     35.616  29.466518     0.2262      7.170   288.6505 1.7030e+03     1.2192     -0.058     -0.083    16.2864 0.0000e+00
     -0.059     -0.001     6.5701     67.105     35.628  29.487153     0.2281      7.173   288.5893 1.7066e+03     1.2415     -0.058     -0.083    16.3040 0.0000e+00
     -0.058     -0.001     6.5456     66.870     35.665  29.525243     0.2262      7.173   288.4958 1.7054e+03     1.2830     -0.057     -0.083    16.3254 0.0000e+00
     -0.058     -0.000     6.5224     66.642     35.684  29.546034     0.2220      7.172   288.5528 1.7050e+03     1.2943     -0.057     -0.082    16.3467 0.0000e+00
     -0.059     -0.000     6.4990     66.417     35.678  29.548032     0.2143      7.169   288.5903 1.7057e+03     1.2554     -0.058     -0.083    16.3641 0.0000e+00
     -0.059     -0.001     6.4754     66.195     35.668  29.549410     0.2156      7.164   288.4323 1.7040e+03     1.2408     -0.058     -0.084    16.3798 0.0000e+00
     -0.058     -0.001     6.4529     65.988     35.670  29.562707     0.2191      7.160   288.3632 1.7017e+03     1.2700     -0.057     -0.082    16.3904 0.0000e+00
     -0.058     -0.000     6.4314     65.793     35.678  29.581811     0.2109      7.156   288.5291 1.6997e+03     1.3026     -0.057     -0.082    16.3946 0.0000e+00
     -0.059      0.000     6.4123     65.619     35.675  29.589901     0.2074      7.154   288.6319 1.7023e+03     1.3302     -0.058     -0.084    16.4026 0.0000e+00
     -0.060      0.000     6.3951     65.459     35.672  29.597038     0.2143      7.154   288.6601 1.7071e+03     1.3292     -0.061     -0.087    16.4180 0.0000e+00
     -0.060      0.001     6.3786     65.309     35.670  29.604604     0.2205      7.154   288.7836 1.7111e+03     1.3215     -0.059     -0.085    16.4352 0.0000e+00
     -0.058      0.001     6.3639     65.179     35.673  29.617891     0.2185      7.154   288.8351 1.7139e+03     1.2970     -0.056     -0.081    16.4536 0.0000e+00
     -0.057      0.001     6.3510     65.070     35.674  29.630686     0.2084      7.155   288.6798 1.7144e+03     1.2470     -0.056     -0.081    16.4696 0.0000e+00
     -0.058      0.001     6.3380     64.960     35.661  29.632321     0.2082      7.156   288.4542 1.7126e+03     1.2355     -0.057     -0.082    16.4805 0.0000e+00
     -0.058      0.000     6.3252     64.850     35.654  29.637673     0.2165      7.159   288.3443 1.7098e+03     1.2504     -0.057     -0.082    16.4920 0.0000e+00
     -0.058     -0.001     6.3135     64.751     35.634  29.631908     0.2162      7.160   288.3847 1.7054e+03     1.2743     -0.057     -0.082    16.5084 0.0000e+00
     -0.059     -0.001     6.3013     64.646     35.614  29.626135     0.2146      7.160   288.4257 1.6985e+03     1.2798     -0.058     -0.084    16.5267 0.0000e+00
     -0.059     -0.001     6.2899     64.550     35.608  29.631387     0.2155      7.157   288.4096 1.6975e+03     1.2559     -0.058     -0.084    16.5430 0.0000e+00
     -0.059     -0.001     6.2804     64.470     35.598  29.631925     0.2178      7.154   288.4481 1.7022e+03     1.2605     -0.058     -0.083    16.5588 0.0000e+00
     -0.059     -0.001     6.2710     64.389     35.588  29.632645     0.2239      7.154   288.5484 1.7034e+03     1.2747     -0.058     -0.084    16.5744 0.0000e+00
     -0.059      0.000     6.2620     64.312     35.588  29.640101     0.2247      7.154   288.5892 1.7042e+03     1.2443     -0.058     -0.084    16.5895 0.0000e+00
     -0.059 -1.863e-08     6.2530     64.236     35.599  29.658584     0.2185      7.153   288.5968 1.7082e+03     1.2290     -0.057     -0.083    16.6046 0.0000e+00
     -0.059 -2.049e-07     6.2432     64.154     35.596  29.665614     0.2131      7.151   288.6413 1.7107e+03     1.2727     -0.058     -0.084    16.6178 0.0000e+00
     -0.060 -2.047e-07     6.2352     64.089     35.580  29.661616     0.2147      7.149   288.6103 1.7087e+03     1.2838     -0.059     -0.085    16.6289 0.0000e+00
     -0.060 -1.694e-08     6.2294     64.048     35.583  29.673757     0.2195      7.145   288.4799 1.7103e+03     1.2415     -0.059     -0.085    16.6390 0.0000e+00
     -0.059 1.9118e-15     6.2240     64.009     35.586  29.685417     0.2164      7.143   288.3550 1.7174e+03     1.2185     -0.058     -0.084    16.6513 0.0000e+00
     -0.059 2.1030e-14     6.2195     63.979     35.564  29.675594     0.2132      7.144   288.3045 1.7180e+03     1.2192     -0.058     -0.083    16.6657 0.0000e+00
     -0.060 2.3133e-13     6.2150     63.946     35.564  29.682005     0.2179      7.149   288.3868 1.7115e+03     1.2193     -0.058     -0.084    16.6793 0.0000e+00
     -0.060 2.5446e-12     6.2092     63.899     35.577  29.699438     0.2085      7.155   288.4897 1.7092e+03     1.2202     -0.060     -0.086    16.6925 0.0000e+00
     -0.060 2.7990e-11     6.2031     63.847     35.566  29.695869     0.1738      7.161   288.5156 1.7095e+03     1.2299     -0.059     -0.085    16.7052 0.0000e+00
     -0.059 3.0789e-10     6.1951     63.774     35.567  29.702362     0.1466      7.166   288.5279 1.7091e+03     1.2763     -0.058     -0.084    16.7171 0.0000e+00
     -0.059 3.3868e-09     6.1864     63.697     35.575  29.714446     0.1462      7.170   288.5523 1.7101e+03     1.3226     -0.057     -0.083    16.7270 0.0000e+00
     -0.059 3.7255e-08     6.1808     63.652     35.566  29.714976     0.1511      7.170   288.5528 1.7072e+03     1.3016     -0.057     -0.082    16.7363 0.0000e+00
     -0.060 4.0981e-07     6.1769     63.625     35.550  29.708778     0.1692      7.169   288.5330 1.7017e+03     1.2664     -0.059     -0.084    16.7448 0.0000e+00
     -0.060      0.000     6.1742     63.607     35.536  29.703013     0.1997      7.168   288.5716 1.6981e+03     1.2629     -0.059     -0.085    16.7505 0.0000e+00
     -0.059      0.000     6.1734     63.612     35.535  29.708797     0.2073      7.169   288.6757 1.6970e+03     1.2601     -0.058     -0.083    16.7587 0.0000e+00
     -0.058      0.001     6.1715     63.607     35.533  29.715212     0.2064      7.172   288.7589 1.6987e+03     1.2634     -0.057     -0.082    16.7709 0.0000e+00
     -0.058      0.001     6.1681     63.587     35.527  29.717086     0.2155      7.175   288.8029 1.6992e+03     1.2718     -0.057     -0.083    16.7818 0.0000e+00
     -0.058      0.001     6.1652     63.570     35.535  29.731460     0.2175      7.178   288.8639 1.7007e+03     1.2704     -0.058     -0.084    16.7879 0.0000e+00
     -0.057      0.001     6.1619     63.551     35.562  29.762008     0.2118      7.179   288.9799 1.7062e+03     1.2768     -0.056     -0.082    16.7967 0.0000e+00
     -0.057      0.001     6.1577     63.524     35.560  29.768926     0.2099      7.181   289.1725 1.7075e+03     1.2875     -0.055     -0.080    16.8100 0.0000e+00
     -0.057      0.001     6.1503     63.463     35.530  29.751606     0.2137      7.181   289.3008 1.7040e+03     1.2779     -0.055     -0.080    16.8200 0.0000e+00
     -0.057      0.000     6.1404     63.375     35.510  29.743122     0.2117      7.181   289.3265 1.7062e+03     1.2828     -0.056     -0.081    16.8291 0.0000e+00
     -0.056      0.000     6.1322     63.305     35.485  29.729862     0.2038      7.181   289.3973 1.7120e+03     1.2862     -0.055     -0.080    16.8406 0.0000e+00
     -0.056     -0.001     6.1269     63.264     35.463  29.718297     0.2017      7.180   289.4685 1.7140e+03     1.2574     -0.055     -0.080    16.8535 0.0000e+00
     -0.057     -0.001     6.1222     63.224     35.472  29.730305     0.1856      7.180   289.4992 1.7138e+03     1.2409     -0.056     -0.081    16.8659 0.0000e+00
     -0.057     -0.001     6.1152     63.159     35.488  29.748043     0.1564      7.181   289.5106 1.7095e+03     1.2389     -0.057     -0.083    16.8760 0.0000e+00
     -0.057     -0.001     6.1071     63.086     35.474  29.742259     0.1425      7.181   289.5201 1.7000e+03     1.2329     -0.056     -0.082    16.8872 0.0000e+00
     -0.057      0.000     6.1003     63.027     35.444  29.723889     0.1370      7.181   289.6146 1.6934e+03     1.2289     -0.056     -0.081    16.8976 0.0000e+00
     -0.058 -1.159e-12     6.0934     62.967     35.428  29.716451     0.1454      7.181   289.7057 1.6931e+03     1.2511     -0.057     -0.082    16.9029 0.0000e+00
     -0.058 -1.275e-11     6.0849     62.889     35.422  29.715836     0.1803      7.182   289.6760 1.6962e+03     1.2577     -0.057     -0.082    16.9077 0.0000e+00
     -0.058 -1.402e-10     6.0785     62.833     35.417  29.716461     0.2096      7.183   289.6851 1.6996e+03     1.2475     -0.057     -0.082    16.9164 0.0000e+00
     -0.058 -1.542e-09     6.0759     62.818     35.417  29.724012     0.2147      7.183   289.8159 1.7024e+03     1.2503     -0.056     -0.082    16.9263 0.0000e+00
     -0.058 -1.696e-08     6.0721     62.793     35.431  29.743639     0.2146      7.182   289.9668 1.7110e+03     1.2302     -0.057     -0.083    16.9356 0.0000e+00
     -0.058 -1.866e-07     6.0685     62.770     35.446  29.763263     0.2173      7.180   290.1319 1.7201e+03     1.1575     -0.057     -0.083    16.9421 0.0000e+00
     -0.058 -1.897e-07     6.0667     62.764     35.447  29.770780     0.2198      7.180   290.2639 1.7207e+03     1.0434     -0.058     -0.083    16.9478 0.0000e+00
     -0.058 -5.416e-08     6.0634     62.741     35.440  29.771039     0.2168      7.179   290.3586 1.7214e+03     0.9790     -0.057     -0.082    16.9571 0.0000e+00
     -0.058 -4.110e-07     6.0593     62.707     35.429  29.766396     0.2092      7.176   290.4168 1.7198e+03     1.0191     -0.057     -0.082    16.9700 0.0000e+00
     -0.059     -0.000     6.0533     62.651     35.363  29.714643     0.2101      7.173   290.3648 1.7156e+03     1.1325     -0.058     -0.083    16.9794 0.0000e+00
     -0.059     -0.000     6.0445     62.546     34.920  29.335823     0.2189      7.169   290.3330 1.7191e+03     1.2210     -0.058     -0.083    16.9905 0.0000e+00
     -0.058     -0.001     6.0456     62.395     34.163  28.615260     0.2231      7.166   290.3760 1.7221e+03     1.2345     -0.057     -0.083    16.9965 0.0000e+00
     -0.058     -0.001     6.0836     62.310     33.859  28.114533     0.2142      7.166   290.4548 1.7217e+03     1.2347     -0.057     -0.082    17.0076 0.0000e+00
     -0.058     -0.001     6.2031     62.869     34.104  27.980382     0.2043      7.167   290.5973 1.7130e+03     1.2545     -0.057     -0.082    17.0070 0.0000e+00
     -0.059     -0.000     6.4707     65.022     34.395  27.945316     0.2050      7.166   290.7225 1.7059e+03     1.2599     -0.058     -0.084    17.0238 0.0000e+00
     -0.060 3.8796e-07     6.9247     69.234     34.596  27.944218     0.2038      7.163   290.7631 1.7017e+03     1.2390     -0.060     -0.087    16.9892 0.0000e+00
     -0.060      0.000     7.5405     75.186     34.735  27.966916     0.1980      7.160   290.8301 1.6875e+03     1.2457     -0.059     -0.085    16.5778 0.0000e+00
     -0.059      0.000     8.2405     82.046     34.794  27.965655     0.2003      7.159   291.0176 1.6757e+03     1.2796     -0.058     -0.083    15.9604 0.0000e+00
     -0.059      0.001     8.9277     88.814     34.784  27.928911     0.2129      7.159   291.3081 1.6660e+03     1.3136     -0.057     -0.083    15.5588 0.0000e+00
     -0.059      0.001     9.5356     94.810     34.774  27.903619     0.2219      7.160   291.5037 1.6735e+03     1.3197     -0.058     -0.083    15.3502 0.0000e+00
     -0.059      0.000    10.0147     99.536     34.803  27.913821     0.2170      7.162   291.4893 1.6897e+03     1.2624     -0.058     -0.084    15.2342 0.0000e+00
     -0.059 -4.064e-07    10.3230    102.575     34.827  27.925253     0.2082      7.164   291.5646 1.6825e+03     1.1706     -0.057     -0.083    15.1742 0.0000e+00
     -0.059      0.000    10.4545    103.870     34.819  27.914833     0.2072      7.164   291.7266 1.6583e+03     1.0948     -0.057     -0.083    15.1386 0.0000e+00
     -0.060      0.000    10.4484    103.806     34.819  27.914832     0.2060      7.163   291.7263 1.6438e+03     1.0792     -0.058     -0.085    15.1152 0.0000e+00
     -0.060     -0.001    10.3626    102.956     34.831  27.925232     0.2029      7.162   291.7328 1.6650e+03     1.0724     -0.059     -0.085    15.0970 0.0000e+00
     -0.059     -0.001    10.2427    101.769     34.815  27.913583     0.2062      7.160   291.8918 1.6980e+03     1.0433     -0.058     -0.084    15.0854 0.0000e+00
     -0.059      0.000    10.1195    100.545     34.800  27.900988     0.2082      7.155   292.0999 1.7101e+03     1.0943     -0.057     -0.083    15.0807 0.0000e+00
     -0.060      0.000    10.0104     99.458     34.800  27.899946     0.2090      7.145   292.2704 1.7103e+03     1.1996     -0.059     -0.085    15.0808 0.0000e+00
     -0.060     -0.001     9.9217     98.572     34.804  27.900978     0.2069      7.136   292.3182 1.7148e+03     1.2490     -0.059     -0.085    15.0825 0.0000e+00
     -0.060     -0.001     9.8518     97.862     34.825  27.913459     0.2016      7.133   292.3334 1.7188e+03     1.2331     -0.059     -0.086    15.0841 0.0000e+00
     -0.060      0.000     9.7941     97.264     34.848  27.923850     0.2181      7.134   292.4548 1.7099e+03     1.1610     -0.058     -0.085    15.0845 0.0000e+00
     -0.060 3.8813e-07     9.7420     96.718     34.830  27.899605     0.2503      7.138   292.5809 1.7039e+03     1.0788     -0.059     -0.085    15.0832 0.0000e+00
     -0.060      0.000     9.6937     96.206     34.812  27.874303     0.2695      7.143   292.6539 1.7137e+03     1.0325     -0.060     -0.087    15.0815 0.0000e+00
     -0.060      0.000     9.6531     95.769     34.823  27.871910     0.2757      7.148   292.6484 1.7203e+03     0.9981     -0.059     -0.085    15.0751 0.0000e+00
     -0.060      0.001     9.6202     95.422     34.830  27.870661     0.2611      7.153   292.6865 1.7143e+03     1.0292     -0.058     -0.084    15.0612 0.0000e+00
     -0.060      0.001     9.5937     95.150     34.820  27.859192     0.2303      7.158   292.8573 1.7081e+03     1.1642     -0.059     -0.086    15.0485 0.0000e+00
     -0.060      0.000     9.5753     94.967     34.822  27.860240     0.2160      7.162   292.9923 1.7055e+03     1.2568     -0.059     -0.085    15.0323 0.0000e+00
     -0.059      0.000     9.5641     94.863     34.848  27.883330     0.2172      7.166   293.1148 1.7042e+03     1.2330     -0.057     -0.083    15.0121 0.0000e+00
     -0.059      0.001     9.5572     94.803     34.845  27.884380     0.2172      7.169   293.1328 1.7137e+03     1.2127     -0.057     -0.083    15.0029 0.0000e+00
     -0.060      0.001     9.5537     94.773     34.829  27.872931     0.2161      7.171   293.0385 1.7222e+03     1.2548     -0.058     -0.085    15.0006 0.0000e+00
     -0.060      0.001     9.5505     94.741     34.828  27.871899     0.2131      7.173   293.1788 1.7151e+03     1.2850     -0.060     -0.087    14.9991 0.0000e+00
     -0.059      0.000     9.5445     94.678     34.829  27.871909     0.2079      7.175   293.4529 1.7104e+03     1.2724     -0.059     -0.084    15.0034 0.0000e+00
     -0.058 1.8641e-08     9.5380     94.610     34.832  27.873045     0.2078      7.177   293.5137 1.7139e+03     1.2552     -0.056     -0.081    15.0088 0.0000e+00
     -0.058 2.0506e-07     9.5313     94.539     34.850  27.885640     0.2122      7.179   293.4828 1.7184e+03     1.2607     -0.056     -0.082    15.0113 0.0000e+00
     -0.058 2.0811e-07     9.5219     94.433     34.870  27.897185     0.2154      7.179   293.5097 1.7267e+03     1.2774     -0.057     -0.083    15.0109 0.0000e+00
     -0.059 5.5561e-08     9.5124     94.316     34.865  27.885632     0.2192      7.179   293.4955 1.7329e+03     1.2743     -0.058     -0.084    15.0083 0.0000e+00
     -0.060 4.0811e-07     9.5047     94.223     34.856  27.872942     0.2208      7.179   293.4835 1.7301e+03     1.2531     -0.060     -0.087    15.0059 0.0000e+00
     -0.060      0.000     9.4979     94.157     34.853  27.870757     0.2165      7.179   293.4495 1.7222e+03     1.1737     -0.059     -0.085    15.0069 0.0000e+00
     -0.058      0.000     9.4920     94.112     34.832  27.859203     0.2143      7.179   293.2565 1.7207e+03     1.0477     -0.056     -0.080    15.0022 0.0000e+00
     -0.057      0.001     9.4871     94.082     34.826  27.860253     0.2128      7.178   293.0434 1.7226e+03     1.0108     -0.055     -0.079    14.9854 0.0000e+00
     -0.058      0.001     9.4851     94.073     34.851  27.883457     0.2064      7.176   293.1095 1.7181e+03     1.0630     -0.057     -0.083    14.9753 0.0000e+00
     -0.059      0.000     9.4868     94.094     34.851  27.885764     0.2016      7.174   293.2810 1.7116e+03     1.1297     -0.058     -0.085    14.9779 0.0000e+00
     -0.059 1.5087e-08     9.4891     94.134     34.847  27.888159     0.2004      7.173   293.2248 1.7083e+03     1.2068     -0.059     -0.085    14.9852 0.0000e+00
     -0.058 1.6596e-07     9.4912     94.190     34.863  27.912411     0.2004      7.173   293.1185 1.7122e+03     1.2623     -0.057     -0.083    14.9972 0.0000e+00
     -0.057 -2.066e-07     9.4936     94.250     34.863  27.925014     0.2021      7.171   293.1142 1.7214e+03     1.2827     -0.056     -0.081    15.0030 0.0000e+00
     -0.057      0.000     9.4938     94.275     34.838  27.913565     0.1937      7.167   293.0870 1.7312e+03     1.2702     -0.055     -0.080    15.0006 0.0000e+00
     -0.058      0.000     9.4930     94.270     34.822  27.900989     0.1636      7.161   293.0476 1.7364e+03     1.2630     -0.057     -0.081    15.0074 0.0000e+00
     -0.060     -0.001     9.4927     94.258     34.824  27.899949     0.1406      7.155   293.2394 1.7339e+03     1.2875     -0.059     -0.085    15.0281 0.0000e+00
     -0.060     -0.001     9.4916     94.240     34.829  27.900990     0.1456      7.149   293.5136 1.7288e+03     1.2911     -0.059     -0.086    15.0492 0.0000e+00
     -0.059     -0.001     9.4907     94.230     34.844  27.913567     0.1686      7.144   293.5236 1.7230e+03     1.2155     -0.058     -0.084    15.0626 0.0000e+00
     -0.059     -0.001     9.4904     94.238     34.854  27.925015     0.1989      7.136   293.5325 1.7180e+03     1.0759     -0.057     -0.083    15.0611 0.0000e+00
     -0.060      0.000     9.4914     94.271     34.829  27.912418     0.2087      7.127   293.7067 1.7145e+03     1.0064     -0.058     -0.084    15.0534 0.0000e+00
     -0.060 -1.863e-08     9.4937     94.319     34.788  27.888268     0.2039      7.122   293.8229 1.7135e+03     1.0168     -0.059     -0.086    15.0508 0.0000e+00
     -0.060 -2.049e-07     9.4961     94.365     34.777  27.887027     0.2051      7.120   293.8193 1.7167e+03     1.0790     -0.058     -0.085    15.0479 0.0000e+00
     -0.060 -2.047e-07     9.4996     94.417     34.782  27.897417     0.1961      7.119   293.7492 1.7187e+03     1.2100     -0.059     -0.086    15.0539 0.0000e+00
     -0.059 -1.661e-08     9.5031     94.460     34.766  27.886902     0.1867      7.118   293.7500 1.7184e+03     1.2877     -0.058     -0.085    15.0675 0.0000e+00
     -0.059 3.4976e-09     9.5048     94.471     34.768  27.886901     0.1926      7.117   293.8286 1.7190e+03     1.2857     -0.057     -0.083    15.0800 0.0000e+00
     -0.059 3.8474e-08     9.5058     94.473     34.784  27.897405     0.2023      7.117   293.8390 1.7165e+03     1.2777     -0.058     -0.084    15.0910 0.0000e+00
     -0.059 4.2322e-07     9.5068     94.484     34.771  27.886901     0.1941      7.118   293.7905 1.7102e+03     1.2817     -0.059     -0.085    15.1007 0.0000e+00
     -0.059      0.000     9.5079     94.502     34.769  27.886891     0.1674      7.119   293.6719 1.7071e+03     1.2736     -0.058     -0.084    15.1061 0.0000e+00
     -0.059      0.000     9.5091     94.519     34.779  27.897291     0.1556      7.120   293.5243 1.7061e+03     1.2416     -0.057     -0.083    15.1009 0.0000e+00
     -0.059      0.001     9.5086     94.515     34.764  27.885652     0.1607      7.120   293.5545 1.7045e+03     1.2303     -0.058     -0.084    15.0943 0.0000e+00
     -0.059      0.001     9.5063     94.491     34.749  27.873162     0.1563      7.122   293.6926 1.7055e+03     1.2287     -0.058     -0.084    15.0957 0.0000e+00
     -0.059      0.000     9.5034     94.460     34.750  27.873275     0.1388      7.124   293.7309 1.7065e+03     1.2214     -0.057     -0.083    15.1010 0.0000e+00
     -0.058 1.8474e-08     9.5006     94.431     34.767  27.887015     0.1334      7.125   293.7594 1.7061e+03     1.2337     -0.057     -0.082    15.1036 0.0000e+00
     -0.058 2.0321e-07     9.4970     94.397     34.799  27.912292     0.1458      7.125   293.8653 1.7093e+03     1.2562     -0.057     -0.082    15.1038 0.0000e+00
     -0.058 2.0321e-07     9.4953     94.382     34.814  27.924894     0.1688      7.125   293.8063 1.7133e+03     1.2494     -0.057     -0.083    15.1031 0.0000e+00
     -0.059 1.8474e-08     9.4984     94.417     34.796  27.912394     0.2005      7.125   293.5625 1.7119e+03     1.2428     -0.058     -0.084    15.1017 0.0000e+00
     -0.059 1.6794e-09     9.5028     94.466     34.763  27.888150     0.2173      7.126   293.4995 1.7124e+03     1.2675     -0.058     -0.084    15.1011 0.0000e+00
     -0.058 1.5265e-10     9.5073     94.516     34.758  27.885765     0.2149      7.127   293.5603 1.7167e+03     1.2733     -0.058     -0.084    15.1009 0.0000e+00
     -0.058 1.3648e-11     9.5113     94.559     34.754  27.883561     0.1989      7.130   293.5230 1.7184e+03     1.2518     -0.056     -0.081    15.1029 0.0000e+00
     -0.058 -1.283e-12     9.5124     94.568     34.727  27.861501     0.1709      7.134   293.4788 1.7171e+03     1.2219     -0.057     -0.082    15.1043 0.0000e+00
     -0.059 -2.787e-11     9.5130     94.565     34.745  27.873036     0.1520      7.137   293.4562 1.7137e+03     1.2174     -0.058     -0.084    15.1066 0.0000e+00
     -0.059 -3.079e-10     9.5142     94.563     34.780  27.896031     0.1454      7.139   293.5077 1.7128e+03     1.2270     -0.057     -0.083    15.1120 0.0000e+00
     -0.059 -3.387e-09     9.5144     94.554     34.772  27.885526     0.1559      7.141   293.6722 1.7120e+03     1.2465     -0.058     -0.083    15.1131 0.0000e+00
     -0.058 -3.725e-08     9.5137     94.543     34.758  27.873017     0.1864      7.141   293.7239 1.7080e+03     1.2700     -0.057     -0.082    15.1118 0.0000e+00
     -0.058 -4.098e-07     9.5126     94.528     34.759  27.871787     0.2106      7.141   293.6170 1.7090e+03     1.2367     -0.057     -0.083    15.1079 0.0000e+00
     -0.058      0.000     9.5098     94.493     34.760  27.870643     0.2191      7.137   293.5835 1.7167e+03     1.2096     -0.057     -0.082    15.0985 0.0000e+00
     -0.058      0.000     9.5041     94.434     34.746  27.859184     0.2161      7.133   293.6636 1.7208e+03     1.2167     -0.056     -0.081    15.0929 0.0000e+00
     -0.058     -0.001     9.4990     94.389     34.746  27.860233     0.2108      7.132   293.8111 1.7158e+03     1.2308     -0.056     -0.081    15.0927 0.0000e+00
     -0.059     -0.001     9.4954     94.358     34.773  27.883332     0.2093      7.132   293.9036 1.7110e+03     1.2588     -0.058     -0.083    15.0912 0.0000e+00
     -0.059     -0.001     9.4919     94.323     34.774  27.884476     0.2080      7.133   293.8358 1.7095e+03     1.2502     -0.058     -0.084    15.0852 0.0000e+00
     -0.059     -0.001     9.4899     94.288     34.767  27.874068     0.2145      7.134   293.7656 1.7081e+03     1.2185     -0.058     -0.084    15.0838 0.0000e+00
     -0.059     -0.000     9.4895     94.257     34.791  27.884478     0.2224      7.135   293.8290 1.7060e+03     1.1806     -0.058     -0.084    15.0888 0.0000e+00
     -0.059 3.8795e-07     9.4926     94.267     34.799  27.883335     0.2210      7.136   294.0007 1.7031e+03     1.1272     -0.059     -0.085    15.0908 0.0000e+00
     -0.059      0.000     9.4977     94.314     34.772  27.860236     0.2162      7.137   294.1208 1.7035e+03     1.0922     -0.058     -0.084    15.0928 0.0000e+00
     -0.059      0.000     9.5000     94.347     34.766  27.859185     0.2096      7.139   294.1621 1.7048e+03     1.0621     -0.057     -0.083    15.0872 0.0000e+00
     -0.059      0.001     9.5008     94.368     34.774  27.870635     0.2051      7.140   294.1556 1.7040e+03     1.0989     -0.058     -0.084    15.0691 0.0000e+00
     -0.059      0.001     9.5014     94.382     34.772  27.871675     0.2090      7.140   294.1286 1.7041e+03     1.2019     -0.058     -0.084    15.0559 0.0000e+00
     -0.059      0.000     9.5016     94.386     34.772  27.871769     0.2199      7.141   294.1800 1.7096e+03     1.2392     -0.057     -0.083    15.0556 0.0000e+00
     -0.059 -3.915e-07     9.5021     94.392     34.772  27.871777     0.2262      7.142   294.2600 1.7175e+03     1.2456     -0.057     -0.083    15.0624 0.0000e+00
     -0.058      0.000     9.5005     94.383     34.769  27.871769     0.2209      7.141   294.3228 1.7235e+03     1.2785     -0.056     -0.082    15.0708 0.0000e+00
     -0.058      0.000     9.4965     94.353     34.764  27.871664     0.2206      7.141   294.3373 1.7290e+03     1.3012     -0.057     -0.082    15.0747 0.0000e+00
     -0.058     -0.001     9.4932     94.317     34.764  27.870518     0.2230      7.142   294.4347 1.7276e+03     1.3060     -0.057     -0.083    15.0739 0.0000e+00
     -0.058     -0.001     9.4917     94.282     34.758  27.857913     0.2120      7.142   294.6401 1.7178e+03     1.3062     -0.057     -0.083    15.0724 0.0000e+00
     -0.059     -0.001     9.4878     94.217     34.754  27.846257     0.1890      7.141   294.6697 1.7128e+03     1.3036     -0.057     -0.083    15.0770 0.0000e+00
     -0.059     -0.001     9.4797     94.115     34.776  27.856563     0.1656      7.141   294.6208 1.7149e+03     1.3049     -0.058     -0.084    15.0867 0.0000e+00
     -0.059     -0.001     9.4707     94.013     34.780  27.855523     0.1591      7.141   294.6509 1.7157e+03     1.2921     -0.059     -0.085    15.0845 0.0000e+00
     -0.059     -0.001     9.4630     93.931     34.755  27.833673     0.1551      7.141   294.6898 1.7152e+03     1.2701     -0.058     -0.084    15.0714 0.0000e+00
     -0.060      0.000     9.4577     93.878     34.771  27.846372     0.1459      7.141   294.7466 1.7177e+03     1.2531     -0.058     -0.085    15.0579 0.0000e+00
     -0.060      0.000     9.4572     93.875     34.815  27.882066     0.1669      7.141   294.8214 1.7171e+03     1.2393     -0.059     -0.086    15.0463 0.0000e+00
     -0.060      0.000     9.4622     93.925     34.817  27.884261     0.2074      7.141   294.9054 1.7108e+03     1.2558     -0.060     -0.087    15.0408 0.0000e+00
     -0.059      0.001     9.4701     94.002     34.803  27.872907     0.2220      7.140   295.0740 1.7118e+03     1.2693     -0.058     -0.084    15.0383 0.0000e+00
     -0.059      0.001     9.4792     94.090     34.803  27.871782     0.2141      7.139   295.3125 1.7190e+03     1.2496     -0.057     -0.082    15.0373 0.0000e+00
     -0.059      0.001     9.4877     94.171     34.803  27.870657     0.2045      7.136   295.4656 1.7205e+03     1.2018     -0.057     -0.083    15.0397 0.0000e+00
     -0.059      0.001     9.4912     94.201     34.791  27.859303     0.1973      7.134   295.5489 1.7215e+03     1.1178     -0.059     -0.085    15.0407 0.0000e+00
     -0.058      0.001     9.4893     94.178     34.795  27.861496     0.2004      7.133   295.5450 1.7266e+03     1.0587     -0.058     -0.083    15.0393 0.0000e+00
     -0.058      0.001     9.4832     94.120     34.839  27.897172     0.2139      7.133   295.5043 1.7304e+03     1.0667     -0.056     -0.081    15.0376 0.0000e+00
     -0.058      0.001     9.4737     94.037     34.850  27.909662     0.2139      7.132   295.5733 1.7289e+03     1.0920     -0.057     -0.083    15.0365 0.0000e+00
     -0.058      0.000     9.4655     93.968     34.815  27.885520     0.2098      7.132   295.6050 1.7201e+03     1.0909     -0.057     -0.083    15.0344 0.0000e+00
     -0.057 1.8934e-08     9.4617     93.938     34.779  27.859279     0.2200      7.133   295.6293 1.7159e+03     1.0520     -0.056     -0.081    15.0306 0.0000e+00
     -0.057 2.0828e-07     9.4615     93.938     34.762  27.846380     0.2270      7.133   295.6943 1.7188e+03     1.0184     -0.056     -0.081    15.0315 0.0000e+00
     -0.058 2.4201e-07     9.4621     93.940     34.776  27.856564     0.2202      7.132   295.7026 1.7205e+03     1.0214     -0.057     -0.083    15.0385 0.0000e+00
     -0.059 4.2674e-07     9.4592     93.900     34.779  27.855399     0.2113      7.132   295.7297 1.7227e+03     1.0578     -0.058     -0.084    15.0459 0.0000e+00
     -0.059      0.000     9.4518     93.813     34.756  27.832289     0.2114      7.133   295.7644 1.7254e+03     1.0914     -0.058     -0.083    15.0494 0.0000e+00
     -0.059      0.000     9.4428     93.712     34.760  27.831135     0.2122      7.133   295.7777 1.7270e+03     1.0614     -0.057     -0.082    15.0506 0.0000e+00
     -0.059      0.001     9.4335     93.615     34.775  27.841440     0.2124      7.133   295.8049 1.7256e+03     1.0618     -0.057     -0.083    15.0492 0.0000e+00
     -0.059      0.001     9.4250     93.530     34.761  27.829895     0.2136      7.133   295.9209 1.7224e+03     1.1578     -0.057     -0.083    15.0430 0.0000e+00
     -0.058      0.001     9.4198     93.479     34.746  27.818550     0.2167      7.133   296.0618 1.7243e+03     1.2145     -0.057     -0.083    15.0347 0.0000e+00
     -0.057      0.001     9.4198     93.482     34.761  27.831258     0.2226      7.133   296.1313 1.7301e+03     1.1981     -0.056     -0.081    15.0287 0.0000e+00
     -0.057      0.001     9.4260     93.549     34.790  27.856554     0.2207      7.131   296.2449 1.7336e+03     1.2026     -0.054     -0.079    15.0270 0.0000e+00
     -0.057      0.001     9.4371     93.667     34.804  27.870399     0.2124      7.130   296.4036 1.7363e+03     1.2388     -0.055     -0.080    15.0272 0.0000e+00
     -0.058      0.001     9.4491     93.797     34.801  27.871667     0.2054      7.130   296.5007 1.7391e+03     1.2698     -0.057     -0.082    15.0271 0.0000e+00
     -0.058      0.000     9.4592     93.910     34.796  27.871894     0.1994      7.130   296.5585 1.7375e+03     1.2727     -0.057     -0.083    15.0284 0.0000e+00
     -0.057 -1.832e-08     9.4648     93.980     34.791  27.873142     0.1949      7.129   296.6724 1.7324e+03     1.2430     -0.056     -0.081    15.0318 0.0000e+00
     -0.056 -2.015e-07     9.4661     94.008     34.801  27.886769     0.1784      7.129   296.7600 1.7269e+03     1.2469     -0.054     -0.078    15.0352 0.0000e+00
     -0.056      0.000     9.4638     93.994     34.826  27.909660     0.1569      7.128   296.6707 1.7204e+03     1.2884     -0.054     -0.078    15.0399 0.0000e+00
     -0.057      0.000     9.4572     93.919     34.813  27.895920     0.1559      7.127   296.5391 1.7123e+03     1.2874     -0.055     -0.080    15.0476 0.0000e+00
     -0.057     -0.001     9.4422     93.754     34.760  27.847642     0.1563      7.126   296.5459 1.7103e+03     1.2653     -0.056     -0.081    15.0538 0.0000e+00
     -0.057     -0.001     9.4173     93.495     34.749  27.833912     0.1620      7.126   296.6669 1.7148e+03     1.2653     -0.056     -0.082    15.0625 0.0000e+00
     -0.057      0.000     9.3863     93.181     34.779  27.856908     0.1881      7.126   296.7964 1.7167e+03     1.2566     -0.056     -0.081    15.0706 0.0000e+00
     -0.057      0.000     9.3527     92.847     34.798  27.871679     0.2046      7.125   296.8212 1.7220e+03     1.2517     -0.056     -0.081    15.0632 0.0000e+00
     -0.057      0.001     9.3181     92.510     34.813  27.885512     0.2058      7.125   296.7952 1.7320e+03     1.2978     -0.055     -0.080    15.0511 0.0000e+00
     -0.057      0.001     9.2821     92.164     34.822  27.897169     0.2018      7.125   296.8270 1.7371e+03     1.3259     -0.056     -0.081    15.0464 0.0000e+00
     -0.057      0.001     9.2451     91.814     34.800  27.885634     0.1942      7.125   296.8606 1.7380e+03     1.2859     -0.056     -0.081    15.0440 0.0000e+00
     -0.056      0.000     9.2095     91.477     34.777  27.873050     0.1965      7.124   296.8581 1.7383e+03     1.2418     -0.055     -0.080    15.0431 0.0000e+00
     -0.055     -0.001     9.1765     91.163     34.770  27.872017     0.2119      7.122   296.7956 1.7360e+03     1.2206     -0.054     -0.078    15.0460 0.0000e+00
     -0.055     -0.001     9.1464     90.874     34.767  27.873153     0.2238      7.122   296.7939 1.7270e+03     1.2123     -0.054     -0.078    15.0532 0.0000e+00
     -0.056     -0.001     9.1183     90.604     34.780  27.886789     0.2115      7.121   297.0096 1.7156e+03     1.1714     -0.055     -0.079    15.0622 0.0000e+00
     -0.058     -0.001     9.0911     90.340     34.805  27.909887     0.1730      7.118   297.2522 1.7094e+03     1.0929     -0.056     -0.081    15.0709 0.0000e+00
     -0.059      0.000     9.0653     90.088     34.789  27.898437     0.1449      7.113   297.3192 1.7086e+03     1.0566     -0.058     -0.084    15.0782 0.0000e+00
     -0.059 -2.016e-08     9.0450     89.886     34.760  27.875357     0.1379      7.109   297.3028 1.7129e+03     1.0680     -0.058     -0.085    15.0829 0.0000e+00
     -0.058 -2.218e-07     9.0326     89.760     34.773  27.884822     0.1436      7.109   297.3125 1.7220e+03     1.1087     -0.057     -0.082    15.0873 0.0000e+00
     -0.056 -2.218e-07     9.0227     89.659     34.776  27.885882     0.1773      7.109   297.3505 1.7325e+03     1.1825     -0.054     -0.079    15.0908 0.0000e+00
     -0.056 -2.016e-08     9.0120     89.549     34.780  27.888162     0.2138      7.107   297.5035 1.7382e+03     1.2285     -0.053     -0.078    15.0934 0.0000e+00
     -0.057 -1.833e-09     9.0027     89.457     34.810  27.912396     0.2173      7.105   297.6132 1.7411e+03     1.2374     -0.056     -0.081    15.0935 0.0000e+00
     -0.059 -1.666e-10     8.9962     89.398     34.824  27.924895     0.1931      7.105   297.5592 1.7441e+03     1.2279     -0.058     -0.084    15.0913 0.0000e+00
     -0.059 -1.504e-11     8.9902     89.345     34.805  27.912292     0.1603      7.105   297.5392 1.7408e+03     1.2060     -0.058     -0.084    15.0897 0.0000e+00
     -0.058 -2.198e-13     8.9792     89.240     34.771  27.887016     0.1421      7.104   297.6288 1.7339e+03     1.2166     -0.057     -0.082    15.0875 0.0000e+00
     -0.057 1.2609e-11     8.9605     89.054     34.754  27.873276     0.1467      7.103   297.7828 1.7284e+03     1.2339     -0.056     -0.081    15.0873 0.0000e+00
     -0.056 1.3995e-10     8.9352     88.799     34.756  27.873162     0.1705      7.101   297.9376 1.7248e+03     1.2322     -0.055     -0.080    15.0900 0.0000e+00
     -0.056 1.5395e-09     8.9091     88.534     34.774  27.885642     0.2001      7.100   298.0378 1.7241e+03     1.2269     -0.055     -0.080    15.0946 0.0000e+00
     -0.057 1.6934e-08     8.8882     88.322     34.791  27.897168     0.2108      7.100   298.0482 1.7242e+03     1.2306     -0.056     -0.082    15.0980 0.0000e+00
     -0.058 1.8627e-07     8.8736     88.175     34.777  27.885518     0.2068      7.100   298.0628 1.7207e+03     1.2463     -0.057     -0.083    15.0976 0.0000e+00
     -0.058 1.8627e-07     8.8645     88.083     34.761  27.871788     0.2075      7.101   298.1289 1.7152e+03     1.2032     -0.057     -0.082    15.0953 0.0000e+00
     -0.058 1.6934e-08     8.8560     87.998     34.744  27.858153     0.2104      7.102   298.2457 1.7177e+03     1.1066     -0.056     -0.082    15.0916 0.0000e+00
     -0.057 1.5395e-09     8.8413     87.853     34.729  27.847658     0.2144      7.103   298.4421 1.7269e+03     1.0544     -0.055     -0.081    15.0889 0.0000e+00
     -0.057 1.3995e-10     8.8139     87.585     34.758  27.871892     0.2183      7.104   298.6110 1.7295e+03     1.0298     -0.056     -0.080    15.0883 0.0000e+00
     -0.057 1.2723e-11     8.7682     87.139     34.786  27.897177     0.2123      7.106   298.7389 1.7300e+03     0.9927     -0.056     -0.081    15.0869 0.0000e+00
     -0.057 1.1568e-12     8.7020     86.490     34.785  27.899381     0.2062      7.108   298.8696 1.7331e+03     1.0329     -0.056     -0.081    15.0865 0.0000e+00
     -0.057 1.0706e-13     8.6188     85.671     34.780  27.898540     0.2088      7.110   298.9006 1.7322e+03     1.1803     -0.056     -0.081    15.0888 0.0000e+00
     -0.057 3.0587e-14     8.5305     84.801     34.762  27.887014     0.2065      7.111   299.0283 1.7332e+03     1.2794     -0.056     -0.081    15.0898 0.0000e+00
     -0.057 2.3218e-13     8.4495     84.003     34.758  27.887024     0.2065      7.111   299.2946 1.7327e+03     1.2846     -0.056     -0.081    15.0933 0.0000e+00
     -0.057 2.5445e-12     8.3835     83.354     34.770  27.898664     0.2090      7.112   299.3677 1.7257e+03     1.2731     -0.056     -0.081    15.1000 0.0000e+00
     -0.057 2.7989e-11     8.3378     82.904     34.770  27.900754     0.2000      7.114   299.3960 1.7234e+03     1.2633     -0.056     -0.082    15.1034 0.0000e+00
     -0.057 3.0787e-10     8.3142     82.674     34.782  27.912290     0.1991      7.116   299.4649 1.7260e+03     1.2581     -0.055     -0.080    15.1083 0.0000e+00
     -0.057 3.3866e-09     8.3126     82.664     34.778  27.911154     0.2157      7.117   299.4267 1.7295e+03     1.2398     -0.055     -0.080    15.1131 0.0000e+00
     -0.057 3.7253e-08     8.3311     82.853     34.745  27.887024     0.2358      7.118   299.3638 1.7337e+03     1.2257     -0.055     -0.080    15.1152 0.0000e+00
     -0.057 4.0978e-07     8.3661     83.205     34.728  27.874524     0.2492      7.119   299.3061 1.7349e+03     1.2403     -0.056     -0.081    15.1185 0.0000e+00
     -0.058      0.000     8.4147     83.692     34.742  27.887024     0.2575      7.120   299.2456 1.7311e+03     1.2637     -0.057     -0.082    15.1206 0.0000e+00
     -0.058      0.000     8.4704     84.248     34.771  27.911164     0.2631      7.120   299.2343 1.7259e+03     1.2640     -0.057     -0.083    15.1244 0.0000e+00
     -0.057      0.001     8.5226     84.768     34.772  27.912403     0.2346      7.121   299.2556 1.7251e+03     1.1831     -0.056     -0.081    15.1283 0.0000e+00
     -0.056      0.001     8.5633     85.172     34.759  27.902012     0.1790      7.122   299.3318 1.7257e+03     1.0486     -0.055     -0.080    15.1291 0.0000e+00
     -0.056      0.001     8.5923     85.457     34.774  27.912517     0.1515      7.122   299.4664 1.7247e+03     1.0112     -0.055     -0.080    15.1315 0.0000e+00
     -0.056      0.001     8.6086     85.618     34.775  27.912424     0.1502      7.121   299.5066 1.7215e+03     1.0671     -0.055     -0.080    15.1327 0.0000e+00
     -0.057      0.000     8.6083     85.615     34.760  27.900879     0.1632      7.121   299.4737 1.7160e+03     1.0833     -0.056     -0.081    15.1329 0.0000e+00
     -0.057      0.000     8.5945     85.479     34.758  27.899933     0.1901      7.122   299.4131 1.7138e+03     1.0838     -0.056     -0.081    15.1330 0.0000e+00
     -0.056      0.000     8.5765     85.303     34.758  27.900982     0.2078      7.122   299.3755 1.7111e+03     1.0740     -0.055     -0.080    15.1304 0.0000e+00
     -0.056      0.001     8.5627     85.170     34.772  27.913559     0.2123      7.122   299.4498 1.7119e+03     1.0257     -0.055     -0.080    15.1293 0.0000e+00
     -0.056      0.001     8.5612     85.161     34.783  27.925007     0.2082      7.121   299.4507 1.7224e+03     1.0806     -0.055     -0.080    15.1299 0.0000e+00
     -0.056      0.001     8.5736     85.287     34.767  27.912412     0.2035      7.121   299.3864 1.7304e+03     1.2179     -0.055     -0.079    15.1297 0.0000e+00
     -0.055      0.000     8.5913     85.461     34.738  27.888274     0.2100      7.122   299.4467 1.7347e+03     1.2815     -0.054     -0.078    15.1317 0.0000e+00
     -0.055 -3.880e-07     8.6096     85.638     34.738  27.887148     0.2144      7.122   299.5782 1.7375e+03     1.2709     -0.054     -0.078    15.1351 0.0000e+00
     -0.055      0.000     8.6258     85.794     34.755  27.898788     0.2106      7.121   299.6856 1.7351e+03     1.2422     -0.054     -0.078    15.1390 0.0000e+00
     -0.056      0.000     8.6312     85.847     34.760  27.902014     0.2099      7.121   299.7124 1.7310e+03     1.2387     -0.055     -0.079    15.1406 0.0000e+00
     -0.056     -0.001     8.6230     85.771     34.788  27.926155     0.2140      7.121   299.6441 1.7280e+03     1.2289     -0.055     -0.080    15.1382 0.0000e+00
     -0.056     -0.001     8.6075     85.622     34.798  27.936678     0.2146      7.121   299.5479 1.7290e+03     1.2157     -0.055     -0.079    15.1358 0.0000e+00
     -0.056      0.000     8.5897     85.451     34.752  27.902252     0.2082      7.122   299.4957 1.7317e+03     1.2320     -0.055     -0.080    15.1316 0.0000e+00
     -0.056 -1.847e-08     8.5738     85.296     34.736  27.890907     0.2107      7.122   299.4436 1.7333e+03     1.2427     -0.055     -0.079    15.1299 0.0000e+00
     -0.056 -2.032e-07     8.5613     85.173     34.780  27.926516     0.2166      7.120   299.3476 1.7351e+03     1.2229     -0.055     -0.080    15.1352 0.0000e+00
     -0.056 -2.032e-07     8.5479     85.040     34.811  27.951801     0.2149      7.119   299.3678 1.7328e+03     1.2061     -0.055     -0.080    15.1383 0.0000e+00
     -0.056 -1.847e-08     8.5324     84.887     34.800  27.942630     0.2177      7.119   299.5158 1.7301e+03     1.2231     -0.055     -0.080    15.1408 0.0000e+00
     -0.056 -1.680e-09     8.5190     84.752     34.800  27.942630     0.2233      7.118   299.5882 1.7328e+03     1.1841     -0.055     -0.080    15.1449 0.0000e+00
     -0.056 -1.527e-10     8.5064     84.626     34.812  27.951792     0.2273      7.118   299.6417 1.7366e+03     1.1004     -0.055     -0.080    15.1437 0.0000e+00
     -0.056 -1.388e-11     8.4908     84.474     34.778  27.926402     0.2293      7.117   299.7323 1.7385e+03     1.0661     -0.055     -0.080    15.1441 0.0000e+00
     -0.056 -1.260e-12     8.4702     84.278     34.728  27.889647     0.2210      7.116   299.6509 1.7347e+03     1.0439     -0.055     -0.080    15.1462 0.0000e+00
     -0.056 -9.452e-14     8.4453     84.041     34.722  27.888397     0.2095      7.115   299.5171 1.7283e+03     1.0759     -0.055     -0.079    15.1429 0.0000e+00
     -0.055 2.1159e-13     8.4166     83.766     34.746  27.911287     0.2092      7.115   299.5774 1.7257e+03     1.1780     -0.054     -0.078    15.1416 0.0000e+00
     -0.055 2.4412e-12     8.3810     83.417     34.745  27.912423     0.2170      7.116   299.6920 1.7252e+03     1.2413     -0.054     -0.079    15.1452 0.0000e+00
     -0.056 2.6864e-11     8.3391     83.002     34.730  27.902125     0.2205      7.117   299.6980 1.7272e+03     1.2617     -0.055     -0.079    15.1499 0.0000e+00
     -0.056 2.9550e-10     8.2968     82.583     34.744  27.913775     0.2248      7.117   299.6502 1.7299e+03     1.2104     -0.055     -0.080    15.1561 0.0000e+00
     -0.056 3.2505e-09     8.2562     82.178     34.760  27.926286     0.2323      7.117   299.7160 1.7281e+03     1.0784     -0.055     -0.080    15.1625 0.0000e+00
     -0.056 3.5756e-08     8.2158     81.778     34.759  27.926401     0.2285      7.117   299.8910 1.7261e+03     1.0089     -0.056     -0.081    15.1654 0.0000e+00
     -0.056 3.9331e-07     8.1774     81.400     34.743  27.915158     0.2158      7.116   300.0465 1.7281e+03     1.0415     -0.055     -0.080    15.1659 0.0000e+00
     -0.056      0.000     8.1419     81.049     34.744  27.917352     0.2079      7.115   300.1326 1.7323e+03     1.0759     -0.055     -0.080    15.1674 0.0000e+00
     -0.056      0.000     8.1052     80.684     34.789  27.952934     0.2058      7.114   300.1577 1.7378e+03     1.1194     -0.055     -0.080    15.1661 0.0000e+00
     -0.057      0.001     8.0658     80.294     34.802  27.964384     0.2079      7.114   300.1786 1.7432e+03     1.2315     -0.056     -0.081    15.1665 0.0000e+00
     -0.057      0.001     8.0278     79.917     34.757  27.928794     0.2157      7.114   300.2122 1.7429e+03     1.3022     -0.056     -0.081    15.1720 0.0000e+00
     -0.056      0.001     7.9904     79.547     34.725  27.903614     0.2175      7.113   300.2209 1.7374e+03     1.2729     -0.055     -0.079    15.1723 0.0000e+00
     -0.055      0.002     7.9535     79.181     34.736  27.913934     0.2115      7.111   300.1972 1.7323e+03     1.2430     -0.054     -0.078    15.1701 0.0000e+00
     -0.055      0.002     7.9190     78.841     34.751  27.926573     0.2079      7.110   300.1836 1.7258e+03     1.2469     -0.054     -0.078    15.1724 0.0000e+00
     -0.055      0.001     7.8868     78.526     34.752  27.929424     0.2104      7.110   300.1421 1.7183e+03     1.2584     -0.053     -0.077    15.1746 0.0000e+00
     -0.054     -0.001     7.8562     78.225     34.773  27.948410     0.2143      7.109   300.1266 1.7148e+03     1.2594     -0.054     -0.078    15.1743 0.0000e+00
     -0.054     -0.002     7.8276     77.943     34.793  27.965644     0.1992      7.106   300.2540 1.7145e+03     1.1980     -0.053     -0.075    15.1752 0.0000e+00
     -0.054     -0.001     7.8011     77.684     34.768  27.947296     0.1652      7.104   300.3918 1.7145e+03     1.0965     -0.052     -0.076    15.1779 0.0000e+00
     -0.057     -0.001     7.7736     77.413     34.729  27.917072     0.1447      7.103   300.5027 1.7150e+03     1.0704     -0.056     -0.082    15.1807 0.0000e+00
     -0.059     -0.002     7.7437     77.115     34.729  27.917705     0.1439      7.101   300.5615 1.7152e+03     1.0650     -0.060     -0.086    15.1837 0.0000e+00
     -0.056     -0.003     7.7140     76.820     34.775  27.954952     0.1462      7.101   300.5000 1.7201e+03     1.0918     -0.056     -0.081    15.1851 0.0000e+00
     -0.053     -0.003     7.6834     76.519     34.812  27.986425     0.1444      7.101   300.5345 1.7296e+03     1.2115     -0.051     -0.074    15.1874 0.0000e+00
     -0.054     -0.003     7.6515     76.204     34.804  27.980747     0.1405      7.101   300.6343 1.7329e+03     1.2607     -0.052     -0.076    15.1917 0.0000e+00
     -0.058     -0.003     7.6253     75.942     34.766  27.949792     0.1454      7.100   300.5881 1.7297e+03     1.2602     -0.058     -0.085    15.1898 0.0000e+00
     -0.061     -0.003     7.6065     75.755     34.741  27.929660     0.1480      7.100   300.5782 1.7269e+03     1.2663     -0.061     -0.089    15.1890 0.0000e+00
     -0.061     -0.003     7.5945     75.636     34.739  27.927830     0.1543      7.100   300.6863 1.7258e+03     1.2430     -0.060     -0.087    15.1946 0.0000e+00
     -0.061     -0.002     7.5929     75.619     34.739  27.927663     0.1850      7.100   300.7765 1.7289e+03     1.2528     -0.059     -0.086    15.1952 0.0000e+00
     -0.061     -0.000     7.5992     75.677     34.741  27.927648     0.2061      7.100   300.8951 1.7345e+03     1.2631     -0.059     -0.086    15.1924 0.0000e+00
     -0.061      0.001     7.6093     75.774     34.743  27.927638     0.2071      7.100   301.0021 1.7354e+03     1.2456     -0.060     -0.087    15.1927 0.0000e+00
     -0.061      0.001     7.6238     75.916     34.744  27.927534     0.2071      7.100   301.0366 1.7315e+03     1.2236     -0.060     -0.087    15.1945 0.0000e+00
     -0.060      0.002     7.6399     76.077     34.742  27.926389     0.2056      7.101   300.9683 1.7235e+03     1.2108     -0.059     -0.086    15.1936 0.0000e+00
     -0.059      0.002     7.6530     76.211     34.724  27.913795     0.2074      7.101   300.9514 1.7121e+03     1.2444     -0.058     -0.085    15.1901 0.0000e+00
     -0.059      0.003     7.6588     76.273     34.708  27.902264     0.2102      7.101   301.1765 1.7099e+03     1.2639     -0.058     -0.084    15.1872 0.0000e+00
     -0.058      0.003     7.6538     76.228     34.721  27.913975     0.2112      7.100   301.2808 1.7179e+03     1.2321     -0.057     -0.083    15.1866 0.0000e+00
     -0.057      0.003     7.6396     76.091     34.736  27.928392     0.2116      7.096   301.1802 1.7230e+03     1.2256     -0.056     -0.081    15.1875 0.0000e+00
     -0.056      0.003     7.6171     75.871     34.760  27.949585     0.2151      7.092   301.1637 1.7289e+03     1.2461     -0.056     -0.081    15.1889 0.0000e+00
     -0.055      0.002     7.5840     75.547     34.795  27.979716     0.2248      7.092   301.1682 1.7349e+03     1.2667     -0.054     -0.079    15.1918 0.0000e+00
     -0.054      0.001     7.5430     75.143     34.786  27.975202     0.2279      7.094   301.1485 1.7329e+03     1.2918     -0.053     -0.077    15.1947 0.0000e+00
     -0.054     -0.001     7.4999     74.718     34.764  27.958515     0.2169      7.097   301.1840 1.7288e+03     1.3060     -0.052     -0.076    15.1968 0.0000e+00
     -0.055     -0.003     7.4554     74.278     34.774  27.968456     0.2111      7.099   301.2522 1.7268e+03     1.2858     -0.053     -0.077    15.1996 0.0000e+00
     -0.056     -0.003     7.4094     73.823     34.772  27.968404     0.2121      7.101   301.2856 1.7213e+03     1.2301     -0.055     -0.079    15.2031 0.0000e+00
     -0.058     -0.002     7.3633     73.368     34.757  27.957886     0.2114      7.103   301.2434 1.7149e+03     1.1818     -0.058     -0.082    15.2066 0.0000e+00
     -0.060     -0.001     7.3180     72.918     34.769  27.968286     0.2204      7.104   301.2589 1.7166e+03     1.1904     -0.060     -0.087    15.2092 0.0000e+00
     -0.060     -0.001     7.2766     72.506     34.767  27.967151     0.2291      7.105   301.3863 1.7219e+03     1.2430     -0.060     -0.088    15.2108 0.0000e+00
     -0.057      0.000     7.2395     72.140     34.736  27.944156     0.2256      7.107   301.4932 1.7259e+03     1.2681     -0.056     -0.081    15.2131 0.0000e+00
     -0.055 3.3589e-09     7.2051     71.801     34.734  27.944259     0.2142      7.108   301.6054 1.7336e+03     1.2499     -0.052     -0.076    15.2163 0.0000e+00
     -0.057 3.6947e-08     7.1716     71.469     34.763  27.968399     0.2110      7.107   301.7095 1.7456e+03     1.2062     -0.056     -0.081    15.2164 0.0000e+00
     -0.059 4.0642e-07     7.1382     71.138     34.780  27.982035     0.2232      7.105   301.7200 1.7496e+03     1.1367     -0.058     -0.085    15.2162 0.0000e+00
     -0.059      0.000     7.1067     70.823     34.780  27.982138     0.2336      7.103   301.7323 1.7452e+03     1.0797     -0.059     -0.085    15.2200 0.0000e+00
     -0.058      0.000     7.0754     70.513     34.763  27.969648     0.2355      7.101   301.7720 1.7393e+03     1.0367     -0.057     -0.082    15.2225 0.0000e+00
     -0.057      0.001     7.0432     70.198     34.745  27.958008     0.2275      7.099   301.7700 1.7292e+03     0.9830     -0.055     -0.080    15.2236 0.0000e+00
     -0.057      0.001     7.0178     69.952     34.755  27.968409     0.2103      7.099   301.7947 1.7165e+03     0.9790     -0.056     -0.081    15.2243 0.0000e+00
     -0.057      0.000     7.0007     69.785     34.753  27.968414     0.2028      7.100   301.8981 1.7076e+03     1.0190     -0.055     -0.080    15.2228 0.0000e+00
     -0.057 -3.179e-10     6.9827     69.607     34.738  27.958066     0.2107      7.101   301.9875 1.7086e+03     1.0393     -0.056     -0.081    15.2240 0.0000e+00
     -0.058 -3.497e-09     6.9666     69.450     34.752  27.970288     0.2132      7.102   301.9292 1.7190e+03     1.1023     -0.057     -0.083    15.2293 0.0000e+00
     -0.058 -3.847e-08     6.9577     69.366     34.773  27.989189     0.2052      7.102   301.7963 1.7300e+03     1.2016     -0.057     -0.083    15.2335 0.0000e+00
     -0.058 -4.232e-07     6.9537     69.328     34.780  27.996107     0.2052      7.102   301.7567 1.7379e+03     1.2322     -0.057     -0.082    15.2360 0.0000e+00
     -0.058      0.000     6.9528     69.318     34.774  27.990429     0.2137      7.103   301.7944 1.7431e+03     1.2287     -0.057     -0.082    15.2372 0.0000e+00
     -0.058      0.000     6.9517     69.307     34.765  27.984036     0.2157      7.104   301.8218 1.7446e+03     1.1898     -0.057     -0.083    15.2387 0.0000e+00
     -0.058     -0.001     6.9497     69.293     34.760  27.982318     0.2113      7.105   301.8294 1.7422e+03     1.0665     -0.056     -0.082    15.2426 0.0000e+00
     -0.058     -0.001     6.9515     69.318     34.741  27.969662     0.2068      7.106   301.8863 1.7362e+03     0.9890     -0.057     -0.082    15.2441 0.0000e+00
     -0.058     -0.000     6.9582     69.393     34.722  27.958007     0.2080      7.107   302.0805 1.7282e+03     1.0163     -0.056     -0.082    15.2425 0.0000e+00
     -0.059      0.000     6.9689     69.506     34.731  27.968397     0.2068      7.107   302.2841 1.7237e+03     1.0910     -0.057     -0.084    15.2423 0.0000e+00
     -0.059      0.001     6.9854     69.674     34.728  27.968292     0.2010      7.108   302.2827 1.7236e+03     1.1901     -0.058     -0.085    15.2459 0.0000e+00
     -0.058      0.001     7.0067     69.889     34.713  27.956747     0.2023      7.108   302.2365 1.7243e+03     1.2382     -0.058     -0.084    15.2515 0.0000e+00
     -0.057      0.001     7.0276     70.100     34.710  27.955807     0.2038      7.107   302.3273 1.7264e+03     1.2454     -0.057     -0.082    15.2567 0.0000e+00
     -0.056      0.001     7.0436     70.262     34.710  27.956927     0.2014      7.106   302.4341 1.7301e+03     1.2467     -0.055     -0.080    15.2616 0.0000e+00
     -0.056      0.001     7.0534     70.362     34.725  27.970295     0.2012      7.105   302.4947 1.7338e+03     1.2228     -0.055     -0.079    15.2641 0.0000e+00
     -0.057      0.001     7.0594     70.425     34.749  27.990437     0.2005      7.105   302.5449 1.7351e+03     1.2310     -0.055     -0.080    15.2635 0.0000e+00
     -0.058      0.001     7.0618     70.452     34.772  28.009959     0.2018      7.105   302.5248 1.7326e+03     1.2848     -0.056     -0.082    15.2659 0.0000e+00
     -0.058      0.001     7.0600     70.437     34.778  28.015837     0.2081      7.106   302.5094 1.7273e+03     1.2943     -0.056     -0.082    15.2691 0.0000e+00
     -0.057      0.001     7.0555     70.392     34.755  27.998007     0.2127      7.106   302.6165 1.7219e+03     1.1930     -0.056     -0.081    15.2695 0.0000e+00
     -0.056      0.001     7.0487     70.324     34.739  27.984892     0.2120      7.106   302.7013 1.7187e+03     1.0674     -0.055     -0.079    15.2707 0.0000e+00
     -0.055      0.000     7.0391     70.230     34.737  27.984258     0.2087      7.107   302.6739 1.7201e+03     1.0578     -0.053     -0.077    15.2734 0.0000e+00
     -0.055      0.000     7.0259     70.101     34.743  27.990343     0.2092      7.108   302.7161 1.7285e+03     1.1070     -0.054     -0.078    15.2760 0.0000e+00
     -0.056     -0.001     7.0114     69.959     34.748  27.994960     0.2180      7.106   302.8666 1.7375e+03     1.1428     -0.055     -0.080    15.2753 0.0000e+00
     -0.057     -0.001     6.9973     69.820     34.723  27.976582     0.2226      7.104   302.9456 1.7395e+03     1.2168     -0.055     -0.080    15.2748 0.0000e+00
     -0.057     -0.001     6.9848     69.696     34.700  27.958634     0.2191      7.103   302.9826 1.7381e+03     1.2689     -0.056     -0.081    15.2772 0.0000e+00
     -0.057     -0.001     6.9753     69.603     34.712  27.968462     0.2224      7.098   303.0565 1.7390e+03     1.2847     -0.056     -0.081    15.2784 0.0000e+00
     -0.057     -0.001     6.9694     69.547     34.710  27.968409     0.2251      7.093   303.0653 1.7372e+03     1.3159     -0.055     -0.080    15.2800 0.0000e+00
     -0.057     -0.001     6.9722     69.577     34.696  27.957994     0.2151      7.089   303.0025 1.7291e+03     1.3114     -0.055     -0.080    15.2823 0.0000e+00
     -0.057     -0.001     6.9895     69.750     34.710  27.969539     0.2036      7.088   302.9850 1.7224e+03     1.2904     -0.056     -0.081    15.2822 0.0000e+00
     -0.057     -0.001     7.0197     70.053     34.723  27.980998     0.2050      7.088   303.0264 1.7208e+03     1.2758     -0.056     -0.082    15.2828 0.0000e+00
     -0.058     -0.001     7.0577     70.435     34.708  27.969548     0.2133      7.088   303.0721 1.7206e+03     1.2571     -0.056     -0.081    15.2857 0.0000e+00
     -0.058     -0.001     7.1012     70.870     34.693  27.958098     0.2124      7.089   303.1071 1.7250e+03     1.2778     -0.057     -0.082    15.2875 0.0000e+00
     -0.058     -0.001     7.1449     71.309     34.705  27.969553     0.2029      7.089   303.1926 1.7332e+03     1.2820     -0.056     -0.083    15.2865 0.0000e+00
     -0.058     -0.000     7.1806     71.670     34.717  27.981046     0.2003      7.090   303.3311 1.7340e+03     1.2473     -0.056     -0.081    15.2877 0.0000e+00
     -0.059      0.000     7.2046     71.913     34.702  27.970064     0.2082      7.092   303.4908 1.7324e+03     1.2241     -0.057     -0.083    15.2899 0.0000e+00
     -0.059      0.000     7.2158     72.027     34.693  27.963775     0.2153      7.094   303.6610 1.7326e+03     1.2148     -0.058     -0.084    15.2893 0.0000e+00
     -0.058      0.001     7.2122     71.992     34.698  27.968509     0.2131      7.096   303.6682 1.7274e+03     1.2258     -0.057     -0.082    15.2913 0.0000e+00
     -0.058      0.001     7.1957     71.828     34.692  27.963796     0.2087      7.097   303.5775 1.7244e+03     1.2359     -0.057     -0.082    15.2961 0.0000e+00
     -0.058      0.000     7.1715     71.585     34.700  27.970293     0.2177      7.098   303.5971 1.7259e+03     1.2459     -0.057     -0.083    15.2978 0.0000e+00
     -0.057     -0.001     7.1416     71.286     34.717  27.983564     0.2298      7.101   303.5615 1.7251e+03     1.2539     -0.056     -0.082    15.2976 0.0000e+00
     -0.057     -0.001     7.1079     70.953     34.733  27.997261     0.2259      7.103   303.4911 1.7261e+03     1.2417     -0.055     -0.079    15.2994 0.0000e+00
     -0.058      0.000     7.0738     70.614     34.746  28.008906     0.2164      7.103   303.6061 1.7280e+03     1.2208     -0.056     -0.081    15.3010 0.0000e+00
     -0.060      0.001     7.0425     70.302     34.731  27.997360     0.2079      7.103   303.7472 1.7271e+03     1.2148     -0.058     -0.085    15.2991 0.0000e+00
     -0.061      0.002     7.0176     70.052     34.716  27.984662     0.2049      7.103   303.7352 1.7252e+03     1.2608     -0.061     -0.088    15.2977 0.0000e+00
     -0.060      0.002     7.0008     69.884     34.714  27.982374     0.2079      7.103   303.7183 1.7213e+03     1.2881     -0.059     -0.086    15.2999 0.0000e+00
     -0.057      0.003     6.9904     69.785     34.695  27.969689     0.2079      7.102   303.8006 1.7242e+03     1.2398     -0.055     -0.080    15.3021 0.0000e+00
     -0.054      0.005     6.9863     69.752     34.678  27.958289     0.2134      7.098   303.9559 1.7268e+03     1.2261     -0.051     -0.074    15.3031 0.0000e+00
     -0.054      0.007     6.9923     69.812     34.693  27.971541     0.2204      7.091   304.0478 1.7248e+03     1.2450     -0.052     -0.076    15.3018 0.0000e+00
     -0.055      0.007     7.0114     70.002     34.732  28.002925     0.2279      7.085   303.8803 1.7354e+03     1.2548     -0.056     -0.082    15.2987 0.0000e+00
     -0.054      0.005     7.0415     70.304     34.753  28.020242     0.2299      7.083   303.7364 1.7388e+03     1.2837     -0.053     -0.077    15.3028 0.0000e+00
     -0.049      0.002     7.0776     70.665     34.716  27.990423     0.2174      7.084   303.8565 1.7277e+03     1.2581     -0.048     -0.070    15.3114 0.0000e+00
     -0.044      0.000     7.1174     71.061     34.678  27.959891     0.2136      7.088   304.0420 1.7218e+03     1.2196     -0.043     -0.063    15.3097 0.0000e+00
     -0.044     -0.001     7.1616     71.498     34.692  27.968580     0.2211      7.089   304.1725 1.7138e+03     1.2466     -0.039     -0.057    15.3075 0.0000e+00
     -0.050     -0.002     7.2076     71.948     34.697  27.968476     0.2161      7.087   304.1440 1.6955e+03     1.2484     -0.047     -0.069    15.3104 0.0000e+00
     -0.057     -0.005     7.2522     72.383     34.690  27.958634     0.2001      7.086   304.0417 1.6876e+03     1.2106     -0.060     -0.087    15.3102 0.0000e+00
     -0.057     -0.007     7.2947     72.803     34.715  27.976580     0.1926      7.088   304.0540 1.7028e+03     1.1865     -0.059     -0.086    15.3103 0.0000e+00
     -0.052     -0.007     7.3327     73.181     34.738  27.994957     0.1995      7.091   304.0346 1.7211e+03     1.1397     -0.049     -0.071    15.3070 0.0000e+00
     -0.051     -0.004     7.3696     73.547     34.733  27.990331     0.2095      7.095   303.9787 1.7284e+03     1.0723     -0.047     -0.068    15.3006 0.0000e+00
     -0.057     -0.001     7.4111     73.957     34.728  27.984143     0.2123      7.097   303.9814 1.7279e+03     1.0419     -0.056     -0.081    15.2932 0.0000e+00
     -0.062      0.000     7.4514     74.357     34.728  27.983632     0.2057      7.096   303.9813 1.7184e+03     1.0167     -0.064     -0.093    15.2897 0.0000e+00
     -0.062      0.000     7.4834     74.677     34.729  27.984153     0.2032      7.096   304.0627 1.7032e+03     1.0424     -0.063     -0.091    15.2911 0.0000e+00
     -0.058      0.001     7.5061     74.903     34.737  27.990445     0.2194      7.096   304.1911 1.6917e+03     1.1702     -0.057     -0.083    15.2901 0.0000e+00
     -0.054      0.002     7.5191     75.032     34.744  27.996209     0.2358      7.097   304.2439 1.6904e+03     1.2497     -0.053     -0.076    15.2866 0.0000e+00
     -0.053      0.004     7.5239     75.080     34.737  27.990342     0.2356      7.099   304.2702 1.7014e+03     1.2398     -0.051     -0.073    15.2850 0.0000e+00
     -0.055      0.004     7.5239     75.082     34.727  27.983004     0.2267      7.100   304.3370 1.7191e+03     1.2342     -0.054     -0.077    15.2859 0.0000e+00
     -0.057      0.003     7.5212     75.058     34.711  27.970987     0.2111      7.101   304.3639 1.7352e+03     1.2431     -0.057     -0.083    15.2859 0.0000e+00
     -0.057      0.003     7.5184     75.032     34.711  27.972047     0.1939      7.100   304.3370 1.7432e+03     1.2563     -0.056     -0.081    15.2851 0.0000e+00
     -0.054      0.003     7.5189     75.039     34.739  27.995820     0.1929      7.097   304.2697 1.7421e+03     1.2413     -0.053     -0.076    15.2849 0.0000e+00
     -0.050      0.003     7.5199     75.051     34.749  28.004426     0.2088      7.094   304.1531 1.7320e+03     1.1518     -0.049     -0.071    15.2861 0.0000e+00
     -0.048      0.002     7.5150     75.006     34.757  28.012602     0.2201      7.093   304.1315 1.7125e+03     1.0598     -0.046     -0.067    15.2879 0.0000e+00
     -0.048      0.001     7.5052     74.911     34.778  28.031178     0.2187      7.093   304.1799 1.6991e+03     1.0453     -0.047     -0.067    15.2893 0.0000e+00
     -0.051      0.000     7.4944     74.807     34.785  28.038530     0.2105      7.094   304.2224 1.6997e+03     1.0668     -0.051     -0.073    15.2908 0.0000e+00
     -0.052     -0.001     7.4838     74.704     34.783  28.038001     0.2038      7.094   304.3016 1.7032e+03     1.1369     -0.053     -0.076    15.2918 0.0000e+00
     -0.052     -0.001     7.4758     74.626     34.766  28.024782     0.2116      7.094   304.2766 1.7053e+03     1.2517     -0.052     -0.075    15.2939 0.0000e+00
     -0.051      0.000     7.4768     74.638     34.741  28.005694     0.2212      7.094   304.1780 1.7035e+03     1.2961     -0.049     -0.071    15.2967 0.0000e+00
     -0.050 -4.031e-09     7.4942     74.814     34.731  27.997717     0.2191      7.095   304.2281 1.7010e+03     1.2762     -0.048     -0.069    15.2985 0.0000e+00
     -0.050 -4.434e-08     7.5322     75.195     34.722  27.991829     0.2146      7.097   304.2808 1.7032e+03     1.2562     -0.049     -0.071    15.3002 0.0000e+00
     -0.051 -4.877e-07     7.5914     75.786     34.729  27.998013     0.2117      7.099   304.2979 1.7063e+03     1.2364     -0.050     -0.072    15.3009 0.0000e+00
     -0.051      0.000     7.6634     76.506     34.743  28.008981     0.2123      7.099   304.3493 1.7110e+03     1.2511     -0.051     -0.073    15.3018 0.0000e+00
     -0.051      0.000     7.7336     77.207     34.728  27.997444     0.2127      7.099   304.3005 1.7157e+03     1.2811     -0.051     -0.073    15.3035 0.0000e+00
     -0.050     -0.001     7.7935     77.807     34.712  27.985521     0.2166      7.099   304.2238 1.7147e+03     1.2634     -0.049     -0.071    15.3044 0.0000e+00
     -0.050     -0.002     7.8410     78.285     34.718  27.991817     0.2226      7.100   304.1959 1.7079e+03     1.2505     -0.048     -0.070    15.3051 0.0000e+00
     -0.050     -0.004     7.8730     78.608     34.740  28.010071     0.2210      7.102   304.2216 1.6966e+03     1.2787     -0.048     -0.070    15.3056 0.0000e+00
     -0.052     -0.004     7.8863     78.742     34.745  28.015731     0.2156      7.102   304.2761 1.6829e+03     1.2985     -0.051     -0.074    15.3055 0.0000e+00
     -0.055     -0.004     7.8819     78.701     34.720  27.996752     0.2130      7.101   304.3384 1.6720e+03     1.3057     -0.055     -0.079    15.3067 0.0000e+00
     -0.057     -0.004     7.8653     78.539     34.687  27.971099     0.2166      7.100   304.3725 1.6674e+03     1.3049     -0.056     -0.081    15.3095 0.0000e+00
     -0.057     -0.004     7.8456     78.345     34.672  27.959563     0.2222      7.100   304.3445 1.6658e+03     1.2889     -0.057     -0.082    15.3110 0.0000e+00
     -0.057     -0.002     7.8226     78.113     34.703  27.984272     0.2261      7.099   304.4314 1.6688e+03     1.2654     -0.055     -0.079    15.3115 0.0000e+00
     -0.057      0.000     7.7954     77.836     34.745  28.015855     0.2262      7.097   304.5624 1.6803e+03     1.2343     -0.056     -0.080    15.3140 0.0000e+00
     -0.060      0.000     7.7708     77.585     34.758  28.023926     0.2150      7.097   304.6371 1.6987e+03     1.1874     -0.059     -0.087    15.3166 0.0000e+00
     -0.060     -0.002     7.7416     77.291     34.753  28.018363     0.2015      7.097   304.6461 1.7157e+03     1.1267     -0.060     -0.087    15.3179 0.0000e+00
     -0.056     -0.007     7.7056     76.932     34.745  28.012087     0.2000      7.097   304.5860 1.7199e+03     1.0806     -0.055     -0.080    15.3167 0.0000e+00
     -0.054     -0.010     7.6681     76.557     34.744  28.011549     0.2053      7.096   304.6836 1.7152e+03     1.0566     -0.051     -0.074    15.3136 0.0000e+00
     -0.059     -0.012     7.6286     76.160     34.746  28.011862     0.2109      7.094   304.7938 1.7135e+03     1.0809     -0.056     -0.081    15.3094 0.0000e+00
     -0.068     -0.013     7.5851     75.724     34.751  28.015864     0.2130      7.094   304.7142 1.7140e+03     1.1601     -0.067     -0.098    15.3072 0.0000e+00
     -0.075     -0.012     7.5397     75.274     34.725  27.996436     0.2120      7.096   304.6671 1.7090e+03     1.2211     -0.076     -0.111    15.3082 0.0000e+00
     -0.078     -0.008     7.4958     74.841     34.687  27.967459     0.2173      7.099   304.6547 1.6934e+03     1.2390     -0.078     -0.113    15.3090 0.0000e+00
     -0.078     -0.003     7.4527     74.416     34.704  27.983002     0.2215      7.101   304.5651 1.6734e+03     1.2539     -0.077     -0.111    15.3069 0.0000e+00
     -0.077      0.001     7.4124     74.019     34.714  27.993874     0.2076      7.102   304.6164 1.6703e+03     1.2789     -0.076     -0.110    15.3039 0.0000e+00
     -0.074      0.004     7.3754     73.653     34.684  27.971919     0.1963      7.102   304.8448 1.6836e+03     1.2970     -0.071     -0.104    15.3075 0.0000e+00
     -0.072      0.004     7.3420     73.321     34.683  27.971540     0.2047      7.102   305.0034 1.6973e+03     1.2899     -0.069     -0.100    15.3113 0.0000e+00
     -0.072      0.003     7.3166     73.070     34.704  27.989297     0.2177      7.103   305.0714 1.7061e+03     1.2546     -0.070     -0.102    15.3126 0.0000e+00
     -0.073      0.002     7.3003     72.910     34.711  27.996122     0.2250      7.103   305.0652 1.7080e+03     1.2366     -0.071     -0.104    15.3178 0.0000e+00
     -0.073      0.002     7.2920     72.830     34.702  27.990548     0.2188      7.103   304.9277 1.7057e+03     1.2545     -0.071     -0.104    15.3216 0.0000e+00
     -0.073      0.004     7.2941     72.852     34.696  27.985409     0.2076      7.103   304.6995 1.7042e+03     1.2573     -0.071     -0.103    15.3205 0.0000e+00
     -0.072      0.009     7.3094     73.008     34.709  27.997485     0.2082      7.103   304.4578 1.7010e+03     1.2404     -0.070     -0.102    15.3210 0.0000e+00
     -0.070      0.018     7.3334     73.253     34.720  28.009560     0.2077      7.101   304.2419 1.6876e+03     1.2329     -0.069     -0.099    15.3251 0.0000e+00
     -0.067      0.029     7.3624     73.542     34.714  28.004410     0.2018      7.099   304.0679 1.6695e+03     1.2272     -0.067     -0.096    15.3273 0.0000e+00
     -0.062      0.039     7.3943     73.856     34.710  27.998722     0.2013      7.096   303.9884 1.6664e+03     1.2329     -0.065     -0.094    15.3255 0.0000e+00
     -0.048      0.049     7.4315     74.221     34.721  28.004273     0.2019      7.093   304.0544 1.6808e+03     1.2412     -0.051     -0.073    15.3270 0.0000e+00
     -0.027      0.054     7.4910     74.801     34.733  28.008033     0.2096      7.091   304.0928 1.6946e+03     1.2357     -0.025     -0.037    15.3337 0.0000e+00
     -0.008      0.055     7.5852     75.706     34.717  27.980680     0.2209      7.090   303.9360 1.6996e+03     1.2273     -0.007     -0.011    15.3331 0.0000e+00
      0.008      0.053     7.7072     76.860     34.684  27.927532     0.2275      7.091   303.7069 1.7008e+03     1.2318      0.008      0.011    15.3279 0.0000e+00
      0.020      0.049     7.8398     78.098     34.661  27.873392     0.2256      7.092   303.4741 1.7015e+03     1.2594      0.022      0.032    15.3257 0.0000e+00
      0.027      0.046     7.9761     79.368     34.656  27.834028     0.2164      7.094   303.3584 1.6969e+03     1.2864      0.028      0.041    15.3202 0.0000e+00
      0.034      0.046     8.1173     80.696     34.693  27.832533     0.2079      7.094   303.3409 1.6803e+03     1.2837      0.032      0.045    15.3009 0.0000e+00
      0.045      0.047     8.2656     82.102     34.754  27.855281     0.1962      7.094   303.0043 1.5927e+03     1.2572      0.043      0.063    15.2615 0.0000e+00
      0.059      0.050     8.4353     83.723     34.785  27.855044     0.1942      7.094   302.3853 1.4586e+03     1.2713      0.057      0.083    15.2047 0.0000e+00
      0.075      0.054     8.6303     85.596     34.782  27.829636     0.2023      7.094   301.9658 1.4055e+03     1.3011      0.073      0.106    15.1499 0.0000e+00
      0.091      0.057     8.8355     87.576     34.774  27.802044     0.2028      7.094   301.8033 1.4613e+03     1.2823      0.091      0.132    15.1076 0.0000e+00
      0.105      0.058     9.0378     89.534     34.762  27.775397     0.1997      7.094   301.7121 1.4851e+03     1.2571      0.102      0.149    15.0708 0.0000e+00
      0.119      0.058     9.2239     91.345     34.759  27.761431     0.2008      7.093   301.6371 1.2171e+03     1.2415      0.116      0.169    15.0350 0.0000e+00
      0.134      0.058     9.3720     92.793     34.765  27.760161     0.2070      7.090   301.5838 1.0420e+03     1.2459      0.133      0.192    15.0004 0.0000e+00
      0.149      0.059     9.4662     93.712     34.770  27.760036     0.2014      7.088   301.5839 1.2175e+03     1.2795      0.146      0.211    14.9708 0.0000e+00
      0.164      0.061     9.5113     94.146     34.775  27.759913     0.1886      7.087   301.6390 1.1034e+03     1.2805      0.160      0.233    14.9449 0.0000e+00
      0.179      0.062     9.5164     94.177     34.782  27.758663     0.1994      7.087   301.6483 8.0670e+02     1.2586      0.175      0.254    14.9281 0.0000e+00
      0.195      0.062     9.4906     93.890     34.779  27.744923     0.2125      7.087   301.6096 8.4650e+02     1.2589      0.191      0.277    14.9212 0.0000e+00
      0.212      0.062     9.4522     93.472     34.766  27.720775     0.2088      7.088   301.6010 1.0327e+03     1.2529      0.209      0.302    14.9152 0.0000e+00
      0.229      0.062     9.4142     93.061     34.781  27.720662     0.2098      7.088   301.6304 1.0457e+03     1.2479      0.225      0.326    14.9101 0.0000e+00
      0.245      0.061     9.3795     92.697     34.818  27.743545     0.2068      7.088   301.7930 8.9042e+02     1.2608      0.241      0.349    14.9024 0.0000e+00
      0.260      0.059     9.3506     92.403     34.822  27.743450     0.1998      7.088   302.0183 7.6134e+02     1.2854      0.254      0.369    14.8853 0.0000e+00
      0.275      0.056     9.3281     92.175     34.794  27.719509     0.2077      7.088   302.1176 8.0086e+02     1.3014      0.269      0.391    14.8640 0.0000e+00
      0.289      0.053     9.3096     91.980     34.785  27.708069     0.2104      7.088   302.2193 8.8456e+02     1.2704      0.285      0.413    14.8440 0.0000e+00
      0.303      0.051     9.2933     91.798     34.825  27.732114     0.2040      7.088   302.4734 8.8053e+02     1.2165      0.297      0.430    14.8341 0.0000e+00
      0.315      0.051     9.2808     91.657     34.862  27.756235     0.2046      7.088   302.7814 1.0196e+03     1.1987      0.308      0.448    14.8329 0.0000e+00
      0.326      0.052     9.2689     91.533     34.852  27.745718     0.2081      7.088   303.1030 1.3581e+03     1.2382      0.320      0.464    14.8314 0.0000e+00
      0.338      0.054     9.2534     91.377     34.836  27.731945     0.2097      7.087   303.4380 1.4393e+03     1.2674      0.331      0.480    14.8265 0.0000e+00
      0.352      0.057     9.2384     91.221     34.821  27.716704     0.2058      7.086   303.8196 1.1298e+03     1.2468      0.344      0.500    14.8127 0.0000e+00
      0.368      0.060     9.2265     91.089     34.791  27.688432     0.1978      7.086   304.2761 8.8030e+02     1.2332      0.360      0.522    14.8013 0.0000e+00
      0.385      0.062     9.2175     90.983     34.743  27.644094     0.1950      7.086   304.7407 8.7770e+02     1.2247      0.378      0.547    14.8010 0.0000e+00
      0.402      0.064     9.2125     90.907     34.731  27.625105     0.2000      7.085   305.2210 8.6975e+02     1.2057      0.396      0.574    14.8010 0.0000e+00
      0.418      0.064     9.2142     90.880     34.781  27.649314     0.2040      7.084   305.6098 7.7510e+02     1.2169      0.411      0.595    14.7970 0.0000e+00
      0.433      0.063     9.2253     90.912     34.777  27.619290     0.2070      7.084   305.8270 7.4699e+02     1.2073      0.425      0.616    14.7882 0.0000e+00
      0.449      0.062     9.2469     90.969     34.717  27.516056     0.2082      7.085   306.0414 6.9661e+02     1.1809      0.440      0.639    14.7814 0.0000e+00
      0.466      0.059     9.2771     91.032     34.695  27.417032     0.2082      7.086   306.3087 6.2554e+02     1.2331      0.457      0.664    14.7699 0.0000e+00
      0.482      0.056     9.3050     91.083     34.740  27.374373     0.2068      7.088   306.4784 7.1060e+02     1.2584      0.473      0.686    14.7460 0.0000e+00
      0.496      0.053     9.3212     91.095     34.814  27.381155     0.2008      7.090   306.6306 8.4822e+02     1.2124      0.486      0.705    14.7211 0.0000e+00
      0.510      0.050     9.3243     91.037     34.841  27.371982     0.2003      7.092   306.8572 8.4401e+02     1.1957      0.500      0.726    14.6462 0.0000e+00
      0.521      0.048     9.3159     90.890     34.812  27.326936     0.2103      7.095   307.0681 7.8429e+02     1.2096      0.512      0.742    14.5031 0.0000e+00
      0.531      0.047     9.2997     90.661     34.785  27.280956     0.2197      7.095   307.2873 7.4904e+02     1.2274      0.520      0.754    14.3779 0.0000e+00
      0.542      0.047     9.2811     90.391     34.800  27.260503     0.2127      7.095   307.4432 6.8107e+02     1.2284      0.531      0.770    14.3113 0.0000e+00
      0.553      0.048     9.2620     90.109     34.855  27.270092     0.2000      7.096   307.5752 6.4848e+02     1.2223      0.543      0.788    14.2746 0.0000e+00
      0.566      0.051     9.2405     89.815     34.893  27.269867     0.2037      7.096   307.8517 6.7383e+02     1.2447      0.554      0.804    14.2462 0.0000e+00
      0.580      0.055     9.2185     89.536     34.907  27.257744     0.2124      7.095   308.1192 6.9000e+02     1.2557      0.568      0.824    14.2147 0.0000e+00
      0.595      0.057     9.1975     89.295     34.914  27.250482     0.2125      7.093   308.3147 7.0689e+02     1.2331      0.583      0.845    14.1648 0.0000e+00
      0.610      0.061     9.1796     89.097     34.919  27.245551     0.2146      7.092   308.5806 7.0971e+02     1.2148      0.598      0.867    14.1129 0.0000e+00
      0.625      0.066     9.1716     88.991     34.953  27.261601     0.2197      7.090   308.8391 6.4491e+02     1.1875      0.614      0.890    14.0702 0.0000e+00
      0.640      0.071     9.1763     88.999     34.960  27.254046     0.2190      7.087   309.0311 5.9806e+02     1.1768      0.628      0.911    14.0325 0.0000e+00
      0.658      0.075     9.1928     89.113     34.935  27.217676     0.2146      7.085   309.1803 6.4496e+02     1.2072      0.643      0.933    14.0188 0.0000e+00
      0.680      0.078     9.2186     89.316     34.937  27.202817     0.2123      7.084   309.3527 6.5556e+02     1.2503      0.665      0.965    14.0109 0.0000e+00
      0.705      0.079     9.2457     89.543     34.951  27.201363     0.2108      7.084   309.5681 5.1661e+02     1.2707      0.692      1.004    13.9947 0.0000e+00
      0.727      0.078     9.2671     89.727     34.960  27.200086     0.2137      7.085   309.7199 4.0951e+02     1.3327      0.714      1.036    13.9775 0.0000e+00
      0.746      0.077     9.2811     89.847     34.951  27.187362     0.2198      7.086   309.8111 4.4628e+02     1.4802      0.731      1.061    13.9510 0.0000e+00
      0.764      0.074     9.2868     89.889     34.941  27.174504     0.2200      7.086   309.8962 5.3040e+02     1.5287      0.748      1.086    13.9247 0.0000e+00
      0.781      0.073     9.2843     89.853     34.943  27.171618     0.2167      7.086   310.0604 6.1135e+02     1.4614      0.767      1.112    13.9069 0.0000e+00
      0.798      0.075     9.2765     89.764     34.924  27.152464     0.2262      7.085   310.2472 6.1826e+02     1.3676      0.783      1.135    13.8964 0.0000e+00
      0.816      0.080     9.2642     89.632     34.906  27.133395     0.2520      7.083   310.3481 5.3823e+02     1.2492      0.799      1.159    13.8898 0.0000e+00
      0.836      0.085     9.2522     89.505     34.908  27.131545     0.2712      7.082   310.5062 5.1754e+02     1.1895      0.819      1.187    13.8829 0.0000e+00
      0.859      0.089     9.2469     89.445     34.911  27.130085     0.2738      7.082   310.7822 5.2596e+02     1.1954      0.842      1.220    13.8774 0.0000e+00
      0.886      0.090     9.2448     89.416     34.896  27.115745     0.2660      7.081   311.0184 4.6614e+02     1.2286      0.868      1.260    13.8705 0.0000e+00
      0.912      0.089     9.2418     89.379     34.860  27.085151     0.2680      7.080   311.1252 4.0476e+02     1.2862      0.895      1.298    13.8624 0.0000e+00
      0.935      0.088     9.2405     89.360     34.853  27.077660     0.2803      7.079   311.2125 3.6001e+02     1.3127      0.917      1.331    13.8571 0.0000e+00
      0.955      0.085     9.2396     89.347     34.869  27.088669     0.2762      7.077   311.3855 3.6021e+02     1.2736      0.937      1.359    13.8538 0.0000e+00
      0.975      0.081     9.2371     89.323     34.873  27.091259     0.2648      7.075   311.5827 3.7351e+02     1.2402      0.956      1.386    13.8492 0.0000e+00
      0.995      0.080     9.2368     89.323     34.894  27.108982     0.2708      7.073   311.7035 3.3975e+02     1.2449      0.976      1.415    13.8445 0.0000e+00
      1.015      0.081     9.2394     89.352     34.897  27.112454     0.2853      7.073   311.7282 3.1497e+02     1.2396      0.995      1.443    13.8414 0.0000e+00
      1.035      0.085     9.2429     89.382     34.844  27.069739     0.2829      7.073   311.7944 3.1592e+02     1.2069      1.015      1.472    13.8397 0.0000e+00
      1.055      0.091     9.2463     89.406     34.806  27.036995     0.2696      7.072   311.9880 3.2337e+02     1.1845      1.034      1.500    13.8392 0.0000e+00
      1.078      0.099     9.2493     89.422     34.808  27.034033     0.2628      7.069   312.1764 3.3935e+02     1.2126      1.054      1.529    13.8416 0.0000e+00
      1.104      0.105     9.2495     89.406     34.816  27.033919     0.2651      7.065   312.2654 3.7667e+02     1.2411      1.082      1.569    13.8449 0.0000e+00
      1.133      0.109     9.2460     89.355     34.826  27.035611     0.2696      7.062   312.2893 4.3155e+02     1.2248      1.110      1.609    13.8423 0.0000e+00
      1.165      0.109     9.2424     89.305     34.857  27.054491     0.2618      7.061   312.2941 4.3045e+02     1.1984      1.140      1.654    13.8370 0.0000e+00
      1.198      0.107     9.2396     89.268     34.883  27.071695     0.2533      7.060   312.4089 3.6901e+02     1.1969      1.178      1.707    13.8310 0.0000e+00
      1.226      0.102     9.2363     89.228     34.863  27.053129     0.2590      7.059   312.6449 3.7431e+02     1.2060      1.206      1.749    13.8214 0.0000e+00
      1.246      0.097     9.2344     89.200     34.826  27.020498     0.2669      7.058   312.8247 4.1031e+02     1.2176      1.222      1.772    13.8112 0.0000e+00
      1.266      0.091     9.2337     89.182     34.798  26.994637     0.2742      7.057   312.9473 3.8275e+02     1.2155      1.241      1.798    13.8033 0.0000e+00
      1.290      0.086     9.2344     89.180     34.801  26.994418     0.2923      7.057   313.0951 3.5792e+02     1.1798      1.265      1.835    13.7993 0.0000e+00
      1.314      0.082     9.2377     89.205     34.835  27.017857     0.3201      7.057   313.1496 3.5343e+02     1.1827      1.290      1.871    13.7966 0.0000e+00
      1.336      0.079     9.2398     89.218     34.847  27.024039     0.3356      7.058   313.0037 3.4247e+02     1.2207      1.311      1.901    13.7899 0.0000e+00
      1.355      0.076     9.2412     89.222     34.827  27.005661     0.3414      7.060   312.8801 3.2005e+02     1.2112      1.329      1.927    13.7838 0.0000e+00
      1.372      0.072     9.2446     89.247     34.805  26.986139     0.3434      7.061   312.9455 2.9699e+02     1.1897      1.346      1.952    13.7806 0.0000e+00
      1.388      0.070     9.2466     89.262     34.797  26.978489     0.3333      7.062   313.0205 2.9462e+02     1.2050      1.361      1.975    13.7767 0.0000e+00
      1.406      0.070     9.2441     89.238     34.795  26.976662     0.3292      7.063   313.0123 2.9514e+02     1.2432      1.378      1.999    13.7726 0.0000e+00
      1.424      0.071     9.2383     89.183     34.778  26.964049     0.3313      7.063   313.0181 2.9622e+02     1.2554      1.396      2.025    13.7684 0.0000e+00
      1.442      0.071     9.2293     89.094     34.765  26.952976     0.3213      7.063   313.0916 3.1689e+02     1.2307      1.414      2.051    13.7637 0.0000e+00
      1.461      0.070     9.2188     88.989     34.788  26.969777     0.3184      7.064   313.2120 3.4520e+02     1.2500      1.432      2.078    13.7607 0.0000e+00
      1.480      0.069     9.2106     88.909     34.798  26.976694     0.3332      7.065   313.3556 3.5577e+02     1.3058      1.452      2.105    13.7623 0.0000e+00
      1.498      0.069     9.2071     88.876     34.793  26.973107     0.3447      7.065   313.5370 3.6047e+02     1.2947      1.471      2.132    13.7638 0.0000e+00
      1.514      0.069     9.2080     88.886     34.814  26.989904     0.3461      7.066   313.6849 3.8780e+02     1.2380      1.485      2.153    13.7616 0.0000e+00
      1.530      0.068     9.2130     88.934     34.814  26.989297     0.3406      7.066   313.6813 4.2497e+02     1.2301      1.499      2.174    13.7601 0.0000e+00
      1.547      0.068     9.2203     89.002     34.784  26.965775     0.3343      7.066   313.5785 4.4190e+02     1.2600      1.517      2.200    13.7595 0.0000e+00
      1.566      0.068     9.2233     89.027     34.777  26.959481     0.3340      7.065   313.5605 4.0357e+02     1.2645      1.536      2.227    13.7593 0.0000e+00
      1.583      0.069     9.2184     88.978     34.800  26.976694     0.3368      7.065   313.7218 3.4687e+02     1.2538      1.554      2.254    13.7604 0.0000e+00
      1.599      0.069     9.2114     88.911     34.809  26.983403     0.3508      7.066   313.8945 3.2416e+02     1.2823      1.568      2.275    13.7604 0.0000e+00
      1.616      0.069     9.2074     88.873     34.800  26.977094     0.3827      7.067   313.9275 3.1805e+02     1.3352      1.583      2.297    13.7583 0.0000e+00
      1.636      0.068     9.2084     88.883     34.783  26.963911     0.4100      7.067   313.9488 3.1952e+02     1.4052      1.605      2.327    13.7565 0.0000e+00
      1.654      0.068     9.2204     88.998     34.767  26.951002     0.4146      7.068   313.9800 3.1827e+02     1.4575      1.622      2.353    13.7558 0.0000e+00
      1.670      0.068     9.2427     89.211     34.764  26.948002     0.4199      7.069   313.9603 3.1164e+02     1.3880      1.637      2.375    13.7562 0.0000e+00
      1.687      0.068     9.2724     89.493     34.740  26.927642     0.4462      7.070   313.9691 3.1015e+02     1.2967      1.655      2.399    13.7568 0.0000e+00
      1.704      0.069     9.3107     89.854     34.702  26.895317     0.4657      7.070   313.9999 3.4137e+02     1.2996      1.671      2.425    13.7568 0.0000e+00
      1.721      0.072     9.3495     90.219     34.680  26.874651     0.4720      7.070   314.0753 3.6332e+02     1.3006      1.688      2.449    13.7565 0.0000e+00
      1.738      0.074     9.3806     90.512     34.675  26.868250     0.4761      7.071   314.1922 3.2719e+02     1.2790      1.704      2.471    13.7558 0.0000e+00
      1.758      0.075     9.4060     90.750     34.695  26.881411     0.4696      7.071   314.2951 3.2215e+02     1.2821      1.723      2.499    13.7535 0.0000e+00
      1.781      0.075     9.4314     90.985     34.731  26.906789     0.4671      7.072   314.3729 3.3294e+02     1.2770      1.747      2.534    13.7486 0.0000e+00
      1.801      0.075     9.4611     91.260     34.755  26.921106     0.4739      7.073   314.4443 2.9766e+02     1.2483      1.768      2.564    13.7437 0.0000e+00
      1.819      0.074     9.5003     91.626     34.770  26.927508     0.4692      7.073   314.5563 3.0459e+02     1.2704      1.784      2.588    13.7403 0.0000e+00
      1.837      0.073     9.5557     92.146     34.767  26.920696     0.4558      7.074   314.6085 3.3923e+02     1.3609      1.801      2.613    13.7371 0.0000e+00
      1.855      0.072     9.6253     92.803     34.749  26.902236     0.4499      7.075   314.6460 3.3119e+02     1.4271      1.819      2.638    13.7324 0.0000e+00
      1.872      0.072     9.7000     93.508     34.746  26.894786     0.4537      7.077   314.8373 3.2130e+02     1.4297      1.836      2.663    13.7263 0.0000e+00
      1.891      0.071     9.7709     94.179     34.750  26.894113     0.4645      7.078   314.9428 3.2550e+02     1.3621      1.854      2.690    13.7192 0.0000e+00
      1.911      0.069     9.8274     94.716     34.753  26.894094     0.4702      7.078   314.8033 3.2597e+02     1.2501      1.874      2.718    13.7129 0.0000e+00
      1.930      0.066     9.8615     95.040     34.756  26.894557     0.4679      7.079   314.7847 3.2352e+02     1.2059      1.893      2.745    13.7063 0.0000e+00
      1.946      0.064     9.8716     95.133     34.765  26.899699     0.4643      7.081   314.9764 3.1554e+02     1.2243      1.910      2.770    13.6979 0.0000e+00
      1.961      0.062     9.8597     95.010     34.760  26.892771     0.4537      7.081   315.1422 2.9207e+02     1.2278      1.925      2.791    13.6915 0.0000e+00
      1.975      0.061     9.8296     94.705     34.742  26.874290     0.4505      7.080   315.2402 2.7408e+02     1.2483      1.936      2.807    13.6887 0.0000e+00
      1.989      0.061     9.7854     94.259     34.741  26.866727     0.4615      7.079   315.3006 2.8001e+02     1.2581      1.949      2.827    13.6872 0.0000e+00
      2.004      0.062     9.7333     93.734     34.748  26.864815     0.4685      7.079   315.3565 2.9233e+02     1.2240      1.965      2.850    13.6849 0.0000e+00
      2.020      0.064     9.6803     93.197     34.743  26.851170     0.4704      7.079   315.3990 3.0267e+02     1.2333      1.981      2.874    13.6824 0.0000e+00
      2.038      0.065     9.6332     92.707     34.730  26.828724     0.4840      7.079   315.3849 3.1849e+02     1.2788      1.998      2.898    13.6744 0.0000e+00
      2.055      0.064     9.5930     92.284     34.770  26.847397     0.5132      7.079   315.3582 3.1298e+02     1.2555      2.015      2.923    13.6632 0.0000e+00
      2.073      0.063     9.5581     91.930     34.828  26.886430     0.5298      7.079   315.4202 2.8184e+02     1.1960      2.033      2.949    13.6546 0.0000e+00
      2.089      0.064     9.5282     91.646     34.788  26.856195     0.5278      7.077   315.5331 2.7047e+02     1.2001      2.049      2.971    13.6420 0.0000e+00
      2.104      0.064     9.5041     91.416     34.713  26.799314     0.5266      7.072   315.6040 2.7548e+02     1.2439      2.064      2.993    13.6219 0.0000e+00
      2.116      0.063     9.4863     91.231     34.681  26.770151     0.5244      7.067   315.6752 2.6995e+02     1.2674      2.073      3.007    13.6013 0.0000e+00
      2.133      0.063     9.4726     91.076     34.675  26.757564     0.5287      7.065   315.7911 2.5431e+02     1.2707      2.087      3.028    13.5898 0.0000e+00
      2.154      0.064     9.4612     90.945     34.706  26.774104     0.5413      7.064   315.9728 2.6996e+02     1.2532      2.116      3.069    13.5969 0.0000e+00
      2.171      0.066     9.4536     90.849     34.724  26.779646     0.5397      7.062   316.0654 2.9768e+02     1.2391      2.131      3.091    13.6038 0.0000e+00
      2.183      0.067     9.4531     90.816     34.713  26.761057     0.5276      7.062   315.9649 2.8540e+02     1.2527      2.138      3.101    13.5915 0.0000e+00
      2.198      0.066     9.4590     90.841     34.699  26.739830     0.5234      7.063   315.8766 2.6284e+02     1.2659      2.154      3.124    13.5792 0.0000e+00
      2.218      0.065     9.4692     90.911     34.677  26.713467     0.5259      7.064   315.9436 2.5204e+02     1.2764      2.174      3.153    13.5698 0.0000e+00
      2.239      0.066     9.4852     91.042     34.665  26.696280     0.5304      7.066   316.0005 2.5524e+02     1.3180      2.197      3.188    13.5582 0.0000e+00
      2.254      0.069     9.5059     91.213     34.629  26.659008     0.5313      7.066   315.9629 2.7038e+02     1.3723      2.213      3.210    13.5443 0.0000e+00
      2.267      0.071     9.5318     91.389     34.559  26.580277     0.5283      7.066   316.0914 2.7086e+02     1.4139      2.220      3.221    13.5268 0.0000e+00
      2.283      0.074     9.5653     91.559     34.529  26.506268     0.5298      7.067   316.2632 2.5174e+02     1.4555      2.237      3.245    13.5140 0.0000e+00
      2.303      0.078     9.5996     91.700     34.555  26.462567     0.5315      7.068   316.2331 2.4787e+02     1.4787      2.258      3.276    13.5006 0.0000e+00
      2.326      0.083     9.6254     91.800     34.581  26.432786     0.5304      7.069   316.1575 2.4750e+02     1.4808      2.280      3.307    13.4962 0.0000e+00
      2.349      0.087     9.6459     91.900     34.580  26.400107     0.5254      7.071   316.1242 2.3494e+02     1.4812      2.303      3.341    13.4719 0.0000e+00
      2.373      0.088     9.6801     92.118     34.524  26.321393     0.5084      7.075   316.0883 2.3822e+02     1.4831      2.327      3.375    13.3868 0.0000e+00
      2.395      0.088     9.7518     92.603     34.423  26.179463     0.5083      7.082   316.0676 2.5219e+02     1.4741      2.349      3.407    13.2772 0.0000e+00
      2.418      0.088     9.8759     93.452     34.436  26.080859     0.5433      7.093   316.0461 2.4391e+02     1.4635      2.371      3.439    13.2017 0.0000e+00
      2.440      0.088    10.0431     94.630     34.610  26.081471     0.5729      7.113   315.9135 2.2147e+02     1.4457      2.393      3.470    13.1721 0.0000e+00
      2.460      0.089    10.2173     95.984     34.705  26.059726     0.5815      7.140   315.6687 2.1665e+02     1.4116      2.413      3.499    13.1326 0.0000e+00
      2.482      0.092    10.3893     97.459     34.611  25.944819     0.5923      7.178   315.3239 2.1559e+02     1.4171      2.434      3.529    13.0450 0.0000e+00
      2.506      0.094    10.5881     99.149     34.536  25.834987     0.6018      7.228   314.8422 2.1573e+02     1.4524      2.458      3.564    12.8900 0.0000e+00
      2.531      0.095    10.8197    101.077     34.516  25.747602     0.5962      7.286   314.1460 2.1965e+02     1.4724      2.482      3.599    12.6484 0.0000e+00
      2.557      0.095    11.0657    103.163     34.384  25.586597     0.5887      7.348   313.3599 2.0948e+02     1.4751      2.507      3.636    12.4977 0.0000e+00
      2.584      0.090    11.3222    105.366     34.051  25.285055     0.5927      7.406   312.7372 1.9535e+02     1.4544      2.535      3.677    12.4996 0.0000e+00
      2.609      0.082    11.5912    107.677     33.596  24.895269     0.6178      7.456   312.2100 1.9193e+02     1.4963      2.560      3.713    12.4159 0.0000e+00
      2.630      0.071    11.8688    110.077     33.288  24.619634     0.6529      7.501   311.7167 1.8995e+02     1.6150      2.580      3.743    12.2790 0.0000e+00
      2.647      0.059    12.1543    112.596     33.248  24.555434     0.6592      7.543   311.3328 1.9235e+02     1.6690      2.599      3.769    12.2027 0.0000e+00
      2.659      0.048    12.4405    115.187     33.280  24.563421     0.6474      7.585   311.0103 2.0681e+02     1.6621      2.610      3.785    12.1271 0.0000e+00
      2.667      0.038    12.7165    117.706     33.327  24.589218     0.6399      7.624   310.5707 2.0716e+02     1.6843      2.616      3.793    12.0446 0.0000e+00
      2.674      0.031    12.9725    120.001     33.729  24.867334     0.6230      7.657   309.8883 1.9511e+02     1.6929      2.622      3.803    11.9692 0.0000e+00
      2.680      0.026    13.1961    121.964     34.469  25.386443     0.6084      7.682   309.0409 1.9099e+02     1.6440      2.627      3.811    11.9123 0.0000e+00
      2.686      0.023    13.3745    123.529     35.126  25.849874     0.6010      7.702   308.4132 1.8788e+02     1.6118      2.634      3.821    11.8961 0.0000e+00
      2.692      0.021    13.4938    124.599     35.636  26.216629     0.5886      7.717   307.8908 1.8848e+02     1.6081      2.641      3.831    11.8974 0.0000e+00
      2.697      0.019    13.5436    125.073     35.956  26.455640     0.5871      7.728   307.1987 1.9295e+02     1.5689      2.646      3.837    11.8654 0.0000e+00
      2.701      0.018    13.5502    125.149     36.035  26.517419     0.5931      7.733   306.8426 2.0919e+02     1.5354      2.649      3.842    11.8191 0.0000e+00
      2.705 -9.990e-29 -9.990e-29 -9.990e-29 -9.990e-29 -9.990e-29 -9.990e-29 -9.990e-29 -9.990e-29 2.2124e+02 -9.990e-29      2.653      3.848    11.7856 0.0000e+00
      2.709 -9.990e-29 -9.990e-29 -9.990e-29 -9.990e-29 -9.990e-29 -9.990e-29 -9.990e-29 -9.990e-29 2.0154e+02 -9.990e-29      2.656      3.852    11.7740 0.0000e+00
      2.711 -9.990e-29 -9.990e-29 -9.990e-29 -9.990e-29 -9.990e-29 -9.990e-29 -9.990e-29 -9.990e-29 1.8646e+02 -9.990e-29      2.658      3.855    11.7873 0.0000e+00
      2.711 -9.990e-29 -9.990e-29 -9.990e-29 -9.990e-29 -9.990e-29 -9.990e-29 -9.990e-29 -9.990e-29 1.8840e+02 -9.990e-29      2.660      3.857    11.7975 0.0000e+00
