* Sea-Bird SBE19plus  Data File:
* FileName = C:\DATA\050718_fcr_0003.hex
* Software version 2.6.3.104 SB_Terminal.dll
* Temperature SN = 7809
* Conductivity SN = 7809
* System UpLoad Time = May 07 2018 16:24:23
* <ApplicationData>
* <Seaterm232>
* <SoftwareVersion>2.6.3.104</SoftwareVersion>
* <BuildDate>30-Jun-2017</BuildDate>
* </Seaterm232>
* </ApplicationData>
* cast   3 07 May 2018 15:15:24 samples 1658 to 2687, avg = 1, stop = mag switch
# nquan = 15
# nvalues = 916                         
# units = specified
# name 0 = depFM: Depth [fresh water, m]
# name 1 = dz/dtM: Descent Rate [m/s]
# name 2 = sbeox0Mg/L: Oxygen, SBE 43 [mg/l]
# name 3 = sbeox0PS: Oxygen, SBE 43 [% saturation]
# name 4 = specc: Specific Conductance [uS/cm]
# name 5 = c0uS/cm: Conductivity [uS/cm]
# name 6 = flECO-AFL: Fluorescence, WET Labs ECO-AFL/FL [mg/m^3]
# name 7 = ph: pH
# name 8 = orp: Oxidation Reduction Potential [mV]
# name 9 = par/sat/log: PAR/Logarithmic, Satlantic
# name 10 = turbWETntu0: Turbidity, WET Labs ECO [NTU]
# name 11 = prdM: Pressure, Strain Gauge [db]
# name 12 = prdE: Pressure, Strain Gauge [psi]
# name 13 = tv290C: Temperature [ITS-90, deg C]
# name 14 = flag:  0.000e+00
# span 0 =     -0.561,      5.452       
# span 1 =     -0.084,      0.293       
# span 2 =     5.6525,     9.7143       
# span 3 =     59.932,    101.690       
# span 4 =      0.611,     39.089       
# span 5 =   0.541337,  33.473132       
# span 6 =    -1.7169,     2.1914       
# span 7 =      6.201,      7.623       
# span 8 =   275.4850,  1240.2295       
# span 9 = 3.1296e+01, 2.2953e+03       
# span 10 =    -4.8067,    14.5565      
# span 11 =     -0.551,      5.347      
# span 12 =     -0.799,      7.756      
# span 13 =     8.7355,    19.4209      
# span 14 = 0.0000e+00, 0.0000e+00      
# interval = seconds: 0.25
# start_time = May 07 2018 15:15:24 [Instrument's time stamp, header]
# bad_flag = -9.990e-29
# <Sensors count="9" >
#   <sensor Channel="1" >
#     <!-- Count, Temperature -->
#     <TemperatureSensor SensorID="58" >
#       <SerialNumber>7809</SerialNumber>
#       <CalibrationDate>09-Mar-18</CalibrationDate>
#       <A0>1.21093245e-003</A0>
#       <A1>2.84356597e-004</A1>
#       <A2>-1.94507398e-006</A2>
#       <A3>2.12806664e-007</A3>
#       <Slope>1.00000000</Slope>
#       <Offset>0.0000</Offset>
#     </TemperatureSensor>
#   </sensor>
#   <sensor Channel="2" >
#     <!-- Frequency 0, Conductivity -->
#     <ConductivitySensor SensorID="3" >
#       <SerialNumber>7809</SerialNumber>
#       <CalibrationDate>09-Mar-18</CalibrationDate>
#       <UseG_J>1</UseG_J>
#       <!-- Cell const and series R are applicable only for wide range sensors. -->
#       <SeriesR>0.0000</SeriesR>
#       <CellConst>2000.0000</CellConst>
#       <ConductivityType>0</ConductivityType>
#       <Coefficients equation="0" >
#         <A>0.00000000e+000</A>
#         <B>0.00000000e+000</B>
#         <C>0.00000000e+000</C>
#         <D>0.00000000e+000</D>
#         <M>0.0</M>
#         <CPcor>-9.57000000e-008</CPcor>
#       </Coefficients>
#       <Coefficients equation="1" >
#         <G>-1.00672082e+000</G>
#         <H>1.26906489e-001</H>
#         <I>-1.40584351e-004</I>
#         <J>2.47837121e-005</J>
#         <CPcor>-9.57000000e-008</CPcor>
#         <CTcor>3.2500e-006</CTcor>
#         <!-- WBOTC not applicable unless ConductivityType = 1. -->
#         <WBOTC>0.00000000e+000</WBOTC>
#       </Coefficients>
#       <Slope>1.00000000</Slope>
#       <Offset>0.00000</Offset>
#     </ConductivitySensor>
#   </sensor>
#   <sensor Channel="3" >
#     <!-- Count, Pressure, Strain Gauge -->
#     <PressureSensor SensorID="46" >
#       <SerialNumber>7809</SerialNumber>
#       <CalibrationDate>07-Mar-18</CalibrationDate>
#       <PA0>-4.08176359e-002</PA0>
#       <PA1>4.85188419e-004</PA1>
#       <PA2>-3.51168169e-012</PA2>
#       <PTEMPA0>-5.37806900e+001</PTEMPA0>
#       <PTEMPA1>5.36620721e+001</PTEMPA1>
#       <PTEMPA2>4.87214332e-002</PTEMPA2>
#       <PTCA0>5.25213435e+005</PTCA0>
#       <PTCA1>1.79532409e+000</PTCA1>
#       <PTCA2>-2.84353509e-001</PTCA2>
#       <PTCB0>2.51668750e+001</PTCB0>
#       <PTCB1>3.75000000e-004</PTCB1>
#       <PTCB2>0.00000000e+000</PTCB2>
#       <Offset>0.000000</Offset>
#     </PressureSensor>
#   </sensor>
#   <sensor Channel="4" >
#     <!-- A/D voltage 0, pH -->
#     <pH_Sensor SensorID="43" >
#       <SerialNumber>0363</SerialNumber>
#       <CalibrationDate>16-Mar-18</CalibrationDate>
#       <Slope>4.6194</Slope>
#       <Offset>2.5947</Offset>
#     </pH_Sensor>
#   </sensor>
#   <sensor Channel="5" >
#     <!-- A/D voltage 1, Oxidation Reduction Potential -->
#     <OxidationReductionPotentialSensor SensorID="41" >
#       <SerialNumber>0363</SerialNumber>
#       <CalibrationDate>16-Mar-18</CalibrationDate>
#       <B>2.499480</B>
#       <M>-0.496195</M>
#       <Offset>0.0</Offset>
#     </OxidationReductionPotentialSensor>
#   </sensor>
#   <sensor Channel="6" >
#     <!-- A/D voltage 2, Oxygen, SBE 43 -->
#     <OxygenSensor SensorID="38" >
#       <SerialNumber>0434</SerialNumber>
#       <CalibrationDate>13-Mar-18</CalibrationDate>
#       <Use2007Equation>1</Use2007Equation>
#       <CalibrationCoefficients equation="0" >
#         <!-- Coefficients for Owens-Millard equation. -->
#         <Boc>0.0000</Boc>
#         <Soc>0.0000e+000</Soc>
#         <offset>0.0000</offset>
#         <Pcor>0.00e+000</Pcor>
#         <Tcor>0.0000</Tcor>
#         <Tau>0.0</Tau>
#       </CalibrationCoefficients>
#       <CalibrationCoefficients equation="1" >
#         <!-- Coefficients for Sea-Bird equation - SBE calibration in 2007 and later. -->
#         <Soc>4.5718e-001</Soc>
#         <offset>-0.6113</offset>
#         <A>-4.0649e-003</A>
#         <B> 2.0945e-004</B>
#         <C>-3.3182e-006</C>
#         <D0> 2.5826e+000</D0>
#         <D1> 1.92634e-004</D1>
#         <D2>-4.64803e-002</D2>
#         <E> 3.6000e-002</E>
#         <Tau20> 1.2200</Tau20>
#         <H1>-3.3000e-002</H1>
#         <H2> 5.0000e+003</H2>
#         <H3> 1.4500e+003</H3>
#       </CalibrationCoefficients>
#     </OxygenSensor>
#   </sensor>
#   <sensor Channel="7" >
#     <!-- A/D voltage 3, PAR/Logarithmic, Satlantic -->
#     <PARLog_SatlanticSensor SensorID="76" >
#       <SerialNumber>1122</SerialNumber>
#       <CalibrationDate>22-Jun-2017</CalibrationDate>
#       <a0>9.6090e-001</a0>
#       <a1>8.0780e-001</a1>
#       <Im>1.3589e+000</Im>
#       <Multiplier>1.0000e+000</Multiplier>
#     </PARLog_SatlanticSensor>
#   </sensor>
#   <sensor Channel="8" >
#     <!-- A/D voltage 4, Fluorometer, WET Labs ECO-AFL/FL -->
#     <FluoroWetlabECO_AFL_FL_Sensor SensorID="20" >
#       <SerialNumber>FLNTURT-2496</SerialNumber>
#       <CalibrationDate>25-Jan-2017</CalibrationDate>
#       <ScaleFactor>5.30000000e+001</ScaleFactor>
#       <!-- Dark output -->
#       <Vblank>0.0560</Vblank>
#     </FluoroWetlabECO_AFL_FL_Sensor>
#   </sensor>
#   <sensor Channel="9" >
#     <!-- A/D voltage 5, Turbidity Meter, WET Labs, ECO-NTU -->
#     <TurbidityMeter SensorID="67" >
#       <SerialNumber>FLNTURT-2496</SerialNumber>
#       <CalibrationDate>25-Jan-2017</CalibrationDate>
#       <ScaleFactor>176.000000</ScaleFactor>
#       <!-- Dark output -->
#       <DarkVoltage>0.072000</DarkVoltage>
#     </TurbidityMeter>
#   </sensor>
# </Sensors>
# datcnv_date = May 07 2018 16:36:05, 7.26.7.114 [datcnv_vars = 14]
# datcnv_in = C:\DATA\050718_fcr30.hex C:\DATA\SBE19plusV2_7809.xmlcon
# datcnv_skipover = 0
# datcnv_ox_hysteresis_correction = yes
# datcnv_ox_tau_correction = yes
# filter_date = May 07 2018 16:36:36, 7.26.7.114
# filter_in = C:\DATA\050718_fcr30.cnv
# filter_low_pass_tc_A = 0.030
# filter_low_pass_tc_B = 0.150
# filter_low_pass_A_vars = prdM prdE tv290C
# filter_low_pass_B_vars = depFM dz/dtM sbeox0Mg/L sbeox0PS specc c0uS/cm flECO-AFL ph orp par/sat/log turbWETntu0
# alignctd_date = May 07 2018 16:36:57, 7.26.7.114
# alignctd_in = C:\DATA\050718_fcr30.cnv
# alignctd_adv = dz/dtM 1.000, sbeox0Mg/L 1.000, sbeox0PS 1.000, specc 1.000, c0uS/cm 1.000, flECO-AFL 1.000, ph 1.000, orp 1.000, turbWETntu0 1.000                                                                                 
# file_type = ascii
*END*
     -0.561 -4.313e-20     8.9019     96.614      0.699   0.619953    -0.6349      6.218  1240.2295 2.4726e+02    -0.0341     -0.550     -0.797    19.3315 0.0000e+00
     -0.561 -3.918e-21     8.9034     96.630      0.685   0.607177    -0.6578      6.223  1240.2295 2.4237e+02    -0.0017     -0.549     -0.797    19.3321 0.0000e+00
     -0.561 -3.262e-22     8.9037     96.632      0.670   0.594486    -0.6784      6.224  1240.2295 2.3754e+02     0.1314     -0.550     -0.797    19.3323 0.0000e+00
     -0.561 3.0072e-22     8.9042     96.636      0.669   0.593332    -0.9488      6.226  1240.2295 2.4786e+02     1.4232     -0.550     -0.797    19.3321 0.0000e+00
     -0.561 3.6614e-21     8.9047     96.639      0.669   0.593236    -1.4543      6.229  1240.2295 2.4846e+02     3.7764     -0.550     -0.798    19.3320 0.0000e+00
     -0.561 4.0307e-20     8.9043     96.633      0.669   0.593320    -1.7169      6.230  1240.2295 2.1027e+02     5.0548     -0.550     -0.797    19.3318 0.0000e+00
     -0.561 4.4338e-19     8.9040     96.628      0.670   0.594349    -1.6524      6.232  1240.2295 1.7641e+02     4.9469     -0.549     -0.797    19.3315 0.0000e+00
     -0.561 4.8772e-18     8.9044     96.632      0.683   0.605670    -0.7207      6.237  1240.2295 1.6553e+02     2.4415     -0.550     -0.797    19.3306 0.0000e+00
     -0.561 5.3650e-17     8.9048     96.635      0.681   0.603373     1.0019      6.247  1240.2295 1.6090e+02    -2.1666     -0.550     -0.798    19.3292 0.0000e+00
     -0.561 5.9015e-16     8.9054     96.640      0.639   0.566584     1.9531      6.259  1240.2295 1.6700e+02    -4.6869     -0.550     -0.797    19.3285 0.0000e+00
     -0.561 6.4916e-15     8.9067     96.648      0.611   0.541337     2.0041      6.260  1240.2295 1.8291e+02    -4.8067     -0.550     -0.798    19.3278 0.0000e+00
     -0.561 7.1408e-14     8.9090     96.663      0.623   0.551758     1.4894      6.251  1240.2295 1.9774e+02    -3.6452     -0.550     -0.798    19.3277 0.0000e+00
     -0.561 7.8548e-13     8.9110     96.680      0.639   0.565758     0.5272      6.243  1240.2295 1.9935e+02    -1.5077     -0.550     -0.797    19.3278 0.0000e+00
     -0.561 8.6403e-12     8.9111     96.684      0.659   0.583787     0.0004      6.238  1240.2295 1.8419e+02    -0.3557     -0.551     -0.799    19.3274 0.0000e+00
     -0.561 9.5043e-11     8.9090     96.666      0.726   0.642917    -0.0549      6.233  1240.2295 1.6958e+02    -0.2763     -0.550     -0.798    19.3241 0.0000e+00
     -0.561 1.0455e-09     8.9056     96.635      0.873   0.773402    -0.0951      6.229  1240.2295 1.6305e+02    -0.3646     -0.549     -0.797    19.3178 0.0000e+00
     -0.561 1.1500e-08     8.9016     96.596      1.079   0.956613    -0.1546      6.228  1240.2295 1.6000e+02    -0.5381     -0.550     -0.798    19.3143 0.0000e+00
     -0.561 1.2650e-07     8.8974     96.556      1.221   1.082537    -0.1861      6.228  1240.2294 1.6593e+02    -0.6350     -0.550     -0.798    19.3157 0.0000e+00
     -0.561      0.000     8.8934     96.515      1.230   1.091079    -0.1820      6.228  1240.2279 1.6771e+02    -0.5895     -0.550     -0.798    19.3205 0.0000e+00
     -0.561      0.000     8.8884     96.463      1.195   1.059894    -0.1601      6.227  1240.2119 1.5995e+02     0.1647     -0.550     -0.798    19.3230 0.0000e+00
     -0.561      0.000     8.8842     96.418      1.224   1.085969     0.0780      6.226  1240.0360 1.5997e+02     1.5871     -0.550     -0.798    19.3244 0.0000e+00
     -0.561      0.002     8.8821     96.395      1.729   1.533179     0.5190      6.219  1238.1007 1.6552e+02     2.3862     -0.550     -0.798    19.3279 0.0000e+00
     -0.561      0.010     8.8799     96.368      7.152   6.340240     0.7425      6.201  1216.8126 1.7026e+02     2.5022     -0.550     -0.798    19.3304 0.0000e+00
     -0.561      0.034     8.8801     96.346     19.777  17.526003     0.7222      6.332   982.6436 1.8636e+02     2.8068     -0.550     -0.798    19.3307 0.0000e+00
     -0.560      0.075     8.8866     96.359     30.849  27.321051     0.4843      6.732   552.0006 2.1825e+02     5.8859     -0.550     -0.797    19.3312 0.0000e+00
     -0.555      0.127     8.8976     96.409     34.557  30.583274     0.0634      7.161   311.1326 2.6051e+02    11.5019     -0.551     -0.799    19.3302 0.0000e+00
     -0.527      0.182     8.9122     96.514     34.908  30.875030    -0.1585      7.422   280.5918 3.1379e+02    14.5565     -0.534     -0.775    19.3317 0.0000e+00
     -0.460      0.234     8.9355     96.729     34.964  30.912127    -0.1580      7.557   275.4850 3.5949e+02    14.5290     -0.460     -0.667    19.3234 0.0000e+00
     -0.369      0.274     8.9716     97.094     34.966  30.904779     0.0788      7.617   276.7477 3.7827e+02    11.0475     -0.359     -0.520    19.2841 0.0000e+00
     -0.278      0.293     9.0214     97.613     34.984  30.913193     0.5349      7.623   278.2206 3.8237e+02     4.6578     -0.271     -0.392    19.2425 0.0000e+00
     -0.195      0.286     9.0825     98.258     35.033  30.950339     0.7901      7.595   279.6141 3.8152e+02     1.1768     -0.189     -0.275    19.2165 0.0000e+00
     -0.118      0.258     9.1480     98.953     35.063  30.972853     0.8118      7.554   280.5179 3.6881e+02     0.8500     -0.112     -0.163    19.1984 0.0000e+00
     -0.053      0.218     9.2127     99.643     35.092  30.994878     0.8152      7.496   281.1473 3.2618e+02     0.8286     -0.044     -0.064    19.1866 0.0000e+00
     -0.006      0.175     9.2709    100.265     35.130  31.026113     0.8221      7.424   281.9758 2.6454e+02     0.8575      0.000     -0.000    19.1767 0.0000e+00
      0.028      0.133     9.3119    100.704     35.140  31.032954     0.8214      7.359   283.1357 2.3130e+02     0.8634      0.027      0.040    19.1681 0.0000e+00
      0.055      0.096     9.3302    100.899     35.120  31.014085     0.8161      7.307   284.2440 2.3196e+02     0.8393      0.059      0.085    19.1619 0.0000e+00
      0.074      0.064     9.3189    100.777     35.091  30.988505     0.8128      7.269   284.9660 2.3747e+02     0.8403      0.079      0.113    19.1572 0.0000e+00
      0.082      0.040     9.2568    100.106     35.078  30.977695     0.8093      7.246   285.4975 2.3167e+02     0.8450      0.080      0.116    19.1534 0.0000e+00
      0.087      0.024     9.1433     98.880     35.115  31.010399     0.8194      7.231   285.9385 2.2816e+02     0.8359      0.086      0.124    19.1510 0.0000e+00
      0.088      0.012     9.0048     97.386     35.321  31.193399     0.8343      7.219   286.4264 2.3826e+02     0.8515      0.089      0.128    19.1499 0.0000e+00
      0.087      0.003     8.8495     95.716     35.851  31.666119     0.8246      7.206   287.0087 2.4409e+02     0.8500      0.082      0.120    19.1502 0.0000e+00
      0.087     -0.007     8.6750     93.846     36.612  32.343834     0.8120      7.191   287.9883 2.4161e+02     0.8189      0.084      0.122    19.1508 0.0000e+00
      0.089     -0.021     8.4895     91.855     37.317  32.972931     0.8195      7.175   291.9047 2.4059e+02     0.8110      0.089      0.129    19.1509 0.0000e+00
      0.088     -0.037     8.3004     89.821     37.756  33.365757     0.8234      7.156   300.0308 2.4844e+02     0.8158      0.088      0.128    19.1519 0.0000e+00
      0.079     -0.051     8.1158     87.834     37.872  33.473132     0.8214      7.134   306.9986 2.6380e+02     0.8158      0.081      0.118    19.1576 0.0000e+00
      0.060     -0.057     7.9582     86.141     37.762  33.381977     0.8414      7.115   306.2016 2.8058e+02     0.8106      0.063      0.091    19.1670 0.0000e+00
      0.030     -0.053     7.8494     84.976     37.641  33.279876     0.8731      7.103   303.2148 2.9697e+02     0.8138      0.028      0.042    19.1761 0.0000e+00
      0.003     -0.038     7.7880     84.321     37.607  33.254895     0.8836      7.098   305.9885 3.0783e+02     0.8241     -0.004     -0.005    19.1827 0.0000e+00
     -0.008     -0.015     7.7615     84.041     37.621  33.270486     0.8765      7.089   306.4417 3.0862e+02     0.8134     -0.013     -0.019    19.1882 0.0000e+00
     -0.003      0.010     7.7532     83.956     37.699  33.341354     0.8607      7.074   300.9511 3.1525e+02     0.8069     -0.007     -0.010    19.1959 0.0000e+00
      0.012      0.031     7.7456     83.877     37.779  33.413092     0.8395      7.064   297.2480 3.2556e+02     0.8061      0.010      0.014    19.2035 0.0000e+00
      0.032      0.042     7.7320     83.732     37.736  33.375667     0.8308      7.065   296.3418 3.1315e+02     0.8040      0.035      0.049    19.2086 0.0000e+00
      0.050      0.042     7.7129     83.524     37.473  33.142920     0.8293      7.074   296.0170 2.9875e+02     0.8418      0.051      0.074    19.2126 0.0000e+00
      0.061      0.034     7.6776     83.136     37.041  32.758478     0.8211      7.084   295.9025 2.9082e+02     0.8671      0.062      0.090    19.2154 0.0000e+00
      0.067      0.022     7.6180     82.482     36.724  32.474753     0.8150      7.092   295.7316 2.8257e+02     0.8653      0.068      0.098    19.2173 0.0000e+00
      0.068      0.007     7.5410     81.641     36.621  32.379988     0.8197      7.099   295.5846 2.9030e+02     0.8817      0.068      0.099    19.2191 0.0000e+00
      0.066     -0.007     7.4582     80.738     36.475  32.247818     0.8225      7.108   295.5019 3.0135e+02     0.8822      0.064      0.094    19.2186 0.0000e+00
      0.064     -0.017     7.3841     79.930     36.220  32.019905     0.8216      7.116   295.5063 3.0130e+02     0.8702      0.062      0.090    19.2149 0.0000e+00
      0.060     -0.023     7.3284     79.324     36.026  31.847226     0.8273      7.122   295.6384 3.0140e+02     0.8591      0.062      0.091    19.2096 0.0000e+00
      0.051     -0.024     7.2897     78.903     35.915  31.747753     0.8265      7.127   295.7227 3.1244e+02     0.8401      0.053      0.076    19.2043 0.0000e+00
      0.037     -0.019     7.2614     78.593     35.869  31.706345     0.8212      7.128   295.7507 3.0547e+02     0.8536      0.034      0.048    19.2004 0.0000e+00
      0.028     -0.012     7.2428     78.390     35.894  31.727621     0.8192      7.125   295.8042 2.8402e+02     0.8700      0.026      0.037    19.1977 0.0000e+00
      0.027     -0.004     7.2389     78.348     35.921  31.750948     0.8391      7.124   295.8546 2.9215e+02     0.8242      0.025      0.035    19.1956 0.0000e+00
      0.032      0.004     7.2543     78.514     35.902  31.734348     0.8771      7.127   295.8436 3.0286e+02     0.7892      0.029      0.042    19.1940 0.0000e+00
      0.041      0.009     7.2928     78.932     35.882  31.717443     0.8927      7.131   295.9286 2.9842e+02     0.8126      0.040      0.059    19.1925 0.0000e+00
      0.047      0.008     7.3534     79.590     35.904  31.737093     0.8905      7.135   296.2811 2.9822e+02     0.8321      0.049      0.071    19.1914 0.0000e+00
      0.047      0.000     7.4263     80.381     35.953  31.781396     0.8689      7.140   299.3304 2.9705e+02     0.7815      0.046      0.067    19.1910 0.0000e+00
      0.046     -0.014     7.4967     81.144     35.983  31.808541     0.8329      7.146   303.2007 2.9681e+02     0.6881      0.043      0.062    19.1910 0.0000e+00
      0.045     -0.031     7.5540     81.764     35.986  31.811256     0.8230      7.154   306.3379 2.9651e+02     0.6496      0.047      0.068    19.1915 0.0000e+00
      0.038     -0.051     7.5929     82.184     35.990  31.814231     0.8322      7.164   310.9330 3.0774e+02     0.6509      0.041      0.060    19.1925 0.0000e+00
      0.021     -0.070     7.6100     82.369     35.952  31.780996     0.8333      7.170   313.7611 3.2810e+02     0.7044      0.021      0.032    19.1936 0.0000e+00
     -0.001     -0.083     7.6056     82.320     35.892  31.726971     0.8268      7.175   315.4951 3.2573e+02     0.8082      0.001      0.001    19.1946 0.0000e+00
     -0.030     -0.084     7.5825     82.068     35.900  31.732616     0.8191      7.181   316.8415 3.1375e+02     0.8375     -0.023     -0.035    19.1950 0.0000e+00
     -0.065     -0.074     7.5484     81.697     35.961  31.785726     0.8130      7.186   316.5324 3.1025e+02     0.8446     -0.066     -0.095    19.1946 0.0000e+00
     -0.093     -0.053     7.5102     81.285     36.046  31.861031     0.7993      7.186   313.5652 3.0983e+02     0.8646     -0.101     -0.146    19.1938 0.0000e+00
     -0.103     -0.028     7.4660     80.820     36.133  31.944509     0.7738      7.186   310.1320 3.1090e+02     0.8351     -0.105     -0.153    19.1932 0.0000e+00
     -0.099     -0.006     7.4122     80.279     36.140  31.969412     0.7521      7.188   308.8350 3.1324e+02     0.8227     -0.099     -0.144    19.1918 0.0000e+00
     -0.087      0.005     7.3541     79.710     36.040  31.908114     0.7396      7.193   305.6278 3.1781e+02     0.8681     -0.087     -0.126    19.1902 0.0000e+00
     -0.072      0.005     7.3051     79.230     35.935  31.838512     0.7138      7.198   302.4136 3.2340e+02     1.0172     -0.069     -0.099    19.1887 0.0000e+00
     -0.063     -0.000     7.2781     78.965     35.907  31.826514     0.6697      7.203   301.2043 3.2748e+02     1.2227     -0.055     -0.080    19.1923 0.0000e+00
     -0.070     -0.004     7.2829     79.023     35.904  31.826579     0.6474      7.205   300.3847 3.3229e+02     1.3067     -0.063     -0.090    19.2196 0.0000e+00
     -0.089      0.001     7.3154     79.365     35.924  31.839294     0.6560      7.205   299.9893 3.3742e+02     1.2705     -0.091     -0.131    19.2667 0.0000e+00
     -0.103      0.016     7.3600     79.828     36.022  31.916730     0.7001      7.202   299.6077 3.3643e+02     1.0907     -0.107     -0.156    19.3012 0.0000e+00
     -0.102      0.037     7.4015     80.268     36.122  32.000702     0.7768      7.201   299.2119 3.3103e+02     0.8114     -0.103     -0.150    19.3167 0.0000e+00
     -0.084      0.057     7.4281     80.581     36.141  32.028935     0.8206      7.202   298.9896 3.2733e+02     0.6705     -0.089     -0.130    19.3206 0.0000e+00
     -0.049      0.068     7.4369     80.732     36.086  32.004063     0.8245      7.207   298.9845 3.2493e+02     0.6684     -0.050     -0.073    19.3130 0.0000e+00
     -0.012      0.067     7.4325     80.736     36.003  31.954062     0.8241      7.214   298.8916 3.2100e+02     0.6940     -0.004     -0.006    19.2957 0.0000e+00
      0.009      0.053     7.4190     80.619     35.965  31.932496     0.8252      7.222   298.7267 3.1675e+02     0.7364      0.015      0.023    19.2806 0.0000e+00
      0.014      0.028     7.3998     80.420     35.961  31.933863     0.8282      7.229   298.6262 3.2129e+02     0.8140      0.016      0.023    19.2974 0.0000e+00
      0.012     -0.003     7.3826     80.235     35.930  31.907092     0.8237      7.234   298.6217 3.4171e+02     0.8696      0.012      0.015    19.3426 0.0000e+00
      0.007     -0.030     7.3731     80.131     35.881  31.862843     0.8177      7.233   298.7594 3.6426e+02     0.8594      0.008      0.011    19.3781 0.0000e+00
     -0.003     -0.046     7.3705     80.099     35.861  31.843437     0.8013      7.225   298.8280 3.8111e+02     0.8739      0.002      0.002    19.3935 0.0000e+00
     -0.022     -0.051     7.3725     80.110     35.888  31.862978     0.7724      7.216   298.8490 4.2089e+02     0.8929     -0.019     -0.028    19.3977 0.0000e+00
     -0.046     -0.050     7.3734     80.107     35.946  31.908580     0.7614      7.214   298.9280 4.6888e+02     0.8748     -0.050     -0.072    19.3972 0.0000e+00
     -0.063     -0.043     7.3694     80.053     35.998  31.950221     0.7608      7.218   299.0081 4.6098e+02     0.8689     -0.066     -0.096    19.3972 0.0000e+00
     -0.070     -0.032     7.3601     79.948     36.039  31.985379     0.7563      7.221   299.1301 4.1732e+02     0.8519     -0.069     -0.101    19.3957 0.0000e+00
     -0.074     -0.019     7.3436     79.776     36.070  32.016113     0.7533      7.222   299.2836 4.0904e+02     0.8524     -0.071     -0.104    19.3887 0.0000e+00
     -0.075     -0.008     7.3191     79.530     36.047  32.004268     0.7516      7.224   299.4016 5.9772e+02     0.8751     -0.076     -0.110    19.3790 0.0000e+00
     -0.072     -0.001     7.2890     79.220     35.999  31.969200     0.7461      7.228   299.5239 7.7284e+02     0.8514     -0.071     -0.102    19.3722 0.0000e+00
     -0.070      0.004     7.2518     78.823     36.000  31.973195     0.7413      7.231   299.6441 6.0140e+02     0.8099     -0.065     -0.095    19.3682 0.0000e+00
     -0.072      0.004     7.2072     78.337     36.019  31.989060     0.7485      7.231   299.6503 5.2553e+02     0.8011     -0.072     -0.106    19.3723 0.0000e+00
     -0.072      0.002     7.1575     77.795     35.999  31.970481     0.7595      7.233   299.5983 6.2011e+02     0.8367     -0.074     -0.108    19.3877 0.0000e+00
     -0.067     -0.001     7.1013     77.182     35.964  31.939096     0.7638      7.236   299.6189 5.2063e+02     0.8740     -0.064     -0.093    19.4012 0.0000e+00
     -0.064     -0.002     7.0416     76.531     35.951  31.927142     0.7639      7.240   299.6415 4.1632e+02     0.8550     -0.059     -0.084    19.4040 0.0000e+00
     -0.069     -0.000     6.9826     75.889     35.981  31.952974     0.7790      7.245   299.6130 4.4921e+02     0.8218     -0.068     -0.098    19.4022 0.0000e+00
     -0.076      0.002     6.9221     75.229     36.032  31.997374     0.8085      7.250   299.6184 5.4467e+02     0.8381     -0.078     -0.113    19.4011 0.0000e+00
     -0.076      0.003     6.8623     74.579     36.057  32.019408     0.8270      7.253   299.6206 5.8470e+02     0.8683     -0.077     -0.111    19.3999 0.0000e+00
     -0.072      0.006     6.8072     73.980     36.067  32.028845     0.8273      7.255   299.6394 4.9910e+02     0.8820     -0.069     -0.101    19.3991 0.0000e+00
     -0.067      0.009     6.7548     73.415     36.087  32.047975     0.8029      7.258   299.6741 4.0240e+02     0.8821     -0.066     -0.095    19.3981 0.0000e+00
     -0.062      0.010     6.7051     72.885     36.095  32.060167     0.7706      7.261   299.6964 3.3788e+02     0.8693     -0.060     -0.086    19.3966 0.0000e+00
     -0.059      0.008     6.6596     72.403     36.076  32.049246     0.7600      7.265   299.9094 3.1013e+02     0.8495     -0.056     -0.081    19.3963 0.0000e+00
     -0.059      0.004     6.6186     71.963     36.065  32.042952     0.7663      7.265   300.2699 3.4177e+02     0.8250     -0.058     -0.084    19.3963 0.0000e+00
     -0.059      0.001     6.5826     71.571     36.070  32.047581     0.7723      7.262   300.5279 3.9560e+02     0.8179     -0.058     -0.084    19.3974 0.0000e+00
     -0.060     -0.003     6.5518     71.235     36.065  32.041703     0.7691      7.256   300.6192 4.5385e+02     0.8243     -0.059     -0.085    19.4056 0.0000e+00
     -0.060     -0.006     6.5227     70.916     36.059  32.035396     0.7637      7.251   300.5994 4.9241e+02     0.8419     -0.060     -0.087    19.4166 0.0000e+00
     -0.061     -0.008     6.4937     70.597     36.060  32.034827     0.7627      7.250   300.5464 5.8713e+02     0.8777     -0.059     -0.086    19.4203 0.0000e+00
     -0.064     -0.008     6.4665     70.298     36.063  32.034827     0.7747      7.255   300.4945 7.3747e+02     0.8907     -0.061     -0.090    19.4184 0.0000e+00
     -0.069     -0.008     6.4416     70.024     36.065  32.035396     0.7990      7.260   300.5742 7.1998e+02     0.8779     -0.068     -0.098    19.4171 0.0000e+00
     -0.073     -0.007     6.4156     69.739     36.074  32.041706     0.8090      7.264   300.7358 6.1535e+02     0.8752     -0.073     -0.104    19.4159 0.0000e+00
     -0.074     -0.005     6.3865     69.421     36.082  32.047602     0.8033      7.267   300.8135 6.4542e+02     0.8585     -0.072     -0.105    19.4136 0.0000e+00
     -0.074     -0.002     6.3572     69.102     36.077  32.043182     0.7672      7.270   300.9110 6.4902e+02     0.7977     -0.072     -0.104    19.4108 0.0000e+00
     -0.073      0.000     6.3292     68.797     36.087  32.051766     0.6933      7.273   301.0550 5.3176e+02     0.7502     -0.072     -0.105    19.4081 0.0000e+00
     -0.072      0.002     6.3034     68.517     36.127  32.087884     0.6446      7.275   301.2633 4.5009e+02     0.7730     -0.070     -0.101    19.4065 0.0000e+00
     -0.071      0.002     6.2796     68.260     36.139  32.098807     0.6468      7.275   301.5376 4.3867e+02     0.8290     -0.071     -0.101    19.4043 0.0000e+00
     -0.071      0.002     6.2573     68.018     36.090  32.056811     0.6652      7.274   301.7045 4.4470e+02     0.8476     -0.072     -0.104    19.4040 0.0000e+00
     -0.070      0.001     6.2373     67.800     36.054  32.024698     0.6647      7.272   301.8175 4.7719e+02     0.8145     -0.067     -0.098    19.4050 0.0000e+00
     -0.070      0.001     6.2193     67.603     36.059  32.028087     0.6510      7.272   301.9584 5.0348e+02     0.7951     -0.068     -0.098    19.4048 0.0000e+00
     -0.071      0.001     6.2025     67.420     36.067  32.034278     0.6459      7.272   301.9454 4.6111e+02     0.8268     -0.071     -0.103    19.4065 0.0000e+00
     -0.070      0.000     6.1863     67.243     36.070  32.036038     0.6487      7.273   301.8326 4.1228e+02     0.8614     -0.069     -0.099    19.4080 0.0000e+00
     -0.070 -4.095e-07     6.1693     67.058     36.085  32.049371     0.6582      7.274   301.7986 4.0620e+02     0.8472     -0.068     -0.099    19.4068 0.0000e+00
     -0.070      0.000     6.1513     66.861     36.106  32.068463     0.6684      7.275   301.7927 4.1060e+02     0.8079     -0.069     -0.100    19.4053 0.0000e+00
     -0.070      0.000     6.1335     66.669     36.115  32.076337     0.6798      7.277   301.8471 4.2951e+02     0.8134     -0.069     -0.100    19.4044 0.0000e+00
     -0.069     -0.001     6.1154     66.470     36.120  32.081070     0.7046      7.279   301.9396 5.4574e+02     0.8530     -0.070     -0.101    19.4042 0.0000e+00
     -0.069     -0.001     6.0974     66.274     36.100  32.062180     0.7467      7.279   301.9653 7.2756e+02     0.8597     -0.065     -0.095    19.4039 0.0000e+00
     -0.070     -0.001     6.0816     66.104     36.073  32.038460     0.7849      7.279   302.0710 9.1817e+02     0.8337     -0.067     -0.099    19.4032 0.0000e+00
     -0.072      0.000     6.0675     65.953     36.083  32.048323     0.7996      7.280   302.1851 1.1765e+03     0.8128     -0.073     -0.106    19.4041 0.0000e+00
     -0.072      0.000     6.0544     65.810     36.089  32.054417     0.8051      7.281   302.1411 1.2669e+03     0.8207     -0.069     -0.100    19.4043 0.0000e+00
     -0.072      0.000     6.0429     65.685     36.083  32.048625     0.7871      7.281   302.1413 1.2559e+03     0.8373     -0.070     -0.102    19.4019 0.0000e+00
     -0.071      0.001     6.0349     65.599     36.075  32.041809     0.7381      7.280   302.1873 1.5099e+03     0.8306     -0.071     -0.104    19.4025 0.0000e+00
     -0.068      0.001     6.0284     65.529     36.067  32.035524     0.6994      7.277   302.1815 1.5844e+03     0.8305     -0.064     -0.092    19.4057 0.0000e+00
     -0.069      0.000     6.0202     65.442     36.067  32.036141     0.6863      7.273   302.3293 1.4609e+03     0.8367     -0.066     -0.097    19.4052 0.0000e+00
     -0.071     -0.000     6.0144     65.384     36.079  32.049270     0.6808      7.268   302.5977 1.5425e+03     0.8452     -0.073     -0.105    19.4052 0.0000e+00
     -0.069     -0.001     6.0118     65.359     36.097  32.067234     0.6603      7.261   302.6723 1.2815e+03     0.8714     -0.068     -0.098    19.4066 0.0000e+00
     -0.069     -0.001     6.0050     65.288     36.090  32.062814     0.6413      7.257   302.6298 7.0217e+02     0.8480     -0.067     -0.097    19.4049 0.0000e+00
     -0.070      0.000     5.9930     65.160     36.084  32.059341     0.6434      7.257   302.6854 4.3491e+02     0.8073     -0.070     -0.102    19.4065 0.0000e+00
     -0.070      0.000     5.9788     65.006     36.116  32.088757     0.6493      7.260   302.7434 4.0726e+02     0.8363     -0.068     -0.098    19.4116 0.0000e+00
     -0.071      0.000     5.9638     64.844     36.130  32.100930     0.6479      7.264   302.8146 4.0355e+02     0.8943     -0.070     -0.099    19.4138 0.0000e+00
     -0.071      0.000     5.9508     64.704     36.106  32.079501     0.6452      7.266   302.8582 4.0297e+02     0.8980     -0.072     -0.103    19.4163 0.0000e+00
     -0.071 -1.187e-20     5.9391     64.576     36.111  32.083703     0.6451      7.264   302.7538 3.9999e+02     0.8507     -0.068     -0.098    19.4190 0.0000e+00
     -0.071 -1.306e-19     5.9282     64.457     36.116  32.088228     0.6465      7.264   302.8424 3.9634e+02     0.8098     -0.069     -0.099    19.4188 0.0000e+00
     -0.071 -1.436e-18     5.9208     64.377     36.096  32.070700     0.6519      7.267   303.1560 3.9334e+02     0.8007     -0.072     -0.104    19.4195 0.0000e+00
     -0.070 -1.580e-17     5.9169     64.333     36.088  32.062305     0.6646      7.269   303.2756 3.9066e+02     0.8316     -0.067     -0.098    19.4209 0.0000e+00
     -0.070 -1.738e-16     5.9157     64.318     36.075  32.050236     0.6717      7.269   303.2555 3.9005e+02     0.8480     -0.068     -0.098    19.4193 0.0000e+00
     -0.071 -1.912e-15     5.9164     64.323     36.078  32.051798     0.6557      7.268   303.3430 3.8914e+02     0.8465     -0.072     -0.104    19.4190 0.0000e+00
     -0.071 -2.103e-14     5.9184     64.343     36.112  32.081185     0.6452      7.266   303.4738 3.8846e+02     0.8753     -0.069     -0.100    19.4197 0.0000e+00
     -0.070 -2.313e-13     5.9189     64.347     36.120  32.088000     0.6551      7.266   303.5472 3.9067e+02     0.8901     -0.068     -0.098    19.4180 0.0000e+00
     -0.070 -2.544e-12     5.9164     64.319     36.102  32.070679     0.6564      7.268   303.6277 3.9199e+02     0.8730     -0.069     -0.100    19.4162 0.0000e+00
     -0.070 -2.799e-11     5.9129     64.281     36.093  32.062293     0.6519      7.270   303.6725 3.9180e+02     0.8517     -0.068     -0.099    19.4151 0.0000e+00
     -0.070 -3.079e-10     5.9084     64.231     36.080  32.050121     0.6367      7.270   303.6595 3.9200e+02     0.8471     -0.069     -0.098    19.4138 0.0000e+00
     -0.070 -3.386e-09     5.9016     64.156     36.081  32.050529     0.6105      7.270   303.7278 3.9170e+02     0.8775     -0.070     -0.100    19.4128 0.0000e+00
     -0.070 -3.725e-08     5.8906     64.036     36.100  32.067214     0.6014      7.269   303.8959 3.9127e+02     0.8834     -0.069     -0.101    19.4122 0.0000e+00
     -0.070 -4.097e-07     5.8774     63.892     36.094  32.061336     0.6005      7.269   304.0578 3.9132e+02     0.8580     -0.069     -0.100    19.4116 0.0000e+00
     -0.070     -0.000     5.8627     63.731     36.074  32.042966     0.5904      7.271   304.1369 3.9112e+02     0.8449     -0.069     -0.100    19.4107 0.0000e+00
     -0.069     -0.000     5.8448     63.536     36.066  32.035640     0.5804      7.273   304.0784 3.9018e+02     0.8471     -0.068     -0.098    19.4101 0.0000e+00
     -0.069     -0.001     5.8263     63.335     36.067  32.036274     0.5804      7.276   303.9520 3.8787e+02     0.8842     -0.067     -0.097    19.4096 0.0000e+00
     -0.070     -0.001     5.8080     63.135     36.084  32.050633     0.5810      7.279   303.9852 3.8526e+02     0.8972     -0.069     -0.100    19.4088 0.0000e+00
     -0.071     -0.001     5.7895     62.933     36.120  32.082227     0.5783      7.282   304.0499 3.8563e+02     0.8510     -0.070     -0.101    19.4087 0.0000e+00
     -0.072     -0.001     5.7726     62.748     36.141  32.100712     0.5847      7.283   304.0450 3.8903e+02     0.8142     -0.070     -0.101    19.4084 0.0000e+00
     -0.072      0.000     5.7571     62.578     36.122  32.083602     0.5938      7.282   304.0981 3.9104e+02     0.8178     -0.072     -0.104    19.4075 0.0000e+00
     -0.071      0.002     5.7419     62.413     36.103  32.065886     0.5969      7.279   304.1768 3.9064e+02     0.8648     -0.070     -0.101    19.4073 0.0000e+00
     -0.070      0.003     5.7292     62.273     36.116  32.077037     0.5946      7.277   304.3075 3.8843e+02     0.8944     -0.067     -0.097    19.4066 0.0000e+00
     -0.070      0.004     5.7176     62.146     36.133  32.091404     0.5840      7.278   304.3884 3.8130e+02     0.8705     -0.069     -0.100    19.4057 0.0000e+00
     -0.069      0.005     5.7053     62.012     36.157  32.112570     0.5787      7.280   304.4655 3.6697e+02     0.8509     -0.068     -0.098    19.4054 0.0000e+00
     -0.067      0.005     5.6935     61.884     36.191  32.142421     0.5859      7.281   304.5513 3.4764e+02     0.8401     -0.065     -0.094    19.4047 0.0000e+00
     -0.065      0.004     5.6812     61.750     36.182  32.134766     0.5887      7.284   304.4795 3.3139e+02     0.8312     -0.064     -0.092    19.4035 0.0000e+00
     -0.064      0.003     5.6657     61.582     36.124  32.083528     0.5850      7.286   304.5443 3.2574e+02     0.8342     -0.063     -0.091    19.4025 0.0000e+00
     -0.063      0.001     5.6528     61.440     35.851  31.840472     0.5869      7.287   304.8187 3.3381e+02     0.8466     -0.061     -0.089    19.4025 0.0000e+00
     -0.063     -0.001     5.6525     61.422     35.315  31.355342     0.5939      7.286   305.0443 3.6181e+02     0.8596     -0.061     -0.088    19.4021 0.0000e+00
     -0.064     -0.003     5.6871     61.752     34.923  30.981100     0.5963      7.285   305.2068 4.2896e+02     0.8382     -0.063     -0.091    19.4018 0.0000e+00
     -0.066     -0.003     5.8311     63.243     34.843  30.872037     0.6067      7.282   305.3218 8.4834e+02     0.8021     -0.065     -0.095    19.4025 0.0000e+00
     -0.067     -0.002     6.1589     66.731     34.871  30.862222     0.6269      7.279   305.4013 1.6371e+03     0.7894     -0.066     -0.096    19.4040 0.0000e+00
     -0.068      0.000     6.6539     72.050     34.896  30.862375     0.6391      7.275   305.3938 2.1390e+03     0.8059     -0.066     -0.096    19.4001 0.0000e+00
     -0.068      0.001     7.2384     78.353     34.922  30.873860     0.6530      7.270   305.3171 2.2248e+03     0.8496     -0.068     -0.098    19.3606 0.0000e+00
     -0.066      0.002     7.8334     84.780     34.929  30.874063     0.6759      7.266   305.3341 2.2258e+03     0.8601     -0.065     -0.094    19.2912 0.0000e+00
     -0.064      0.002     8.3801     90.688     34.923  30.864815     0.6945      7.264   305.4279 2.2265e+03     0.8414     -0.062     -0.090    19.2386 0.0000e+00
     -0.064      0.002     8.8381     95.640     34.953  30.889062     0.6948      7.264   305.5039 2.2218e+03     0.8364     -0.061     -0.089    19.2107 0.0000e+00
     -0.065      0.002     9.1715     99.244     34.982  30.913205     0.6886      7.265   305.5644 2.2214e+03     0.8307     -0.063     -0.093    19.1964 0.0000e+00
     -0.065      0.001     9.3540    101.215     34.970  30.902691     0.6835      7.267   305.6439 2.2255e+03     0.8031     -0.064     -0.093    19.1891 0.0000e+00
     -0.064      0.001     9.3980    101.690     34.955  30.888951     0.6700      7.270   305.6908 2.2241e+03     0.7775     -0.063     -0.091    19.1846 0.0000e+00
     -0.063      0.001     9.3501    101.170     34.939  30.874088     0.6627      7.271   305.6147 2.2339e+03     0.7952     -0.062     -0.089    19.1818 0.0000e+00
     -0.063      0.001     9.2598    100.192     34.912  30.849996     0.6697      7.271   305.4985 2.2687e+03     0.8335     -0.060     -0.087    19.1800 0.0000e+00
     -0.064      0.001     9.1602     99.113     34.915  30.851695     0.6712      7.271   305.4045 2.2953e+03     0.8746     -0.064     -0.093    19.1793 0.0000e+00
     -0.063      0.002     9.0672     98.108     34.963  30.894629     0.6632      7.271   305.3387 2.2776e+03     0.8957     -0.064     -0.093    19.1786 0.0000e+00
     -0.061      0.003     8.9842     97.208     34.998  30.924547     0.6556      7.271   305.3050 2.2513e+03     0.8742     -0.058     -0.084    19.1779 0.0000e+00
     -0.061      0.003     8.9111     96.414     34.967  30.895891     0.6516      7.272   305.2552 2.2506e+03     0.8600     -0.060     -0.087    19.1774 0.0000e+00
     -0.061      0.003     8.8529     95.780     34.935  30.865681     0.6523      7.272   305.3392 2.2510e+03     0.8765     -0.061     -0.089    19.1770 0.0000e+00
     -0.058      0.003     8.8078     95.290     34.948  30.876821     0.6558      7.272   305.4602 2.2433e+03     0.8601     -0.055     -0.081    19.1773 0.0000e+00
     -0.057      0.002     8.7698     94.880     34.978  30.903577     0.6746      7.273   305.4277 2.2339e+03     0.8145     -0.054     -0.079    19.1766 0.0000e+00
     -0.057      0.001     8.7367     94.522     35.013  30.935150     0.6963      7.274   305.4619 2.2318e+03     0.7826     -0.058     -0.084    19.1734 0.0000e+00
     -0.057      0.001     8.7075     94.207     35.019  30.941026     0.6977      7.275   305.5290 2.2448e+03     0.7799     -0.056     -0.081    19.1711 0.0000e+00
     -0.057      0.000     8.6842     93.956     34.985  30.911119     0.7087      7.274   305.5508 2.2508e+03     0.7813     -0.053     -0.077    19.1707 0.0000e+00
     -0.059 3.3896e-08     8.6689     93.790     34.962  30.891089     0.7383      7.273   305.6398 2.2541e+03     0.7080     -0.060     -0.086    19.1711 0.0000e+00
     -0.060 3.7286e-07     8.6615     93.711     34.960  30.889373     0.7528      7.272   305.7446 2.2585e+03     0.6269     -0.061     -0.088    19.1718 0.0000e+00
     -0.057      0.000     8.6613     93.708     34.961  30.890368     0.7550      7.272   305.7852 2.2546e+03     0.6236     -0.054     -0.079    19.1724 0.0000e+00
     -0.057      0.000     8.6650     93.748     34.976  30.903121     0.7737      7.272   305.7876 2.2566e+03     0.6988     -0.054     -0.079    19.1727 0.0000e+00
     -0.059      0.000     8.6671     93.771     34.991  30.916555     0.8045      7.274   305.9448 2.2638e+03     0.8041     -0.058     -0.084    19.1728 0.0000e+00
     -0.059      0.000     8.6638     93.735     35.001  30.925778     0.8152      7.274   306.2235 2.2692e+03     0.8587     -0.058     -0.085    19.1729 0.0000e+00
     -0.058      0.000     8.6544     93.633     35.031  30.951124     0.8108      7.274   306.3175 2.2670e+03     0.8705     -0.055     -0.080    19.1730 0.0000e+00
     -0.058      0.001     8.6411     93.489     35.051  30.968978     0.8154      7.275   306.3080 2.2525e+03     0.8551     -0.057     -0.082    19.1728 0.0000e+00
     -0.058      0.001     8.6273     93.341     35.031  30.951126     0.8256      7.275   306.3674 2.2395e+03     0.8259     -0.057     -0.084    19.1730 0.0000e+00
     -0.058      0.001     8.6146     93.203     35.001  30.925794     0.8324      7.275   306.3468 2.2363e+03     0.8219     -0.055     -0.081    19.1731 0.0000e+00
     -0.058      0.001     8.6023     93.071     34.991  30.916728     0.8332      7.275   306.3173 2.2393e+03     0.8060     -0.056     -0.083    19.1730 0.0000e+00
     -0.057      0.001     8.5927     92.967     34.978  30.905026     0.8266      7.275   306.4402 2.2493e+03     0.7865     -0.057     -0.082    19.1728 0.0000e+00
     -0.056      0.001     8.5871     92.906     34.985  30.911320     0.8076      7.274   306.6281 2.2563e+03     0.8309     -0.054     -0.077    19.1727 0.0000e+00
     -0.057      0.000     8.5845     92.877     35.005  30.929316     0.7776      7.273   306.7817 2.2498e+03     0.8548     -0.056     -0.081    19.1730 0.0000e+00
     -0.057 7.1223e-18     8.5843     92.876     35.008  30.932086     0.7583      7.272   306.8355 2.2426e+03     0.8323     -0.058     -0.083    19.1732 0.0000e+00
     -0.056 7.8346e-17     8.5867     92.902     35.023  30.944816     0.7586      7.272   306.7623 2.2452e+03     0.8333     -0.053     -0.077    19.1733 0.0000e+00
     -0.056 8.6180e-16     8.5928     92.967     35.036  30.956219     0.7347      7.273   306.6706 2.2521e+03     0.8349     -0.055     -0.079    19.1733 0.0000e+00
     -0.057 9.4798e-15     8.6015     93.062     35.021  30.942942     0.6802      7.274   306.6735 2.2568e+03     0.8516     -0.057     -0.081    19.1735 0.0000e+00
     -0.057 1.0428e-13     8.6108     93.163     34.985  30.911292     0.6519      7.274   306.7116 2.2627e+03     0.8832     -0.055     -0.080    19.1736 0.0000e+00
     -0.057 1.1471e-12     8.6204     93.267     34.962  30.891084     0.6501      7.274   306.7008 2.2647e+03     0.8811     -0.056     -0.081    19.1735 0.0000e+00
     -0.057 1.2618e-11     8.6268     93.337     34.960  30.889143     0.6399      7.273   306.6290 2.2497e+03     0.8571     -0.056     -0.081    19.1736 0.0000e+00
     -0.057 1.3879e-10     8.6282     93.352     34.959  30.887820     0.6201      7.267   306.5323 2.2361e+03     0.8372     -0.055     -0.080    19.1733 0.0000e+00
     -0.057 1.5267e-09     8.6282     93.352     34.944  30.875094     0.6041      7.259   306.5635 2.2408e+03     0.8533     -0.055     -0.079    19.1732 0.0000e+00
     -0.057 1.6794e-08     8.6286     93.356     34.929  30.862287     0.5932      7.254   306.7484 2.2493e+03     0.8693     -0.057     -0.082    19.1732 0.0000e+00
     -0.057 1.8473e-07     8.6297     93.369     34.926  30.859987     0.5888      7.250   306.9611 2.2524e+03     0.8478     -0.055     -0.079    19.1730 0.0000e+00
     -0.057 1.8473e-07     8.6312     93.387     34.911  30.847284     0.5887      7.249   307.1565 2.2532e+03     0.8378     -0.054     -0.079    19.1731 0.0000e+00
     -0.058 1.6781e-08     8.6308     93.385     34.897  30.835719     0.5912      7.250   307.2180 2.2494e+03     0.8397     -0.057     -0.084    19.1733 0.0000e+00
     -0.057 1.3881e-09     8.6266     93.341     34.909  30.847161     0.6014      7.252   307.1882 2.2412e+03     0.8399     -0.055     -0.080    19.1736 0.0000e+00
     -0.056 1.1471e-12     8.6188     93.259     34.922  30.858612     0.6017      7.253   307.2263 2.2436e+03     0.8413     -0.055     -0.079    19.1743 0.0000e+00
     -0.057 1.2618e-11     8.6090     93.154     34.908  30.847160     0.5944      7.256   307.2483 2.2594e+03     0.8261     -0.057     -0.083    19.1754 0.0000e+00
     -0.058 1.3879e-10     8.5998     93.055     34.895  30.835719     0.5959      7.260   307.2827 2.2652e+03     0.8081     -0.056     -0.082    19.1765 0.0000e+00
     -0.058 1.5267e-09     8.5939     92.992     34.907  30.847284     0.6004      7.263   307.3841 2.2573e+03     0.8071     -0.056     -0.082    19.1775 0.0000e+00
     -0.057 1.6794e-08     8.5920     92.972     34.922  30.859976     0.6039      7.265   307.3561 2.2558e+03     0.8140     -0.056     -0.081    19.1784 0.0000e+00
     -0.057 1.8474e-07     8.5944     92.998     34.924  30.862162     0.6009      7.267   307.2880 2.2614e+03     0.8296     -0.055     -0.080    19.1792 0.0000e+00
     -0.057 1.8474e-07     8.6010     93.069     34.937  30.873718     0.5920      7.267   307.3342 2.2669e+03     0.8432     -0.055     -0.080    19.1796 0.0000e+00
     -0.057 1.6794e-08     8.6107     93.174     34.935  30.872689     0.5883      7.266   307.3123 2.2718e+03     0.8562     -0.054     -0.079    19.1799 0.0000e+00
     -0.057 1.5267e-09     8.6185     93.259     34.910  30.849716     0.5931      7.266   307.2817 2.2715e+03     0.8648     -0.058     -0.084    19.1800 0.0000e+00
     -0.057 1.3879e-10     8.6211     93.287     34.910  30.849987     0.6128      7.266   307.3085 2.2638e+03     0.8568     -0.057     -0.083    19.1801 0.0000e+00
     -0.057 1.2608e-11     8.6224     93.300     34.939  30.875962     0.6431      7.266   307.3781 2.2522e+03     0.8505     -0.054     -0.079    19.1804 0.0000e+00
     -0.057 1.0333e-12     8.6255     93.333     34.978  30.909744     0.6565      7.265   307.5211 2.2463e+03     0.8494     -0.056     -0.081    19.1804 0.0000e+00
     -0.057 -1.044e-13     8.6278     93.356     35.014  30.940910     0.6551      7.263   307.5756 2.2527e+03     0.8433     -0.055     -0.080    19.1802 0.0000e+00
     -0.057 -1.148e-12     8.6265     93.341     35.009  30.935250     0.6622      7.259   307.6060 2.2603e+03     0.8378     -0.055     -0.079    19.1801 0.0000e+00
     -0.057 -1.263e-11     8.6244     93.317     34.974  30.904809     0.6787      7.252   307.7163 2.2613e+03     0.8430     -0.057     -0.081    19.1801 0.0000e+00
     -0.057 -1.389e-10     8.6251     93.323     34.958  30.890392     0.6896      7.241   307.7050 2.2576e+03     0.8460     -0.055     -0.079    19.1797 0.0000e+00
     -0.057 -1.528e-09     8.6275     93.350     34.956  30.887945     0.6924      7.233   307.6421 2.2541e+03     0.8743     -0.056     -0.081    19.1784 0.0000e+00
     -0.057 -1.681e-08     8.6284     93.360     34.941  30.875230     0.6943      7.229   307.7303 2.2565e+03     0.9103     -0.055     -0.081    19.1776 0.0000e+00
     -0.058 -1.849e-07     8.6276     93.352     34.928  30.863663     0.6944      7.229   307.8241 2.2595e+03     0.8847     -0.055     -0.080    19.1769 0.0000e+00
     -0.058 -1.726e-07     8.6275     93.352     34.940  30.875105     0.6938      7.231   307.9158 2.2594e+03     0.8395     -0.058     -0.085    19.1764 0.0000e+00
     -0.056 -3.695e-08     8.6276     93.354     34.953  30.886556     0.6949      7.231   308.0656 2.2563e+03     0.8213     -0.055     -0.080    19.1768 0.0000e+00
     -0.056 -4.064e-07     8.6266     93.344     34.940  30.875103     0.6896      7.228   308.0865 2.2517e+03     0.8176     -0.054     -0.077    19.1770 0.0000e+00
     -0.057     -0.000     8.6242     93.319     34.927  30.863650     0.6672      7.225   307.9961 2.2466e+03     0.8245     -0.057     -0.082    19.1774 0.0000e+00
     -0.057     -0.000     8.6216     93.292     34.939  30.875091     0.6444      7.222   308.0047 2.2405e+03     0.8437     -0.055     -0.080    19.1777 0.0000e+00
     -0.057     -0.001     8.6194     93.269     34.952  30.886429     0.6432      7.221   308.1046 2.2415e+03     0.8670     -0.054     -0.079    19.1780 0.0000e+00
     -0.058     -0.001     8.6156     93.230     34.937  30.873718     0.6534      7.221   308.1708 2.2504e+03     0.8933     -0.058     -0.084    19.1784 0.0000e+00
     -0.058     -0.000     8.6114     93.185     34.907  30.848418     0.6579      7.223   308.2035 2.2568e+03     0.9169     -0.056     -0.082    19.1790 0.0000e+00
     -0.057 2.1028e-14     8.6073     93.141     34.891  30.834573     0.6599      7.226   308.2415 2.2575e+03     0.9088     -0.055     -0.080    19.1799 0.0000e+00
     -0.057 2.3131e-13     8.5998     93.061     34.889  30.833323     0.6689      7.231   308.2860 2.2558e+03     0.8859     -0.057     -0.082    19.1805 0.0000e+00
     -0.056 2.5444e-12     8.5908     92.965     34.889  30.833313     0.6744      7.237   308.3984 2.2512e+03     0.8854     -0.056     -0.079    19.1811 0.0000e+00
     -0.056 2.7988e-11     8.5850     92.903     34.890  30.834448     0.6625      7.242   308.4817 2.2445e+03     0.8716     -0.055     -0.079    19.1814 0.0000e+00
     -0.056 3.0787e-10     8.5833     92.885     34.904  30.847043     0.6539      7.246   308.4321 2.2478e+03     0.8409     -0.056     -0.081    19.1820 0.0000e+00
     -0.056 3.3866e-09     8.5859     92.913     34.917  30.858590     0.6620      7.250   308.4872 2.2605e+03     0.8191     -0.055     -0.080    19.1827 0.0000e+00
     -0.056 3.7253e-08     8.5929     92.990     34.904  30.847044     0.6690      7.252   308.6318 2.2615e+03     0.8231     -0.056     -0.081    19.1832 0.0000e+00
     -0.056 4.0978e-07     8.6026     93.095     34.889  30.834457     0.6650      7.253   308.6318 2.2513e+03     0.8581     -0.055     -0.079    19.1836 0.0000e+00
     -0.057      0.000     8.6124     93.202     34.888  30.833416     0.6503      7.254   308.6593 2.2496e+03     0.8759     -0.054     -0.080    19.1839 0.0000e+00
     -0.058      0.000     8.6203     93.288     34.889  30.834457     0.6383      7.256   308.7926 2.2531e+03     0.8854     -0.056     -0.082    19.1841 0.0000e+00
     -0.058      0.001     8.6226     93.313     34.903  30.847044     0.6396      7.257   308.8666 2.2495e+03     0.8809     -0.057     -0.082    19.1843 0.0000e+00
     -0.057      0.001     8.6200     93.285     34.916  30.858591     0.6466      7.257   308.8661 2.2465e+03     0.8525     -0.056     -0.081    19.1845 0.0000e+00
     -0.055      0.001     8.6169     93.251     34.903  30.847055     0.6496      7.254   308.9581 2.2499e+03     0.8475     -0.055     -0.078    19.1847 0.0000e+00
     -0.055      0.001     8.6162     93.245     34.889  30.834572     0.6476      7.249   309.1186 2.2474e+03     0.8507     -0.054     -0.079    19.1850 0.0000e+00
     -0.055      0.000     8.6181     93.265     34.889  30.834687     0.6509      7.248   309.0857 2.2438e+03     0.8610     -0.054     -0.078    19.1852 0.0000e+00
     -0.056     -0.001     8.6190     93.275     34.904  30.848438     0.6433      7.249   309.0772 2.2508e+03     0.8807     -0.053     -0.079    19.1853 0.0000e+00
     -0.057     -0.001     8.6178     93.262     34.933  30.873822     0.6116      7.251   309.1873 2.2556e+03     0.8749     -0.056     -0.082    19.1855 0.0000e+00
     -0.057      0.000     8.6160     93.242     34.948  30.887562     0.5896      7.254   309.1271 2.2510e+03     0.8515     -0.055     -0.079    19.1856 0.0000e+00
     -0.057 -1.738e-16     8.6163     93.246     34.948  30.887562     0.5883      7.259   309.0373 2.2480e+03     0.8419     -0.055     -0.079    19.1855 0.0000e+00
     -0.057 -1.912e-15     8.6191     93.276     34.933  30.873821     0.5958      7.264   309.1340 2.2481e+03     0.8509     -0.057     -0.084    19.1857 0.0000e+00
     -0.055 -2.103e-14     8.6201     93.287     34.904  30.848429     0.6153      7.268   309.2636 2.2472e+03     0.8687     -0.054     -0.078    19.1858 0.0000e+00
     -0.055 -2.313e-13     8.6178     93.262     34.888  30.834584     0.6315      7.270   309.2279 2.2516e+03     0.8747     -0.052     -0.076    19.1857 0.0000e+00
     -0.057 -2.544e-12     8.6141     93.222     34.887  30.833439     0.6353      7.271   309.2182 2.2579e+03     0.8615     -0.057     -0.082    19.1855 0.0000e+00
     -0.057 -2.799e-11     8.6094     93.172     34.889  30.834584     0.6425      7.273   309.3188 2.2541e+03     0.8614     -0.056     -0.082    19.1855 0.0000e+00
     -0.057 -3.079e-10     8.6036     93.109     34.904  30.848429     0.6547      7.275   309.3259 2.2484e+03     0.8743     -0.054     -0.078    19.1855 0.0000e+00
     -0.057 -3.387e-09     8.5960     93.026     34.932  30.873822     0.6626      7.275   309.3044 2.2494e+03     0.8650     -0.056     -0.082    19.1856 0.0000e+00
     -0.057 -3.725e-08     8.5870     92.929     34.948  30.887573     0.6646      7.274   309.3163 2.2495e+03     0.8398     -0.057     -0.082    19.1857 0.0000e+00
     -0.056 -4.098e-07     8.5820     92.874     34.949  30.887677     0.6609      7.273   309.2965 2.2458e+03     0.8439     -0.055     -0.079    19.1859 0.0000e+00
     -0.056     -0.000     8.5835     92.889     34.935  30.875080     0.6639      7.273   309.3242 2.2433e+03     0.8542     -0.054     -0.079    19.1863 0.0000e+00
     -0.056     -0.000     8.5906     92.965     34.921  30.862284     0.6832      7.272   309.3935 2.2405e+03     0.8422     -0.054     -0.078    19.1865 0.0000e+00
     -0.057     -0.001     8.6021     93.089     34.919  30.859976     0.7012      7.269   309.3590 2.2377e+03     0.8205     -0.056     -0.081    19.1860 0.0000e+00
     -0.057     -0.001     8.6134     93.208     34.905  30.847181     0.7147      7.267   309.3382 2.2411e+03     0.8064     -0.057     -0.082    19.1855 0.0000e+00
     -0.057     -0.001     8.6234     93.313     34.892  30.834585     0.7372      7.266   309.3997 2.2392e+03     0.8240     -0.055     -0.080    19.1850 0.0000e+00
     -0.057     -0.001     8.6364     93.451     34.893  30.834688     0.7613      7.264   309.4148 2.2368e+03     0.8501     -0.056     -0.081    19.1847 0.0000e+00
     -0.057     -0.000     8.6515     93.612     34.910  30.848429     0.7670      7.263   309.4339 2.2433e+03     0.8473     -0.057     -0.083    19.1842 0.0000e+00
     -0.056 -1.695e-08     8.6634     93.740     34.939  30.873708     0.7605      7.262   309.4596 2.2393e+03     0.8206     -0.054     -0.079    19.1828 0.0000e+00
     -0.056 -1.864e-07     8.6684     93.795     34.953  30.886305     0.7470      7.262   309.4669 2.2283e+03     0.8023     -0.053     -0.078    19.1812 0.0000e+00
     -0.058 -1.709e-07     8.6667     93.777     34.939  30.873718     0.7240      7.261   309.5217 2.2238e+03     0.8080     -0.058     -0.085    19.1791 0.0000e+00
     -0.058 -2.313e-12     8.6633     93.741     34.910  30.848534     0.7111      7.260   309.6920 2.2220e+03     0.8286     -0.057     -0.082    19.1779 0.0000e+00
     -0.056 -2.545e-11     8.6621     93.727     34.896  30.835843     0.7116      7.258   309.8914 2.2282e+03     0.8382     -0.054     -0.078    19.1776 0.0000e+00
     -0.056 -2.799e-10     8.6589     93.692     34.909  30.847285     0.7116      7.257   309.8683 2.2401e+03     0.8329     -0.055     -0.080    19.1775 0.0000e+00
     -0.056 -3.079e-09     8.6523     93.619     34.924  30.859863     0.7016      7.254   309.7568 2.2381e+03     0.8259     -0.055     -0.080    19.1781 0.0000e+00
     -0.056 -3.387e-08     8.6478     93.571     34.925  30.860903     0.6912      7.252   309.7481 2.2296e+03     0.8139     -0.054     -0.078    19.1786 0.0000e+00
     -0.057 -3.726e-07     8.6482     93.576     34.924  30.859863     0.6964      7.250   309.7623 2.2388e+03     0.8103     -0.055     -0.080    19.1784 0.0000e+00
     -0.057     -0.000     8.6515     93.612     34.909  30.847284     0.7093      7.250   309.8426 2.2482e+03     0.8124     -0.056     -0.082    19.1780 0.0000e+00
     -0.057     -0.000     8.6552     93.653     34.896  30.835833     0.7185      7.250   309.8581 2.2347e+03     0.8089     -0.055     -0.081    19.1773 0.0000e+00
     -0.057     -0.000     8.6573     93.676     34.910  30.848431     0.7341      7.251   309.7785 2.2191e+03     0.8289     -0.055     -0.080    19.1775 0.0000e+00
     -0.057     -0.000     8.6546     93.647     34.937  30.872583     0.7602      7.252   309.9129 2.2206e+03     0.8715     -0.057     -0.082    19.1779 0.0000e+00
     -0.057 -2.799e-11     8.6463     93.557     34.938  30.873823     0.7769      7.252   310.1065 2.2312e+03     0.8964     -0.056     -0.079    19.1780 0.0000e+00
     -0.057 -3.079e-10     8.6356     93.440     34.927  30.863420     0.7884      7.254   310.1400 2.2392e+03     0.8855     -0.055     -0.080    19.1782 0.0000e+00
     -0.058 -3.387e-09     8.6247     93.324     34.939  30.873822     0.8070      7.256   310.2322 2.2349e+03     0.8615     -0.058     -0.086    19.1785 0.0000e+00
     -0.057 -3.726e-08     8.6144     93.214     34.937  30.872582     0.8181      7.258   310.3609 2.2241e+03     0.8501     -0.055     -0.080    19.1787 0.0000e+00
     -0.056 -4.098e-07     8.6048     93.111     34.909  30.848429     0.8220      7.259   310.4046 2.2197e+03     0.8405     -0.052     -0.076    19.1788 0.0000e+00
     -0.057      0.000     8.5967     93.024     34.894  30.835823     0.8077      7.260   310.4175 2.2235e+03     0.8370     -0.057     -0.083    19.1785 0.0000e+00
     -0.057      0.000     8.5933     92.986     34.907  30.847170     0.7740      7.261   310.4308 2.2272e+03     0.8387     -0.056     -0.081    19.1788 0.0000e+00
     -0.057     -0.001     8.5943     92.998     34.920  30.858612     0.7637      7.261   310.4789 2.2166e+03     0.8306     -0.054     -0.079    19.1798 0.0000e+00
     -0.058     -0.001     8.5977     93.037     34.906  30.847160     0.7660      7.259   310.5694 2.2066e+03     0.8293     -0.056     -0.082    19.1801 0.0000e+00
     -0.058     -0.001     8.6026     93.092     34.892  30.835718     0.7465      7.254   310.6644 2.2159e+03     0.8233     -0.057     -0.083    19.1800 0.0000e+00
     -0.058     -0.001     8.6073     93.143     34.904  30.847283     0.7212      7.249   310.6810 2.2214e+03     0.8194     -0.057     -0.082    19.1804 0.0000e+00
     -0.058     -0.001     8.6139     93.216     34.918  30.859976     0.7089      7.245   310.6843 2.2118e+03     0.8430     -0.056     -0.081    19.1810 0.0000e+00
     -0.058     -0.000     8.6237     93.322     34.921  30.862171     0.7075      7.242   310.7899 2.2029e+03     0.8641     -0.058     -0.084    19.1818 0.0000e+00
     -0.058 -5.585e-08     8.6304     93.394     34.935  30.873821     0.7042      7.241   310.9249 2.1972e+03     0.8614     -0.057     -0.083    19.1828 0.0000e+00
     -0.058 -6.144e-07     8.6320     93.411     34.935  30.873821     0.6873      7.239   311.0261 2.1937e+03     0.8411     -0.056     -0.082    19.1836 0.0000e+00
     -0.058     -0.000     8.6320     93.411     34.922  30.862170     0.6698      7.239   311.0673 2.1935e+03     0.8312     -0.057     -0.083    19.1839 0.0000e+00
     -0.058     -0.000     8.6308     93.398     34.919  30.859966     0.6658      7.239   311.0792 2.1945e+03     0.8643     -0.056     -0.082    19.1838 0.0000e+00
     -0.058     -0.001     8.6298     93.387     34.904  30.847180     0.6667      7.238   311.0835 2.1964e+03     0.8754     -0.057     -0.083    19.1835 0.0000e+00
     -0.058     -0.001     8.6306     93.397     34.890  30.834583     0.6625      7.238   311.0337 2.1970e+03     0.8134     -0.056     -0.082    19.1833 0.0000e+00
     -0.059     -0.001     8.6328     93.421     34.890  30.834677     0.6518      7.237   311.0797 2.2010e+03     0.7857     -0.058     -0.084    19.1832 0.0000e+00
     -0.060      0.000     8.6377     93.475     34.905  30.848314     0.6482      7.236   311.2084 2.2056e+03     0.8448     -0.059     -0.086    19.1833 0.0000e+00
     -0.060 3.9135e-07     8.6457     93.562     34.932  30.872458     0.6550      7.236   311.2138 2.1990e+03     0.8873     -0.058     -0.085    19.1836 0.0000e+00
     -0.059      0.000     8.6530     93.640     34.932  30.872561     0.6606      7.238   311.1445 2.1936e+03     0.8424     -0.058     -0.084    19.1838 0.0000e+00
     -0.058      0.000     8.6560     93.673     34.906  30.849563     0.6609      7.240   311.1448 2.1952e+03     0.7897     -0.057     -0.082    19.1841 0.0000e+00
     -0.058      0.001     8.6530     93.640     34.905  30.848418     0.6589      7.242   311.3048 2.1981e+03     0.8002     -0.057     -0.082    19.1843 0.0000e+00
     -0.059      0.001     8.6396     93.495     34.917  30.858725     0.6636      7.244   311.5297 2.2021e+03     0.8159     -0.057     -0.083    19.1842 0.0000e+00
     -0.059      0.001     8.6148     93.227     34.904  30.847170     0.6541      7.247   311.6263 2.2011e+03     0.8276     -0.059     -0.085    19.1842 0.0000e+00
     -0.059      0.001     8.5835     92.887     34.891  30.835718     0.6173      7.248   311.5265 2.2014e+03     0.8493     -0.058     -0.084    19.1844 0.0000e+00
     -0.058      0.001     8.5486     92.509     34.904  30.847283     0.5949      7.248   311.2699 2.2030e+03     0.8344     -0.057     -0.083    19.1845 0.0000e+00
     -0.057      0.001     8.5146     92.142     34.918  30.859976     0.6037      7.250   311.1053 2.2018e+03     0.8001     -0.056     -0.081    19.1843 0.0000e+00
     -0.057      0.001     8.4859     91.832     34.920  30.862171     0.6228      7.252   311.1710 2.1995e+03     0.8007     -0.056     -0.081    19.1841 0.0000e+00
     -0.057      0.001     8.4619     91.572     34.934  30.873821     0.6429      7.252   311.2036 2.1905e+03     0.8110     -0.057     -0.082    19.1840 0.0000e+00
     -0.057      0.000     8.4399     91.334     34.934  30.873820     0.6530      7.253   311.1549 2.1860e+03     0.8028     -0.055     -0.080    19.1840 0.0000e+00
     -0.057 1.8626e-08     8.4215     91.135     34.921  30.862160     0.6529      7.254   311.1852 2.1931e+03     0.7928     -0.056     -0.082    19.1839 0.0000e+00
     -0.057 2.0489e-07     8.4101     91.011     34.918  30.859861     0.6512      7.255   311.3116 2.1953e+03     0.7827     -0.057     -0.082    19.1840 0.0000e+00
     -0.057 2.0489e-07     8.4022     90.926     34.903  30.846023     0.6413      7.254   311.3930 2.1932e+03     0.7716     -0.055     -0.080    19.1843 0.0000e+00
     -0.058 1.8626e-08     8.3950     90.849     34.875  30.821862     0.6347      7.252   311.3086 2.1937e+03     0.7803     -0.056     -0.083    19.1845 0.0000e+00
     -0.058 1.6933e-09     8.3905     90.799     34.875  30.821766     0.6443      7.251   311.2374 2.1937e+03     0.7971     -0.057     -0.084    19.1846 0.0000e+00
     -0.058 1.5417e-10     8.3877     90.768     34.901  30.844859     0.6483      7.251   311.3060 2.1928e+03     0.7913     -0.056     -0.082    19.1847 0.0000e+00
     -0.057 1.6518e-11     8.3847     90.736     34.904  30.847044     0.6372      7.252   311.3643 2.1889e+03     0.8015     -0.056     -0.081    19.1846 0.0000e+00
     -0.057 2.9031e-11     8.3850     90.739     34.905  30.848187     0.6378      7.253   311.3395 2.1891e+03     0.8294     -0.055     -0.080    19.1843 0.0000e+00
     -0.058 3.0546e-10     8.3864     90.754     34.917  30.858684     0.6471      7.253   311.2649 2.1964e+03     0.8230     -0.057     -0.082    19.1841 0.0000e+00
     -0.058 3.3588e-09     8.3892     90.784     34.904  30.846948     0.6482      7.253   311.1503 2.1973e+03     0.8161     -0.056     -0.080    19.1841 0.0000e+00
     -0.058 3.6947e-08     8.4007     90.908     34.888  30.833302     0.6512      7.254   311.1586 2.1942e+03     0.8373     -0.055     -0.080    19.1842 0.0000e+00
     -0.058 4.0642e-07     8.4137     91.049     34.874  30.820705     0.6549      7.254   311.2787 2.1923e+03     0.8656     -0.058     -0.084    19.1839 0.0000e+00
     -0.057      0.000     8.4213     91.132     34.875  30.821651     0.6569      7.255   311.3984 2.1883e+03     0.8831     -0.056     -0.081    19.1838 0.0000e+00
     -0.057      0.000     8.4270     91.194     34.901  30.844735     0.6569      7.256   311.4871 2.1877e+03     0.8669     -0.055     -0.079    19.1839 0.0000e+00
     -0.058      0.001     8.4271     91.196     34.902  30.845783     0.6636      7.256   311.4910 2.1924e+03     0.8527     -0.057     -0.082    19.1838 0.0000e+00
     -0.058      0.001     8.4166     91.083     34.889  30.834332     0.6830      7.255   311.4452 2.2025e+03     0.8639     -0.057     -0.083    19.1837 0.0000e+00
     -0.057      0.000     8.3968     90.868     34.888  30.833292     0.6983      7.255   311.3629 2.2144e+03     0.8804     -0.055     -0.080    19.1838 0.0000e+00
     -0.056      0.000     8.3659     90.534     34.888  30.833207     0.7015      7.257   311.2713 2.2147e+03     0.8990     -0.054     -0.078    19.1840 0.0000e+00
     -0.057      0.000     8.3289     90.134     34.888  30.833303     0.7128      7.258   311.1974 2.2014e+03     0.8747     -0.056     -0.080    19.1841 0.0000e+00
     -0.058     -0.001     8.2984     89.804     34.889  30.834448     0.7428      7.258   311.2445 2.1972e+03     0.8316     -0.057     -0.082    19.1842 0.0000e+00
     -0.058     -0.001     8.2770     89.572     34.904  30.847054     0.7618      7.258   311.4108 2.2031e+03     0.8356     -0.056     -0.082    19.1844 0.0000e+00
     -0.058     -0.001     8.2621     89.410     34.917  30.858705     0.7580      7.259   311.4873 2.2014e+03     0.8316     -0.057     -0.082    19.1844 0.0000e+00
     -0.058      0.000     8.2557     89.340     34.905  30.848303     0.7523      7.260   311.5659 2.1987e+03     0.8136     -0.057     -0.082    19.1847 0.0000e+00
     -0.057 -3.876e-07     8.2577     89.363     34.905  30.848303     0.7577      7.260   311.7592 2.2002e+03     0.8314     -0.056     -0.081    19.1846 0.0000e+00
     -0.057      0.000     8.2644     89.435     34.917  30.858704     0.7677      7.261   311.8459 2.2042e+03     0.8641     -0.056     -0.081    19.1847 0.0000e+00
     -0.057      0.000     8.2754     89.553     34.904  30.847054     0.7624      7.262   311.7541 2.2044e+03     0.8736     -0.056     -0.081    19.1849 0.0000e+00
     -0.057      0.000     8.2912     89.723     34.890  30.834458     0.7484      7.262   311.6815 2.2013e+03     0.8545     -0.057     -0.083    19.1846 0.0000e+00
     -0.058     -0.000     8.3098     89.924     34.889  30.833416     0.7640      7.263   311.7426 2.1997e+03     0.8461     -0.056     -0.082    19.1844 0.0000e+00
     -0.059      0.001     8.3300     90.142     34.890  30.834457     0.8049      7.263   311.8051 2.1922e+03     0.8643     -0.057     -0.082    19.1842 0.0000e+00
     -0.059      0.001     8.3504     90.361     34.905  30.847044     0.8288      7.262   311.8345 2.1872e+03     0.8906     -0.058     -0.084    19.1841 0.0000e+00
     -0.058      0.001     8.3697     90.569     34.919  30.858591     0.8322      7.262   311.9260 2.1953e+03     0.8893     -0.057     -0.083    19.1838 0.0000e+00
     -0.057      0.001     8.3868     90.755     34.906  30.847055     0.8280      7.260   311.9648 2.2075e+03     0.8484     -0.056     -0.081    19.1831 0.0000e+00
     -0.056      0.001     8.3986     90.882     34.892  30.834571     0.8235      7.258   311.8729 2.2111e+03     0.8237     -0.054     -0.078    19.1827 0.0000e+00
     -0.056      0.000     8.3995     90.892     34.892  30.834676     0.8235      7.256   311.8482 2.2024e+03     0.8354     -0.055     -0.080    19.1821 0.0000e+00
     -0.057 1.8627e-08     8.3888     90.776     34.907  30.848313     0.8196      7.254   312.0103 2.1920e+03     0.8366     -0.057     -0.082    19.1818 0.0000e+00
     -0.057 2.0490e-07     8.3712     90.586     34.934  30.872447     0.8223      7.252   312.1974 2.1859e+03     0.8083     -0.056     -0.081    19.1818 0.0000e+00
     -0.057 2.0490e-07     8.3477     90.331     34.934  30.872447     0.8192      7.251   312.3043 2.1791e+03     0.7981     -0.057     -0.083    19.1818 0.0000e+00
     -0.057 1.8627e-08     8.3179     90.008     34.907  30.848305     0.8012      7.247   312.4420 2.1661e+03     0.8351     -0.057     -0.083    19.1820 0.0000e+00
     -0.056 1.6921e-09     8.2874     89.678     34.891  30.834581     0.8062      7.237   312.6585 2.1402e+03     0.8594     -0.055     -0.080    19.1819 0.0000e+00
     -0.056 1.3995e-10     8.2599     89.381     34.890  30.833531     0.8058      7.225   312.7697 2.1024e+03     0.8474     -0.055     -0.080    19.1815 0.0000e+00
     -0.056 -2.103e-14     8.2384     89.147     34.893  30.835604     0.7787      7.216   312.6682 2.0920e+03     0.8425     -0.056     -0.081    19.1814 0.0000e+00
     -0.057 -2.313e-13     8.2298     89.052     34.921  30.859641     0.7629      7.212   312.5498 2.1299e+03     0.8614     -0.055     -0.080    19.1818 0.0000e+00
     -0.057 -2.544e-12     8.2343     89.100     34.934  30.870128     0.7618      7.212   312.5429 2.1647e+03     0.8931     -0.057     -0.083    19.1819 0.0000e+00
     -0.057 -2.799e-11     8.2473     89.238     34.896  30.835384     0.7656      7.214   312.4986 2.1781e+03     0.8896     -0.056     -0.082    19.1815 0.0000e+00
     -0.057 -3.079e-10     8.2645     89.423     34.880  30.820603     0.7627      7.218   312.4451 2.1943e+03     0.8496     -0.054     -0.078    19.1809 0.0000e+00
     -0.057 -3.387e-09     8.2819     89.610     34.877  30.818427     0.7544      7.223   312.4986 2.1896e+03     0.8372     -0.056     -0.082    19.1802 0.0000e+00
     -0.056 -3.725e-08     8.2991     89.795     34.867  30.809075     0.7482      7.228   312.5424 2.1706e+03     0.8620     -0.054     -0.080    19.1790 0.0000e+00
     -0.056 -4.098e-07     8.3137     89.952     34.896  30.834552     0.7433      7.233   312.5444 2.1742e+03     0.8742     -0.053     -0.078    19.1776 0.0000e+00
     -0.057     -0.000     8.3172     89.991     34.939  30.872436     0.7317      7.236   312.6085 2.1643e+03     0.8634     -0.058     -0.083    19.1767 0.0000e+00
     -0.057     -0.000     8.3072     89.882     34.955  30.886075     0.7091      7.239   312.7150 2.1470e+03     0.8530     -0.056     -0.081    19.1764 0.0000e+00
     -0.056     -0.001     8.2887     89.682     34.939  30.872438     0.6997      7.241   312.8005 2.1540e+03     0.8404     -0.053     -0.077    19.1764 0.0000e+00
     -0.056     -0.001     8.2662     89.438     34.896  30.834572     0.7102      7.242   312.8674 2.1614e+03     0.8319     -0.055     -0.080    19.1762 0.0000e+00
     -0.056     -0.001     8.2447     89.206     34.868  30.809284     0.7159      7.243   312.9216 2.1768e+03     0.8425     -0.055     -0.079    19.1759 0.0000e+00
     -0.057     -0.001     8.2272     89.016     34.881  30.820718     0.7048      7.244   313.0258 2.1952e+03     0.8468     -0.056     -0.080    19.1756 0.0000e+00
     -0.058     -0.000     8.2125     88.856     34.909  30.845807     0.6949      7.246   313.0953 2.2061e+03     0.8231     -0.058     -0.084    19.1755 0.0000e+00
     -0.059      0.000     8.2031     88.756     34.923  30.858592     0.6977      7.247   312.9873 2.2143e+03     0.8304     -0.057     -0.083    19.1757 0.0000e+00
     -0.058      0.000     8.2056     88.783     34.912  30.848294     0.7019      7.247   312.8379 2.2107e+03     0.8729     -0.057     -0.082    19.1758 0.0000e+00
     -0.056      0.001     8.2173     88.910     34.912  30.848312     0.6990      7.248   312.8381 2.2083e+03     0.8804     -0.055     -0.079    19.1757 0.0000e+00
     -0.055      0.001     8.2299     89.047     34.923  30.858810     0.7002      7.250   312.9896 2.2146e+03     0.8591     -0.052     -0.077    19.1755 0.0000e+00
     -0.056      0.000     8.2427     89.187     34.910  30.848200     0.7076      7.250   313.0353 2.2156e+03     0.8290     -0.056     -0.082    19.1751 0.0000e+00
     -0.057     -0.000     8.2528     89.300     34.908  30.847045     0.7150      7.250   312.9593 2.2128e+03     0.8222     -0.056     -0.082    19.1751 0.0000e+00
     -0.057     -0.001     8.2530     89.303     34.905  30.844849     0.7345      7.249   312.9316 2.2170e+03     0.8372     -0.054     -0.079    19.1752 0.0000e+00
     -0.057     -0.001     8.2430     89.196     34.878  30.821653     0.7498      7.247   312.8729 2.2179e+03     0.8282     -0.057     -0.082    19.1762 0.0000e+00
     -0.056      0.000     8.2297     89.052     34.876  30.820603     0.7532      7.246   312.8523 2.2154e+03     0.8356     -0.056     -0.081    19.1777 0.0000e+00
     -0.056 -1.509e-08     8.2219     88.967     34.890  30.832159     0.7573      7.246   312.9401 2.2189e+03     0.8651     -0.055     -0.079    19.1789 0.0000e+00
     -0.056 -1.660e-07     8.2245     88.996     34.892  30.834354     0.7529      7.246   313.0744 2.2119e+03     0.8499     -0.056     -0.080    19.1800 0.0000e+00
     -0.057 2.0630e-07     8.2375     89.136     34.907  30.847149     0.7469      7.245   313.1859 2.2074e+03     0.8039     -0.055     -0.081    19.1808 0.0000e+00
     -0.058      0.000     8.2588     89.367     34.921  30.859850     0.7487      7.244   313.2551 2.2118e+03     0.7976     -0.056     -0.081    19.1809 0.0000e+00
     -0.058      0.000     8.2853     89.653     34.922  30.860910     0.7562      7.244   313.3087 2.1992e+03     0.8343     -0.057     -0.083    19.1807 0.0000e+00
     -0.057      0.001     8.3135     89.959     34.922  30.859955     0.7642      7.244   313.3181 2.1967e+03     0.8518     -0.055     -0.079    19.1806 0.0000e+00
     -0.056      0.001     8.3396     90.241     34.908  30.848314     0.7618      7.244   313.3682 2.2116e+03     0.8249     -0.056     -0.080    19.1801 0.0000e+00
     -0.056      0.001     8.3528     90.382     34.907  30.847169     0.7551      7.242   313.4837 2.2109e+03     0.8142     -0.057     -0.081    19.1802 0.0000e+00
     -0.055      0.000     8.3458     90.306     34.907  30.846111     0.7663      7.242   313.5103 2.2125e+03     0.8445     -0.052     -0.076    19.1803 0.0000e+00
     -0.055 -2.103e-13     8.3303     90.137     34.895  30.835518     0.7876      7.243   313.5181 2.2213e+03     0.8564     -0.053     -0.077    19.1801 0.0000e+00
     -0.056 -2.313e-12     8.3175     89.999     34.907  30.846111     0.7816      7.244   313.5779 2.2212e+03     0.8353     -0.057     -0.082    19.1800 0.0000e+00
     -0.056 -2.545e-11     8.3054     89.868     34.908  30.847170     0.7587      7.245   313.5448 2.2293e+03     0.8329     -0.055     -0.079    19.1796 0.0000e+00
     -0.056 -2.799e-10     8.2938     89.742     34.910  30.848324     0.7582      7.245   313.5488 2.2334e+03     0.8587     -0.054     -0.078    19.1791 0.0000e+00
     -0.057 -3.079e-09     8.2848     89.644     34.923  30.860061     0.7847      7.246   313.6254 2.2188e+03     0.8722     -0.057     -0.084    19.1789 0.0000e+00
     -0.055 -3.387e-08     8.2794     89.586     34.925  30.862065     0.8130      7.247   313.6117 2.2125e+03     0.8434     -0.053     -0.076    19.1787 0.0000e+00
     -0.054 -3.726e-07     8.2807     89.600     34.937  30.872552     0.8246      7.247   313.6408 2.2140e+03     0.7863     -0.051     -0.072    19.1786 0.0000e+00
     -0.056      0.000     8.2899     89.699     34.923  30.859851     0.8236      7.247   313.7189 2.2112e+03     0.7613     -0.057     -0.082    19.1784 0.0000e+00
     -0.056     -0.000     8.3039     89.851     34.895  30.835509     0.8200      7.247   313.6957 2.2129e+03     0.7851     -0.055     -0.080    19.1783 0.0000e+00
     -0.055     -0.000     8.3210     90.037     34.892  30.832264     0.8266      7.247   313.7047 2.2041e+03     0.7994     -0.053     -0.077    19.1784 0.0000e+00
     -0.056     -0.000     8.3395     90.237     34.878  30.820621     0.8291      7.248   313.8279 2.1485e+03     0.7814     -0.056     -0.082    19.1783 0.0000e+00
     -0.056 -9.479e-15     8.3541     90.394     34.879  30.821748     0.8140      7.249   313.8945 2.0693e+03     0.7815     -0.055     -0.080    19.1782 0.0000e+00
     -0.056 -1.043e-13     8.3644     90.506     34.907  30.845889     0.8099      7.249   313.9076 2.0083e+03     0.8303     -0.055     -0.078    19.1784 0.0000e+00
     -0.056 -1.147e-12     8.3691     90.557     34.921  30.858476     0.8262      7.250   313.9864 1.9194e+03     0.8837     -0.056     -0.081    19.1786 0.0000e+00
     -0.056 -1.262e-11     8.3630     90.490     34.908  30.846921     0.8360      7.250   314.0721 1.8644e+03     0.8775     -0.054     -0.079    19.1786 0.0000e+00
     -0.056 -1.388e-10     8.3487     90.335     34.893  30.833198     0.8264      7.249   314.0844 1.9221e+03     0.8165     -0.055     -0.078    19.1787 0.0000e+00
     -0.056 -1.527e-09     8.3344     90.180     34.877  30.819561     0.8110      7.247   314.0488 1.9817e+03     0.7880     -0.056     -0.082    19.1784 0.0000e+00
     -0.056 -1.679e-08     8.3269     90.100     34.866  30.809055     0.7971      7.245   314.0720 2.0323e+03     0.8682     -0.055     -0.080    19.1781 0.0000e+00
     -0.056 -1.847e-07     8.3294     90.127     34.893  30.833189     0.7782      7.243   314.1920 2.0890e+03     0.9922     -0.056     -0.081    19.1779 0.0000e+00
     -0.056 -1.693e-07     8.3361     90.199     34.920  30.857331     0.7657      7.242   314.2959 2.0805e+03     1.0667     -0.057     -0.082    19.1778 0.0000e+00
     -0.056 -9.479e-15     8.3415     90.259     34.908  30.846921     0.7662      7.241   314.2958 2.0405e+03     1.0980     -0.053     -0.076    19.1777 0.0000e+00
     -0.056 -1.043e-13     8.3460     90.309     34.893  30.834333     0.7653      7.241   314.2763 1.9787e+03     1.1561     -0.054     -0.078    19.1779 0.0000e+00
     -0.056 -1.147e-12     8.3512     90.366     34.891  30.832156     0.7638      7.240   314.3183 1.8562e+03     1.2507     -0.056     -0.082    19.1781 0.0000e+00
     -0.056 -1.262e-11     8.3568     90.427     34.877  30.820591     0.7578      7.240   314.2878 1.7568e+03     1.2967     -0.055     -0.079    19.1782 0.0000e+00
     -0.057 -1.388e-10     8.3585     90.447     34.877  30.821516     0.7488      7.240   314.1663 1.7519e+03     1.2851     -0.055     -0.080    19.1784 0.0000e+00
     -0.057 -1.527e-09     8.3512     90.368     34.902  30.843350     0.7369      7.239   314.1397 1.7456e+03     1.2324     -0.057     -0.083    19.1787 0.0000e+00
     -0.056 -1.679e-08     8.3359     90.202     34.887  30.830553     0.7144      7.239   314.2240 1.7546e+03     1.1783     -0.055     -0.080    19.1793 0.0000e+00
     -0.055 -1.847e-07     8.3197     90.027     34.845  30.793804     0.7064      7.238   314.3252 1.8541e+03     1.1494     -0.053     -0.077    19.1800 0.0000e+00
     -0.056 -1.693e-07     8.3052     89.871     34.830  30.780072     0.7050      7.238   314.3312 1.8847e+03     1.0963     -0.056     -0.081    19.1804 0.0000e+00
     -0.057 -1.138e-12     8.2877     89.682     34.843  30.791533     0.6890      7.238   314.2961 1.8514e+03     1.0548     -0.055     -0.080    19.1807 0.0000e+00
     -0.057 -1.251e-11     8.2671     89.460     34.859  30.805361     0.6872      7.238   314.4173 1.8749e+03     1.0451     -0.054     -0.080    19.1809 0.0000e+00
     -0.057 -1.377e-10     8.2487     89.262     34.875  30.820255     0.7018      7.238   314.5053 1.8429e+03     1.0400     -0.057     -0.083    19.1808 0.0000e+00
     -0.056 -1.514e-09     8.2387     89.154     34.902  30.844598     0.7089      7.237   314.4143 1.7811e+03     1.0536     -0.055     -0.080    19.1808 0.0000e+00
     -0.056 -1.666e-08     8.2416     89.186     34.903  30.845658     0.7086      7.236   314.3488 1.8126e+03     1.0570     -0.053     -0.077    19.1814 0.0000e+00
     -0.057 -1.832e-07     8.2537     89.318     34.889  30.833082     0.7076      7.234   314.4023 1.8700e+03     1.0508     -0.056     -0.082    19.1821 0.0000e+00
     -0.057 -1.680e-07     8.2646     89.436     34.873  30.819549     0.7057      7.233   314.4585 1.9239e+03     1.0705     -0.057     -0.081    19.1827 0.0000e+00
     -0.056 1.1468e-12     8.2671     89.462     34.862  30.809054     0.7039      7.232   314.3401 2.0017e+03     1.0813     -0.055     -0.079    19.1831 0.0000e+00
     -0.056 1.2615e-11     8.2621     89.408     34.889  30.833199     0.7039      7.231   314.1761 2.0621e+03     1.0593     -0.055     -0.080    19.1833 0.0000e+00
     -0.056 1.3876e-10     8.2557     89.338     34.916  30.857446     0.7056      7.231   314.1958 2.0918e+03     0.9874     -0.055     -0.080    19.1836 0.0000e+00
     -0.057 1.5264e-09     8.2524     89.302     34.906  30.848200     0.7064      7.231   314.2338 2.0973e+03     0.8831     -0.056     -0.081    19.1836 0.0000e+00
     -0.057 1.6790e-08     8.2531     89.311     34.906  30.848417     0.7049      7.231   314.1193 2.0779e+03     0.8355     -0.056     -0.082    19.1833 0.0000e+00
     -0.056 1.8469e-07     8.2576     89.359     34.919  30.860077     0.7059      7.232   314.0162 2.0557e+03     0.8391     -0.055     -0.080    19.1831 0.0000e+00
     -0.056 1.8429e-07     8.2639     89.427     34.921  30.862159     0.7000      7.233   314.0190 2.0207e+03     0.8361     -0.054     -0.079    19.1830 0.0000e+00
     -0.056 1.1881e-08     8.2692     89.484     34.934  30.873593     0.6882      7.236   314.0675 1.9905e+03     0.8289     -0.055     -0.080    19.1832 0.0000e+00
     -0.057 -3.726e-08     8.2722     89.516     34.932  30.871303     0.6832      7.238   314.0868 2.0269e+03     0.8438     -0.056     -0.081    19.1833 0.0000e+00
     -0.057 -4.098e-07     8.2717     89.511     34.890  30.834469     0.6948      7.239   314.0798 2.0899e+03     0.8642     -0.056     -0.081    19.1834 0.0000e+00
     -0.057      0.000     8.2674     89.464     34.862  30.809284     0.7188      7.240   314.1557 2.1169e+03     0.8622     -0.057     -0.082    19.1834 0.0000e+00
     -0.056      0.000     8.2643     89.430     34.875  30.820820     0.7333      7.241   314.3157 2.1439e+03     0.8495     -0.055     -0.079    19.1833 0.0000e+00
     -0.055     -0.001     8.2667     89.455     34.905  30.846949     0.7510      7.242   314.4654 2.1573e+03     0.8634     -0.053     -0.078    19.1831 0.0000e+00
     -0.056     -0.001     8.2702     89.494     34.932  30.871177     0.7670      7.243   314.5897 2.0848e+03     0.9075     -0.056     -0.081    19.1829 0.0000e+00
     -0.056     -0.001     8.2684     89.475     34.919  30.859726     0.7617      7.245   314.6133 2.0173e+03     0.8950     -0.055     -0.079    19.1828 0.0000e+00
     -0.058     -0.001     8.2629     89.415     34.891  30.835506     0.7508      7.246   314.4933 2.0373e+03     0.8339     -0.056     -0.081    19.1825 0.0000e+00
     -0.059     -0.001     8.2609     89.395     34.888  30.832367     0.7461      7.246   314.4293 2.0605e+03     0.8098     -0.061     -0.088    19.1824 0.0000e+00
     -0.058     -0.000     8.2636     89.425     34.875  30.821776     0.7511      7.246   314.4417 2.1003e+03     0.8175     -0.058     -0.085    19.1826 0.0000e+00
     -0.057      0.000     8.2657     89.448     34.889  30.834458     0.7561      7.246   314.4703 2.1719e+03     0.8362     -0.053     -0.078    19.1827 0.0000e+00
     -0.057      0.000     8.2629     89.418     34.917  30.858695     0.7418      7.247   314.6040 2.2064e+03     0.8212     -0.057     -0.083    19.1828 0.0000e+00
     -0.057      0.000     8.2547     89.330     34.919  30.860795     0.7165      7.247   314.7674 2.2190e+03     0.7889     -0.057     -0.085    19.1831 0.0000e+00
     -0.057      0.000     8.2476     89.253     34.918  30.859841     0.6977      7.247   314.8118 2.2317e+03     0.8113     -0.054     -0.077    19.1836 0.0000e+00
     -0.057     -0.000     8.2493     89.272     34.904  30.847168     0.6890      7.248   314.7960 2.2292e+03     0.8478     -0.056     -0.081    19.1838 0.0000e+00
     -0.058     -0.000     8.2573     89.358     34.890  30.834582     0.6941      7.248   314.8345 2.2153e+03     0.8646     -0.059     -0.086    19.1841 0.0000e+00
     -0.057     -0.001     8.2632     89.421     34.890  30.834677     0.6956      7.248   314.8465 2.2136e+03     0.8619     -0.054     -0.079    19.1843 0.0000e+00
     -0.057     -0.001     8.2653     89.444     34.905  30.848313     0.6882      7.247   314.8559 2.2180e+03     0.8462     -0.055     -0.079    19.1843 0.0000e+00
     -0.057     -0.001     8.2679     89.473     34.932  30.872447     0.6962      7.246   314.9477 2.2227e+03     0.8567     -0.058     -0.083    19.1841 0.0000e+00
     -0.057     -0.001     8.2734     89.531     34.932  30.872447     0.7193      7.244   315.0101 2.2432e+03     0.8672     -0.054     -0.079    19.1839 0.0000e+00
     -0.058     -0.001     8.2817     89.621     34.905  30.848304     0.7377      7.242   315.0071 2.2667e+03     0.8511     -0.056     -0.082    19.1841 0.0000e+00
     -0.059     -0.001     8.2913     89.725     34.890  30.834572     0.7443      7.240   314.9986 2.2792e+03     0.8451     -0.061     -0.088    19.1842 0.0000e+00
     -0.057     -0.001     8.2973     89.789     34.889  30.833427     0.7535      7.238   314.9935 2.2786e+03     0.8556     -0.056     -0.082    19.1841 0.0000e+00
     -0.057     -0.001     8.2992     89.809     34.890  30.834458     0.7388      7.236   314.9446 2.2640e+03     0.8566     -0.055     -0.079    19.1842 0.0000e+00
     -0.058     -0.000     8.3027     89.844     34.905  30.847045     0.6853      7.234   314.9239 2.2530e+03     0.8562     -0.058     -0.085    19.1841 0.0000e+00
     -0.058      0.001     8.3100     89.921     34.920  30.858601     0.6490      7.232   315.0018 2.2569e+03     0.8516     -0.056     -0.082    19.1839 0.0000e+00
     -0.058      0.001     8.3207     90.034     34.908  30.847159     0.6399      7.231   315.1128 2.2549e+03     0.8316     -0.056     -0.081    19.1835 0.0000e+00
     -0.058      0.001     8.3303     90.136     34.895  30.835718     0.6395      7.232   315.2328 2.2490e+03     0.8283     -0.059     -0.086    19.1829 0.0000e+00
     -0.058      0.001     8.3349     90.186     34.909  30.847273     0.6447      7.232   315.3343 2.2583e+03     0.8424     -0.057     -0.082    19.1817 0.0000e+00
     -0.056      0.001     8.3355     90.192     34.924  30.859860     0.6472      7.233   315.3069 2.2690e+03     0.8485     -0.054     -0.078    19.1803 0.0000e+00
     -0.055      0.002     8.3340     90.175     34.925  30.860891     0.6510      7.236   315.1601 2.2641e+03     0.8417     -0.054     -0.079    19.1793 0.0000e+00
     -0.055      0.002     8.3315     90.148     34.923  30.859737     0.6536      7.238   315.1076 2.2545e+03     0.8518     -0.053     -0.077    19.1781 0.0000e+00
     -0.056      0.001     8.3252     90.081     34.907  30.845899     0.6521      7.240   315.1893 2.2525e+03     0.8786     -0.055     -0.079    19.1773 0.0000e+00
     -0.056     -0.002     8.3127     89.947     34.878  30.820602     0.6502      7.242   315.2012 2.2409e+03     0.8606     -0.057     -0.082    19.1773 0.0000e+00
     -0.054     -0.005     8.2963     89.770     34.864  30.807900     0.6490      7.245   315.0793 2.2125e+03     0.8175     -0.052     -0.075    19.1773 0.0000e+00
     -0.053     -0.007     8.2798     89.593     34.876  30.819341     0.6475      7.248   315.0058 2.1862e+03     0.8153     -0.049     -0.071    19.1776 0.0000e+00
     -0.057     -0.008     8.2662     89.446     34.890  30.831920     0.6496      7.249   315.0013 2.1515e+03     0.8343     -0.055     -0.079    19.1781 0.0000e+00
     -0.063     -0.006     8.2549     89.324     34.891  30.832968     0.6562      7.248   315.0245 2.0308e+03     0.8335     -0.062     -0.090    19.1786 0.0000e+00
     -0.068     -0.002     8.2493     89.263     34.890  30.832022     0.6542      7.243   315.1145 1.7623e+03     0.8058     -0.068     -0.099    19.1792 0.0000e+00
     -0.069      0.005     8.2532     89.305     34.877  30.820477     0.6438      7.240   315.1425 1.4379e+03     0.7735     -0.070     -0.102    19.1796 0.0000e+00
     -0.065      0.015     8.2628     89.410     34.877  30.820392     0.6403      7.238   315.1047 1.2840e+03     0.7785     -0.065     -0.093    19.1799 0.0000e+00
     -0.059      0.026     8.2735     89.526     34.889  30.830993     0.6401      7.236   315.0021 1.3197e+03     0.8353     -0.057     -0.083    19.1800 0.0000e+00
     -0.051      0.037     8.2845     89.644     34.878  30.821641     0.6418      7.234   314.7616 1.1325e+03     0.8798     -0.051     -0.076    19.1800 0.0000e+00
     -0.041      0.048     8.2927     89.733     34.892  30.834333     0.6508      7.231   314.6066 6.8493e+02     0.8600     -0.042     -0.061    19.1800 0.0000e+00
     -0.028      0.058     8.2967     89.776     34.919  30.857435     0.6669      7.227   314.4192 4.3441e+02     0.8396     -0.028     -0.041    19.1800 0.0000e+00
     -0.012      0.064     8.2982     89.791     34.908  30.846939     0.6895      7.224   313.7857 3.7944e+02     0.8472     -0.013     -0.019    19.1800 0.0000e+00
      0.008      0.069     8.2988     89.797     34.894  30.834438     0.7026      7.224   313.0555 3.8604e+02     0.8605      0.007      0.009    19.1799 0.0000e+00
      0.031      0.070     8.3039     89.852     34.893  30.833302     0.7066      7.225   312.6457 6.9187e+02     0.8785      0.032      0.046    19.1799 0.0000e+00
      0.051      0.068     8.3164     89.987     34.893  30.833199     0.7002      7.226   312.4442 1.3400e+03     0.8812      0.052      0.075    19.1799 0.0000e+00
      0.066      0.065     8.3349     90.187     34.893  30.833189     0.6894      7.226   312.2547 1.7622e+03     0.8635      0.064      0.093    19.1795 0.0000e+00
      0.080      0.060     8.3577     90.432     34.893  30.833188     0.6963      7.226   311.9896 1.7380e+03     0.8472      0.079      0.115    19.1790 0.0000e+00
      0.094      0.057     8.3808     90.682     34.893  30.833189     0.7101      7.226   311.8205 1.5915e+03     0.8367      0.092      0.134    19.1785 0.0000e+00
      0.107      0.055     8.4006     90.896     34.893  30.833199     0.7177      7.223   311.8447 1.1836e+03     0.8284      0.105      0.153    19.1782 0.0000e+00
      0.121      0.052     8.4184     91.089     34.893  30.833304     0.7340      7.219   311.8512 6.1911e+02     0.8381      0.120      0.172    19.1780 0.0000e+00
      0.136      0.048     8.4367     91.286     34.895  30.834459     0.7600      7.217   311.7273 3.5088e+02     0.8626      0.132      0.192    19.1778 0.0000e+00
      0.151      0.044     8.4538     91.471     34.910  30.847159     0.7739      7.218   311.7233 3.0928e+02     0.8799      0.149      0.216    19.1778 0.0000e+00
      0.161      0.042     8.4712     91.657     34.925  30.859842     0.7744      7.220   311.8884 3.0486e+02     0.8644      0.160      0.234    19.1776 0.0000e+00
      0.166      0.042     8.4893     91.852     34.926  30.860787     0.7835      7.221   311.9167 3.0552e+02     0.8285      0.161      0.234    19.1775 0.0000e+00
      0.173      0.044     8.5020     91.989     34.924  30.858582     0.8107      7.224   311.8076 2.9941e+02     0.8115      0.168      0.243    19.1772 0.0000e+00
      0.185      0.047     8.5087     92.060     34.896  30.833189     0.8285      7.225   311.7745 2.9661e+02     0.8108      0.182      0.263    19.1768 0.0000e+00
      0.200      0.051     8.5128     92.103     34.867  30.807797     0.8240      7.224   311.8602 2.9173e+02     0.8200      0.196      0.283    19.1764 0.0000e+00
      0.215      0.053     8.5090     92.061     34.865  30.805592     0.8197      7.224   311.9833 2.7988e+02     0.8318      0.210      0.305    19.1754 0.0000e+00
      0.231      0.053     8.4984     91.946     34.866  30.806527     0.8317      7.224   312.0585 2.7013e+02     0.8310      0.226      0.328    19.1745 0.0000e+00
      0.247      0.048     8.4901     91.855     34.881  30.819105     0.8403      7.226   312.0809 2.5893e+02     0.8416      0.244      0.354    19.1742 0.0000e+00
      0.259      0.041     8.4859     91.809     34.895  30.830659     0.8323      7.229   312.0824 2.5290e+02     0.8676      0.255      0.371    19.1736 0.0000e+00
      0.268      0.032     8.4831     91.779     34.882  30.819217     0.8266      7.233   312.2480 2.4882e+02     0.8709      0.262      0.381    19.1729 0.0000e+00
      0.275      0.024     8.4811     91.757     34.869  30.807775     0.8267      7.235   312.6206 2.4023e+02     0.8510      0.272      0.395    19.1728 0.0000e+00
      0.279      0.018     8.4799     91.744     34.882  30.819322     0.8242      7.237   312.8878 2.4231e+02     0.8408      0.274      0.398    19.1726 0.0000e+00
      0.280      0.015     8.4821     91.768     34.897  30.831814     0.8245      7.239   312.8983 2.4747e+02     0.8391      0.273      0.397    19.1722 0.0000e+00
      0.281      0.012     8.4897     91.850     34.897  30.831805     0.8490      7.240   312.8333 2.4858e+02     0.8302      0.276      0.400    19.1720 0.0000e+00
      0.284      0.011     8.4970     91.928     34.882  30.819210     0.8812      7.241   312.7904 2.5265e+02     0.8254      0.278      0.403    19.1719 0.0000e+00
      0.289      0.011     8.5005     91.965     34.868  30.806536     0.8921      7.243   312.8096 2.5035e+02     0.8112      0.285      0.413    19.1720 0.0000e+00
      0.294      0.013     8.5015     91.976     34.867  30.805591     0.8971      7.244   313.0646 2.4328e+02     0.8102      0.290      0.421    19.1719 0.0000e+00
      0.295      0.016     8.5000     91.959     34.870  30.807786     0.8962      7.244   313.4652 2.4228e+02     0.8441      0.289      0.420    19.1716 0.0000e+00
      0.296      0.019     8.4956     91.912     34.899  30.833075     0.8909      7.237   313.6957 2.4099e+02     0.8556      0.289      0.419    19.1714 0.0000e+00
      0.300      0.021     8.4915     91.865     34.927  30.857323     0.8877      7.225   313.7865 2.3746e+02     0.8268      0.293      0.424    19.1710 0.0000e+00
      0.309      0.022     8.4890     91.835     34.916  30.846932     0.8855      7.214   313.9607 2.3685e+02     0.8009      0.302      0.438    19.1708 0.0000e+00
      0.319      0.023     8.4849     91.788     34.903  30.834448     0.9001      7.209   314.1663 2.3751e+02     0.8164      0.313      0.455    19.1707 0.0000e+00
      0.326      0.024     8.4786     91.718     34.903  30.833408     0.9269      7.210   314.4663 2.3560e+02     0.8319      0.321      0.466    19.1706 0.0000e+00
      0.329      0.025     8.4731     91.656     34.905  30.834345     0.9428      7.215   314.9205 2.3780e+02     0.8056      0.323      0.469    19.1699 0.0000e+00
      0.332      0.027     8.4721     91.644     34.918  30.845777     0.9455      7.220   315.2698 2.4544e+02     0.7736      0.324      0.470    19.1679 0.0000e+00
      0.337      0.031     8.4775     91.701     34.918  30.844612     0.9513      7.225   315.5929 2.3982e+02     0.7802      0.330      0.478    19.1665 0.0000e+00
      0.346      0.039     8.4863     91.796     34.890  30.820259     0.9573      7.227   316.1594 2.3051e+02     0.8245      0.337      0.489    19.1657 0.0000e+00
      0.359      0.049     8.4949     91.891     34.872  30.805354     0.9542      7.226   316.6987 2.2960e+02     0.8515      0.351      0.509    19.1646 0.0000e+00
      0.372      0.059     8.5028     91.977     34.857  30.791412     0.9499      7.226   316.8656 2.2190e+02     0.8318      0.366      0.532    19.1636 0.0000e+00
      0.386      0.067     8.5095     92.047     34.844  30.778710     0.9511      7.227   316.9730 2.1297e+02     0.7993      0.376      0.545    19.1629 0.0000e+00
      0.406      0.072     8.5144     92.096     34.845  30.778795     0.9507      7.227   317.2230 2.0995e+02     0.7950      0.396      0.573    19.1628 0.0000e+00
      0.430      0.074     8.5173     92.124     34.862  30.792432     0.9447      7.229   317.4792 2.0665e+02     0.8101      0.424      0.616    19.1636 0.0000e+00
      0.451      0.072     8.5189     92.139     34.890  30.816576     0.9426      7.231   317.7473 2.0710e+02     0.8290      0.443      0.643    19.1642 0.0000e+00
      0.469      0.067     8.5184     92.132     34.891  30.816680     0.9440      7.231   317.8831 2.0866e+02     0.8410      0.460      0.666    19.1629 0.0000e+00
      0.487      0.059     8.5169     92.116     34.865  30.793691     0.9621      7.233   317.9168 2.0594e+02     0.8328      0.479      0.695    19.1605 0.0000e+00
      0.501      0.050     8.5169     92.116     34.864  30.792650     0.9953      7.234   317.9833 2.0449e+02     0.8210      0.492      0.715    19.1585 0.0000e+00
      0.512      0.044     8.5175     92.122     34.877  30.804094     1.0148      7.234   318.0846 2.0277e+02     0.8200      0.503      0.729    19.1573 0.0000e+00
      0.520      0.039     8.5175     92.122     34.878  30.805040     1.0231      7.234   318.2809 2.0062e+02     0.8211      0.510      0.739    19.1566 0.0000e+00
      0.527      0.037     8.5155     92.100     34.877  30.804095     1.0126      7.233   318.5502 1.9972e+02     0.8342      0.515      0.747    19.1562 0.0000e+00
      0.535      0.036     8.5115     92.058     34.864  30.792662     0.9804      7.232   318.7594 1.9620e+02     0.8557      0.526      0.762    19.1562 0.0000e+00
      0.543      0.035     8.5058     91.997     34.865  30.793827     0.9559      7.232   318.9171 1.9388e+02     0.8376      0.532      0.771    19.1563 0.0000e+00
      0.555      0.035     8.4965     91.897     34.892  30.818180     0.9462      7.232   319.0803 1.9438e+02     0.7989      0.541      0.785    19.1562 0.0000e+00
      0.568      0.036     8.4853     91.777     34.908  30.833077     0.9451      7.231   319.1836 1.9273e+02     0.8151      0.560      0.813    19.1561 0.0000e+00
      0.575      0.038     8.4758     91.674     34.924  30.846922     0.9526      7.229   319.3931 1.9076e+02     0.8504      0.566      0.821    19.1565 0.0000e+00
      0.579      0.042     8.4694     91.604     34.938  30.858572     0.9629      7.228   319.7205 1.9015e+02     0.8287      0.566      0.820    19.1572 0.0000e+00
      0.587      0.047     8.4683     91.591     34.925  30.846922     0.9679      7.228   319.9579 1.8755e+02     0.7964      0.575      0.834    19.1579 0.0000e+00
      0.600      0.054     8.4724     91.634     34.910  30.833076     0.9669      7.228   320.1984 1.8416e+02     0.7957      0.587      0.852    19.1583 0.0000e+00
      0.617      0.062     8.4791     91.705     34.894  30.818179     0.9786      7.226   320.3909 1.8317e+02     0.8210      0.603      0.875    19.1584 0.0000e+00
      0.636      0.069     8.4893     91.812     34.868  30.793818     0.9993      7.224   320.3929 1.8222e+02     0.8577      0.625      0.906    19.1579 0.0000e+00
      0.656      0.071     8.5034     91.960     34.868  30.792550     1.0068      7.224   320.3947 1.8083e+02     0.8732      0.644      0.934    19.1565 0.0000e+00
      0.676      0.071     8.5192     92.125     34.882  30.802847     1.0133      7.226   320.4997 1.8070e+02     0.8559      0.663      0.961    19.1558 0.0000e+00
      0.696      0.068     8.5352     92.292     34.872  30.791300     1.0233      7.228   320.6288 1.7936e+02     0.8314      0.685      0.993    19.1556 0.0000e+00
      0.713      0.064     8.5487     92.432     34.862  30.779955     1.0253      7.229   320.6657 1.7792e+02     0.8526      0.701      1.017    19.1541 0.0000e+00
      0.728      0.059     8.5578     92.525     34.878  30.792675     1.0196      7.229   320.6008 1.7853e+02     0.8676      0.714      1.036    19.1514 0.0000e+00
      0.741      0.055     8.5613     92.560     34.908  30.818078     1.0104      7.229   320.7056 1.7780e+02     0.8295      0.726      1.053    19.1476 0.0000e+00
      0.754      0.052     8.5571     92.513     34.926  30.833069     1.0148      7.229   320.9005 1.7450e+02     0.8193      0.738      1.072    19.1444 0.0000e+00
      0.768      0.050     8.5480     92.414     34.942  30.846924     1.0268      7.229   320.9775 1.7240e+02     0.8350      0.755      1.095    19.1418 0.0000e+00
      0.779      0.050     8.5386     92.314     34.955  30.858576     1.0266      7.229   321.0351 1.7150e+02     0.8363      0.764      1.109    19.1382 0.0000e+00
      0.790      0.050     8.5308     92.230     34.940  30.846935     1.0213      7.230   321.0805 1.6909e+02     0.8354      0.773      1.120    19.1360 0.0000e+00
      0.804      0.051     8.5265     92.185     34.924  30.833194     1.0181      7.231   321.0963 1.6750e+02     0.8239      0.789      1.144    19.1360 0.0000e+00
      0.817      0.055     8.5265     92.185     34.909  30.819453     1.0336      7.232   321.1403 1.6697e+02     0.8200      0.803      1.164    19.1363 0.0000e+00
      0.829      0.061     8.5288     92.208     34.896  30.807801     1.0720      7.231   321.3543 1.6512e+02     0.8189      0.810      1.175    19.1369 0.0000e+00
      0.844      0.069     8.5326     92.248     34.910  30.819328     1.0950      7.225   321.6187 1.6327e+02     0.8109      0.826      1.197    19.1379 0.0000e+00
      0.863      0.074     8.5402     92.328     34.925  30.831810     1.0913      7.216   321.6698 1.6168e+02     0.8145      0.846      1.226    19.1381 0.0000e+00
      0.883      0.076     8.5497     92.430     34.925  30.831695     1.0827      7.211   321.6275 1.5972e+02     0.8316      0.863      1.252    19.1376 0.0000e+00
      0.908      0.073     8.5550     92.486     34.910  30.817944     1.0832      7.211   321.6239 1.5803e+02     0.8653      0.888      1.288    19.1365 0.0000e+00
      0.933      0.066     8.5555     92.491     34.881  30.792560     1.0967      7.213   321.7127 1.5734e+02     0.8557      0.919      1.333    19.1357 0.0000e+00
      0.949      0.055     8.5535     92.470     34.866  30.778809     1.1002      7.217   321.8400 1.5805e+02     0.8069      0.934      1.355    19.1355 0.0000e+00
      0.959      0.043     8.5500     92.433     34.866  30.778695     1.0880      7.222   321.7865 1.5922e+02     0.7945      0.941      1.365    19.1349 0.0000e+00
      0.965      0.033     8.5464     92.394     34.880  30.791178     1.0868      7.227   321.7545 1.5993e+02     0.8276      0.949      1.376    19.1343 0.0000e+00
      0.968      0.026     8.5429     92.356     34.893  30.802724     1.0949      7.230   321.9695 1.6035e+02     0.8708      0.949      1.377    19.1341 0.0000e+00
      0.972      0.024     8.5384     92.307     34.880  30.791290     1.0940      7.231   322.2349 1.6115e+02     0.8594      0.952      1.382    19.1338 0.0000e+00
      0.978      0.025     8.5338     92.257     34.867  30.779943     1.0852      7.233   322.2951 1.6177e+02     0.8118      0.959      1.392    19.1340 0.0000e+00
      0.986      0.027     8.5310     92.227     34.881  30.792539     1.0809      7.235   322.1816 1.6076e+02     0.7838      0.966      1.401    19.1342 0.0000e+00
      0.994      0.030     8.5301     92.219     34.908  30.816579     1.0874      7.235   322.1532 1.5913e+02     0.7949      0.975      1.414    19.1343 0.0000e+00
      1.002      0.033     8.5304     92.221     34.908  30.816569     1.0995      7.235   322.2105 1.5860e+02     0.8243      0.983      1.425    19.1345 0.0000e+00
      1.011      0.036     8.5303     92.219     34.882  30.792425     1.0981      7.236   322.1860 1.5773e+02     0.8345      0.992      1.439    19.1347 0.0000e+00
      1.019      0.038     8.5307     92.220     34.867  30.778685     1.0801      7.237   322.2006 1.5654e+02     0.8568      1.000      1.450    19.1348 0.0000e+00
      1.028      0.041     8.5321     92.233     34.867  30.777456     1.0664      7.238   322.3881 1.5610e+02     0.8807      1.006      1.460    19.1351 0.0000e+00
      1.040      0.043     8.5322     92.233     34.867  30.777561     1.0693      7.238   322.5601 1.5518e+02     0.8783      1.020      1.480    19.1349 0.0000e+00
      1.053      0.045     8.5306     92.215     34.870  30.779954     1.0789      7.237   322.6456 1.5461e+02     0.8585      1.034      1.498    19.1340 0.0000e+00
      1.065      0.048     8.5293     92.199     34.901  30.806396     1.0814      7.237   322.7331 1.5416e+02     0.8249      1.044      1.513    19.1322 0.0000e+00
      1.078      0.052     8.5299     92.203     34.944  30.843232     1.0812      7.237   322.9299 1.5291e+02     0.8083      1.058      1.534    19.1311 0.0000e+00
      1.089      0.057     8.5322     92.224     34.946  30.844282     1.0858      7.237   323.2174 1.5250e+02     0.8100      1.068      1.549    19.1312 0.0000e+00
      1.102      0.063     8.5361     92.264     34.919  30.819088     1.0909      7.234   323.3699 1.5196e+02     0.8142      1.079      1.564    19.1306 0.0000e+00
      1.119      0.068     8.5407     92.312     34.890  30.792646     1.0875      7.231   323.3973 1.5067e+02     0.8289      1.097      1.590    19.1299 0.0000e+00
      1.138      0.072     8.5447     92.350     34.876  30.778602     1.0815      7.230   323.4629 1.5027e+02     0.8348      1.115      1.617    19.1283 0.0000e+00
      1.160      0.073     8.5482     92.381     34.876  30.776293     1.0823      7.227   323.5605 1.4961e+02     0.8250      1.136      1.649    19.1252 0.0000e+00
      1.182      0.072     8.5497     92.393     34.865  30.764725     1.0878      7.224   323.6313 1.4831e+02     0.8328      1.162      1.685    19.1249 0.0000e+00
      1.201      0.069     8.5472     92.363     34.868  30.765755     1.1024      7.223   323.7173 1.4834e+02     0.8371      1.179      1.710    19.1249 0.0000e+00
      1.217      0.065     8.5441     92.325     34.895  30.788744     1.1215      7.221   323.8253 1.4829e+02     0.8158      1.194      1.731    19.1212 0.0000e+00
      1.232      0.062     8.5429     92.309     34.897  30.788649     1.1349      7.219   323.9047 1.4714e+02     0.8202      1.211      1.756    19.1177 0.0000e+00
      1.244      0.060     8.5414     92.286     34.872  30.764601     1.1443      7.218   323.9895 1.4648e+02     0.8296      1.219      1.769    19.1154 0.0000e+00
      1.258      0.059     8.5382     92.244     34.862  30.752013     1.1528      7.219   323.9891 1.4504e+02     0.8074      1.231      1.784    19.1132 0.0000e+00
      1.276      0.059     8.5312     92.163     34.877  30.763465     1.1554      7.220   323.8145 1.4277e+02     0.7955      1.254      1.818    19.1119 0.0000e+00
      1.294      0.059     8.5193     92.032     34.892  30.776042     1.1484      7.221   323.7711 1.4189e+02     0.8076      1.271      1.843    19.1097 0.0000e+00
      1.308      0.061     8.5070     91.897     34.894  30.777072     1.1507      7.222   323.8941 1.4109e+02     0.8316      1.283      1.859    19.1054 0.0000e+00
      1.322      0.064     8.4992     91.809     34.894  30.775906     1.1642      7.221   323.9251 1.3965e+02     0.8415      1.297      1.881    19.1015 0.0000e+00
      1.335      0.067     8.4972     91.779     34.881  30.761945     1.1650      7.219   323.9743 1.3903e+02     0.8365      1.308      1.897    19.0989 0.0000e+00
      1.350      0.071     8.5003     91.793     34.859  30.735285     1.1609      7.217   324.0587 1.3823e+02     0.8317      1.321      1.916    19.0971 0.0000e+00
      1.372      0.073     8.5059     91.816     34.844  30.707575     1.1597      7.214   324.1717 1.3678e+02     0.8135      1.344      1.950    19.0967 0.0000e+00
      1.396      0.074     8.5100     91.815     34.833  30.680915     1.1516      7.209   324.3941 1.3583e+02     0.7993      1.371      1.988    19.0949 0.0000e+00
      1.418      0.071     8.5115     91.788     34.836  30.666946     1.1447      7.201   324.6827 1.3498e+02     0.8127      1.392      2.019    19.0918 0.0000e+00
      1.435      0.064     8.5109     91.741     34.852  30.665675     1.1404      7.194   325.0807 1.3414e+02     0.8237      1.407      2.041    19.0836 0.0000e+00
      1.450      0.055     8.5102     91.699     34.867  30.665529     1.1364      7.188   325.4198 1.3384e+02     0.8098      1.422      2.063    19.0619 0.0000e+00
      1.463      0.046     8.5109     91.683     34.877  30.665163     1.1427      7.183   325.4271 1.3363e+02     0.7975      1.438      2.085    19.0333 0.0000e+00
      1.471      0.039     8.5119     91.673     34.881  30.661236     1.1526      7.183   325.3410 1.3361e+02     0.7964      1.444      2.094    19.0110 0.0000e+00
      1.478      0.034     8.5122     91.652     34.842  30.618033     1.1544      7.186   325.4973 1.3371e+02     0.7967      1.448      2.101    18.9897 0.0000e+00
      1.486      0.032     8.5116     91.608     34.751  30.523841     1.1466      7.187   325.5956 1.3348e+02     0.8002      1.459      2.117    18.9670 0.0000e+00
      1.493      0.032     8.5125     91.542     34.727  30.474955     1.1406      7.189   325.4116 1.3370e+02     0.8090      1.465      2.124    18.9577 0.0000e+00
      1.499      0.033     8.5162     91.481     34.766  30.471466     1.1549      7.192   325.3381 1.3458e+02     0.8121      1.467      2.127    18.9484 0.0000e+00
      1.511      0.036     8.5207     91.440     34.671  30.354595     1.1633      7.194   325.3942 1.3465e+02     0.8074      1.482      2.149    18.9343 0.0000e+00
      1.522      0.040     8.5299     91.424     34.476  30.141432     1.1502      7.196   325.4018 1.3398e+02     0.8134      1.495      2.168    18.9222 0.0000e+00
      1.528      0.046     8.5528     91.467     34.388  29.989777     1.1433      7.198   325.5166 1.3440e+02     0.7919      1.497      2.172    18.8814 0.0000e+00
      1.538      0.052     8.5881     91.588     34.341  29.854471     1.1456      7.198   325.6626 1.3462e+02     0.7622      1.506      2.184    18.8100 0.0000e+00
      1.553      0.058     8.6301     91.759     34.220  29.648414     1.1503      7.199   325.6189 1.3307e+02     0.7897      1.524      2.210    18.7712 0.0000e+00
      1.570      0.063     8.6790     91.949     34.223  29.530370     1.1534      7.202   325.4186 1.3204e+02     0.8195      1.539      2.233    18.7350 0.0000e+00
      1.588      0.068     8.7271     92.125     34.336  29.506635     1.1474      7.204   325.3054 1.3223e+02     0.8168      1.554      2.254    18.6091 0.0000e+00
      1.609      0.070     8.7711     92.318     34.280  29.361273     1.1409      7.205   325.3685 1.3182e+02     0.8180      1.577      2.288    18.4561 0.0000e+00
      1.629      0.070     8.8313     92.651     34.182  29.169769     1.1486      7.207   325.4935 1.3101e+02     0.8340      1.600      2.321    18.3338 0.0000e+00
      1.646      0.069     8.9196     93.209     34.249  29.096135     1.1577      7.210   325.6124 1.3113e+02     0.8274      1.613      2.340    18.1445 0.0000e+00
      1.662      0.068     9.0166     93.913     34.314  29.042334     1.1601      7.213   325.6877 1.3174e+02     0.7986      1.628      2.362    17.9345 0.0000e+00
      1.678      0.067     9.1109     94.658     34.243  28.900134     1.1773      7.213   325.7156 1.3129e+02     0.7908      1.646      2.387    17.8306 0.0000e+00
      1.694      0.067     9.2125     95.430     34.209  28.773767     1.2090      7.214   325.7780 1.3075e+02     0.7947      1.660      2.408    17.6917 0.0000e+00
      1.712      0.067     9.3183     96.191     34.282  28.720862     1.2304      7.215   326.0117 1.3125e+02     0.7841      1.678      2.434    17.4534 0.0000e+00
      1.731      0.067     9.4108     96.852     34.306  28.641322     1.2344      7.217   326.2186 1.3120e+02     0.7846      1.698      2.463    17.2899 0.0000e+00
      1.747      0.067     9.4884     97.387     34.255  28.510448     1.2297      7.220   326.2140 1.3068e+02     0.8019      1.713      2.485    17.2128 0.0000e+00
      1.763      0.066     9.5577     97.804     34.250  28.408383     1.2561      7.224   326.3000 1.3087e+02     0.8103      1.728      2.507    17.0676 0.0000e+00
      1.781      0.064     9.6134     98.089     34.305  28.359662     1.3241      7.226   326.4850 1.3050e+02     0.8245      1.747      2.535    16.8682 0.0000e+00
      1.798      0.063     9.6501     98.253     34.320  28.302253     1.3622      7.227   326.5578 1.3016e+02     0.8217      1.765      2.559    16.7313 0.0000e+00
      1.813      0.063     9.6736     98.320     34.291  28.222175     1.3591      7.228   326.5778 1.3085e+02     0.8071      1.778      2.578    16.6237 0.0000e+00
      1.828      0.063     9.6920     98.323     34.281  28.153371     1.3970      7.231   326.6407 1.3090e+02     0.8305      1.792      2.599    16.4683 0.0000e+00
      1.844      0.062     9.7065     98.264     34.305  28.105281     1.4796      7.232   326.7158 1.3073e+02     0.8608      1.808      2.622    16.3099 0.0000e+00
      1.860      0.060     9.7143     98.134     34.365  28.085137     1.5314      7.233   326.7969 1.3128e+02     0.8679      1.824      2.646    16.2234 0.0000e+00
      1.876      0.058     9.7107     97.924     34.453  28.100229     1.5360      7.233   326.9342 1.3178e+02     0.8554      1.840      2.669    16.1508 0.0000e+00
      1.892      0.055     9.6993     97.679     34.502  28.097184     1.4990      7.233   326.9986 1.3191e+02     0.8314      1.858      2.694    16.0614 0.0000e+00
      1.906      0.051     9.6903     97.479     34.487  28.048275     1.4422      7.233   326.9729 1.3246e+02     0.8212      1.871      2.714    15.9631 0.0000e+00
      1.918      0.048     9.6813     97.300     34.485  28.016827     1.4093      7.233   326.9681 1.3303e+02     0.8247      1.880      2.726    15.8490 0.0000e+00
      1.928      0.044     9.6666     97.091     34.532  28.034410     1.4043      7.233   327.0275 1.3282e+02     0.8426      1.891      2.743    15.7675 0.0000e+00
      1.938      0.042     9.6452     96.857     34.584  28.070345     1.4279      7.232   327.1736 1.3297e+02     0.8550      1.901      2.757    15.7120 0.0000e+00
      1.949      0.042     9.6215     96.654     34.569  28.070308     1.4646      7.232   327.3582 1.3292e+02     0.8520      1.910      2.770    15.6565 0.0000e+00
      1.960      0.043     9.6078     96.558     34.508  28.033978     1.4803      7.232   327.4522 1.3192e+02     0.8682      1.922      2.789    15.6141 0.0000e+00
      1.971      0.043     9.6107     96.593     34.478  28.012098     1.4806      7.231   327.3647 1.3150e+02     0.8675      1.933      2.803    15.5830 0.0000e+00
      1.982      0.044     9.6229     96.697     34.466  27.996265     1.4865      7.230   327.2458 1.3123e+02     0.8426      1.943      2.819    15.5648 0.0000e+00
      1.994      0.044     9.6389     96.804     34.455  27.969533     1.5150      7.229   327.2190 1.3057e+02     0.8423      1.955      2.837    15.5960 0.0000e+00
      2.005      0.044     9.6536     96.874     34.455  27.942862     1.5680      7.229   327.2991 1.3051e+02     0.8646      1.965      2.852    15.6273 0.0000e+00
      2.016      0.045     9.6604     96.859     34.470  27.927748     1.6040      7.228   327.5269 1.3048e+02     0.8674      1.977      2.868    15.6193 0.0000e+00
      2.027      0.047     9.6617     96.784     34.489  27.913754     1.6093      7.226   327.8214 1.3002e+02     0.8457      1.989      2.885    15.6185 0.0000e+00
      2.038      0.050     9.6591     96.678     34.505  27.900629     1.6225      7.221   328.1066 1.3007e+02     0.8467      1.997      2.897    15.5892 0.0000e+00
      2.051      0.052     9.6536     96.562     34.525  27.896011     1.6536      7.215   328.3079 1.3013e+02     0.8496      2.010      2.915    15.5439 0.0000e+00
      2.066      0.054     9.6477     96.458     34.496  27.857903     1.6730      7.209   328.4489 1.2998e+02     0.8493      2.026      2.939    15.5107 0.0000e+00
      2.081      0.054     9.6432     96.385     34.462  27.820844     1.6726      7.205   328.6069 1.3009e+02     0.8737      2.041      2.960    15.4614 0.0000e+00
      2.096      0.053     9.6431     96.362     34.481  27.828916     1.6865      7.201   328.6697 1.2938e+02     0.8704      2.056      2.982    15.4216 0.0000e+00
      2.111      0.050     9.6489     96.394     34.492  27.828498     1.7211      7.198   328.6914 1.2862e+02     0.8394      2.072      3.004    15.3943 0.0000e+00
      2.122      0.047     9.6612     96.487     34.488  27.815780     1.7417      7.194   328.7835 1.2845e+02     0.8345      2.081      3.017    15.3709 0.0000e+00
      2.132      0.044     9.6728     96.576     34.483  27.802123     1.7424      7.193   328.9229 1.2737e+02     0.8418      2.090      3.031    15.3606 0.0000e+00
      2.143      0.042     9.6783     96.605     34.478  27.790368     1.7397      7.192   329.0004 1.2611e+02     0.8360      2.101      3.047    15.3521 0.0000e+00
      2.153      0.040     9.6777     96.574     34.501  27.800637     1.7367      7.192   329.0321 1.2514e+02     0.8260      2.112      3.063    15.3376 0.0000e+00
      2.164      0.040     9.6693     96.473     34.507  27.799273     1.7337      7.192   329.1343 1.2411e+02     0.8120      2.122      3.077    15.3227 0.0000e+00
      2.174      0.041     9.6568     96.336     34.480  27.773874     1.7401      7.193   329.2028 1.2349e+02     0.8190      2.133      3.092    15.3093 0.0000e+00
      2.184      0.042     9.6451     96.203     34.454  27.747530     1.7496      7.194   329.2592 1.2276e+02     0.8495      2.143      3.108    15.2985 0.0000e+00
      2.194      0.043     9.6341     96.072     34.447  27.734735     1.7466      7.196   329.2993 1.2203e+02     0.8452      2.150      3.118    15.2847 0.0000e+00
      2.205      0.043     9.6252     95.958     34.472  27.746157     1.7408      7.197   329.3440 1.2128e+02     0.8286      2.161      3.134    15.2747 0.0000e+00
      2.217      0.043     9.6193     95.872     34.498  27.758627     1.7347      7.196   329.4546 1.2063e+02     0.8314      2.174      3.155    15.2733 0.0000e+00
      2.229      0.042     9.6160     95.816     34.508  27.758501     1.7278      7.196   329.5183 1.2063e+02     0.8182      2.186      3.171    15.2631 0.0000e+00
      2.240      0.041     9.6190     95.815     34.503  27.744623     1.7128      7.196   329.5120 1.2040e+02     0.7912      2.197      3.187    15.2535 0.0000e+00
      2.249      0.040     9.6288     95.863     34.491  27.717820     1.6815      7.196   329.4640 1.2040e+02     0.7798      2.206      3.200    15.2426 0.0000e+00
      2.259      0.040     9.6394     95.918     34.475  27.688398     1.6712      7.197   329.4551 1.2066e+02     0.8018      2.215      3.212    15.2256 0.0000e+00
      2.269      0.040     9.6475     95.949     34.440  27.642856     1.6805      7.197   329.4901 1.2046e+02     0.8440      2.226      3.227    15.2178 0.0000e+00
      2.279      0.041     9.6540     95.949     34.427  27.611651     1.6749      7.197   329.5430 1.2091e+02     0.8632      2.236      3.241    15.2087 0.0000e+00
      2.289      0.042     9.6568     95.912     34.474  27.628560     1.6667      7.197   329.5788 1.2137e+02     0.8511      2.244      3.254    15.1752 0.0000e+00
      2.300      0.043     9.6570     95.844     34.539  27.656786     1.6643      7.198   329.5790 1.2105e+02     0.8494      2.255      3.270    15.1516 0.0000e+00
      2.312      0.044     9.6586     95.787     34.543  27.635416     1.6640      7.198   329.6320 1.2112e+02     0.8733      2.267      3.288    15.1344 0.0000e+00
      2.323      0.044     9.6561     95.700     34.476  27.560634     1.6819      7.198   329.7028 1.2069e+02     0.8661      2.277      3.303    15.0950 0.0000e+00
      2.334      0.044     9.6431     95.509     34.444  27.514565     1.7149      7.197   329.7463 1.1910e+02     0.8232      2.289      3.320    15.0692 0.0000e+00
      2.346      0.043     9.6218     95.234     34.481  27.522865     1.7321      7.196   329.8138 1.1781e+02     0.8120      2.301      3.338    15.0350 0.0000e+00
      2.358      0.041     9.5987     94.949     34.519  27.533961     1.7342      7.197   329.9166 1.1663e+02     0.8221      2.311      3.353    14.9931 0.0000e+00
      2.368      0.038     9.5792     94.707     34.524  27.521706     1.7315      7.197   330.0430 1.1495e+02     0.8230      2.322      3.369    14.9691 0.0000e+00
      2.377      0.036     9.5642     94.510     34.519  27.501666     1.7273      7.196   330.1380 1.1351e+02     0.8227      2.332      3.383    14.9379 0.0000e+00
      2.386      0.034     9.5514     94.333     34.517  27.482135     1.7289      7.195   330.1183 1.1230e+02     0.8192      2.340      3.394    14.9032 0.0000e+00
      2.393      0.032     9.5410     94.180     34.531  27.476040     1.7238      7.195   330.0629 1.1081e+02     0.8104      2.347      3.404    14.8773 0.0000e+00
      2.400      0.031     9.5373     94.104     34.567  27.491449     1.6925      7.195   330.1568 1.0965e+02     0.8081      2.354      3.414    14.8557 0.0000e+00
      2.408      0.031     9.5368     94.075     34.560  27.477933     1.6440      7.195   330.2209 1.0889e+02     0.8222      2.361      3.425    14.8320 0.0000e+00
      2.417      0.031     9.5335     94.023     34.520  27.439607     1.6163      7.195   330.1493 1.0790e+02     0.8587      2.372      3.440    14.8056 0.0000e+00
      2.425      0.031     9.5275     93.931     34.496  27.409024     1.6145      7.195   330.2377 1.0734e+02     0.8833      2.378      3.449    14.7804 0.0000e+00
      2.432      0.032     9.5195     93.795     34.461  27.362132     1.6140      7.194   330.4300 1.0699e+02     0.8763      2.383      3.457    14.7579 0.0000e+00
      2.441      0.034     9.5135     93.658     34.437  27.317101     1.6086      7.193   330.5808 1.0577e+02     0.8650      2.394      3.474    14.7489 0.0000e+00
      2.450      0.035     9.5085     93.538     34.457  27.309008     1.6050      7.193   330.6842 1.0474e+02     0.8383      2.402      3.484    14.7453 0.0000e+00
      2.459      0.037     9.4974     93.408     34.490  27.327749     1.5976      7.193   330.8204 1.0440e+02     0.8278      2.409      3.494    14.7273 0.0000e+00
      2.469      0.038     9.4836     93.296     34.512  27.353196     1.5932      7.192   331.1093 1.0365e+02     0.8303      2.420      3.510    14.7025 0.0000e+00
      2.479      0.039     9.4770     93.252     34.515  27.362713     1.5978      7.191   331.4235 1.0326e+02     0.8070      2.432      3.527    14.6588 0.0000e+00
      2.489      0.041     9.4815     93.273     34.466  27.315832     1.5980      7.189   331.6943 1.0331e+02     0.7902      2.442      3.542    14.6121 0.0000e+00
      2.498      0.044     9.4950     93.313     34.398  27.230835     1.5959      7.185   331.8888 1.0295e+02     0.7800      2.450      3.554    14.6044 0.0000e+00
      2.508      0.049     9.5105     93.300     34.379  27.160453     1.6003      7.181   332.0535 1.0289e+02     0.8050      2.459      3.567    14.6260 0.0000e+00
      2.519      0.053     9.5200     93.182     34.394  27.099761     1.6232      7.176   332.2238 1.0331e+02     0.9098      2.469      3.581    14.6446 0.0000e+00
      2.534      0.056     9.5210     92.991     34.441  27.068399     1.6524      7.171   332.2270 1.0327e+02     1.0097      2.483      3.602    14.6351 0.0000e+00
      2.553      0.057     9.5140     92.767     34.546  27.098653     1.6599      7.168   332.1771 1.0297e+02     1.0364      2.505      3.633    14.5931 0.0000e+00
      2.570      0.056     9.5001     92.521     34.657  27.148009     1.6578      7.166   332.1371 1.0301e+02     1.0496      2.522      3.658    14.5078 0.0000e+00
      2.585      0.051     9.4833     92.283     34.701  27.157146     1.6730      7.162   332.0020 1.0256e+02     1.0171      2.536      3.679    14.3892 0.0000e+00
      2.597      0.045     9.4642     92.060     34.703  27.145600     1.7059      7.160   332.0057 1.0221e+02     0.9176      2.548      3.695    14.2848 0.0000e+00
      2.607      0.039     9.4415     91.841     34.689  27.135390     1.7243      7.159   332.1825 1.0232e+02     0.8532      2.556      3.708    14.2103 0.0000e+00
      2.615      0.034     9.4189     91.638     34.633  27.097192     1.7299      7.159   332.3330 1.0160e+02     0.8490      2.566      3.722    14.1576 0.0000e+00
      2.621      0.033     9.3999     91.458     34.590  27.064747     1.7468      7.160   332.4485 1.0123e+02     0.9274      2.570      3.728    14.1202 0.0000e+00
      2.628      0.034     9.3822     91.272     34.590  27.060582     1.7538      7.160   332.4601 1.0120e+02     1.0379      2.575      3.736    14.1005 0.0000e+00
      2.636      0.035     9.3638     91.065     34.585  27.046826     1.7405      7.159   332.4737 9.9929e+01     1.0569      2.586      3.750    14.1058 0.0000e+00
      2.646      0.038     9.3478     90.840     34.589  27.025403     1.7335      7.158   332.7850 9.9179e+01     1.0341      2.594      3.761    14.1224 0.0000e+00
      2.657      0.043     9.3347     90.604     34.594  26.992030     1.7982      7.156   333.1264 9.9053e+01     1.0679      2.605      3.778    14.1228 0.0000e+00
      2.669      0.048     9.3264     90.423     34.599  26.960748     1.9253      7.153   333.3324 9.8024e+01     1.1307      2.618      3.797    14.1130 0.0000e+00
      2.680      0.054     9.3210     90.302     34.635  26.964617     1.9919      7.148   333.7273 9.7650e+01     1.1219      2.628      3.811    14.1075 0.0000e+00
      2.693      0.061     9.3120     90.163     34.671  26.975290     1.9884      7.141   334.1149 9.7561e+01     1.0531      2.640      3.829    14.0726 0.0000e+00
      2.710      0.067     9.3040     90.031     34.680  26.962781     2.0025      7.135   334.2329 9.6629e+01     1.0312      2.657      3.853    14.0060 0.0000e+00
      2.729      0.070     9.3051     89.973     34.683  26.940348     2.0700      7.130   334.2933 9.6279e+01     1.0393      2.674      3.879    13.9508 0.0000e+00
      2.751      0.071     9.3110     89.957     34.739  26.958013     2.1525      7.128   334.4148 9.6085e+01     1.0293      2.697      3.910    13.9200 0.0000e+00
      2.772      0.069     9.3153     89.943     34.799  26.985837     2.1914      7.125   334.4983 9.5551e+01     1.0319      2.720      3.945    13.8998 0.0000e+00
      2.790      0.065     9.3193     89.947     34.780  26.959267     2.1907      7.123   334.4424 9.5551e+01     1.0402      2.739      3.973    13.8741 0.0000e+00
      2.805      0.059     9.3250     89.975     34.786  26.954224     2.1715      7.122   334.3404 9.5774e+01     1.0385      2.751      3.990    13.8368 0.0000e+00
      2.818      0.051     9.3338     90.041     34.839  26.988348     2.1433      7.122   334.3841 9.5847e+01     1.0415      2.763      4.008    13.7940 0.0000e+00
      2.830      0.045     9.3488     90.180     34.844  26.990864     2.1262      7.120   334.5410 9.5771e+01     1.0463      2.776      4.025    13.7660 0.0000e+00
      2.840      0.041     9.3717     90.398     34.837  26.984648     2.1203      7.118   334.6886 9.5606e+01     1.0663      2.784      4.039    13.7539 0.0000e+00
      2.850      0.039     9.3982     90.646     34.831  26.976689     2.1002      7.117   334.8776 9.5182e+01     1.0993      2.796      4.055    13.7386 0.0000e+00
      2.858      0.038     9.4215     90.858     34.812  26.958123     2.0672      7.116   335.1065 9.4584e+01     1.1108      2.803      4.066    13.7271 0.0000e+00
      2.867      0.037     9.4390     91.001     34.814  26.950656     2.0509      7.115   335.2188 9.4381e+01     1.0828      2.809      4.076    13.7269 0.0000e+00
      2.877      0.037     9.4510     91.066     34.836  26.949889     2.0505      7.114   335.2025 9.4141e+01     1.0663      2.822      4.093    13.7277 0.0000e+00
      2.887      0.037     9.4535     91.033     34.860  26.948833     2.0530      7.112   335.2537 9.3690e+01     1.0933      2.832      4.108    13.7217 0.0000e+00
      2.896      0.037     9.4472     90.922     34.869  26.937857     2.0629      7.111   335.4072 9.3937e+01     1.1047      2.840      4.120    13.7176 0.0000e+00
      2.906      0.038     9.4357     90.757     34.901  26.944155     2.0699      7.109   335.5099 9.3987e+01     1.0822      2.850      4.133    13.7113 0.0000e+00
      2.916      0.040     9.4193     90.538     34.951  26.961467     2.0633      7.106   335.6357 9.3461e+01     1.0657      2.859      4.147    13.6786 0.0000e+00
      2.924      0.043     9.4015     90.293     34.978  26.956652     2.0566      7.103   335.8095 9.4217e+01     1.0891      2.868      4.159    13.6460 0.0000e+00
      2.933      0.047     9.3820     90.017     35.009  26.949415     2.0446      7.100   335.9756 9.4812e+01     1.1200      2.875      4.170    13.6276 0.0000e+00
      2.946      0.051     9.3585     89.707     35.032  26.937418     2.0183      7.098   336.0953 9.4509e+01     1.1035      2.888      4.189    13.5964 0.0000e+00
      2.963      0.055     9.3349     89.396     35.073  26.938557     1.9967      7.096   336.0528 9.5417e+01     1.0728      2.906      4.214    13.5688 0.0000e+00
      2.979      0.058     9.3107     89.063     35.152  26.963155     1.9857      7.095   336.0643 9.6536e+01     1.0840      2.922      4.238    13.5359 0.0000e+00
      2.993      0.060     9.2797     88.659     35.226  26.980802     1.9861      7.093   336.2342 9.7207e+01     1.1479      2.935      4.256    13.4820 0.0000e+00
      3.008      0.062     9.2434     88.190     35.257  26.961392     1.9923      7.088   336.3863 9.8820e+01     1.2351      2.948      4.277    13.4424 0.0000e+00
      3.024      0.062     9.2019     87.656     35.267  26.918910     1.9958      7.083   336.5259 1.0040e+02     1.2831      2.966      4.301    13.4068 0.0000e+00
      3.040      0.063     9.1506     87.052     35.312  26.911580     2.0009      7.080   336.5459 1.0094e+02     1.2707      2.980      4.322    13.3476 0.0000e+00
      3.057      0.063     9.0931     86.436     35.377  26.936205     2.0180      7.078   336.4566 1.0200e+02     1.2683      2.998      4.349    13.2958 0.0000e+00
      3.073      0.061     9.0328     85.820     35.433  26.962636     2.0455      7.076   336.4783 1.0361e+02     1.2850      3.015      4.372    13.2393 0.0000e+00
      3.089      0.056     8.9707     85.195     35.469  26.977152     2.0583      7.074   336.5505 1.0481e+02     1.2592      3.029      4.393    13.1561 0.0000e+00
      3.104      0.051     8.9111     84.599     35.494  26.984708     2.0534      7.072   336.5555 1.0621e+02     1.2309      3.046      4.418    13.0902 0.0000e+00
      3.117      0.047     8.8574     84.048     35.522  26.990493     2.0500      7.070   336.5385 1.0798e+02     1.2484      3.060      4.437    13.0643 0.0000e+00
      3.127      0.044     8.8101     83.561     35.532  26.983578     2.0636      7.069   336.5175 1.0880e+02     1.2874      3.065      4.447    13.0431 0.0000e+00
      3.135      0.044     8.7700     83.174     35.510  26.964574     2.0711      7.068   336.4726 1.1027e+02     1.3056      3.074      4.459    13.0225 0.0000e+00
      3.145      0.046     8.7390     82.888     35.488  26.951201     2.0567      7.066   336.4257 1.1390e+02     1.2851      3.084      4.472    13.0151 0.0000e+00
      3.155      0.050     8.7166     82.642     35.503  26.948895     2.0373      7.062   336.4668 1.1669e+02     1.2841      3.093      4.484    12.9884 0.0000e+00
      3.170      0.055     8.7046     82.407     35.549  26.936673     2.0111      7.058   336.7119 1.1868e+02     1.3246      3.108      4.508    12.9585 0.0000e+00
      3.186      0.059     8.7054     82.186     35.657  26.930367     1.9971      7.054   336.9799 1.2113e+02     1.3469      3.125      4.532    12.9592 0.0000e+00
      3.202      0.062     8.7115     81.938     35.822  26.936048     2.0061      7.049   337.1258 1.2183e+02     1.3404      3.140      4.554    12.9778 0.0000e+00
      3.220      0.064     8.7140     81.658     35.987  26.941741     2.0099      7.045   337.2718 1.2190e+02     1.3062      3.157      4.579    12.9683 0.0000e+00
      3.237      0.064     8.7109     81.377     36.111  26.935556     1.9877      7.040   337.3679 1.2413e+02     1.2694      3.175      4.605    12.9053 0.0000e+00
      3.252      0.062     8.6950     81.023     36.205  26.924653     1.9583      7.036   337.3416 1.2687e+02     1.2610      3.189      4.625    12.7798 0.0000e+00
      3.268      0.058     8.6565     80.514     36.301  26.936820     1.9400      7.032   337.2980 1.2777e+02     1.2356      3.204      4.646    12.5935 0.0000e+00
      3.285      0.052     8.5909     79.834     36.364  26.955605     1.9218      7.029   337.4429 1.2731e+02     1.2064      3.222      4.672    12.4154 0.0000e+00
      3.300      0.047     8.5026     79.007     36.374  26.961255     1.8575      7.026   337.8039 1.2721e+02     1.2131      3.239      4.697    12.2876 0.0000e+00
      3.310      0.044     8.4001     78.071     36.339  26.941646     1.7510      7.023   338.1351 1.2732e+02     1.2555      3.248      4.711    12.1717 0.0000e+00
      3.316      0.043     8.2921     77.076     36.290  26.909015     1.6919      7.018   338.3495 1.2587e+02     1.2916      3.251      4.716    12.0821 0.0000e+00
      3.323      0.043     8.1871     76.086     36.265  26.884196     1.6753      7.012   338.5890 1.2244e+02     1.2836      3.257      4.723    12.0469 0.0000e+00
      3.334      0.047     8.0941     75.156     36.318  26.895544     1.6508      7.007   338.7943 1.2092e+02     1.2814      3.268      4.740    12.0545 0.0000e+00
      3.348      0.052     8.0227     74.360     36.428  26.919199     1.6256      7.001   338.8524 1.2077e+02     1.2953      3.285      4.764    12.0697 0.0000e+00
      3.363      0.057     7.9710     73.719     36.519  26.916152     1.6101      6.995   339.0336 1.1824e+02     1.2983      3.298      4.782    12.0736 0.0000e+00
      3.379      0.060     7.9364     73.258     36.610  26.922131     1.6006      6.988   339.3509 1.1429e+02     1.2878      3.310      4.801    12.0754 0.0000e+00
      3.398      0.060     7.9214     73.004     36.687  26.927928     1.5659      6.983   339.5054 1.1064e+02     1.2595      3.336      4.837    12.0420 0.0000e+00
      3.413      0.059     7.9169     72.863     36.739  26.922688     1.5127      6.980   339.5245 1.0888e+02     1.2309      3.350      4.858    11.9542 0.0000e+00
      3.425      0.057     7.9129     72.742     36.789  26.922220     1.4905      6.978   339.4953 1.0701e+02     1.2469      3.356      4.868    11.8398 0.0000e+00
      3.440      0.054     7.9093     72.615     36.846  26.922234     1.4814      6.975   339.4964 1.0409e+02     1.2704      3.375      4.896    11.7622 0.0000e+00
      3.454      0.052     7.9007     72.442     36.905  26.922808     1.4392      6.970   339.5388 1.0232e+02     1.2399      3.389      4.915    11.6957 0.0000e+00
      3.466      0.051     7.8792     72.171     36.958  26.929119     1.3750      6.964   339.5773 1.0181e+02     1.2142      3.398      4.928    11.6297 0.0000e+00
      3.480      0.050     7.8467     71.813     37.003  26.935008     1.3398      6.958   339.6181 1.0080e+02     1.2352      3.414      4.952    11.5931 0.0000e+00
      3.493      0.050     7.8090     71.411     37.032  26.930488     1.3446      6.953   339.6880 9.8478e+01     1.2799      3.425      4.968    11.5319 0.0000e+00
      3.504      0.051     7.7667     70.969     37.077  26.937934     1.3502      6.948   339.8203 9.5967e+01     1.2959      3.435      4.982    11.4652 0.0000e+00
      3.517      0.053     7.7238     70.525     37.142  26.961509     1.3614      6.945   339.9268 9.3708e+01     1.2765      3.449      5.002    11.4279 0.0000e+00
      3.530      0.054     7.6847     70.134     37.164  26.961521     1.3974      6.942   340.0296 9.2190e+01     1.2599      3.462      5.020    11.3922 0.0000e+00
      3.544      0.056     7.6525     69.821     37.144  26.938065     1.4182      6.937   340.1169 9.1131e+01     1.2473      3.476      5.041    11.3579 0.0000e+00
      3.559      0.058     7.6311     69.606     37.148  26.931882     1.4192      6.932   340.1217 8.9538e+01     1.2462      3.491      5.063    11.3259 0.0000e+00
      3.574      0.060     7.6179     69.457     37.192  26.950251     1.4372      6.927   340.2589 8.7854e+01     1.2459      3.505      5.084    11.2874 0.0000e+00
      3.589      0.062     7.6051     69.302     37.243  26.969653     1.4615      6.923   340.5712 8.6339e+01     1.2445      3.520      5.106    11.2657 0.0000e+00
      3.605      0.064     7.5925     69.137     37.284  26.975956     1.4739      6.919   340.8865 8.4544e+01     1.2595      3.536      5.128    11.2616 0.0000e+00
      3.623      0.065     7.5878     69.037     37.303  26.962938     1.4772      6.916   341.0606 8.3852e+01     1.2745      3.552      5.151    11.2488 0.0000e+00
      3.641      0.067     7.5850     68.953     37.308  26.939218     1.4368      6.912   341.1281 8.3929e+01     1.2119      3.570      5.178    11.2298 0.0000e+00
      3.658      0.069     7.5772     68.806     37.363  26.943120     1.3536      6.908   341.2711 8.3358e+01     1.0829      3.588      5.204    11.2087 0.0000e+00
      3.675      0.071     7.5679     68.613     37.439  26.946580     1.2975      6.904   341.4989 8.3166e+01     1.0272      3.603      5.226    11.1750 0.0000e+00
      3.692      0.073     7.5537     68.374     37.471  26.917505     1.2828      6.901   341.7317 8.2568e+01     1.0570      3.620      5.250    11.1376 0.0000e+00
      3.711      0.073     7.5329     68.116     37.505  26.908997     1.2683      6.898   341.8484 8.1475e+01     1.0766      3.639      5.278    11.1040 0.0000e+00
      3.732      0.072     7.5108     67.866     37.535  26.907171     1.2318      6.895   341.8776 8.0638e+01     1.0808      3.659      5.308    11.0651 0.0000e+00
      3.752      0.070     7.4851     67.583     37.553  26.895410     1.2089      6.892   341.9132 7.9778e+01     1.1085      3.680      5.338    10.9885 0.0000e+00
      3.771      0.067     7.4521     67.252     37.573  26.893755     1.2116      6.888   342.0202 7.9167e+01     1.1062      3.699      5.365    10.8983 0.0000e+00
      3.787      0.063     7.4180     66.915     37.583  26.887154     1.2099      6.884   342.1401 7.8462e+01     1.0230      3.715      5.388    10.8685 0.0000e+00
      3.800      0.060     7.3864     66.579     37.607  26.879075     1.2064      6.880   342.1584 7.7257e+01     0.8951      3.727      5.406    10.8457 0.0000e+00
      3.813      0.058     7.3551     66.224     37.629  26.859548     1.2060      6.877   342.0686 7.6249e+01     0.8113      3.739      5.422    10.7991 0.0000e+00
      3.828      0.058     7.3213     65.839     37.660  26.841502     1.2060      6.875   341.9141 7.5561e+01     0.8036      3.754      5.444    10.7853 0.0000e+00
      3.844      0.058     7.2843     65.419     37.734  26.851329     1.2060      6.873   341.8395 7.4617e+01     0.8323      3.770      5.468    10.7754 0.0000e+00
      3.859      0.058     7.2458     64.995     37.789  26.851333     1.1868      6.871   341.8551 7.3783e+01     0.9145      3.784      5.489    10.7385 0.0000e+00
      3.875      0.058     7.2078     64.601     37.812  26.841504     1.1577      6.869   341.9309 7.2856e+01     1.0340      3.799      5.511    10.6889 0.0000e+00
      3.890      0.057     7.1719     64.246     37.861  26.859450     1.1481      6.868   341.9809 7.2307e+01     1.0870      3.816      5.534    10.6362 0.0000e+00
      3.904      0.055     7.1397     63.926     37.910  26.877819     1.1441      6.865   341.9434 7.2114e+01     1.0679      3.830      5.553    10.5765 0.0000e+00
      3.918      0.053     7.1124     63.640     37.932  26.873091     1.1282      6.863   341.9949 7.1556e+01     1.0462      3.844      5.575    10.5181 0.0000e+00
      3.929      0.053     7.0912     63.395     37.962  26.865756     1.1028      6.861   342.0862 7.1523e+01     1.0390      3.854      5.590    10.4859 0.0000e+00
      3.941      0.054     7.0772     63.183     38.007  26.852597     1.0858      6.859   342.1872 7.1054e+01     1.0726      3.864      5.604    10.4686 0.0000e+00
      3.956      0.055     7.0697     62.989     38.082  26.840946     1.0869      6.858   342.4413 6.9771e+01     1.1166      3.880      5.628    10.4497 0.0000e+00
      3.971      0.056     7.0604     62.781     38.189  26.851806     1.0710      6.857   342.5781 6.9403e+01     1.1122      3.893      5.646    10.4231 0.0000e+00
      3.987      0.058     7.0441     62.540     38.268  26.856838     1.0312      6.855   342.4648 6.8749e+01     1.0807      3.909      5.669    10.3881 0.0000e+00
      4.003      0.059     7.0278     62.295     38.316  26.838247     1.0098      6.853   342.5333 6.7558e+01     1.0415      3.929      5.697    10.3390 0.0000e+00
      4.016      0.060     7.0124     62.045     38.371  26.817461     1.0150      6.850   342.8910 6.7856e+01     1.0349      3.939      5.712    10.2380 0.0000e+00
      4.031      0.063     6.9964     61.768     38.444  26.795939     1.0571      6.846   343.1758 6.8033e+01     1.0621      3.952      5.732    10.1382 0.0000e+00
      4.046      0.064     6.9821     61.450     38.551  26.768443     1.1233      6.843   343.3086 6.7048e+01     1.0648      3.970      5.756    10.0944 0.0000e+00
      4.062      0.065     6.9638     61.082     38.666  26.738890     1.1539      6.839   343.4652 6.6832e+01     1.0673      3.982      5.775    10.0236 0.0000e+00
      4.081      0.067     6.9414     60.731     38.719  26.692485     1.1509      6.834   343.7785 6.6632e+01     1.0931      4.001      5.804     9.9413 0.0000e+00
      4.102      0.071     6.9209     60.441     38.746  26.651758     1.1339      6.829   344.1708 6.5915e+01     1.0404      4.026      5.839     9.8716 0.0000e+00
      4.118      0.075     6.9044     60.204     38.783  26.627384     1.1047      6.824   344.4230 6.5758e+01     0.8885      4.039      5.858     9.7234 0.0000e+00
      4.133      0.078     6.8958     60.040     38.795  26.588215     1.0819      6.818   344.5918 6.5341e+01     0.8126      4.049      5.872     9.5530 0.0000e+00
      4.153      0.078     6.8979     59.957     38.833  26.559102     1.0704      6.811   344.8338 6.4618e+01     0.8243      4.073      5.906     9.4589 0.0000e+00
      4.178      0.077     6.9074     59.932     38.874  26.529302     1.0659      6.806   345.1119 6.4584e+01     0.8164      4.098      5.944     9.3898 0.0000e+00
      4.202      0.074     6.9190     59.948     38.872  26.481839     1.0555      6.802   345.2014 6.4684e+01     0.8088      4.121      5.978     9.3219 0.0000e+00
      4.223      0.068     6.9355     60.032     38.936  26.493156     1.0370      6.798   345.1413 6.4247e+01     0.7930      4.143      6.009     9.2715 0.0000e+00
      4.238      0.059     6.9628     60.231     39.033  26.539116     1.0257      6.797   345.2460 6.4049e+01     0.7779      4.156      6.028     9.1977 0.0000e+00
      4.251      0.051     7.0020     60.560     39.027  26.529537     1.0200      6.797   345.4347 6.3954e+01     0.8096      4.168      6.046     9.1103 0.0000e+00
      4.262      0.046     7.0545     61.021     38.984  26.504329     1.0141      6.797   345.5304 6.3395e+01     0.8401      4.181      6.065     9.0545 0.0000e+00
      4.269      0.044     7.1210     61.593     38.962  26.488316     1.0094      6.795   345.5430 6.3181e+01     0.8421      4.187      6.072     9.0154 0.0000e+00
      4.277      0.047     7.1990     62.248     38.940  26.462919     1.0093      6.793   345.5009 6.3481e+01     0.8337      4.192      6.080     8.9854 0.0000e+00
      4.289      0.053     7.2782     62.902     38.947  26.451225     1.0213      6.791   345.5375 6.3510e+01     0.8304      4.205      6.099     8.9820 0.0000e+00
      4.304      0.062     7.3471     63.465     39.005  26.473906     1.0172      6.789   345.8137 6.2823e+01     0.8626      4.221      6.122     8.9943 0.0000e+00
      4.320      0.071     7.4037     63.925     39.041  26.483142     0.9787      6.786   346.1732 6.2362e+01     0.8880      4.236      6.144     8.9958 0.0000e+00
      4.340      0.076     7.4461     64.266     38.989  26.435894     0.9597      6.782   346.3561 6.2166e+01     0.8628      4.255      6.171     8.9782 0.0000e+00
      4.362      0.077     7.4729     64.479     38.965  26.410591     0.9617      6.779   346.3901 6.1093e+01     0.8319      4.277      6.204     8.9561 0.0000e+00
      4.387      0.075     7.4893     64.609     39.005  26.431181     0.8932      6.777   346.3265 6.0254e+01     0.8814      4.302      6.241     8.9341 0.0000e+00
      4.409      0.071     7.5006     64.696     39.012  26.430859     0.7658      6.776   346.2754 6.0294e+01     1.0032      4.328      6.276     8.9139 0.0000e+00
      4.424      0.065     7.5120     64.786     38.982  26.406691     0.6980      6.774   346.3748 5.9700e+01     1.0532      4.339      6.294     8.8984 0.0000e+00
      4.436      0.058     7.5289     64.924     38.968  26.392949     0.6899      6.772   346.4959 5.8957e+01     1.0278      4.349      6.308     8.8866 0.0000e+00
      4.450      0.052     7.5484     65.084     38.972  26.391691     0.6675      6.770   346.5349 5.8833e+01     1.0325      4.365      6.330     8.8792 0.0000e+00
      4.462      0.048     7.5670     65.238     38.976  26.391473     0.6285      6.768   346.5029 5.8123e+01     1.0484      4.375      6.346     8.8735 0.0000e+00
      4.475      0.047     7.5867     65.403     38.979  26.390308     0.6055      6.767   346.5387 5.7549e+01     1.0369      4.387      6.364     8.8679 0.0000e+00
      4.486      0.047     7.6079     65.579     38.965  26.377608     0.6001      6.765   346.7951 5.7500e+01     1.0158      4.400      6.382     8.8627 0.0000e+00
      4.496      0.050     7.6326     65.785     38.951  26.364908     0.6001      6.763   347.1941 5.6782e+01     1.0075      4.408      6.392     8.8576 0.0000e+00
      4.507      0.058     7.6636     66.049     38.952  26.363734     0.6232      6.760   347.7496 5.5920e+01     0.9665      4.419      6.409     8.8536 0.0000e+00
      4.520      0.070     7.6988     66.349     38.953  26.363410     0.6688      6.755   348.2628 5.5245e+01     0.8858      4.433      6.430     8.8501 0.0000e+00
      4.536      0.082     7.7361     66.664     38.954  26.360997     0.6918      6.750   348.4943 5.4339e+01     0.8257      4.446      6.447     8.8460 0.0000e+00
      4.559      0.092     7.7779     67.012     38.923  26.334549     0.6895      6.745   348.5702 5.3482e+01     0.7902      4.468      6.479     8.8415 0.0000e+00
      4.590      0.099     7.8233     67.392     38.877  26.297608     0.6686      6.742   348.5792 5.2770e+01     0.7912      4.500      6.527     8.8386 0.0000e+00
      4.624      0.100     7.8701     67.784     38.882  26.295314     0.6239      6.739   348.6030 5.1800e+01     0.8078      4.536      6.579     8.8390 0.0000e+00
      4.653      0.096     7.9199     68.203     38.906  26.306805     0.5902      6.736   348.6856 5.0894e+01     0.8075      4.566      6.622     8.8354 0.0000e+00
      4.674      0.088     7.9719     68.643     38.915  26.309554     0.5908      6.736   348.7176 5.0400e+01     0.8184      4.585      6.649     8.8267 0.0000e+00
      4.693      0.078     8.0284     69.125     38.946  26.328539     0.6034      6.735   348.7315 4.9684e+01     0.8480      4.602      6.675     8.8192 0.0000e+00
      4.711      0.069     8.0919     69.669     38.974  26.345865     0.6051      6.734   348.7670 4.8989e+01     0.8605      4.621      6.702     8.8126 0.0000e+00
      4.726      0.063     8.1552     70.210     38.951  26.328549     0.6030      6.732   348.7170 4.8642e+01     0.8473      4.635      6.723     8.8058 0.0000e+00
      4.741      0.059     8.2124     70.698     38.925  26.309668     0.5965      6.731   348.6432 4.8014e+01     0.8403      4.649      6.743     8.8013 0.0000e+00
      4.755      0.055     8.2639     71.139     38.924  26.308059     0.5904      6.730   348.6492 4.7300e+01     0.8371      4.662      6.763     8.7995 0.0000e+00
      4.769      0.053     8.3084     71.519     38.928  26.309100     0.6025      6.729   348.7035 4.6621e+01     0.8389      4.677      6.783     8.7974 0.0000e+00
      4.783      0.051     8.3456     71.836     38.950  26.322254     0.6140      6.729   348.7833 4.5893e+01     0.8315      4.691      6.803     8.7945 0.0000e+00
      4.795      0.049     8.3785     72.121     38.975  26.340104     0.6013      6.729   348.9263 4.5366e+01     0.8095      4.701      6.818     8.7927 0.0000e+00
      4.807      0.049     8.4042     72.354     38.960  26.334436     0.5866      6.728   349.0556 4.4797e+01     0.8168      4.713      6.835     8.7916 0.0000e+00
      4.820      0.048     8.4227     72.523     38.928  26.317224     0.5922      6.727   349.1420 4.4258e+01     0.8283      4.728      6.857     8.7902 0.0000e+00
      4.831      0.048     8.4373     72.648     38.936  26.322480     0.6051      6.726   349.1966 4.4027e+01     0.8265      4.737      6.870     8.7858 0.0000e+00
      4.843      0.048     8.4460     72.712     38.961  26.334499     0.6050      6.726   349.1994 4.3736e+01     0.8254      4.748      6.886     8.7855 0.0000e+00
      4.856      0.047     8.4490     72.722     38.973  26.335540     0.5995      6.726   349.2620 4.3285e+01     0.8149      4.764      6.908     8.7957 0.0000e+00
      4.868      0.047     8.4490     72.708     38.982  26.335057     0.5844      6.726   349.4368 4.3073e+01     0.8223      4.773      6.923     8.8037 0.0000e+00
      4.879      0.047     8.4437     72.653     38.978  26.328655     0.5515      6.725   349.5922 4.2904e+01     0.8523      4.784      6.939     8.8026 0.0000e+00
      4.890      0.048     8.4331     72.557     38.970  26.321624     0.5330      6.724   349.6786 4.2616e+01     0.8730      4.797      6.957     8.7951 0.0000e+00
      4.902      0.050     8.4221     72.461     38.959  26.313544     0.5256      6.722   349.8794 4.2385e+01     0.8591      4.806      6.970     8.7846 0.0000e+00
      4.914      0.053     8.4137     72.389     38.931  26.294459     0.5081      6.719   350.1269 4.2025e+01     0.8374      4.818      6.988     8.7760 0.0000e+00
      4.929      0.057     8.4102     72.359     38.912  26.281344     0.4875      6.717   350.2627 4.1502e+01     0.8539      4.833      7.010     8.7708 0.0000e+00
      4.945      0.059     8.4102     72.357     38.914  26.281969     0.4693      6.717   350.4018 4.1081e+01     0.8456      4.849      7.033     8.7689 0.0000e+00
      4.961      0.061     8.4112     72.362     38.945  26.302010     0.4627      6.715   350.5193 4.0701e+01     0.7983      4.865      7.056     8.7687 0.0000e+00
      4.977      0.063     8.4154     72.396     38.993  26.333171     0.4534      6.713   350.4790 4.0147e+01     0.7398      4.881      7.079     8.7687 0.0000e+00
      4.992      0.065     8.4174     72.412     39.006  26.341251     0.4206      6.710   350.3450 3.9652e+01     0.6563      4.896      7.101     8.7687 0.0000e+00
      5.008      0.067     8.4174     72.409     39.000  26.336214     0.3972      6.708   350.3609 3.9211e+01     0.6129      4.910      7.122     8.7678 0.0000e+00
      5.025      0.068     8.4227     72.451     39.002  26.335761     0.4004      6.706   350.5849 3.8571e+01     0.6123      4.927      7.146     8.7656 0.0000e+00
      5.043      0.068     8.4269     72.485     39.004  26.335771     0.4041      6.704   350.8172 3.8021e+01     0.6180      4.946      7.173     8.7640 0.0000e+00
      5.063      0.068     8.4290     72.500     39.006  26.336340     0.4051      6.702   350.9327 3.7616e+01     0.6514      4.965      7.201     8.7640 0.0000e+00
      5.082      0.067     8.4305     72.510     39.017  26.342636     0.4119      6.702   350.8620 3.7113e+01     0.6807      4.984      7.229     8.7623 0.0000e+00
      5.099      0.064     8.4275     72.484     39.027  26.348401     0.4135      6.701   350.6513 3.6646e+01     0.6672      5.000      7.252     8.7596 0.0000e+00
      5.114      0.059     8.4189     72.409     39.019  26.342534     0.4057      6.701   350.5354 3.6283e+01     0.6399      5.015      7.273     8.7583 0.0000e+00
      5.128      0.054     8.4003     72.247     39.009  26.335196     0.4007      6.701   350.6656 3.5876e+01     0.6255      5.028      7.295     8.7571 0.0000e+00
      5.141      0.049     8.3651     71.943     38.992  26.323179     0.3990      6.701   350.8482 3.5483e+01     0.6154      5.042      7.313     8.7559 0.0000e+00
      5.152      0.045     8.3164     71.523     38.994  26.324230     0.3944      6.701   350.8510 3.5199e+01     0.6098      5.053      7.328     8.7546 0.0000e+00
      5.163      0.042     8.2617     71.053     39.029  26.347896     0.3907      6.701   350.8722 3.4965e+01     0.6183      5.063      7.343     8.7537 0.0000e+00
      5.173      0.039     8.2017     70.538     39.040  26.355346     0.3916      6.700   351.0179 3.4789e+01     0.6258      5.074      7.359     8.7530 0.0000e+00
      5.182      0.037     8.1390     70.001     39.031  26.350813     0.3953      6.700   351.0639 3.4713e+01     0.6399      5.082      7.371     8.7522 0.0000e+00
      5.191      0.037     8.0783     69.485     39.035  26.356585     0.3991      6.700   351.0842 3.4646e+01     0.6670      5.090      7.383     8.7520 0.0000e+00
      5.201      0.037     8.0237     69.027     39.034  26.361644     0.4011      6.698   351.1768 3.4554e+01     0.6787      5.101      7.398     8.7522 0.0000e+00
      5.210      0.038     7.9783     68.652     39.004  26.348482     0.4194      6.697   351.2375 3.4576e+01     0.7212      5.110      7.411     8.7523 0.0000e+00
      5.219      0.040     7.9419     68.351     38.960  26.324447     0.4541      6.696   351.3015 3.4524e+01     0.8144      5.116      7.420     8.7535 0.0000e+00
      5.229      0.043     7.9125     68.105     38.957  26.325022     0.4721      6.695   351.4344 3.4272e+01     0.8588      5.128      7.438     8.7567 0.0000e+00
      5.241      0.045     7.8868     67.879     39.005  26.355440     0.4711      6.693   351.4677 3.4079e+01     0.8307      5.140      7.454     8.7649 0.0000e+00
      5.253      0.048     7.8671     67.699     39.041  26.374754     0.4699      6.690   351.3601 3.3807e+01     0.8107      5.149      7.468     8.7751 0.0000e+00
      5.266      0.051     7.8577     67.608     39.039  26.368045     0.4668      6.688   351.4245 3.3547e+01     0.8308      5.165      7.491     8.7825 0.0000e+00
      5.279      0.053     7.8548     67.576     38.999  26.337818     0.4615      6.688   351.6436 3.3462e+01     0.8595      5.178      7.509     8.7884 0.0000e+00
      5.292      0.054     7.8540     67.561     38.987  26.326757     0.4696      6.687   351.7725 3.3413e+01     0.8527      5.188      7.524     8.7851 0.0000e+00
      5.308      0.054     7.8547     67.564     39.040  26.361287     0.4816      6.685   351.7784 3.3345e+01     0.8105      5.207      7.551     8.7752 0.0000e+00
      5.323      0.053     7.8562     67.584     39.055  26.374344     0.4785      6.683   351.7154 3.3117e+01     0.8070      5.222      7.574     8.7696 0.0000e+00
      5.336      0.051     7.8554     67.590     39.021  26.357646     0.4789      6.682   351.6989 3.2970e+01     0.8400      5.233      7.589     8.7653 0.0000e+00
      5.349      0.048     7.8522     67.569     39.006  26.349886     0.4859      6.681   351.7506 3.2885e+01     0.8437      5.246      7.609     8.7599 0.0000e+00
      5.361      0.045     7.8487     67.531     39.003  26.344020     0.4806      6.678   351.7383 3.2720e+01     0.8211      5.258      7.628     8.7571 0.0000e+00
      5.371      0.043     7.8448     67.482     39.023  26.350206     0.4695      6.677   351.6364 3.2643e+01     0.8111      5.266      7.638     8.7610 0.0000e+00
      5.381      0.043     7.8426     67.450     39.048  26.361179     0.4619      6.676   351.5504 3.2477e+01     0.8453      5.276      7.653     8.7727 0.0000e+00
      5.393      0.042     7.8431     67.444     39.039  26.349685     0.4615      6.676   351.5596 3.2366e+01     0.8674      5.289      7.672     8.7800 0.0000e+00
      5.403      0.040     7.8456     67.455     39.029  26.338222     0.4740      6.675   351.6616 3.2366e+01     0.8339      5.299      7.685     8.7715 0.0000e+00
      5.414      0.037     7.8498     67.486     39.050  26.349568     0.4846      6.673   351.7513 3.2245e+01     0.8072      5.309      7.699     8.7595 0.0000e+00
      5.425      0.033     7.8544     67.524     39.066  26.359883     0.4805      6.673   351.6976 3.2110e+01     0.8187      5.321      7.718     8.7532 0.0000e+00
      5.434      0.027     7.8589     67.564     39.028  26.335942     0.4696      6.673   351.5289 3.1877e+01     0.8514      5.331      7.731     8.7459 0.0000e+00
      5.439      0.022     7.8597     67.577     38.991  26.314082     0.4636      6.673   351.4322 3.1769e+01     0.8670      5.335      7.738     8.7387 0.0000e+00
      5.443      0.017     7.8582     67.571     39.039  26.349567     0.4631      6.672   351.4742 3.1872e+01     0.8236      5.338      7.742     8.7357 0.0000e+00
      5.446      0.015     7.8580     67.572     39.089  26.384011     0.4631      6.672   351.5203 3.1724e+01     0.7847      5.341      7.746     8.7355 0.0000e+00
      5.448 -9.990e-29 -9.990e-29 -9.990e-29 -9.990e-29 -9.990e-29 -9.990e-29 -9.990e-29 -9.990e-29 3.1562e+01 -9.990e-29      5.343      7.749     8.7362 0.0000e+00
      5.449 -9.990e-29 -9.990e-29 -9.990e-29 -9.990e-29 -9.990e-29 -9.990e-29 -9.990e-29 -9.990e-29 3.1507e+01 -9.990e-29      5.344      7.751     8.7411 0.0000e+00
      5.451 -9.990e-29 -9.990e-29 -9.990e-29 -9.990e-29 -9.990e-29 -9.990e-29 -9.990e-29 -9.990e-29 3.1365e+01 -9.990e-29      5.346      7.754     8.7464 0.0000e+00
      5.452 -9.990e-29 -9.990e-29 -9.990e-29 -9.990e-29 -9.990e-29 -9.990e-29 -9.990e-29 -9.990e-29 3.1296e+01 -9.990e-29      5.347      7.756     8.7469 0.0000e+00
