* Sea-Bird SBE19plus  Data File:
* FileName = C:\DATA\050718_fcr_0002.hex
* Software version 2.6.3.104 SB_Terminal.dll
* Temperature SN = 7809
* Conductivity SN = 7809
* System UpLoad Time = May 07 2018 16:23:56
* <ApplicationData>
* <Seaterm232>
* <SoftwareVersion>2.6.3.104</SoftwareVersion>
* <BuildDate>30-Jun-2017</BuildDate>
* </Seaterm232>
* </ApplicationData>
* cast   2 07 May 2018 14:39:31 samples 765 to 1657, avg = 1, stop = mag switch
# nquan = 15
# nvalues = 812                         
# units = specified
# name 0 = depFM: Depth [fresh water, m]
# name 1 = dz/dtM: Descent Rate [m/s]
# name 2 = sbeox0Mg/L: Oxygen, SBE 43 [mg/l]
# name 3 = sbeox0PS: Oxygen, SBE 43 [% saturation]
# name 4 = specc: Specific Conductance [uS/cm]
# name 5 = c0uS/cm: Conductivity [uS/cm]
# name 6 = flECO-AFL: Fluorescence, WET Labs ECO-AFL/FL [mg/m^3]
# name 7 = ph: pH
# name 8 = orp: Oxidation Reduction Potential [mV]
# name 9 = par/sat/log: PAR/Logarithmic, Satlantic
# name 10 = turbWETntu0: Turbidity, WET Labs ECO [NTU]
# name 11 = prdM: Pressure, Strain Gauge [db]
# name 12 = prdE: Pressure, Strain Gauge [psi]
# name 13 = tv290C: Temperature [ITS-90, deg C]
# name 14 = flag:  0.000e+00
# span 0 =     -0.556,      3.759       
# span 1 =     -0.109,      0.216       
# span 2 =     5.4300,    10.9849       
# span 3 =     54.282,    109.710       
# span 4 =      0.718,     38.625       
# span 5 =   0.621175,  30.706194       
# span 6 =    -0.4487,   250.9991       
# span 7 =      6.095,      7.495       
# span 8 =   257.3455,  1240.2295       
# span 9 = 3.6496e+01, 1.5689e+03       
# span 10 =    -5.8931,   831.8411      
# span 11 =     -0.545,      3.688      
# span 12 =     -0.792,      5.348      
# span 13 =    10.8391,    18.9836      
# span 14 = 0.0000e+00, 0.0000e+00      
# interval = seconds: 0.25
# start_time = May 07 2018 14:39:31 [Instrument's time stamp, header]
# bad_flag = -9.990e-29
# <Sensors count="9" >
#   <sensor Channel="1" >
#     <!-- Count, Temperature -->
#     <TemperatureSensor SensorID="58" >
#       <SerialNumber>7809</SerialNumber>
#       <CalibrationDate>09-Mar-18</CalibrationDate>
#       <A0>1.21093245e-003</A0>
#       <A1>2.84356597e-004</A1>
#       <A2>-1.94507398e-006</A2>
#       <A3>2.12806664e-007</A3>
#       <Slope>1.00000000</Slope>
#       <Offset>0.0000</Offset>
#     </TemperatureSensor>
#   </sensor>
#   <sensor Channel="2" >
#     <!-- Frequency 0, Conductivity -->
#     <ConductivitySensor SensorID="3" >
#       <SerialNumber>7809</SerialNumber>
#       <CalibrationDate>09-Mar-18</CalibrationDate>
#       <UseG_J>1</UseG_J>
#       <!-- Cell const and series R are applicable only for wide range sensors. -->
#       <SeriesR>0.0000</SeriesR>
#       <CellConst>2000.0000</CellConst>
#       <ConductivityType>0</ConductivityType>
#       <Coefficients equation="0" >
#         <A>0.00000000e+000</A>
#         <B>0.00000000e+000</B>
#         <C>0.00000000e+000</C>
#         <D>0.00000000e+000</D>
#         <M>0.0</M>
#         <CPcor>-9.57000000e-008</CPcor>
#       </Coefficients>
#       <Coefficients equation="1" >
#         <G>-1.00672082e+000</G>
#         <H>1.26906489e-001</H>
#         <I>-1.40584351e-004</I>
#         <J>2.47837121e-005</J>
#         <CPcor>-9.57000000e-008</CPcor>
#         <CTcor>3.2500e-006</CTcor>
#         <!-- WBOTC not applicable unless ConductivityType = 1. -->
#         <WBOTC>0.00000000e+000</WBOTC>
#       </Coefficients>
#       <Slope>1.00000000</Slope>
#       <Offset>0.00000</Offset>
#     </ConductivitySensor>
#   </sensor>
#   <sensor Channel="3" >
#     <!-- Count, Pressure, Strain Gauge -->
#     <PressureSensor SensorID="46" >
#       <SerialNumber>7809</SerialNumber>
#       <CalibrationDate>07-Mar-18</CalibrationDate>
#       <PA0>-4.08176359e-002</PA0>
#       <PA1>4.85188419e-004</PA1>
#       <PA2>-3.51168169e-012</PA2>
#       <PTEMPA0>-5.37806900e+001</PTEMPA0>
#       <PTEMPA1>5.36620721e+001</PTEMPA1>
#       <PTEMPA2>4.87214332e-002</PTEMPA2>
#       <PTCA0>5.25213435e+005</PTCA0>
#       <PTCA1>1.79532409e+000</PTCA1>
#       <PTCA2>-2.84353509e-001</PTCA2>
#       <PTCB0>2.51668750e+001</PTCB0>
#       <PTCB1>3.75000000e-004</PTCB1>
#       <PTCB2>0.00000000e+000</PTCB2>
#       <Offset>0.000000</Offset>
#     </PressureSensor>
#   </sensor>
#   <sensor Channel="4" >
#     <!-- A/D voltage 0, pH -->
#     <pH_Sensor SensorID="43" >
#       <SerialNumber>0363</SerialNumber>
#       <CalibrationDate>16-Mar-18</CalibrationDate>
#       <Slope>4.6194</Slope>
#       <Offset>2.5947</Offset>
#     </pH_Sensor>
#   </sensor>
#   <sensor Channel="5" >
#     <!-- A/D voltage 1, Oxidation Reduction Potential -->
#     <OxidationReductionPotentialSensor SensorID="41" >
#       <SerialNumber>0363</SerialNumber>
#       <CalibrationDate>16-Mar-18</CalibrationDate>
#       <B>2.499480</B>
#       <M>-0.496195</M>
#       <Offset>0.0</Offset>
#     </OxidationReductionPotentialSensor>
#   </sensor>
#   <sensor Channel="6" >
#     <!-- A/D voltage 2, Oxygen, SBE 43 -->
#     <OxygenSensor SensorID="38" >
#       <SerialNumber>0434</SerialNumber>
#       <CalibrationDate>13-Mar-18</CalibrationDate>
#       <Use2007Equation>1</Use2007Equation>
#       <CalibrationCoefficients equation="0" >
#         <!-- Coefficients for Owens-Millard equation. -->
#         <Boc>0.0000</Boc>
#         <Soc>0.0000e+000</Soc>
#         <offset>0.0000</offset>
#         <Pcor>0.00e+000</Pcor>
#         <Tcor>0.0000</Tcor>
#         <Tau>0.0</Tau>
#       </CalibrationCoefficients>
#       <CalibrationCoefficients equation="1" >
#         <!-- Coefficients for Sea-Bird equation - SBE calibration in 2007 and later. -->
#         <Soc>4.5718e-001</Soc>
#         <offset>-0.6113</offset>
#         <A>-4.0649e-003</A>
#         <B> 2.0945e-004</B>
#         <C>-3.3182e-006</C>
#         <D0> 2.5826e+000</D0>
#         <D1> 1.92634e-004</D1>
#         <D2>-4.64803e-002</D2>
#         <E> 3.6000e-002</E>
#         <Tau20> 1.2200</Tau20>
#         <H1>-3.3000e-002</H1>
#         <H2> 5.0000e+003</H2>
#         <H3> 1.4500e+003</H3>
#       </CalibrationCoefficients>
#     </OxygenSensor>
#   </sensor>
#   <sensor Channel="7" >
#     <!-- A/D voltage 3, PAR/Logarithmic, Satlantic -->
#     <PARLog_SatlanticSensor SensorID="76" >
#       <SerialNumber>1122</SerialNumber>
#       <CalibrationDate>22-Jun-2017</CalibrationDate>
#       <a0>9.6090e-001</a0>
#       <a1>8.0780e-001</a1>
#       <Im>1.3589e+000</Im>
#       <Multiplier>1.0000e+000</Multiplier>
#     </PARLog_SatlanticSensor>
#   </sensor>
#   <sensor Channel="8" >
#     <!-- A/D voltage 4, Fluorometer, WET Labs ECO-AFL/FL -->
#     <FluoroWetlabECO_AFL_FL_Sensor SensorID="20" >
#       <SerialNumber>FLNTURT-2496</SerialNumber>
#       <CalibrationDate>25-Jan-2017</CalibrationDate>
#       <ScaleFactor>5.30000000e+001</ScaleFactor>
#       <!-- Dark output -->
#       <Vblank>0.0560</Vblank>
#     </FluoroWetlabECO_AFL_FL_Sensor>
#   </sensor>
#   <sensor Channel="9" >
#     <!-- A/D voltage 5, Turbidity Meter, WET Labs, ECO-NTU -->
#     <TurbidityMeter SensorID="67" >
#       <SerialNumber>FLNTURT-2496</SerialNumber>
#       <CalibrationDate>25-Jan-2017</CalibrationDate>
#       <ScaleFactor>176.000000</ScaleFactor>
#       <!-- Dark output -->
#       <DarkVoltage>0.072000</DarkVoltage>
#     </TurbidityMeter>
#   </sensor>
# </Sensors>
# datcnv_date = May 07 2018 16:36:04, 7.26.7.114 [datcnv_vars = 14]
# datcnv_in = C:\DATA\050718_fcr20.hex C:\DATA\SBE19plusV2_7809.xmlcon
# datcnv_skipover = 0
# datcnv_ox_hysteresis_correction = yes
# datcnv_ox_tau_correction = yes
# filter_date = May 07 2018 16:36:36, 7.26.7.114
# filter_in = C:\DATA\050718_fcr20.cnv
# filter_low_pass_tc_A = 0.030
# filter_low_pass_tc_B = 0.150
# filter_low_pass_A_vars = prdM prdE tv290C
# filter_low_pass_B_vars = depFM dz/dtM sbeox0Mg/L sbeox0PS specc c0uS/cm flECO-AFL ph orp par/sat/log turbWETntu0
# alignctd_date = May 07 2018 16:36:57, 7.26.7.114
# alignctd_in = C:\DATA\050718_fcr20.cnv
# alignctd_adv = dz/dtM 1.000, sbeox0Mg/L 1.000, sbeox0PS 1.000, specc 1.000, c0uS/cm 1.000, flECO-AFL 1.000, ph 1.000, orp 1.000, turbWETntu0 1.000                                                                                 
# file_type = ascii
*END*
     -0.555     -0.001     9.1749     97.406      0.718   0.621175    -0.4334      6.095  1240.2295 1.6537e+02    -1.4650     -0.544     -0.789    18.2436 0.0000e+00
     -0.555     -0.001     9.1745     97.404      0.719   0.621722    -0.4487      6.099  1240.2295 1.7486e+02    -1.4831     -0.544     -0.790    18.2435 0.0000e+00
     -0.555      0.000     9.1742     97.402      0.872   0.754568    -0.4451      6.107  1240.2295 1.9958e+02    -1.3788     -0.544     -0.790    18.2437 0.0000e+00
     -0.556      0.005     9.1736     97.402      2.721   2.354230    -0.3252      6.148  1240.2295 2.6914e+02    -0.1428     -0.545     -0.791    18.2442 0.0000e+00
     -0.556      0.022     9.1689     97.393      8.697   7.532554    -0.0650      6.318  1240.2295 3.1515e+02     2.1402     -0.545     -0.792    18.2445 0.0000e+00
     -0.556      0.049     9.1559     97.393     18.857  16.361729     0.5690      6.650  1240.2294 2.7442e+02     3.3654     -0.544     -0.790    18.2451 0.0000e+00
     -0.554      0.075     9.1365     97.413     28.204  24.524117     6.3842      6.987  1240.2281 2.4775e+02     3.2272     -0.545     -0.791    18.2464 0.0000e+00
     -0.537      0.094     9.1179     97.428     30.786  26.821715    70.3482      7.207  1240.2139 2.7157e+02     0.3772     -0.543     -0.788    18.2471 0.0000e+00
     -0.488      0.099     9.1051     97.433     26.438  23.067799   187.5684      7.347  1240.0582 2.9808e+02    -4.7563     -0.484     -0.703    18.2486 0.0000e+00
     -0.430      0.091     9.0982     97.451     20.374  17.797084   250.9991      7.447  1238.3454 3.1506e+02    -5.8931     -0.407     -0.590    18.3158 0.0000e+00
     -0.399      0.072     9.0937     97.475     17.757  15.525873   250.9925      7.495  1219.5046 3.1756e+02    13.2753     -0.383     -0.554    18.4578 0.0000e+00
     -0.394      0.047     9.0889     97.484     20.077  17.568196   187.4705      7.492  1012.2555 3.0931e+02   227.2198     -0.382     -0.555    18.5736 0.0000e+00
     -0.403      0.022     9.0847     97.479     25.916  22.687877    70.0873      7.452   598.1905 2.9431e+02   619.3738     -0.394     -0.571    18.6384 0.0000e+00
     -0.414      0.007     9.0817     97.471     31.446  27.535018     6.0336      7.384   319.9056 2.7858e+02   831.6184     -0.408     -0.592    18.6794 0.0000e+00
     -0.420      0.007     9.0794     97.461     34.062  29.830116     0.2121      7.310   261.3229 2.7227e+02   831.8411     -0.415     -0.602    18.7167 0.0000e+00
     -0.415      0.013     9.0774     97.451     34.532  30.245641    -0.1157      7.253   257.3455 2.7415e+02   622.1887     -0.410     -0.594    18.7494 0.0000e+00
     -0.402      0.018     9.0755     97.441     32.022  28.050294     0.2318      7.207   257.7046 2.7722e+02   234.7796     -0.393     -0.570    18.7664 0.0000e+00
     -0.388      0.014     9.0720     97.418     26.217  22.969098     0.4438      7.161   257.6637 2.8321e+02    23.3814     -0.379     -0.550    18.7770 0.0000e+00
     -0.379      0.005     9.0672     97.398     24.172  21.186844     0.4902      7.116   258.5717 2.8644e+02     4.1797     -0.369     -0.536    18.7836 0.0000e+00
     -0.379      0.000     9.0630     97.395     29.058  25.482437     0.8568      7.074   259.7350 2.8134e+02     2.7671     -0.367     -0.534    18.7893 0.0000e+00
     -0.389      0.006     9.0610     97.399     33.648  29.514503     1.5316      7.032   259.9417 2.7741e+02     3.2193     -0.378     -0.550    18.7948 0.0000e+00
     -0.406      0.030     9.0609     97.408     34.855  30.575719     1.9046      6.997   259.6932 2.8545e+02     3.5433     -0.400     -0.581    18.7978 0.0000e+00
     -0.413      0.070     9.0592     97.411     34.980  30.693194     1.9379      6.976   259.6565 3.0180e+02     3.5720     -0.415     -0.603    18.8154 0.0000e+00
     -0.394      0.119     9.0569     97.430     34.949  30.680855     1.9066      6.966   260.4445 3.1356e+02     3.5047     -0.396     -0.575    18.8442 0.0000e+00
     -0.348      0.166     9.0619     97.529     34.930  30.680572     1.6359      6.962   261.6492 3.3767e+02     2.8211     -0.349     -0.506    18.8562 0.0000e+00
     -0.282      0.201     9.0783     97.737     34.928  30.689802     1.1648      6.962   262.7792 5.9722e+02     1.5939     -0.281     -0.408    18.8539 0.0000e+00
     -0.206      0.216     9.1057     98.051     34.893  30.665448     0.9159      6.964   263.7824 1.0233e+03     0.9352     -0.198     -0.287    18.8617 0.0000e+00
     -0.138      0.211     9.1434     98.466     34.860  30.640150     0.8964      6.965   264.4869 9.9075e+02     0.8689     -0.128     -0.186    18.8891 0.0000e+00
     -0.086      0.189     9.1885     98.956     34.856  30.637955     0.9110      6.965   264.9300 5.5527e+02     0.8529     -0.081     -0.118    18.9159 0.0000e+00
     -0.046      0.159     9.2363     99.468     34.858  30.638900     0.9357      6.964   265.3543 2.9537e+02     0.8631     -0.044     -0.063    18.9304 0.0000e+00
     -0.013      0.129     9.2822     99.960     34.874  30.651581     0.9379      6.963   265.6595 2.2681e+02     0.8704     -0.010     -0.015    18.9390 0.0000e+00
      0.013      0.107     9.3208    100.373     34.889  30.664271     0.9383      6.962   265.7800 1.8590e+02     0.8504      0.016      0.023    18.9448 0.0000e+00
      0.033      0.092     9.3456    100.638     34.890  30.665321     0.9498      6.962   266.0370 1.6531e+02     0.8350      0.034      0.049    18.9455 0.0000e+00
      0.052      0.079     9.3447    100.629     34.889  30.664272     0.9565      6.967   266.3587 1.6346e+02     0.8355      0.048      0.070    18.9428 0.0000e+00
      0.073      0.065     9.2972    100.119     34.874  30.651591     0.9642      6.977   266.6582 1.6705e+02     0.8269      0.071      0.103    18.9427 0.0000e+00
      0.094      0.049     9.1874     98.939     34.859  30.639003     0.9606      6.990   266.9912 1.6934e+02     0.8220      0.095      0.138    18.9417 0.0000e+00
      0.109      0.031     9.0199     97.136     34.859  30.639088     0.9495      7.002   267.2015 1.6954e+02     0.8378      0.110      0.160    18.9396 0.0000e+00
      0.115      0.011     8.8140     94.920     34.874  30.652621     0.9498      7.012   267.3939 1.6673e+02     0.8646      0.115      0.168    18.9402 0.0000e+00
      0.112     -0.011     8.5993     92.610     34.899  30.675611     0.9547      7.020   267.6831 1.5920e+02     0.8718      0.112      0.161    18.9416 0.0000e+00
      0.102     -0.035     8.4030     90.498     34.884  30.663033     0.9627      7.026   267.8595 1.5147e+02     0.8642      0.100      0.146    18.9423 0.0000e+00
      0.091     -0.056     8.2338     88.678     34.842  30.627562     0.9638      7.031   267.8910 1.7008e+02     0.8639      0.089      0.131    18.9428 0.0000e+00
      0.076     -0.076     8.0939     87.174     34.842  30.627772     0.9591      7.037   267.9778 3.3337e+02     0.8679      0.079      0.113    18.9438 0.0000e+00
      0.055     -0.093     7.9830     85.982     34.884  30.665572     0.9614      7.046   268.1347 5.7480e+02     0.8825      0.056      0.081    18.9447 0.0000e+00
      0.027     -0.105     7.8917     84.999     34.927  30.703561     0.9635      7.055   268.2395 7.9414e+02     0.8882      0.028      0.040    18.9453 0.0000e+00
     -0.005     -0.109     7.8122     84.140     34.930  30.706059     0.9661      7.059   268.3849 1.0877e+03     0.8759     -0.001     -0.003    18.9469 0.0000e+00
     -0.042     -0.100     7.7400     83.359     34.920  30.695772     0.9657      7.059   268.6877 1.3063e+03     0.8559     -0.041     -0.060    18.9489 0.0000e+00
     -0.077     -0.071     7.6675     82.577     34.933  30.706194     0.9581      7.059   268.9752 1.3791e+03     0.8594     -0.081     -0.119    18.9495 0.0000e+00
     -0.100     -0.023     7.5913     81.757     34.932  30.705050     0.9574      7.063   269.1081 1.1515e+03     0.8881     -0.103     -0.149    18.9503 0.0000e+00
     -0.110      0.032     7.5212     81.004     34.904  30.681938     0.9572      7.068   269.0042 6.0857e+02     0.8669     -0.114     -0.164    18.9495 0.0000e+00
     -0.098      0.083     7.4675     80.434     34.899  30.680782     0.9651      7.073   268.7517 2.9232e+02     0.8169     -0.111     -0.161    18.9452 0.0000e+00
     -0.054      0.120     7.4328     80.070     34.906  30.691067     0.9973      7.078   268.7222 2.4218e+02     0.8022     -0.062     -0.089    18.9448 0.0000e+00
      0.009      0.137     7.4234     79.978     34.888  30.679291     1.0160      7.083   268.9052 1.9898e+02     0.8107      0.015      0.022    18.9463 0.0000e+00
      0.063      0.134     7.4438     80.201     34.871  30.665426     1.0165      7.087   269.0716 1.7068e+02     0.8287      0.070      0.102    18.9468 0.0000e+00
      0.097      0.114     7.4838     80.628     34.856  30.650433     1.0213      7.091   269.2721 1.6205e+02     0.8371      0.100      0.145    18.9510 0.0000e+00
      0.116      0.082     7.5295     81.110     34.831  30.625032     1.0189      7.095   269.5212 1.6077e+02     0.8510      0.116      0.169    18.9584 0.0000e+00
      0.125      0.051     7.5718     81.555     34.821  30.612322     1.0158      7.099   269.7607 1.6292e+02     0.8740      0.124      0.180    18.9656 0.0000e+00
      0.128      0.027     7.6047     81.896     34.841  30.623764     1.0208      7.102   269.9316 1.7002e+02     0.8720      0.126      0.182    18.9674 0.0000e+00
      0.130      0.012     7.6241     82.091     34.862  30.636351     1.0234      7.104   270.0391 1.7869e+02     0.8567      0.126      0.184    18.9643 0.0000e+00
      0.133      0.002     7.6277     82.117     34.869  30.637496     1.0196      7.109   270.1999 1.8365e+02     0.8422      0.130      0.189    18.9587 0.0000e+00
      0.134     -0.003     7.6179     82.002     34.874  30.637600     1.0211      7.114   270.3259 1.8784e+02     0.8482      0.132      0.192    18.9518 0.0000e+00
      0.131     -0.006     7.6039     81.844     34.878  30.637609     1.0234      7.119   270.3586 1.9162e+02     0.8692      0.130      0.189    18.9433 0.0000e+00
      0.125     -0.007     7.5947     81.736     34.882  30.637601     1.0004      7.123   270.5086 1.9521e+02     0.8512      0.123      0.178    18.9341 0.0000e+00
      0.120     -0.010     7.5904     81.680     34.887  30.637497     0.9647      7.125   270.6775 1.9485e+02     0.8144      0.116      0.168    18.9265 0.0000e+00
      0.119     -0.020     7.5851     81.611     34.891  30.636343     0.9501      7.128   270.7668 1.9246e+02     0.8212      0.116      0.169    18.9215 0.0000e+00
      0.122     -0.035     7.5736     81.478     34.881  30.623642     0.9518      7.132   270.8995 1.9203e+02     0.8420      0.119      0.174    18.9168 0.0000e+00
      0.121     -0.051     7.5579     81.303     34.870  30.610942     0.9487      7.138   270.9915 1.9233e+02     0.8521      0.123      0.179    18.9115 0.0000e+00
      0.106     -0.068     7.5457     81.166     34.871  30.609798     0.9302      7.144   271.1047 1.9968e+02     0.8515      0.112      0.162    18.9051 0.0000e+00
      0.077     -0.081     7.5413     81.114     34.873  30.609807     0.9037      7.150   271.2348 2.1853e+02     0.8349      0.077      0.111    18.8974 0.0000e+00
      0.043     -0.085     7.5399     81.096     34.876  30.611047     0.8860      7.155   271.2747 2.4340e+02     0.8343      0.040      0.058    18.8921 0.0000e+00
      0.013     -0.079     7.5329     81.019     34.893  30.624788     0.8820      7.159   271.4157 2.5448e+02     0.8445      0.012      0.016    18.8889 0.0000e+00
     -0.010     -0.064     7.5183     80.860     34.921  30.648932     0.8547      7.160   271.6482 2.5289e+02     0.8365     -0.013     -0.019    18.8856 0.0000e+00
     -0.023     -0.046     7.5002     80.668     34.920  30.648942     0.7854      7.162   271.8490 2.5586e+02     0.7977     -0.028     -0.042    18.8821 0.0000e+00
     -0.024     -0.030     7.4788     80.444     34.890  30.624913     0.7434      7.166   272.1230 2.5976e+02     0.7722     -0.025     -0.036    18.8802 0.0000e+00
     -0.020     -0.016     7.4538     80.180     34.873  30.612430     0.7513      7.170   272.3796 2.6026e+02     0.8031     -0.017     -0.024    18.8790 0.0000e+00
     -0.023     -0.004     7.4335     79.966     34.886  30.625026     0.7706      7.170   272.4575 2.6040e+02     0.8354     -0.021     -0.031    18.8780 0.0000e+00
     -0.030      0.001     7.4275     79.902     34.913  30.650202     0.7833      7.166   272.5481 2.6444e+02     0.8269     -0.031     -0.045    18.8798 0.0000e+00
     -0.033      0.000     7.4363     79.999     34.926  30.662798     0.7757      7.164   272.7005 2.9276e+02     0.8227     -0.037     -0.053    18.8834 0.0000e+00
     -0.028     -0.003     7.4536     80.187     34.911  30.650316     0.7616      7.165   272.7508 5.3549e+02     0.8454     -0.028     -0.041    18.8874 0.0000e+00
     -0.019     -0.003     7.4682     80.344     34.884  30.626296     0.7598      7.169   272.8123 9.8609e+02     0.8577     -0.014     -0.021    18.8896 0.0000e+00
     -0.019     -0.003     7.4703     80.366     34.884  30.626400     0.7632      7.172   273.0141 1.2454e+03     0.8491     -0.013     -0.020    18.8900 0.0000e+00
     -0.028     -0.003     7.4546     80.196     34.914  30.651575     0.7658      7.175   273.2971 1.2758e+03     0.8329     -0.028     -0.042    18.8913 0.0000e+00
     -0.036     -0.004     7.4181     79.802     34.943  30.676655     0.7632      7.178   273.5680 1.2951e+03     0.8148     -0.040     -0.057    18.8930 0.0000e+00
     -0.036     -0.004     7.3610     79.187     34.943  30.675605     0.7412      7.179   273.7937 1.1416e+03     0.8123     -0.037     -0.053    18.8926 0.0000e+00
     -0.031     -0.002     7.2898     78.422     34.901  30.638883     0.7119      7.180   273.9609 7.1846e+02     0.8339     -0.029     -0.043    18.8923 0.0000e+00
     -0.029      0.002     7.2155     77.624     34.871  30.613700     0.6933      7.181   274.0414 3.7445e+02     0.8621     -0.027     -0.039    18.8914 0.0000e+00
     -0.029      0.003     7.1460     76.876     34.884  30.625141     0.6808      7.182   274.0784 2.7425e+02     0.8782     -0.028     -0.040    18.8897 0.0000e+00
     -0.030      0.002     7.0814     76.180     34.913  30.650211     0.6813      7.182   274.1504 2.5983e+02     0.8769     -0.030     -0.043    18.8900 0.0000e+00
     -0.031      0.000     7.0207     75.525     34.928  30.662788     0.6903      7.182   274.2242 2.5180e+02     0.8770     -0.030     -0.044    18.8908 0.0000e+00
     -0.031      0.000     6.9636     74.910     34.914  30.650190     0.6973      7.184   274.2814 2.4638e+02     0.9097     -0.030     -0.044    18.8914 0.0000e+00
     -0.030      0.001     6.9083     74.314     34.887  30.624912     0.7022      7.186   274.4125 2.4649e+02     0.9060     -0.030     -0.043    18.8915 0.0000e+00
     -0.029      0.001     6.8523     73.710     34.872  30.611182     0.7028      7.189   274.6905 2.5544e+02     0.8320     -0.028     -0.041    18.8908 0.0000e+00
     -0.028      0.001     6.7948     73.090     34.872  30.611183     0.7050      7.192   274.9759 2.6580e+02     0.8081     -0.028     -0.040    18.8898 0.0000e+00
     -0.028      0.000     6.7383     72.480     34.889  30.624923     0.7102      7.193   275.1097 2.7346e+02     0.8312     -0.028     -0.040    18.8889 0.0000e+00
     -0.029      0.000     6.6830     71.884     34.919  30.650306     0.7112      7.193   275.1892 3.4906e+02     0.8370     -0.029     -0.042    18.8881 0.0000e+00
     -0.029     -0.001     6.6278     71.289     34.935  30.664046     0.7078      7.193   275.2492 6.5725e+02     0.8477     -0.029     -0.042    18.8872 0.0000e+00
     -0.029     -0.001     6.5764     70.736     34.935  30.664046     0.7243      7.195   275.3184 1.0992e+03     0.8688     -0.029     -0.042    18.8861 0.0000e+00
     -0.029     -0.002     6.5291     70.226     34.920  30.650306     0.7629      7.198   275.5099 1.2860e+03     0.8778     -0.029     -0.042    18.8846 0.0000e+00
     -0.030     -0.002     6.4844     69.743     34.893  30.624925     0.7802      7.201   275.7583 1.1392e+03     0.8660     -0.029     -0.042    18.8832 0.0000e+00
     -0.031     -0.001     6.4440     69.307     34.878  30.611194     0.7668      7.203   275.9988 8.8155e+02     0.8484     -0.030     -0.044    18.8827 0.0000e+00
     -0.032     -0.001     6.4066     68.902     34.879  30.611297     0.7666      7.205   276.1806 6.7009e+02     0.8471     -0.031     -0.045    18.8828 0.0000e+00
     -0.032      0.000     6.3684     68.489     34.897  30.626174     0.7878      7.207   276.2357 5.1159e+02     0.8809     -0.032     -0.046    18.8819 0.0000e+00
     -0.031      0.000     6.3315     68.090     34.941  30.664059     0.7932      7.210   276.2342 3.8031e+02     0.9217     -0.031     -0.045    18.8803 0.0000e+00
     -0.030      0.001     6.2991     67.740     34.970  30.688305     0.7767      7.212   276.2482 3.1149e+02     0.9132     -0.030     -0.043    18.8786 0.0000e+00
     -0.030      0.001     6.2683     67.406     34.945  30.665307     0.7449      7.212   276.4057 3.0808e+02     0.8696     -0.029     -0.042    18.8771 0.0000e+00
     -0.030      0.001     6.2379     67.077     34.918  30.640019     0.7115      7.214   276.6756 3.9671e+02     0.8524     -0.029     -0.042    18.8761 0.0000e+00
     -0.030      0.001     6.2097     66.772     34.915  30.636575     0.7037      7.217   276.7587 5.3055e+02     0.8579     -0.030     -0.043    18.8750 0.0000e+00
     -0.030      0.000     6.1820     66.472     34.902  30.623665     0.7153      7.219   276.8081 5.9950e+02     0.8743     -0.029     -0.043    18.8735 0.0000e+00
     -0.029     -0.000     6.1542     66.171     34.889  30.610945     0.7224      7.221   277.0146 5.8485e+02     0.8681     -0.028     -0.041    18.8716 0.0000e+00
     -0.029      0.000     6.1286     65.894     34.889  30.609789     0.7261      7.221   277.2765 5.2388e+02     0.8439     -0.028     -0.040    18.8696 0.0000e+00
     -0.030     -0.001     6.1050     65.638     34.890  30.609685     0.7418      7.222   277.4791 4.8790e+02     0.8563     -0.029     -0.042    18.8679 0.0000e+00
     -0.030     -0.002     6.0805     65.373     34.891  30.609686     0.7558      7.222   277.4859 4.4630e+02     0.8356     -0.029     -0.043    18.8667 0.0000e+00
     -0.030     -0.003     6.0553     65.100     34.892  30.609800     0.7564      7.223   277.5313 3.8295e+02     0.8063     -0.029     -0.042    18.8653 0.0000e+00
     -0.030     -0.003     6.0295     64.820     34.894  30.611059     0.7677      7.224   277.6834 3.4648e+02     0.8382     -0.029     -0.042    18.8637 0.0000e+00
     -0.031     -0.002     6.0043     64.548     34.911  30.624904     0.7919      7.225   277.7763 3.5286e+02     0.8543     -0.031     -0.045    18.8619 0.0000e+00
     -0.033     -0.001     5.9838     64.326     34.941  30.650194     0.8100      7.226   277.8801 3.8162e+02     0.8497     -0.033     -0.048    18.8605 0.0000e+00
     -0.034      0.000     5.9650     64.122     34.957  30.662800     0.8207      7.227   278.0785 5.6975e+02     0.8435     -0.034     -0.049    18.8594 0.0000e+00
     -0.033      0.000     5.9445     63.902     34.943  30.650308     0.8397      7.227   278.2824 8.6244e+02     0.8090     -0.034     -0.049    18.8579 0.0000e+00
     -0.032      0.001     5.9250     63.692     34.915  30.626165     0.8740      7.226   278.3668 9.1007e+02     0.7994     -0.032     -0.046    18.8563 0.0000e+00
     -0.031      0.001     5.9063     63.488     34.915  30.624926     0.8955      7.224   278.4097 7.3403e+02     0.8490     -0.030     -0.043    18.8547 0.0000e+00
     -0.031      0.002     5.8873     63.283     34.928  30.635328     0.8973      7.223   278.4572 6.5377e+02     0.8902     -0.030     -0.044    18.8537 0.0000e+00
     -0.032      0.003     5.8710     63.106     34.917  30.624916     0.8953      7.223   278.5111 9.1636e+02     0.8703     -0.031     -0.046    18.8539 0.0000e+00
     -0.032      0.004     5.8570     62.955     34.919  30.626051     0.8894      7.224   278.6315 1.2594e+03     0.8527     -0.032     -0.046    18.8540 0.0000e+00
     -0.031      0.004     5.8430     62.803     34.946  30.649049     0.8820      7.224   278.7943 1.3781e+03     0.8908     -0.031     -0.046    18.8525 0.0000e+00
     -0.028      0.004     5.8301     62.665     34.946  30.648944     0.8697      7.224   278.8439 1.3881e+03     0.9032     -0.027     -0.040    18.8507 0.0000e+00
     -0.026      0.004     5.8190     62.545     34.919  30.624791     0.8330      7.224   278.8016 1.3885e+03     0.8803     -0.024     -0.034    18.8495 0.0000e+00
     -0.025      0.004     5.8068     62.412     34.904  30.611050     0.7781      7.224   278.8856 1.3921e+03     0.8593     -0.024     -0.035    18.8483 0.0000e+00
     -0.025      0.003     5.7915     62.246     34.904  30.609812     0.7482      7.224   278.9991 1.3980e+03     0.8319     -0.025     -0.036    18.8476 0.0000e+00
     -0.025      0.002     5.7748     62.063     34.905  30.609813     0.7467      7.224   279.0552 1.4059e+03     0.8233     -0.024     -0.035    18.8479 0.0000e+00
     -0.024      0.000     5.7579     61.879     34.908  30.611061     0.7512      7.224   279.2194 1.4135e+03     0.8173     -0.023     -0.034    18.8481 0.0000e+00
     -0.024     -0.002     5.7400     61.685     34.925  30.624906     0.7563      7.222   279.4357 1.4129e+03     0.8197     -0.023     -0.033    18.8467 0.0000e+00
     -0.024     -0.003     5.7217     61.487     34.955  30.650195     0.7623      7.218   279.6053 1.3904e+03     0.8527     -0.023     -0.034    18.8443 0.0000e+00
     -0.024     -0.003     5.7032     61.287     34.970  30.662791     0.7686      7.214   279.7219 1.2585e+03     0.8806     -0.023     -0.033    18.8423 0.0000e+00
     -0.026     -0.002     5.6847     61.088     34.956  30.650194     0.7677      7.209   279.7267 1.1304e+03     0.8818     -0.025     -0.037    18.8404 0.0000e+00
     -0.030     -0.001     5.6676     60.903     34.928  30.624906     0.7611      7.204   279.7499 1.2182e+03     0.8672     -0.030     -0.044    18.8392 0.0000e+00
     -0.030      0.000     5.6535     60.752     34.912  30.611062     0.7530      7.201   279.8302 1.3437e+03     0.8563     -0.031     -0.046    18.8387 0.0000e+00
     -0.027      0.001     5.6412     60.622     34.909  30.609812     0.7525      7.200   279.8365 1.3677e+03     0.8733     -0.026     -0.039    18.8376 0.0000e+00
     -0.025      0.001     5.6300     60.501     34.909  30.609802     0.7647      7.200   279.8269 1.3673e+03     0.8893     -0.023     -0.033    18.8364 0.0000e+00
     -0.025      0.001     5.6211     60.403     34.912  30.610937     0.7715      7.202   279.8852 1.3584e+03     0.8665     -0.024     -0.034    18.8357 0.0000e+00
     -0.026      0.000     5.6122     60.305     34.927  30.623532     0.7695      7.205   280.0252 1.2929e+03     0.8418     -0.025     -0.036    18.8362 0.0000e+00
     -0.027     -0.001     5.6023     60.197     34.942  30.635080     0.7685      7.208   280.2295 1.0086e+03     0.8352     -0.026     -0.038    18.8380 0.0000e+00
     -0.027     -0.001     5.5933     60.099     34.930  30.623543     0.7686      7.211   280.3769 5.8019e+02     0.8471     -0.027     -0.040    18.8381 0.0000e+00
     -0.027     -0.001     5.5843     60.001     34.916  30.611051     0.7701      7.213   280.4301 3.4203e+02     0.8640     -0.027     -0.039    18.8359 0.0000e+00
     -0.027     -0.001     5.5730     59.879     34.916  30.611052     0.7694      7.212   280.5284 3.0306e+02     0.8559     -0.026     -0.037    18.8334 0.0000e+00
     -0.027     -0.001     5.5583     59.719     34.931  30.623555     0.7596      7.211   280.7049 2.9957e+02     0.8410     -0.026     -0.038    18.8318 0.0000e+00
     -0.028      0.000     5.5413     59.536     34.945  30.635207     0.7533      7.212   280.8442 2.9856e+02     0.8369     -0.028     -0.040    18.8312 0.0000e+00
     -0.028      0.001     5.5250     59.361     34.934  30.624917     0.7570      7.214   280.9217 2.9662e+02     0.8673     -0.027     -0.040    18.8306 0.0000e+00
     -0.028      0.002     5.5103     59.202     34.936  30.626167     0.7584      7.215   280.9533 2.9657e+02     0.9026     -0.027     -0.040    18.8297 0.0000e+00
     -0.028      0.004     5.4960     59.047     34.964  30.650310     0.7522      7.217   280.8820 2.9652e+02     0.8670     -0.028     -0.040    18.8287 0.0000e+00
     -0.027      0.005     5.4815     58.892     34.979  30.662802     0.7472      7.219   280.8346 3.0095e+02     0.8330     -0.026     -0.038    18.8280 0.0000e+00
     -0.024      0.005     5.4687     58.754     34.965  30.650197     0.7527      7.221   280.8971 3.3638e+02     0.8586     -0.024     -0.035    18.8278 0.0000e+00
     -0.021      0.004     5.4567     58.624     34.936  30.624908     0.7635      7.222   280.9487 5.9255e+02     0.8714     -0.020     -0.030    18.8274 0.0000e+00
     -0.020      0.003     5.4449     58.497     34.921  30.611063     0.7678      7.222   280.9421 1.0444e+03     0.8655     -0.018     -0.026    18.8263 0.0000e+00
     -0.020      0.002     5.4362     58.402     34.920  30.609814     0.7587      7.223   280.9887 1.1507e+03     0.8489     -0.019     -0.028    18.8258 0.0000e+00
     -0.022      0.000     5.4312     58.347     34.920  30.609814     0.7540      7.224   281.1691 1.0410e+03     0.8234     -0.022     -0.031    18.8258 0.0000e+00
     -0.023     -0.001     5.4300     58.337     34.920  30.611064     0.7661      7.223   281.3152 1.1976e+03     0.8309     -0.023     -0.033    18.8254 0.0000e+00
     -0.022     -0.001     5.4327     58.370     34.934  30.624919     0.7768      7.222   281.3788 1.1100e+03     0.8487     -0.022     -0.031    18.8244 0.0000e+00
     -0.020      0.000     5.4384     58.434     34.961  30.650322     0.7733      7.220   281.4232 6.2527e+02     0.8549     -0.020     -0.029    18.8234 0.0000e+00
     -0.020      0.001     5.4468     58.524     34.977  30.664177     0.7602      7.218   281.5077 3.5288e+02     0.8454     -0.020     -0.029    18.8230 0.0000e+00
     -0.021      0.001     5.4587     58.649     34.980  30.665427     0.7561      7.217   281.7109 3.3206e+02     0.8255     -0.021     -0.031    18.8244 0.0000e+00
     -0.022      0.000     5.4749     58.822     34.980  30.665437     0.7692      7.216   281.9017 3.8182e+02     0.8273     -0.022     -0.033    18.8287 0.0000e+00
     -0.021     -0.002     5.4928     59.013     34.980  30.664302     0.7720      7.216   282.0087 4.8463e+02     0.8362     -0.021     -0.030    18.8321 0.0000e+00
     -0.020     -0.002     5.5103     59.199     34.967  30.651706     0.7623      7.218   282.0581 5.1573e+02     0.8420     -0.019     -0.028    18.8311 0.0000e+00
     -0.021     -0.003     5.5278     59.386     34.955  30.640149     0.7808      7.221   282.0685 5.3378e+02     0.8365     -0.020     -0.029    18.8287 0.0000e+00
     -0.023     -0.004     5.5440     59.559     34.969  30.651582     0.8203      7.223   282.1342 5.8283e+02     0.8315     -0.023     -0.034    18.8271 0.0000e+00
     -0.025     -0.004     5.5560     59.688     34.983  30.662920     0.8363      7.225   282.2503 7.5868e+02     0.8423     -0.025     -0.036    18.8261 0.0000e+00
     -0.026     -0.004     5.5644     59.776     34.969  30.650219     0.8268      7.226   282.3543 1.1837e+03     0.8447     -0.025     -0.036    18.8249 0.0000e+00
     -0.027     -0.003     5.5685     59.819     34.940  30.625035     0.8073      7.228   282.5308 1.4681e+03     0.8609     -0.026     -0.038    18.8237 0.0000e+00
     -0.027     -0.001     5.5654     59.785     34.926  30.612447     0.7842      7.229   282.7488 1.4991e+03     0.8859     -0.028     -0.040    18.8225 0.0000e+00
     -0.028      0.003     5.5561     59.685     34.941  30.625035     0.7675      7.229   282.7538 1.4822e+03     0.8717     -0.027     -0.039    18.8213 0.0000e+00
     -0.028      0.005     5.5449     59.565     34.970  30.650220     0.7615      7.228   282.6771 1.2756e+03     0.8414     -0.029     -0.042    18.8204 0.0000e+00
     -0.027      0.005     5.5332     59.441     34.983  30.662920     0.7661      7.226   282.7680 8.1997e+02     0.8248     -0.028     -0.042    18.8200 0.0000e+00
     -0.022      0.005     5.5209     59.311     34.968  30.651581     0.7867      7.225   282.9062 4.3945e+02     0.8547     -0.021     -0.030    18.8195 0.0000e+00
     -0.018      0.005     5.5100     59.195     34.954  30.640148     0.8180      7.223   283.0580 3.4428e+02     0.9274     -0.015     -0.022    18.8188 0.0000e+00
     -0.018      0.004     5.5002     59.090     34.968  30.651696     0.8320      7.222   283.2263 6.1856e+02     0.9416     -0.016     -0.024    18.8187 0.0000e+00
     -0.021      0.003     5.4913     58.997     34.981  30.664189     0.8275      7.221   283.3067 1.1343e+03     0.8736     -0.020     -0.031    18.8211 0.0000e+00
     -0.021      0.001     5.4846     58.928     34.978  30.664189     0.8193      7.220   283.3408 1.4235e+03     0.8074     -0.022     -0.032    18.8250 0.0000e+00
     -0.019      0.000     5.4790     58.871     34.962  30.651696     0.8153      7.219   283.4670 1.4628e+03     0.8122     -0.018     -0.027    18.8247 0.0000e+00
     -0.018      0.001     5.4762     58.848     34.944  30.640159     0.8242      7.217   283.6284 1.4756e+03     0.8702     -0.016     -0.024    18.8233 0.0000e+00
     -0.019      0.002     5.5037     59.161     34.945  30.651704     0.8357      7.217   283.7429 1.4841e+03     0.8988     -0.018     -0.026    18.8250 0.0000e+00
     -0.019      0.002     5.6363     60.619     34.939  30.664298     0.8339      7.218   283.8184 1.4851e+03     0.8838     -0.019     -0.028    18.8291 0.0000e+00
     -0.019      0.001     5.9552     64.082     34.921  30.665441     0.8301      7.218   283.8532 1.4802e+03     0.8711     -0.019     -0.027    18.8324 0.0000e+00
     -0.018      0.001     6.4756     69.704     34.908  30.665543     0.8364      7.219   283.9063 1.4742e+03     0.8672     -0.018     -0.026    18.8325 0.0000e+00
     -0.016      0.001     7.1229     76.686     34.901  30.665541     0.8364      7.220   284.0298 1.4622e+03     0.8678     -0.016     -0.023    18.8467 0.0000e+00
     -0.016      0.001     7.7839     83.811     34.896  30.665428     0.8300      7.223   284.1422 1.4476e+03     0.8786     -0.015     -0.022    18.8794 0.0000e+00
     -0.016      0.000     8.3821     90.256     34.893  30.664178     0.8334      7.226   284.2335 1.4442e+03     0.8754     -0.016     -0.023    18.9063 0.0000e+00
     -0.017     -0.001     8.8731     95.543     34.877  30.650435     0.8409      7.226   284.3587 1.4532e+03     0.8596     -0.017     -0.024    18.9212 0.0000e+00
     -0.017     -0.001     9.2224     99.304     34.849  30.626282     0.8462      7.226   284.4520 1.4627e+03     0.8702     -0.017     -0.025    18.9300 0.0000e+00
     -0.017     -0.001     9.4197    101.428     34.849  30.626168     0.8611      7.225   284.5015 1.4707e+03     0.8815     -0.017     -0.024    18.9346 0.0000e+00
     -0.018      0.000     9.4766    102.039     34.876  30.649063     0.8831      7.225   284.5268 1.4819e+03     0.8747     -0.017     -0.025    18.9365 0.0000e+00
     -0.018 -1.861e-08     9.4268    101.501     34.877  30.649062     0.9008      7.225   284.5849 1.4902e+03     0.8795     -0.019     -0.027    18.9367 0.0000e+00
     -0.018 -2.047e-07     9.3255    100.409     34.852  30.626158     0.9100      7.226   284.6021 1.4882e+03     0.8786     -0.018     -0.026    18.9367 0.0000e+00
     -0.017 -2.047e-07     9.2164     99.233     34.852  30.626158     0.9021      7.228   284.5624 1.4808e+03     0.8639     -0.017     -0.024    18.9363 0.0000e+00
     -0.017 -1.861e-08     9.1150     98.140     34.878  30.649063     0.8691      7.228   284.7075 1.4762e+03     0.8548     -0.017     -0.024    18.9352 0.0000e+00
     -0.017 -1.692e-09     9.0291     97.214     34.878  30.649063     0.8341      7.229   284.9794 1.4723e+03     0.8595     -0.016     -0.023    18.9344 0.0000e+00
     -0.018 -1.538e-10     8.9593     96.462     34.853  30.626168     0.8279      7.232   285.0966 1.4680e+03     0.8897     -0.017     -0.024    18.9337 0.0000e+00
     -0.018 -1.399e-11     8.8996     95.817     34.854  30.626273     0.8309      7.234   285.0925 1.4674e+03     0.9153     -0.017     -0.025    18.9330 0.0000e+00
     -0.018 -1.271e-12     8.8509     95.291     34.882  30.650323     0.8419      7.235   285.1883 1.4688e+03     0.9251     -0.018     -0.026    18.9324 0.0000e+00
     -0.017 -1.156e-13     8.8142     94.895     34.897  30.662929     0.8691      7.235   285.3943 1.4692e+03     0.9162     -0.017     -0.025    18.9321 0.0000e+00
     -0.017 -1.050e-14     8.7879     94.612     34.883  30.651675     0.8845      7.235   285.6049 1.4690e+03     0.8687     -0.017     -0.024    18.9319 0.0000e+00
     -0.017 -9.544e-16     8.7711     94.430     34.872  30.641273     0.8905      7.236   285.7557 1.4699e+03     0.8393     -0.017     -0.025    18.9307 0.0000e+00
     -0.017 -7.967e-17     8.7600     94.307     34.900  30.664166     0.8859      7.236   285.8406 1.4724e+03     0.8349     -0.017     -0.024    18.9293 0.0000e+00
     -0.017 7.1104e-17     8.7514     94.212     34.913  30.674445     0.8568      7.236   285.9427 1.4745e+03     0.8160     -0.017     -0.024    18.9288 0.0000e+00
     -0.017 8.6827e-16     8.7459     94.147     34.874  30.638536     0.8318      7.235   285.9580 1.4739e+03     0.8242     -0.017     -0.025    18.9297 0.0000e+00
     -0.018 9.5588e-15     8.7445     94.126     34.846  30.611043     0.8320      7.235   285.8530 1.4728e+03     0.8734     -0.017     -0.025    18.9295 0.0000e+00
     -0.018 1.0515e-13     8.7451     94.126     34.831  30.596053     0.8323      7.235   285.8786 1.4735e+03     0.8918     -0.018     -0.026    18.9271 0.0000e+00
     -0.017 1.1566e-12     8.7436     94.105     34.820  30.584298     0.8263      7.235   286.0946 1.4731e+03     0.8631     -0.017     -0.025    18.9253 0.0000e+00
     -0.017 1.2723e-11     8.7374     94.035     34.835  30.595929     0.8238      7.234   286.3138 1.4722e+03     0.8323     -0.016     -0.024    18.9237 0.0000e+00
     -0.017 1.3995e-10     8.7278     93.930     34.851  30.609668     0.8198      7.234   286.4637 1.4707e+03     0.8250     -0.017     -0.025    18.9198 0.0000e+00
     -0.017 1.5395e-09     8.7190     93.833     34.868  30.623400     0.8234      7.234   286.5310 1.4685e+03     0.8359     -0.017     -0.025    18.9157 0.0000e+00
     -0.017 1.6934e-08     8.7139     93.773     34.883  30.634946     0.8310      7.234   286.4395 1.4691e+03     0.8418     -0.017     -0.024    18.9131 0.0000e+00
     -0.017 1.8627e-07     8.7108     93.730     34.873  30.622255     0.8291      7.233   286.3038 1.4679e+03     0.8348     -0.017     -0.024    18.9120 0.0000e+00
     -0.017 1.8627e-07     8.7083     93.693     34.848  30.596959     0.8285      7.232   286.3524 1.4629e+03     0.8423     -0.016     -0.024    18.9111 0.0000e+00
     -0.017 1.6934e-08     8.7097     93.698     34.836  30.583123     0.8334      7.232   286.5969 1.4617e+03     0.8723     -0.018     -0.026    18.9099 0.0000e+00
     -0.017 1.5395e-09     8.7132     93.728     34.838  30.581970     0.8418      7.231   286.8519 1.4655e+03     0.8611     -0.017     -0.025    18.9076 0.0000e+00
     -0.017 1.3995e-10     8.7144     93.734     34.842  30.583010     0.8476      7.230   286.9395 1.4690e+03     0.8299     -0.017     -0.024    18.9022 0.0000e+00
     -0.017 1.2723e-11     8.7146     93.732     34.859  30.595702     0.8388      7.230   286.8818 1.4685e+03     0.8301     -0.017     -0.024    18.8958 0.0000e+00
     -0.018 1.1558e-12     8.7139     93.723     34.874  30.608412     0.8277      7.230   286.9290 1.4667e+03     0.8336     -0.017     -0.025    18.8909 0.0000e+00
     -0.018 9.5736e-14     8.7121     93.703     34.875  30.609672     0.8240      7.231   286.9934 1.4666e+03     0.8408     -0.017     -0.025    18.8868 0.0000e+00
     -0.017 -9.400e-14     8.7093     93.676     34.875  30.610931     0.8213      7.232   286.9728 1.4671e+03     0.8565     -0.016     -0.024    18.8834 0.0000e+00
     -0.017 -1.138e-12     8.7045     93.631     34.887  30.623641     0.8232      7.232   287.1099 1.4684e+03     0.8708     -0.017     -0.024    18.8807 0.0000e+00
     -0.017 -1.253e-11     8.6987     93.579     34.897  30.636334     0.8283      7.233   287.2742 1.4693e+03     0.8618     -0.016     -0.024    18.8800 0.0000e+00
     -0.017 -1.378e-10     8.6932     93.531     34.893  30.637394     0.8181      7.234   287.3242 1.4704e+03     0.8389     -0.017     -0.024    18.8804 0.0000e+00
     -0.017 -1.516e-09     8.6890     93.500     34.887  30.636458     0.7920      7.234   287.3703 1.4724e+03     0.8377     -0.017     -0.024    18.8812 0.0000e+00
     -0.017 -1.668e-08     8.6855     93.477     34.867  30.625024     0.7691      7.234   287.4015 1.4736e+03     0.8467     -0.017     -0.025    18.8852 0.0000e+00
     -0.016 -1.835e-07     8.6811     93.445     34.862  30.626169     0.7623      7.235   287.4432 1.4726e+03     0.8567     -0.016     -0.024    18.8907 0.0000e+00
     -0.016      0.000     8.6760     93.402     34.885  30.650314     0.7839      7.235   287.5311 1.4692e+03     0.8670     -0.015     -0.022    18.8962 0.0000e+00
     -0.016     -0.000     8.6719     93.366     34.895  30.662929     0.8179      7.235   287.6894 1.4658e+03     0.8802     -0.016     -0.023    18.9036 0.0000e+00
     -0.017     -0.000     8.6707     93.359     34.880  30.651686     0.8335      7.235   287.8093 1.4643e+03     0.8943     -0.017     -0.025    18.9124 0.0000e+00
     -0.017     -0.003     8.6712     93.370     34.866  30.641398     0.8346      7.234   287.7749 1.4645e+03     0.8841     -0.017     -0.025    18.9206 0.0000e+00
     -0.017     -0.010     8.6693     93.354     34.892  30.665551     0.8405      7.233   287.7044 1.4658e+03     0.8481     -0.016     -0.024    18.9270 0.0000e+00
     -0.017     -0.020     8.6628     93.289     34.917  30.689695     0.8498      7.230   287.6448 1.4637e+03     0.8260     -0.016     -0.023    18.9317 0.0000e+00
     -0.017     -0.030     8.6539     93.200     34.903  30.679293     0.8462      7.228   287.6572 1.4547e+03     0.8305     -0.015     -0.021    18.9349 0.0000e+00
     -0.025     -0.035     8.6474     93.136     34.886  30.666801     0.8422      7.223   287.8544 1.4314e+03     0.8415     -0.019     -0.028    18.9376 0.0000e+00
     -0.045     -0.034     8.6447     93.112     34.883  30.665676     0.8473      7.212   288.0501 1.1811e+03     0.8366     -0.042     -0.062    18.9397 0.0000e+00
     -0.067     -0.026     8.6430     93.096     34.882  30.665686     0.8446      7.191   288.1302 7.4626e+02     0.8325     -0.071     -0.102    18.9413 0.0000e+00
     -0.078     -0.016     8.6414     93.078     34.884  30.666926     0.8366      7.165   288.2206 7.7016e+02     0.8535     -0.082     -0.120    18.9452 0.0000e+00
     -0.074     -0.004     8.6434     93.098     34.899  30.680668     0.8335      7.143   288.1969 1.2180e+03     0.8455     -0.076     -0.110    18.9497 0.0000e+00
     -0.062      0.007     8.6503     93.172     34.927  30.704821     0.8345      7.131   288.1015 1.4501e+03     0.7978     -0.058     -0.085    18.9521 0.0000e+00
     -0.052      0.012     8.6583     93.258     34.927  30.704935     0.8394      7.129   288.1862 1.4615e+03     0.7952     -0.047     -0.068    18.9527 0.0000e+00
     -0.049      0.012     8.6651     93.328     34.902  30.682041     0.8470      7.133   288.3597 1.4650e+03     0.8432     -0.048     -0.069    18.9521 0.0000e+00
     -0.051      0.007     8.6696     93.372     34.904  30.682041     0.8436      7.138   288.4789 1.4661e+03     0.8599     -0.050     -0.072    18.9517 0.0000e+00
     -0.053      0.002     8.6711     93.384     34.932  30.704934     0.8356      7.142   288.6813 1.4713e+03     0.8448     -0.052     -0.075    18.9515 0.0000e+00
     -0.053     -0.001     8.6685     93.354     34.933  30.704810     0.8426      7.144   289.0003 1.4793e+03     0.8433     -0.052     -0.076    18.9513 0.0000e+00
     -0.052     -0.001     8.6613     93.274     34.906  30.680542     0.8448      7.147   289.0655 1.4810e+03     0.8424     -0.051     -0.074    18.9498 0.0000e+00
     -0.052     -0.000     8.6517     93.170     34.890  30.665542     0.8353      7.155   288.9535 1.4799e+03     0.8337     -0.051     -0.073    18.9471 0.0000e+00
     -0.052 -1.838e-08     8.6456     93.105     34.872  30.650447     0.8377      7.164   289.0227 1.4775e+03     0.8298     -0.051     -0.073    18.9448 0.0000e+00
     -0.052 -2.022e-07     8.6457     93.108     34.842  30.625044     0.8459      7.173   289.1279 1.4795e+03     0.8253     -0.051     -0.073    18.9430 0.0000e+00
     -0.052 -2.022e-07     8.6514     93.171     34.827  30.612437     0.8426      7.182   289.1931 1.4841e+03     0.8407     -0.051     -0.074    18.9419 0.0000e+00
     -0.053 -1.838e-08     8.6624     93.292     34.841  30.625032     0.8340      7.190   289.2087 1.4846e+03     0.8940     -0.052     -0.075    18.9416 0.0000e+00
     -0.053 -1.671e-09     8.6749     93.427     34.869  30.650312     0.8342      7.196   289.2305 1.4828e+03     0.9207     -0.052     -0.075    18.9425 0.0000e+00
     -0.052 -1.519e-10     8.6863     93.551     34.884  30.664062     0.8362      7.200   289.3710 1.4810e+03     0.8884     -0.051     -0.074    18.9438 0.0000e+00
     -0.052 -1.381e-11     8.6970     93.668     34.884  30.664281     0.8307      7.202   289.5310 1.4800e+03     0.8701     -0.051     -0.073    18.9448 0.0000e+00
     -0.052 -1.255e-12     8.7066     93.774     34.870  30.652953     0.8312      7.204   289.6169 1.4803e+03     0.8822     -0.051     -0.073    18.9458 0.0000e+00
     -0.052 -1.141e-13     8.7142     93.858     34.870  30.654118     0.8426      7.205   289.5486 1.4818e+03     0.8819     -0.051     -0.074    18.9464 0.0000e+00
     -0.052 -1.037e-14     8.7196     93.919     34.896  30.678367     0.8489      7.206   289.4790 1.4823e+03     0.8664     -0.052     -0.076    18.9468 0.0000e+00
     -0.052 -9.430e-16     8.7242     93.972     34.911  30.692108     0.8432      7.207   289.5504 1.4799e+03     0.8478     -0.051     -0.075    18.9477 0.0000e+00
     -0.052 -8.575e-17     8.7268     94.004     34.911  30.693244     0.8379      7.208   289.6376 1.4771e+03     0.8408     -0.051     -0.074    18.9490 0.0000e+00
     -0.052 -7.794e-18     8.7260     93.999     34.907  30.692107     0.8399      7.210   289.6733 1.4766e+03     0.8428     -0.050     -0.073    18.9503 0.0000e+00
     -0.052 -6.966e-19     8.7224     93.965     34.890  30.678366     0.8400      7.213   289.7235 1.4781e+03     0.8404     -0.051     -0.073    18.9514 0.0000e+00
     -0.052 6.6177e-20     8.7172     93.911     34.862  30.654119     0.8304      7.215   289.9003 1.4806e+03     0.8428     -0.051     -0.074    18.9531 0.0000e+00
     -0.052 1.4305e-18     8.7095     93.829     34.860  30.652964     0.8242      7.218   290.0902 1.4837e+03     0.8723     -0.051     -0.074    18.9552 0.0000e+00
     -0.052 1.5799e-17     8.6997     93.724     34.873  30.664406     0.8301      7.221   290.1258 1.4865e+03     0.9213     -0.051     -0.074    18.9574 0.0000e+00
     -0.052 1.7380e-16     8.6892     93.611     34.874  30.665446     0.8277      7.223   290.1597 1.4892e+03     0.9169     -0.051     -0.074    18.9598 0.0000e+00
     -0.052 1.9118e-15     8.6779     93.489     34.874  30.665540     0.8225      7.226   290.2421 1.4899e+03     0.8500     -0.051     -0.074    18.9616 0.0000e+00
     -0.052 2.1030e-14     8.6662     93.364     34.873  30.665548     0.8315      7.229   290.3481 1.4884e+03     0.8144     -0.051     -0.074    18.9620 0.0000e+00
     -0.052 2.3133e-13     8.6542     93.237     34.872  30.665539     0.8359      7.233   290.4936 1.4896e+03     0.8516     -0.051     -0.074    18.9615 0.0000e+00
     -0.052 2.5446e-12     8.6432     93.121     34.871  30.665434     0.8296      7.235   290.5394 1.4933e+03     0.9036     -0.051     -0.074    18.9617 0.0000e+00
     -0.052 2.7990e-11     8.6356     93.042     34.869  30.664279     0.8200      7.236   290.5578 1.4954e+03     0.8944     -0.051     -0.074    18.9621 0.0000e+00
     -0.052 3.0789e-10     8.6350     93.037     34.853  30.651578     0.8111      7.237   290.7156 1.4955e+03     0.8621     -0.051     -0.073    18.9625 0.0000e+00
     -0.052 3.3868e-09     8.6415     93.110     34.838  30.638887     0.8148      7.238   290.8992 1.4947e+03     0.8487     -0.051     -0.074    18.9636 0.0000e+00
     -0.052 3.7255e-08     8.6504     93.207     34.837  30.637837     0.8271      7.239   290.9705 1.4943e+03     0.8543     -0.051     -0.074    18.9649 0.0000e+00
     -0.052 4.0981e-07     8.6582     93.291     34.838  30.638888     0.8311      7.240   290.8896 1.4971e+03     0.8691     -0.051     -0.074    18.9660 0.0000e+00
     -0.052      0.000     8.6643     93.356     34.853  30.651589     0.8261      7.242   290.7811 1.4992e+03     0.8443     -0.052     -0.075    18.9674 0.0000e+00
     -0.052      0.000     8.6690     93.405     34.868  30.664393     0.8224      7.242   290.8631 1.4932e+03     0.8298     -0.051     -0.074    18.9687 0.0000e+00
     -0.052      0.001     8.6722     93.438     34.870  30.666683     0.8238      7.242   291.0211 1.4878e+03     0.8456     -0.052     -0.075    18.9693 0.0000e+00
     -0.052      0.001     8.6747     93.464     34.885  30.679280     0.8334      7.243   291.1420 1.4892e+03     0.8525     -0.052     -0.075    18.9694 0.0000e+00
     -0.051      0.001     8.6761     93.477     34.898  30.689691     0.8368      7.243   291.2932 1.4912e+03     0.8515     -0.050     -0.073    18.9688 0.0000e+00
     -0.051      0.001     8.6746     93.458     34.872  30.665540     0.8285      7.242   291.3864 1.4958e+03     0.8342     -0.050     -0.072    18.9683 0.0000e+00
     -0.051      0.001     8.6704     93.408     34.846  30.641293     0.8247      7.242   291.3219 1.4995e+03     0.8261     -0.050     -0.073    18.9674 0.0000e+00
     -0.051      0.001     8.6656     93.354     34.858  30.650549     0.8281      7.242   291.2875 1.4985e+03     0.8454     -0.051     -0.073    18.9664 0.0000e+00
     -0.051      0.001     8.6607     93.299     34.859  30.650444     0.8412      7.242   291.4010 1.4975e+03     0.8542     -0.050     -0.072    18.9655 0.0000e+00
     -0.051      0.001     8.6554     93.241     34.847  30.640023     0.8637      7.242   291.4895 1.4956e+03     0.8406     -0.050     -0.072    18.9636 0.0000e+00
     -0.051      0.001     8.6519     93.202     34.861  30.651569     0.8804      7.243   291.4975 1.4932e+03     0.8339     -0.049     -0.071    18.9616 0.0000e+00
     -0.051      0.001     8.6503     93.183     34.875  30.663029     0.8865      7.243   291.4982 1.4921e+03     0.8646     -0.050     -0.072    18.9605 0.0000e+00
     -0.050      0.001     8.6537     93.218     34.862  30.651569     0.8919      7.243   291.5838 1.4884e+03     0.8758     -0.049     -0.071    18.9597 0.0000e+00
     -0.050      0.000     8.6659     93.348     34.849  30.640022     0.8905      7.243   291.7580 1.4838e+03     0.8173     -0.049     -0.070    18.9587 0.0000e+00
     -0.050 1.8627e-08     8.6818     93.519     34.862  30.650433     0.8785      7.242   291.8843 1.4809e+03     0.7973     -0.049     -0.071    18.9576 0.0000e+00
     -0.050 2.0490e-07     8.6960     93.672     34.862  30.650423     0.8755      7.242   291.9057 1.4778e+03     0.8488     -0.049     -0.070    18.9567 0.0000e+00
     -0.050 2.0487e-07     8.7105     93.828     34.850  30.639908     0.8726      7.243   291.9306 1.4792e+03     0.8908     -0.049     -0.071    18.9561 0.0000e+00
     -0.050 1.8292e-08     8.7226     93.959     34.862  30.650309     0.8531      7.243   292.0132 1.4849e+03     0.8769     -0.049     -0.071    18.9556 0.0000e+00
     -0.050 -1.999e-09     8.7273     94.009     34.860  30.649174     0.8320      7.243   292.0447 1.4863e+03     0.8337     -0.049     -0.071    18.9555 0.0000e+00
     -0.050 -4.046e-08     8.7247     93.980     34.835  30.626175     0.8190      7.244   292.0530 1.4843e+03     0.8254     -0.049     -0.070    18.9553 0.0000e+00
     -0.050 -4.467e-07     8.7152     93.877     34.835  30.626270     0.8246      7.244   292.1135 1.4837e+03     0.8377     -0.049     -0.070    18.9553 0.0000e+00
     -0.050      0.000     8.7010     93.723     34.862  30.650319     0.8362      7.243   292.1734 1.4803e+03     0.8294     -0.049     -0.071    18.9554 0.0000e+00
     -0.050      0.000     8.6856     93.558     34.877  30.662917     0.8304      7.243   292.2615 1.4731e+03     0.8173     -0.049     -0.070    18.9552 0.0000e+00
     -0.050     -0.001     8.6734     93.427     34.864  30.651569     0.8285      7.243   292.4047 1.4684e+03     0.8134     -0.049     -0.070    18.9548 0.0000e+00
     -0.050     -0.002     8.6659     93.346     34.851  30.640126     0.8505      7.243   292.6137 1.4679e+03     0.8430     -0.048     -0.070    18.9545 0.0000e+00
     -0.050     -0.002     8.6603     93.286     34.864  30.651579     0.8746      7.243   292.7236 1.4703e+03     0.9014     -0.049     -0.071    18.9542 0.0000e+00
     -0.051     -0.001     8.6555     93.235     34.877  30.663031     0.8806      7.243   292.6142 1.4764e+03     0.9091     -0.050     -0.073    18.9541 0.0000e+00
     -0.053     -0.001     8.6496     93.171     34.863  30.651578     0.8876      7.243   292.5824 1.4837e+03     0.8754     -0.052     -0.076    18.9543 0.0000e+00
     -0.053     -0.001     8.6416     93.086     34.850  30.640127     0.9031      7.243   292.6837 1.4839e+03     0.8597     -0.053     -0.077    18.9541 0.0000e+00
     -0.052      0.000     8.6344     93.007     34.864  30.651589     0.9123      7.243   292.7197 1.4773e+03     0.8714     -0.050     -0.073    18.9544 0.0000e+00
     -0.051 -4.249e-07     8.6301     92.960     34.877  30.663146     0.9072      7.243   292.7598 1.4708e+03     0.8952     -0.049     -0.071    18.9549 0.0000e+00
     -0.051     -0.000     8.6299     92.958     34.866  30.652841     0.8964      7.243   292.8238 1.4671e+03     0.9033     -0.050     -0.073    18.9550 0.0000e+00
     -0.052     -0.000     8.6348     93.010     34.867  30.654004     0.8922      7.243   292.8063 1.4661e+03     0.8777     -0.051     -0.074    18.9551 0.0000e+00
     -0.052     -0.001     8.6439     93.109     34.893  30.677211     0.8935      7.242   292.8056 1.4645e+03     0.8606     -0.052     -0.075    18.9549 0.0000e+00
     -0.052     -0.001     8.6544     93.221     34.896  30.679406     0.8936      7.240   292.9018 1.4615e+03     0.8793     -0.051     -0.074    18.9546 0.0000e+00
     -0.052     -0.000     8.6641     93.326     34.897  30.680542     0.8931      7.237   293.0230 1.4594e+03     0.8907     -0.051     -0.074    18.9544 0.0000e+00
     -0.052 -1.847e-08     8.6736     93.429     34.909  30.690942     0.8968      7.235   293.1524 1.4596e+03     0.8761     -0.051     -0.074    18.9543 0.0000e+00
     -0.052 -2.032e-07     8.6796     93.493     34.894  30.678147     0.9111      7.233   293.2622 1.4620e+03     0.8558     -0.051     -0.074    18.9541 0.0000e+00
     -0.052 -2.032e-07     8.6794     93.491     34.864  30.652851     0.9368      7.232   293.4040 1.4625e+03     0.8580     -0.051     -0.074    18.9539 0.0000e+00
     -0.052 -1.847e-08     8.6770     93.466     34.849  30.639116     0.9502      7.232   293.5764 1.4605e+03     0.8721     -0.051     -0.073    18.9539 0.0000e+00
     -0.052 -1.680e-09     8.6745     93.440     34.849  30.639099     0.9533      7.232   293.6253 1.4583e+03     0.8742     -0.051     -0.073    18.9541 0.0000e+00
     -0.052 -1.527e-10     8.6723     93.417     34.864  30.652641     0.9562      7.233   293.6510 1.4558e+03     0.8829     -0.051     -0.074    18.9548 0.0000e+00
     -0.052 -1.388e-11     8.6748     93.443     34.890  30.675837     0.9582      7.234   293.7156 1.4514e+03     0.8860     -0.051     -0.074    18.9552 0.0000e+00
     -0.051 -1.262e-12     8.6818     93.518     34.879  30.665540     0.9676      7.234   293.7181 1.4460e+03     0.8805     -0.050     -0.073    18.9555 0.0000e+00
     -0.051 -1.147e-13     8.6905     93.612     34.868  30.655148     0.9686      7.234   293.7664 1.4444e+03     0.8788     -0.050     -0.073    18.9557 0.0000e+00
     -0.052 -1.043e-14     8.6998     93.711     34.893  30.677201     0.9610      7.234   293.8699 1.4435e+03     0.8648     -0.051     -0.074    18.9557 0.0000e+00
     -0.052 -9.480e-16     8.7041     93.758     34.894  30.678156     0.9585      7.234   293.9370 1.4394e+03     0.8633     -0.051     -0.073    18.9554 0.0000e+00
     -0.052 -8.620e-17     8.6993     93.706     34.880  30.666696     0.9569      7.233   294.0612 1.4335e+03     0.8608     -0.052     -0.075    18.9551 0.0000e+00
     -0.052 -7.835e-18     8.6884     93.589     34.879  30.665654     0.9603      7.232   294.1681 1.4287e+03     0.8345     -0.051     -0.074    18.9550 0.0000e+00
     -0.052 -7.119e-19     8.6774     93.471     34.879  30.665560     0.9625      7.232   294.1969 1.4286e+03     0.8195     -0.051     -0.073    18.9549 0.0000e+00
     -0.052 -6.363e-20     8.6707     93.399     34.879  30.665550     0.9384      7.233   294.3232 1.4288e+03     0.8330     -0.051     -0.074    18.9549 0.0000e+00
     -0.052 6.4721e-21     8.6687     93.377     34.879  30.665540     0.9071      7.233   294.4904 1.4261e+03     0.8754     -0.051     -0.073    18.9550 0.0000e+00
     -0.052 1.3539e-19     8.6669     93.357     34.879  30.665435     0.9059      7.234   294.5835 1.4209e+03     0.9054     -0.051     -0.074    18.9549 0.0000e+00
     -0.052 1.4952e-18     8.6618     93.302     34.878  30.664290     0.9144      7.235   294.5895 1.4142e+03     0.8894     -0.051     -0.074    18.9551 0.0000e+00
     -0.052 1.6447e-17     8.6571     93.252     34.863  30.651694     0.9093      7.235   294.4761 1.4086e+03     0.8657     -0.051     -0.074    18.9549 0.0000e+00
     -0.052 1.8092e-16     8.6571     93.252     34.850  30.640146     0.8993      7.233   294.4162 1.4066e+03     0.8627     -0.050     -0.072    18.9548 0.0000e+00
     -0.052 1.9901e-15     8.6589     93.272     34.863  30.651684     0.8946      7.230   294.5547 1.4065e+03     0.8844     -0.051     -0.073    18.9549 0.0000e+00
     -0.052 2.1891e-14     8.6583     93.266     34.878  30.664176     0.8984      7.225   294.7741 1.4057e+03     0.8838     -0.051     -0.074    18.9548 0.0000e+00
     -0.052 2.4080e-13     8.6541     93.221     34.878  30.664177     0.8993      7.220   294.9174 1.4059e+03     0.8554     -0.052     -0.075    18.9549 0.0000e+00
     -0.051 2.6488e-12     8.6477     93.153     34.863  30.651694     0.8959      7.215   294.9113 1.4083e+03     0.8765     -0.051     -0.073    18.9550 0.0000e+00
     -0.051 2.9137e-11     8.6396     93.067     34.849  30.640260     0.9029      7.211   294.8717 1.4098e+03     0.8950     -0.050     -0.072    18.9552 0.0000e+00
     -0.051 3.2051e-10     8.6279     92.943     34.863  30.652944     0.9105      7.209   294.9544 1.4080e+03     0.8655     -0.051     -0.073    18.9552 0.0000e+00
     -0.051 3.5256e-09     8.6098     92.748     34.892  30.678043     0.9140      7.206   295.0511 1.4031e+03     0.8850     -0.050     -0.072    18.9554 0.0000e+00
     -0.052 3.8782e-08     8.5843     92.473     34.905  30.689694     0.9272      7.204   295.0096 1.3996e+03     0.9485     -0.051     -0.073    18.9559 0.0000e+00
     -0.052 4.2660e-07     8.5558     92.164     34.879  30.666800     0.9420      7.202   294.9680 1.4013e+03     0.9623     -0.051     -0.074    18.9565 0.0000e+00
     -0.051      0.000     8.5283     91.868     34.866  30.655262     0.9546      7.199   294.9787 1.4022e+03     0.9297     -0.050     -0.073    18.9572 0.0000e+00
     -0.051      0.000     8.5015     91.580     34.890  30.677211     0.9697      7.195   294.9663 1.3967e+03     0.8904     -0.049     -0.072    18.9578 0.0000e+00
     -0.051      0.001     8.4737     91.283     34.890  30.678156     0.9690      7.192   294.9903 1.3482e+03     0.8526     -0.050     -0.071    18.9575 0.0000e+00
     -0.051      0.001     8.4491     91.021     34.876  30.666685     0.9540      7.191   295.0978 1.2036e+03     0.8388     -0.050     -0.073    18.9570 0.0000e+00
     -0.051      0.001     8.4324     90.841     34.875  30.665540     0.9547      7.191   295.2325 1.0411e+03     0.8462     -0.051     -0.073    18.9571 0.0000e+00
     -0.051      0.001     8.4230     90.739     34.874  30.664310     0.9681      7.192   295.2426 9.5734e+02     0.8496     -0.050     -0.072    18.9577 0.0000e+00
     -0.050      0.001     8.4205     90.711     34.860  30.651808     0.9785      7.194   295.1341 8.5184e+02     0.8493     -0.049     -0.071    18.9590 0.0000e+00
     -0.050      0.000     8.4223     90.729     34.849  30.641396     0.9879      7.196   295.0384 8.0615e+02     0.8428     -0.048     -0.070    18.9601 0.0000e+00
     -0.050 1.7088e-08     8.4278     90.786     34.877  30.665436     0.9991      7.201   295.0322 1.0056e+03     0.8326     -0.049     -0.072    18.9601 0.0000e+00
     -0.050 1.8797e-07     8.4384     90.901     34.903  30.688434     1.0129      7.206   295.2317 1.2354e+03     0.8476     -0.050     -0.071    18.9595 0.0000e+00
     -0.050 1.8797e-07     8.4516     91.044     34.877  30.665435     1.0258      7.211   295.5574 1.3205e+03     0.8720     -0.049     -0.071    18.9588 0.0000e+00
     -0.050 1.7088e-08     8.4645     91.184     34.850  30.641386     1.0259      7.214   295.6154 1.3453e+03     0.8527     -0.050     -0.073    18.9584 0.0000e+00
     -0.050 1.5535e-09     8.4712     91.256     34.861  30.651693     1.0241      7.216   295.5015 1.2808e+03     0.8277     -0.049     -0.072    18.9582 0.0000e+00
     -0.049 1.4225e-10     8.4726     91.270     34.874  30.663040     1.0315      7.217   295.4710 1.0104e+03     0.8448     -0.048     -0.070    18.9579 0.0000e+00
     -0.049 2.4165e-11     8.4731     91.274     34.861  30.651569     1.0324      7.220   295.4199 6.4679e+02     0.8761     -0.048     -0.070    18.9581 0.0000e+00
     -0.050 1.3743e-10     8.4691     91.230     34.848  30.640011     1.0263      7.224   295.3988 4.3492e+02     0.8709     -0.049     -0.071    18.9584 0.0000e+00
     -0.050 1.5117e-09     8.4612     91.143     34.861  30.650310     1.0216      7.227   295.3873 3.7657e+02     0.8433     -0.049     -0.071    18.9579 0.0000e+00
     -0.050 1.6629e-08     8.4491     91.011     34.860  30.649071     1.0220      7.229   295.3676 3.6061e+02     0.8472     -0.048     -0.070    18.9579 0.0000e+00
     -0.050 1.8292e-07     8.4358     90.866     34.834  30.625031     1.0406      7.229   295.4190 3.5605e+02     0.8567     -0.049     -0.071    18.9576 0.0000e+00
     -0.049 1.4932e-07     8.4307     90.811     34.821  30.613683     1.0714      7.230   295.4921 3.5675e+02     0.8367     -0.048     -0.070    18.9567 0.0000e+00
     -0.049 -3.895e-07     8.4391     90.901     34.850  30.638877     1.0817      7.230   295.5635 3.6185e+02     0.8187     -0.048     -0.070    18.9562 0.0000e+00
     -0.050      0.000     8.4542     91.063     34.892  30.675609     1.0823      7.230   295.6796 4.0521e+02     0.8530     -0.049     -0.072    18.9554 0.0000e+00
     -0.050      0.000     8.4631     91.158     34.894  30.676764     1.0886      7.230   295.7775 5.6626e+02     0.8842     -0.050     -0.072    18.9544 0.0000e+00
     -0.050     -0.001     8.4679     91.209     34.867  30.652840     1.0843      7.229   295.8005 8.2573e+02     0.8607     -0.049     -0.071    18.9535 0.0000e+00
     -0.050     -0.001     8.4698     91.229     34.853  30.640376     1.0768      7.229   295.8721 1.0471e+03     0.8427     -0.049     -0.071    18.9530 0.0000e+00
     -0.050      0.000     8.4651     91.177     34.868  30.653079     1.0795      7.230   296.0404 1.1219e+03     0.8501     -0.048     -0.070    18.9531 0.0000e+00
     -0.050      0.000     8.4567     91.087     34.898  30.679409     1.0891      7.230   296.2010 1.0532e+03     0.8591     -0.049     -0.071    18.9529 0.0000e+00
     -0.051     -0.001     8.4448     90.958     34.927  30.704706     1.0925      7.229   296.2661 9.6394e+02     0.8603     -0.050     -0.073    18.9523 0.0000e+00
     -0.051     -0.001     8.4298     90.798     34.927  30.704913     1.0833      7.229   296.2251 9.4249e+02     0.8339     -0.050     -0.073    18.9521 0.0000e+00
     -0.051     -0.001     8.4132     90.619     34.901  30.681915     1.0706      7.229   296.2212 9.5846e+02     0.7835     -0.050     -0.072    18.9520 0.0000e+00
     -0.051      0.000     8.3957     90.429     34.899  30.680667     1.0677      7.229   296.3046 9.8888e+02     0.8011     -0.050     -0.072    18.9516 0.0000e+00
     -0.051      0.001     8.3778     90.236     34.910  30.689818     1.0757      7.229   296.3740 1.0629e+03     0.8635     -0.050     -0.073    18.9514 0.0000e+00
     -0.051      0.001     8.3600     90.044     34.882  30.665552     1.0846      7.229   296.5439 1.1772e+03     0.8664     -0.050     -0.073    18.9514 0.0000e+00
     -0.050      0.001     8.3443     89.874     34.855  30.641295     1.0923      7.230   296.7230 1.2836e+03     0.8364     -0.049     -0.071    18.9515 0.0000e+00
     -0.049      0.001     8.3309     89.729     34.867  30.650550     1.0958      7.230   296.7326 1.3395e+03     0.8057     -0.047     -0.069    18.9518 0.0000e+00
     -0.050      0.001     8.3200     89.611     34.867  30.650445     1.0899      7.229   296.7464 1.3698e+03     0.8000     -0.048     -0.070    18.9515 0.0000e+00
     -0.050      0.001     8.3135     89.540     34.855  30.640024     1.0851      7.229   296.8037 1.4047e+03     0.8283     -0.049     -0.071    18.9510 0.0000e+00
     -0.049      0.000     8.3125     89.529     34.869  30.651569     1.0836      7.230   296.8234 1.4279e+03     0.8429     -0.048     -0.070    18.9504 0.0000e+00
     -0.049     -0.001     8.3160     89.566     34.882  30.663019     1.0718      7.230   296.8124 1.4391e+03     0.8234     -0.048     -0.070    18.9494 0.0000e+00
     -0.049     -0.001     8.3228     89.639     34.869  30.651454     1.0619      7.230   296.8432 1.4487e+03     0.8073     -0.048     -0.070    18.9489 0.0000e+00
     -0.050     -0.001     8.3321     89.739     34.854  30.638753     1.0740      7.230   296.9377 1.4563e+03     0.8305     -0.049     -0.071    18.9486 0.0000e+00
     -0.050     -0.002     8.3429     89.855     34.852  30.636464     1.0892      7.230   297.0080 1.4608e+03     0.8603     -0.049     -0.071    18.9484 0.0000e+00
     -0.051     -0.002     8.3542     89.976     34.838  30.623773     1.0899      7.231   297.0050 1.4649e+03     0.8622     -0.049     -0.072    18.9486 0.0000e+00
     -0.052     -0.002     8.3674     90.117     34.825  30.612323     1.0917      7.231   296.9882 1.4649e+03     0.8535     -0.051     -0.074    18.9485 0.0000e+00
     -0.052     -0.002     8.3822     90.277     34.839  30.625033     1.1019      7.231   297.0632 1.4629e+03     0.8462     -0.051     -0.074    18.9483 0.0000e+00
     -0.052     -0.002     8.3936     90.400     34.869  30.650435     1.1032      7.230   297.2226 1.4673e+03     0.8352     -0.050     -0.073    18.9477 0.0000e+00
     -0.052     -0.002     8.4001     90.470     34.886  30.665425     1.0973      7.229   297.2805 1.4762e+03     0.8123     -0.051     -0.074    18.9472 0.0000e+00
     -0.053     -0.001     8.4044     90.516     34.901  30.679271     1.0957      7.230   297.2470 1.4837e+03     0.7825     -0.052     -0.075    18.9470 0.0000e+00
     -0.053     -0.001     8.4083     90.558     34.914  30.690828     1.0924      7.230   297.3342 1.4869e+03     0.7804     -0.052     -0.076    18.9471 0.0000e+00
     -0.054     -0.001     8.4087     90.563     34.899  30.678146     1.0939      7.229   297.4749 1.4859e+03     0.8169     -0.053     -0.077    18.9472 0.0000e+00
     -0.054     -0.001     8.3995     90.466     34.870  30.652954     1.0962      7.228   297.5715 1.4855e+03     0.8269     -0.053     -0.077    18.9471 0.0000e+00
     -0.054     -0.000     8.3818     90.276     34.856  30.640262     1.0827      7.228   297.6410 1.4883e+03     0.8109     -0.052     -0.075    18.9472 0.0000e+00
     -0.054      0.001     8.3633     90.077     34.868  30.651695     1.0607      7.228   297.7138 1.4938e+03     0.8062     -0.053     -0.076    18.9475 0.0000e+00
     -0.054      0.001     8.3487     89.920     34.883  30.664178     1.0409      7.228   297.7627 1.4983e+03     0.8002     -0.053     -0.077    18.9481 0.0000e+00
     -0.054      0.001     8.3395     89.820     34.883  30.664176     1.0265      7.227   297.6298 1.4992e+03     0.8297     -0.053     -0.076    18.9486 0.0000e+00
     -0.053      0.001     8.3344     89.764     34.868  30.651673     1.0155      7.227   297.4837 1.4993e+03     0.8584     -0.052     -0.075    18.9488 0.0000e+00
     -0.053      0.001     8.3281     89.695     34.855  30.640021     1.0099      7.227   297.5450 1.4980e+03     0.8428     -0.051     -0.074    18.9492 0.0000e+00
     -0.053      0.002     8.3193     89.600     34.867  30.650310     1.0128      7.227   297.5970 1.4961e+03     0.8229     -0.052     -0.075    18.9493 0.0000e+00
     -0.052      0.002     8.3104     89.503     34.866  30.649060     1.0138      7.227   297.5958 1.4966e+03     0.8318     -0.051     -0.074    18.9492 0.0000e+00
     -0.051      0.001     8.3046     89.440     34.839  30.624906     1.0128      7.228   297.7026 1.4996e+03     0.8897     -0.050     -0.073    18.9489 0.0000e+00
     -0.051      0.000     8.3038     89.430     34.825  30.612301     1.0192      7.226   297.8553 1.5014e+03     0.9117     -0.050     -0.073    18.9482 0.0000e+00
     -0.051 2.0307e-08     8.3031     89.421     34.839  30.623657     1.0266      7.224   297.9801 1.4978e+03     0.8541     -0.049     -0.072    18.9477 0.0000e+00
     -0.051 2.2338e-07     8.2996     89.381     34.853  30.635194     1.0287      7.224   298.0931 1.4945e+03     0.8337     -0.049     -0.073    18.9475 0.0000e+00
     -0.052 2.2338e-07     8.2976     89.359     34.842  30.624783     1.0271      7.224   298.1034 1.4955e+03     0.8793     -0.051     -0.074    18.9473 0.0000e+00
     -0.052 2.0307e-08     8.2987     89.372     34.842  30.624793     0.9979      7.223   298.0174 1.4942e+03     0.8863     -0.051     -0.074    18.9467 0.0000e+00
     -0.052 1.8461e-09     8.3002     89.387     34.854  30.635308     0.9415      7.222   298.0000 1.4859e+03     0.8267     -0.051     -0.073    18.9451 0.0000e+00
     -0.051 1.6783e-10     8.3047     89.436     34.842  30.624917     0.9066      7.221   297.9799 1.4773e+03     0.7997     -0.050     -0.072    18.9439 0.0000e+00
     -0.051 1.5257e-11     8.3156     89.554     34.843  30.626167     0.8971      7.220   297.9462 1.4732e+03     0.8351     -0.050     -0.073    18.9434 0.0000e+00
     -0.051 1.3879e-12     8.3306     89.716     34.870  30.650426     0.8920      7.219   297.9365 1.4685e+03     0.8572     -0.050     -0.073    18.9436 0.0000e+00
     -0.052 1.3565e-13     8.3461     89.883     34.886  30.664187     0.8900      7.219   297.8630 1.4643e+03     0.8532     -0.051     -0.074    18.9439 0.0000e+00
     -0.052 1.1661e-13     8.3566     89.996     34.887  30.665541     0.8916      7.219   297.9172 1.4601e+03     0.8172     -0.051     -0.074    18.9440 0.0000e+00
     -0.052 1.1577e-12     8.3591     90.024     34.888  30.666800     0.8935      7.219   298.0759 1.4555e+03     0.7887     -0.051     -0.074    18.9445 0.0000e+00
     -0.051 1.2723e-11     8.3596     90.030     34.903  30.679406     0.8941      7.218   298.1479 1.4531e+03     0.8137     -0.050     -0.073    18.9447 0.0000e+00
     -0.051 1.3995e-10     8.3641     90.079     34.916  30.690954     0.8808      7.217   298.1851 1.4501e+03     0.8448     -0.050     -0.073    18.9447 0.0000e+00
     -0.051 1.5395e-09     8.3696     90.139     34.902  30.679407     0.8513      7.217   298.1806 1.4476e+03     0.8600     -0.051     -0.074    18.9446 0.0000e+00
     -0.051 1.6934e-08     8.3712     90.157     34.887  30.666811     0.8410      7.217   298.1793 1.4438e+03     0.8455     -0.050     -0.073    18.9449 0.0000e+00
     -0.051 1.8627e-07     8.3724     90.172     34.885  30.665667     0.8485      7.216   298.1704 1.4393e+03     0.8219     -0.050     -0.073    18.9452 0.0000e+00
     -0.051 1.8627e-07     8.3772     90.225     34.885  30.665573     0.8403      7.216   298.1588 1.4356e+03     0.8177     -0.050     -0.073    18.9455 0.0000e+00
     -0.051 1.6934e-08     8.3822     90.280     34.885  30.665677     0.8252      7.215   298.2118 1.4302e+03     0.8247     -0.050     -0.073    18.9462 0.0000e+00
     -0.051 1.5394e-09     8.3829     90.289     34.886  30.666925     0.8219      7.214   298.2087 1.4267e+03     0.8462     -0.051     -0.074    18.9469 0.0000e+00
     -0.051 1.3995e-10     8.3799     90.256     34.901  30.680666     0.8277      7.215   298.2077 1.4228e+03     0.8647     -0.051     -0.074    18.9473 0.0000e+00
     -0.051 1.2713e-11     8.3745     90.199     34.928  30.704800     0.8313      7.215   298.3711 1.4167e+03     0.8644     -0.049     -0.072    18.9480 0.0000e+00
     -0.051 1.0515e-12     8.3673     90.124     34.927  30.704695     0.8288      7.214   298.5495 1.4129e+03     0.8433     -0.049     -0.071    18.9486 0.0000e+00
     -0.052 -1.052e-12     8.3587     90.032     34.898  30.679407     0.8249      7.213   298.6438 1.4091e+03     0.8228     -0.051     -0.074    18.9491 0.0000e+00
     -0.052 -1.272e-11     8.3488     89.927     34.867  30.653070     0.8205      7.213   298.6510 1.4034e+03     0.8299     -0.052     -0.075    18.9496 0.0000e+00
     -0.052 -1.400e-10     8.3423     89.859     34.852  30.640284     0.8225      7.213   298.5500 1.4012e+03     0.8387     -0.051     -0.074    18.9501 0.0000e+00
     -0.052 -1.540e-09     8.3438     89.875     34.865  30.651831     0.8304      7.213   298.5423 1.4014e+03     0.8376     -0.051     -0.074    18.9508 0.0000e+00
     -0.052 -1.694e-08     8.3504     89.947     34.880  30.665666     0.8327      7.213   298.6441 1.3983e+03     0.8465     -0.050     -0.073    18.9517 0.0000e+00
     -0.052 -1.863e-07     8.3551     89.999     34.896  30.680542     0.8319      7.213   298.7481 1.3946e+03     0.8554     -0.051     -0.074    18.9524 0.0000e+00
     -0.052 -1.863e-07     8.3536     89.985     34.923  30.704684     0.8302      7.213   298.8523 1.3929e+03     0.8532     -0.051     -0.074    18.9530 0.0000e+00
     -0.052 -1.693e-08     8.3443     89.886     34.922  30.703538     0.8299      7.213   298.8728 1.3899e+03     0.8497     -0.051     -0.074    18.9534 0.0000e+00
     -0.052 -1.539e-09     8.3273     89.705     34.879  30.666685     0.8380      7.213   298.9089 1.3876e+03     0.8441     -0.051     -0.074    18.9539 0.0000e+00
     -0.053 -1.400e-10     8.3081     89.498     34.849  30.640148     0.8445      7.214   299.0313 1.3902e+03     0.8463     -0.052     -0.075    18.9548 0.0000e+00
     -0.053 -1.272e-11     8.2912     89.317     34.845  30.636703     0.8440      7.214   299.0616 1.3949e+03     0.8766     -0.052     -0.075    18.9555 0.0000e+00
     -0.052 -1.157e-12     8.2765     89.157     34.832  30.625033     0.8417      7.214   299.0169 1.3956e+03     0.9056     -0.051     -0.074    18.9563 0.0000e+00
     -0.052 -1.052e-13     8.2650     89.033     34.833  30.626063     0.8355      7.214   299.0926 1.3951e+03     0.8911     -0.051     -0.074    18.9570 0.0000e+00
     -0.052 -9.560e-15     8.2627     89.009     34.859  30.649164     0.8330      7.214   299.2886 1.3975e+03     0.8542     -0.051     -0.074    18.9579 0.0000e+00
     -0.052 -8.690e-16     8.2735     89.125     34.860  30.650319     0.8394      7.214   299.4084 1.4005e+03     0.8558     -0.051     -0.074    18.9580 0.0000e+00
     -0.052 -7.900e-17     8.2946     89.353     34.848  30.640023     0.8398      7.215   299.3364 1.4035e+03     0.8805     -0.051     -0.075    18.9575 0.0000e+00
     -0.053 -7.180e-18     8.3189     89.616     34.860  30.651693     0.8287      7.215   299.2784 1.4065e+03     0.8473     -0.052     -0.075    18.9573 0.0000e+00
     -0.053 -6.525e-19     8.3413     89.858     34.874  30.664403     0.8242      7.214   299.3095 1.4091e+03     0.7905     -0.052     -0.075    18.9573 0.0000e+00
     -0.052 -5.395e-20     8.3605     90.066     34.876  30.666685     0.8316      7.214   299.3695 1.4107e+03     0.7738     -0.051     -0.075    18.9575 0.0000e+00
     -0.052 5.3958e-20     8.3764     90.239     34.890  30.679282     0.8354      7.215   299.4866 1.4122e+03     0.7977     -0.051     -0.074    18.9580 0.0000e+00
     -0.052 6.5239e-19     8.3900     90.389     34.901  30.689704     0.8339      7.215   299.6068 1.4155e+03     0.8347     -0.052     -0.075    18.9586 0.0000e+00
     -0.052 7.1817e-18     8.4012     90.513     34.872  30.665675     0.8215      7.215   299.7050 1.4194e+03     0.8252     -0.051     -0.074    18.9593 0.0000e+00
     -0.052 7.8999e-17     8.4064     90.570     34.846  30.642780     0.8060      7.215   299.7271 1.4227e+03     0.8038     -0.051     -0.074    18.9600 0.0000e+00
     -0.052 8.6899e-16     8.4041     90.548     34.872  30.666924     0.8120      7.215   299.7020 1.4255e+03     0.8213     -0.051     -0.074    18.9612 0.0000e+00
     -0.053 9.5589e-15     8.3975     90.479     34.913  30.703560     0.8290      7.215   299.6594 1.4283e+03     0.8528     -0.052     -0.076    18.9625 0.0000e+00
     -0.053 1.0515e-13     8.3915     90.416     34.913  30.704696     0.8370      7.214   299.6427 1.4318e+03     0.8803     -0.052     -0.075    18.9640 0.0000e+00
     -0.052 1.1566e-12     8.3890     90.391     34.884  30.680665     0.8346      7.214   299.6713 1.4349e+03     0.8788     -0.051     -0.075    18.9653 0.0000e+00
     -0.052 1.2723e-11     8.3886     90.389     34.868  30.667037     0.8276      7.213   299.7477 1.4393e+03     0.8651     -0.051     -0.075    18.9664 0.0000e+00
     -0.052 1.3995e-10     8.3884     90.388     34.868  30.666934     0.8269      7.212   299.8779 1.4466e+03     0.9278     -0.051     -0.075    18.9676 0.0000e+00
     -0.052 1.5395e-09     8.3865     90.369     34.881  30.679418     0.8346      7.210   299.9547 1.4531e+03     1.0268     -0.052     -0.075    18.9687 0.0000e+00
     -0.052 1.6934e-08     8.3824     90.326     34.894  30.690963     0.8385      7.207   299.9884 1.4587e+03     1.0543     -0.051     -0.074    18.9698 0.0000e+00
     -0.052 1.8627e-07     8.3781     90.280     34.880  30.679519     0.8273      7.205   300.0264 1.4652e+03     1.0469     -0.051     -0.074    18.9709 0.0000e+00
     -0.052 1.8627e-07     8.3748     90.245     34.867  30.668067     0.8186      7.202   300.0707 1.4714e+03     0.9994     -0.051     -0.074    18.9722 0.0000e+00
     -0.053 1.6934e-08     8.3728     90.223     34.881  30.679509     0.8255      7.199   300.0934 1.4749e+03     0.9068     -0.052     -0.075    18.9730 0.0000e+00
     -0.053 1.5395e-09     8.3708     90.200     34.894  30.690848     0.8284      7.197   300.0430 1.4758e+03     0.8423     -0.052     -0.075    18.9735 0.0000e+00
     -0.052 1.3995e-10     8.3661     90.147     34.880  30.678146     0.8255      7.197   299.9777 1.4788e+03     0.8302     -0.051     -0.074    18.9736 0.0000e+00
     -0.052 1.2723e-11     8.3597     90.078     34.853  30.652952     0.8181      7.197   300.0782 1.4819e+03     0.8520     -0.051     -0.074    18.9736 0.0000e+00
     -0.052 1.1566e-12     8.3527     90.000     34.839  30.640261     0.7946      7.198   300.2260 1.4832e+03     0.8620     -0.051     -0.075    18.9734 0.0000e+00
     -0.052 1.0515e-13     8.3421     89.884     34.853  30.651703     0.7706      7.200   300.2158 1.4853e+03     0.8593     -0.051     -0.075    18.9725 0.0000e+00
     -0.052 9.5591e-15     8.3285     89.737     34.868  30.664280     0.7586      7.200   300.1271 1.4871e+03     0.8493     -0.051     -0.075    18.9714 0.0000e+00
     -0.052 8.7044e-16     8.3137     89.577     34.869  30.665320     0.7323      7.199   300.0131 1.4884e+03     0.8337     -0.051     -0.075    18.9705 0.0000e+00
     -0.052 9.4800e-17     8.2978     89.406     34.868  30.664278     0.7007      7.196   300.0431 1.4904e+03     0.8538     -0.052     -0.075    18.9700 0.0000e+00
     -0.052 1.8098e-16     8.2832     89.248     34.853  30.651682     0.6975      7.194   300.2317 1.4899e+03     0.8792     -0.051     -0.075    18.9693 0.0000e+00
     -0.052 1.9124e-15     8.2728     89.135     34.841  30.640032     0.7033      7.192   300.2285 1.4876e+03     0.8659     -0.051     -0.075    18.9686 0.0000e+00
     -0.052 2.1030e-14     8.2693     89.095     34.854  30.650434     0.7061      7.191   300.1762 1.4874e+03     0.8454     -0.051     -0.074    18.9684 0.0000e+00
     -0.052 2.3133e-13     8.2706     89.106     34.855  30.650434     0.7126      7.191   300.2875 1.4876e+03     0.8441     -0.052     -0.075    18.9684 0.0000e+00
     -0.052 2.5446e-12     8.2705     89.102     34.845  30.640033     0.7178      7.193   300.2838 1.4865e+03     0.8809     -0.051     -0.075    18.9680 0.0000e+00
     -0.052 2.7990e-11     8.2667     89.058     34.859  30.651683     0.7147      7.195   300.2169 1.4842e+03     0.9248     -0.051     -0.074    18.9671 0.0000e+00
     -0.052 3.0789e-10     8.2647     89.034     34.874  30.664279     0.7018      7.197   300.2535 1.4811e+03     0.9167     -0.051     -0.075    18.9658 0.0000e+00
     -0.052 3.3868e-09     8.2712     89.104     34.875  30.665321     0.6905      7.199   300.2959 1.4786e+03     0.8746     -0.051     -0.074    18.9635 0.0000e+00
     -0.053 3.7255e-08     8.2853     89.258     34.874  30.664280     0.6880      7.200   300.3855 1.4771e+03     0.8434     -0.052     -0.076    18.9619 0.0000e+00
     -0.053 4.0981e-07     8.3052     89.473     34.859  30.651693     0.6998      7.202   300.5623 1.4749e+03     0.8435     -0.052     -0.076    18.9608 0.0000e+00
     -0.052      0.000     8.3312     89.752     34.845  30.640148     0.7136      7.204   300.7128 1.4702e+03     0.8459     -0.051     -0.075    18.9600 0.0000e+00
     -0.052      0.000     8.3580     90.041     34.859  30.651705     0.7261      7.204   300.7432 1.4646e+03     0.8114     -0.051     -0.074    18.9600 0.0000e+00
     -0.052      0.001     8.3793     90.272     34.873  30.664405     0.7503      7.205   300.6711 1.4594e+03     0.7937     -0.051     -0.074    18.9609 0.0000e+00
     -0.052      0.001     8.3907     90.399     34.873  30.666695     0.7668      7.205   300.6159 1.4535e+03     0.8453     -0.051     -0.075    18.9621 0.0000e+00
     -0.052      0.001     8.3883     90.378     34.886  30.679395     0.7696      7.206   300.6784 1.4413e+03     0.8857     -0.052     -0.075    18.9615 0.0000e+00
     -0.052      0.001     8.3723     90.210     34.897  30.690952     0.7753      7.207   300.8234 1.4234e+03     0.8542     -0.051     -0.074    18.9607 0.0000e+00
     -0.052      0.001     8.3498     89.971     34.882  30.679416     0.7806      7.206   300.9071 1.4143e+03     0.8306     -0.051     -0.074    18.9617 0.0000e+00
     -0.051      0.001     8.3266     89.724     34.867  30.666933     0.7781      7.206   300.9166 1.4177e+03     0.8442     -0.050     -0.073    18.9639 0.0000e+00
     -0.051      0.000     8.3057     89.502     34.865  30.667037     0.7721      7.207   300.9374 1.4180e+03     0.8662     -0.050     -0.073    18.9663 0.0000e+00
     -0.051     -0.001     8.2917     89.355     34.879  30.680673     0.7816      7.208   300.9870 1.3867e+03     0.8841     -0.049     -0.071    18.9688 0.0000e+00
     -0.052     -0.001     8.2866     89.303     34.905  30.704797     0.8015      7.210   300.9999 1.1069e+03     0.8469     -0.050     -0.072    18.9710 0.0000e+00
     -0.053     -0.001     8.2891     89.332     34.904  30.704692     0.8102      7.210   301.0079 6.0507e+02     0.8127     -0.052     -0.075    18.9727 0.0000e+00
     -0.053     -0.001     8.2973     89.423     34.875  30.679405     0.8224      7.209   301.0837 3.3621e+02     0.8671     -0.053     -0.077    18.9746 0.0000e+00
     -0.053     -0.002     8.3107     89.568     34.844  30.653076     0.8204      7.208   301.1422 3.5526e+02     0.8943     -0.053     -0.077    18.9769 0.0000e+00
     -0.052     -0.002     8.3286     89.762     34.829  30.640386     0.7868      7.206   301.1117 6.2413e+02     0.8359     -0.051     -0.075    18.9785 0.0000e+00
     -0.052     -0.002     8.3496     89.989     34.843  30.652974     0.7643      7.203   301.0599 1.0385e+03     0.8024     -0.051     -0.074    18.9795 0.0000e+00
     -0.053     -0.003     8.3701     90.211     34.872  30.678259     0.7599      7.201   301.0323 1.1473e+03     0.8254     -0.052     -0.076    18.9807 0.0000e+00
     -0.055     -0.004     8.3855     90.378     34.888  30.692085     0.7524      7.199   301.0354 9.0673e+02     0.8391     -0.054     -0.078    18.9815 0.0000e+00
     -0.056     -0.004     8.3938     90.468     34.889  30.693135     0.7287      7.199   301.0975 5.9240e+02     0.8159     -0.055     -0.080    18.9820 0.0000e+00
     -0.057     -0.004     8.3926     90.454     34.886  30.690950     0.6942      7.200   301.0953 4.0501e+02     0.8190     -0.055     -0.080    18.9825 0.0000e+00
     -0.059     -0.004     8.3817     90.336     34.858  30.665661     0.6848      7.202   301.0947 3.6575e+02     0.8466     -0.057     -0.083    18.9827 0.0000e+00
     -0.060     -0.003     8.3621     90.125     34.831  30.641404     0.6971      7.205   301.1760 3.7348e+02     0.8437     -0.059     -0.085    18.9827 0.0000e+00
     -0.060     -0.002     8.3344     89.825     34.842  30.651694     0.6956      7.208   301.2174 5.7610e+02     0.8447     -0.059     -0.085    18.9831 0.0000e+00
     -0.061     -0.002     8.3017     89.473     34.855  30.663050     0.6852      7.209   301.2510 7.7320e+02     0.8588     -0.060     -0.087    18.9830 0.0000e+00
     -0.061     -0.001     8.2710     89.142     34.842  30.651693     0.6822      7.210   301.2388 5.7960e+02     0.8620     -0.060     -0.087    18.9824 0.0000e+00
     -0.061     -0.001     8.2522     88.939     34.831  30.641396     0.6857      7.212   301.2415 3.6169e+02     0.8530     -0.060     -0.087    18.9822 0.0000e+00
     -0.061     -0.001     8.2504     88.919     34.858  30.665556     0.7009      7.214   301.2839 3.3704e+02     0.8410     -0.059     -0.086    18.9822 0.0000e+00
     -0.061     -0.001     8.2651     89.077     34.885  30.689795     0.7098      7.215   301.2357 3.3413e+02     0.8386     -0.060     -0.087    18.9821 0.0000e+00
     -0.061     -0.001     8.2910     89.357     34.874  30.680434     0.7012      7.216   301.2609 3.2844e+02     0.8547     -0.060     -0.087    18.9819 0.0000e+00
     -0.062     -0.001     8.3184     89.654     34.873  30.679393     0.6972      7.217   301.4161 3.2385e+02     0.8831     -0.061     -0.088    18.9817 0.0000e+00
     -0.062     -0.001     8.3355     89.839     34.870  30.677198     0.7177      7.217   301.4778 3.5017e+02     0.9072     -0.061     -0.088    18.9816 0.0000e+00
     -0.062     -0.001     8.3356     89.840     34.843  30.653897     0.7557      7.215   301.4905 6.0500e+02     0.9334     -0.060     -0.088    18.9813 0.0000e+00
     -0.062     -0.001     8.3251     89.726     34.841  30.651693     0.7710      7.213   301.6561 1.0184e+03     0.9253     -0.061     -0.088    18.9815 0.0000e+00
     -0.062     -0.001     8.3136     89.602     34.841  30.650547     0.7641      7.209   301.7593 1.1598e+03     0.8700     -0.060     -0.088    18.9826 0.0000e+00
     -0.063     -0.001     8.3071     89.530     34.830  30.640041     0.7833      7.204   301.7050 1.0014e+03     0.8450     -0.062     -0.089    18.9834 0.0000e+00
     -0.064     -0.001     8.3118     89.578     34.845  30.651683     0.8194      7.199   301.7739 8.4801e+02     0.8672     -0.064     -0.092    18.9836 0.0000e+00
     -0.064     -0.001     8.3291     89.761     34.860  30.664288     0.8331      7.196   301.9041 9.7536e+02     0.8640     -0.063     -0.092    18.9832 0.0000e+00
     -0.063     -0.001     8.3507     89.989     34.863  30.665435     0.8384      7.193   301.9036 1.2713e+03     0.8365     -0.062     -0.090    18.9824 0.0000e+00
     -0.063     -0.000     8.3691     90.183     34.865  30.665549     0.8374      7.192   301.8528 1.3485e+03     0.8389     -0.061     -0.089    18.9812 0.0000e+00
     -0.063 -1.524e-08     8.3797     90.294     34.866  30.665663     0.7942      7.192   301.8922 1.0442e+03     0.8628     -0.062     -0.091    18.9797 0.0000e+00
     -0.064 -1.676e-07     8.3767     90.262     34.867  30.666808     0.7293      7.193   302.0352 5.9625e+02     0.8809     -0.063     -0.092    18.9778 0.0000e+00
     -0.064 2.0491e-07     8.3574     90.056     34.881  30.679395     0.7050      7.194   302.2058 3.6760e+02     0.8749     -0.063     -0.091    18.9750 0.0000e+00
     -0.064      0.000     8.3259     89.716     34.894  30.690836     0.7115      7.196   302.2345 3.2995e+02     0.8518     -0.063     -0.091    18.9724 0.0000e+00
     -0.064      0.000     8.2920     89.350     34.880  30.678135     0.7254      7.196   302.1245 3.2181e+02     0.8455     -0.063     -0.091    18.9710 0.0000e+00
     -0.064      0.001     8.2620     89.024     34.853  30.652838     0.7532      7.192   302.0797 3.3237e+02     0.8597     -0.062     -0.092    18.9712 0.0000e+00
     -0.063      0.001     8.2392     88.776     34.838  30.639001     0.7622      7.187   302.1234 3.7264e+02     0.8707     -0.061     -0.090    18.9723 0.0000e+00
     -0.063      0.001     8.2287     88.660     34.838  30.637848     0.7517      7.184   302.2220 4.3562e+02     0.8569     -0.062     -0.089    18.9727 0.0000e+00
     -0.063      0.001     8.2302     88.674     34.840  30.638888     0.7560      7.181   302.3269 4.6633e+02     0.8457     -0.062     -0.091    18.9723 0.0000e+00
     -0.063      0.001     8.2406     88.784     34.856  30.651579     0.7676      7.180   302.3586 4.2495e+02     0.8573     -0.062     -0.090    18.9709 0.0000e+00
     -0.063      0.001     8.2556     88.943     34.871  30.664279     0.7725      7.181   302.3466 3.6944e+02     0.8445     -0.061     -0.089    18.9690 0.0000e+00
     -0.063      0.001     8.2678     89.071     34.874  30.665424     0.7691      7.184   302.3546 3.4454e+02     0.8135     -0.061     -0.089    18.9675 0.0000e+00
     -0.063      0.000     8.2729     89.124     34.874  30.665425     0.7545      7.188   302.3690 3.3569e+02     0.8173     -0.061     -0.089    18.9664 0.0000e+00
     -0.063 1.7088e-08     8.2729     89.125     34.873  30.664290     0.7335      7.191   302.3482 3.3631e+02     0.8603     -0.061     -0.089    18.9657 0.0000e+00
     -0.063 1.8797e-07     8.2706     89.102     34.858  30.651704     0.7172      7.192   302.2751 3.4112e+02     0.8757     -0.061     -0.089    18.9639 0.0000e+00
     -0.063 1.8797e-07     8.2648     89.040     34.844  30.640261     0.7134      7.196   302.2601 3.4287e+02     0.8506     -0.062     -0.089    18.9617 0.0000e+00
     -0.063 1.7085e-08     8.2558     88.945     34.858  30.652953     0.7252      7.201   302.3381 3.4460e+02     0.8619     -0.062     -0.089    18.9608 0.0000e+00
     -0.063 1.5201e-09     8.2513     88.897     34.887  30.678147     0.7489      7.206   302.3586 3.4736e+02     0.8909     -0.062     -0.089    18.9612 0.0000e+00
     -0.063 -2.257e-10     8.2587     88.976     34.902  30.690838     0.7700      7.209   302.4212 3.5899e+02     0.8949     -0.061     -0.088    18.9623 0.0000e+00
     -0.063 -4.023e-09     8.2813     89.218     34.890  30.679395     0.7690      7.211   302.5792 4.4859e+02     0.8802     -0.062     -0.089    18.9633 0.0000e+00
     -0.063 -4.439e-08     8.3152     89.581     34.875  30.666809     0.7558      7.213   302.6347 7.8673e+02     0.8351     -0.061     -0.089    18.9637 0.0000e+00
     -0.063 -4.883e-07     8.3507     89.964     34.874  30.665665     0.7578      7.213   302.5757 1.2372e+03     0.8073     -0.062     -0.090    18.9638 0.0000e+00
     -0.062      0.000     8.3806     90.285     34.874  30.665561     0.7738      7.213   302.6406 1.2204e+03     0.8188     -0.061     -0.089    18.9631 0.0000e+00
     -0.062      0.000     8.4008     90.503     34.874  30.665551     0.7851      7.213   302.8161 1.0146e+03     0.8219     -0.061     -0.088    18.9618 0.0000e+00
     -0.062     -0.001     8.4117     90.621     34.874  30.665550     0.7841      7.213   302.8051 1.2474e+03     0.8149     -0.061     -0.089    18.9612 0.0000e+00
     -0.061     -0.002     8.4152     90.660     34.874  30.665549     0.7890      7.214   302.5939 1.5010e+03     0.8246     -0.060     -0.087    18.9613 0.0000e+00
     -0.061     -0.004     8.4142     90.650     34.873  30.665540     0.8074      7.216   302.4137 1.5265e+03     0.8475     -0.060     -0.087    18.9612 0.0000e+00
     -0.062     -0.005     8.4102     90.610     34.872  30.665435     0.8224      7.218   302.4327 1.5319e+03     0.8483     -0.059     -0.086    18.9609 0.0000e+00
     -0.064     -0.007     8.4017     90.520     34.870  30.664289     0.8329      7.219   302.4800 1.5375e+03     0.8343     -0.063     -0.091    18.9611 0.0000e+00
     -0.068     -0.007     8.3906     90.403     34.855  30.651692     0.8330      7.218   302.4692 1.5511e+03     0.8309     -0.068     -0.097    18.9622 0.0000e+00
     -0.070     -0.007     8.3817     90.309     34.840  30.640136     0.8233      7.218   302.5600 1.5689e+03     0.8377     -0.068     -0.100    18.9634 0.0000e+00
     -0.072     -0.006     8.3760     90.250     34.852  30.651579     0.8254      7.217   302.6313 1.5568e+03     0.8557     -0.071     -0.103    18.9643 0.0000e+00
     -0.074     -0.004     8.3714     90.201     34.865  30.663029     0.8315      7.217   302.6429 1.5312e+03     0.8647     -0.073     -0.105    18.9652 0.0000e+00
     -0.074     -0.001     8.3622     90.102     34.852  30.651568     0.8151      7.217   302.7003 1.5243e+03     0.8557     -0.072     -0.105    18.9664 0.0000e+00
     -0.074      0.002     8.3431     89.897     34.839  30.640021     0.7828      7.217   302.7237 1.5167e+03     0.8380     -0.072     -0.105    18.9676 0.0000e+00
     -0.074      0.007     8.3169     89.615     34.851  30.650433     0.7633      7.217   302.6672 1.5155e+03     0.8333     -0.073     -0.105    18.9687 0.0000e+00
     -0.073      0.012     8.2933     89.360     34.851  30.650434     0.7624      7.217   302.6192 1.5324e+03     0.8596     -0.073     -0.106    18.9695 0.0000e+00
     -0.069      0.018     8.2799     89.215     34.839  30.640041     0.7629      7.218   302.5731 1.5387e+03     0.8824     -0.069     -0.100    18.9697 0.0000e+00
     -0.063      0.025     8.2796     89.212     34.852  30.651788     0.7601      7.220   302.4538 1.5256e+03     0.8654     -0.062     -0.090    18.9697 0.0000e+00
     -0.057      0.030     8.2915     89.340     34.867  30.665443     0.7654      7.221   302.3821 1.5241e+03     0.8669     -0.056     -0.081    18.9697 0.0000e+00
     -0.048      0.035     8.3090     89.530     34.881  30.678135     0.7719      7.221   302.3942 1.5307e+03     0.9008     -0.048     -0.069    18.9695 0.0000e+00
     -0.036      0.038     8.3287     89.743     34.881  30.678229     0.7742      7.220   302.3412 1.5281e+03     0.8778     -0.036     -0.052    18.9693 0.0000e+00
     -0.024      0.039     8.3525     90.000     34.867  30.666587     0.7929      7.219   302.2580 1.5259e+03     0.8338     -0.023     -0.034    18.9693 0.0000e+00
     -0.014      0.039     8.3780     90.275     34.865  30.664384     0.8233      7.217   302.1632 1.5233e+03     0.8259     -0.013     -0.019    18.9696 0.0000e+00
     -0.005      0.039     8.4019     90.527     34.853  30.651587     0.8390      7.216   302.0562 1.5082e+03     0.8438     -0.005     -0.007    18.9701 0.0000e+00
      0.004      0.039     8.4234     90.748     34.843  30.638878     0.8449      7.216   301.9956 1.4042e+03     0.8976      0.004      0.004    18.9710 0.0000e+00
      0.013      0.039     8.4432     90.948     34.848  30.637723     0.8487      7.216   301.9475 1.2288e+03     0.9275      0.012      0.018    18.9720 0.0000e+00
      0.023      0.040     8.4615     91.133     34.853  30.637620     0.8487      7.215   301.7327 1.1779e+03     0.8994      0.022      0.033    18.9713 0.0000e+00
      0.034      0.043     8.4798     91.319     34.858  30.637620     0.8437      7.215   301.2046 1.2259e+03     0.8626      0.032      0.047    18.9685 0.0000e+00
      0.045      0.047     8.5014     91.543     34.862  30.637714     0.8347      7.215   300.7242 1.2138e+03     0.8491      0.044      0.063    18.9629 0.0000e+00
      0.057      0.051     8.5187     91.725     34.865  30.638754     0.8411      7.215   300.4845 9.7374e+02     0.8582      0.055      0.080    18.9544 0.0000e+00
      0.070      0.055     8.5260     91.805     34.877  30.650195     0.8664      7.212   300.2851 5.3149e+02     0.8517      0.067      0.098    18.9471 0.0000e+00
      0.085      0.060     8.5255     91.800     34.875  30.649030     0.8828      7.209   300.2064 2.7364e+02     0.8311      0.083      0.119    18.9421 0.0000e+00
      0.101      0.064     8.5221     91.760     34.849  30.624669     0.8927      7.204   300.2214 2.3757e+02     0.8224      0.099      0.143    18.9371 0.0000e+00
      0.118      0.068     8.5240     91.768     34.837  30.609669     0.9213      7.200   300.1229 2.2883e+02     0.8381      0.117      0.169    18.9337 0.0000e+00
      0.136      0.071     8.5300     91.815     34.828  30.594678     0.9526      7.197   299.9615 2.2353e+02     0.8681      0.132      0.191    18.9353 0.0000e+00
      0.155      0.074     8.5367     91.867     34.808  30.570422     0.9593      7.195   299.9051 2.1763e+02     0.8798      0.153      0.220    18.9380 0.0000e+00
      0.175      0.076     8.5413     91.896     34.817  30.570402     0.9562      7.192   299.9571 2.1377e+02     0.8584      0.171      0.249    18.9367 0.0000e+00
      0.193      0.077     8.5450     91.918     34.852  30.594431     0.9793      7.189   299.9881 2.1086e+02     0.8225      0.187      0.272    18.9287 0.0000e+00
      0.214      0.076     8.5485     91.943     34.872  30.606924     1.0179      7.187   300.0220 2.1193e+02     0.8422      0.209      0.302    18.9178 0.0000e+00
      0.236      0.075     8.5492     91.944     34.860  30.594432     1.0284      7.186   300.1089 2.2506e+02     0.8824      0.232      0.337    18.9080 0.0000e+00
      0.256      0.074     8.5495     91.942     34.835  30.570392     1.0231      7.185   300.2644 2.3873e+02     0.8516      0.253      0.366    18.8959 0.0000e+00
      0.273      0.073     8.5502     91.943     34.838  30.570288     1.0271      7.182   300.5251 2.3453e+02     0.8056      0.268      0.389    18.8854 0.0000e+00
      0.289      0.072     8.5520     91.956     34.867  30.593173     1.0304      7.179   300.8519 2.2331e+02     0.8749      0.283      0.411    18.8793 0.0000e+00
      0.306      0.072     8.5560     91.994     34.869  30.593059     1.0262      7.177   301.2906 2.0962e+02     1.0180      0.300      0.436    18.8764 0.0000e+00
      0.325      0.073     8.5622     92.056     34.843  30.568905     1.0228      7.177   301.7858 1.9743e+02     1.0713      0.318      0.461    18.8745 0.0000e+00
      0.345      0.074     8.5699     92.133     34.830  30.555162     1.0263      7.176   302.1925 1.9520e+02     1.0609      0.339      0.491    18.8702 0.0000e+00
      0.364      0.075     8.5798     92.233     34.832  30.553903     1.0409      7.176   302.5087 1.9568e+02     1.0144      0.358      0.519    18.8660 0.0000e+00
      0.383      0.075     8.5921     92.355     34.835  30.553676     1.0713      7.176   302.8556 1.9208e+02     0.9067      0.376      0.545    18.8640 0.0000e+00
      0.403      0.075     8.6032     92.460     34.840  30.552417     1.0905      7.176   303.2029 1.8768e+02     0.8265      0.394      0.572    18.8623 0.0000e+00
      0.422      0.074     8.6107     92.516     34.835  30.538664     1.0886      7.176   303.4389 1.8375e+02     0.8073      0.413      0.600    18.8592 0.0000e+00
      0.441      0.073     8.6164     92.540     34.824  30.514392     1.0849      7.176   303.6442 1.7763e+02     0.8273      0.433      0.627    18.8554 0.0000e+00
      0.459      0.073     8.6211     92.545     34.841  30.512963     1.0831      7.178   303.8782 1.7247e+02     0.8859      0.451      0.653    18.8504 0.0000e+00
      0.478      0.072     8.6221     92.515     34.868  30.521362     1.0847      7.181   304.1177 1.6681e+02     0.9051      0.468      0.679    18.8445 0.0000e+00
      0.496      0.070     8.6155     92.421     34.840  30.488909     1.0859      7.181   304.3021 1.5916e+02     0.8466      0.486      0.705    18.8313 0.0000e+00
      0.514      0.068     8.6028     92.273     34.788  30.438099     1.0877      7.180   304.4733 1.5318e+02     0.8190      0.504      0.731    18.8098 0.0000e+00
      0.532      0.066     8.5917     92.132     34.771  30.415067     1.0978      7.180   304.7243 1.4805e+02     0.8458      0.522      0.757    18.7837 0.0000e+00
      0.549      0.064     8.5880     92.059     34.769  30.400947     1.0977      7.180   305.0146 1.4188e+02     0.8652      0.539      0.781    18.7579 0.0000e+00
      0.564      0.063     8.5915     92.066     34.775  30.394363     1.0871      7.180   305.2293 1.3582e+02     0.8710      0.554      0.803    18.7473 0.0000e+00
      0.578      0.063     8.5986     92.122     34.788  30.398956     1.0882      7.180   305.3418 1.2947e+02     0.8545      0.567      0.822    18.7470 0.0000e+00
      0.593      0.064     8.6056     92.182     34.787  30.392963     1.0929      7.181   305.5141 1.2398e+02     0.8494      0.580      0.842    18.7364 0.0000e+00
      0.610      0.065     8.6118     92.229     34.787  30.385402     1.0888      7.183   305.7642 1.2055e+02     0.8696      0.598      0.868    18.7136 0.0000e+00
      0.628      0.067     8.6205     92.298     34.781  30.371025     1.0841      7.186   305.9569 1.1798e+02     0.8546      0.616      0.893    18.6945 0.0000e+00
      0.646      0.069     8.6315     92.388     34.764  30.346135     1.0915      7.187   306.1232 1.1614e+02     0.8510      0.633      0.918    18.6867 0.0000e+00
      0.665      0.071     8.6415     92.469     34.766  30.338479     1.1136      7.187   306.3123 1.1503e+02     0.8871      0.652      0.945    18.6808 0.0000e+00
      0.682      0.073     8.6509     92.544     34.781  30.341943     1.1411      7.186   306.5228 1.1428e+02     0.8953      0.669      0.970    18.6697 0.0000e+00
      0.699      0.076     8.6593     92.610     34.771  30.324501     1.1576      7.182   306.7743 1.1371e+02     0.8581      0.686      0.994    18.6560 0.0000e+00
      0.718      0.081     8.6667     92.666     34.774  30.318091     1.1570      7.175   307.0303 1.1341e+02     0.8346      0.703      1.020    18.6417 0.0000e+00
      0.739      0.086     8.6734     92.709     34.797  30.327940     1.1333      7.169   307.2952 1.1315e+02     0.8554      0.725      1.051    18.6276 0.0000e+00
      0.762      0.091     8.6803     92.746     34.799  30.316559     1.1010      7.165   307.5680 1.1220e+02     0.8654      0.747      1.083    18.6136 0.0000e+00
      0.787      0.094     8.6904     92.816     34.805  30.307471     1.0883      7.165   307.6621 1.1017e+02     0.8631      0.770      1.117    18.6009 0.0000e+00
      0.813      0.095     8.7041     92.919     34.794  30.281550     1.0895      7.167   307.5729 1.0752e+02     0.8581      0.798      1.157    18.5901 0.0000e+00
      0.839      0.094     8.7226     93.055     34.718  30.193646     1.0880      7.169   307.6078 1.0489e+02     0.8357      0.824      1.196    18.5750 0.0000e+00
      0.864      0.092     8.7474     93.232     34.613  30.070190     1.0798      7.171   307.8251 1.0232e+02     0.8359      0.848      1.229    18.5549 0.0000e+00
      0.886      0.089     8.7798     93.448     34.508  29.931910     1.0813      7.173   308.0492 1.0002e+02     0.8604      0.870      1.262    18.5350 0.0000e+00
      0.907      0.086     8.8263     93.754     34.424  29.791760     1.0888      7.173   308.2524 9.8418e+01     0.8578      0.891      1.292    18.5145 0.0000e+00
      0.927      0.082     8.8851     94.145     34.424  29.709167     1.0871      7.173   308.3893 9.7448e+01     0.8345      0.910      1.319    18.4842 0.0000e+00
      0.948      0.077     8.9467     94.569     34.504  29.695223     1.0884      7.175   308.4146 9.6728e+01     0.8230      0.930      1.349    18.4395 0.0000e+00
      0.970      0.073     9.0035     94.984     34.570  29.686558     1.0950      7.180   308.4719 9.5898e+01     0.8110      0.951      1.380    18.3779 0.0000e+00
      0.990      0.069     9.0515     95.361     34.601  29.667818     1.1025      7.184   308.5665 9.5218e+01     0.8110      0.971      1.409    18.2780 0.0000e+00
      1.005      0.064     9.0990     95.776     34.626  29.659100     1.0871      7.188   308.6120 9.4480e+01     0.8230      0.987      1.431    18.1450 0.0000e+00
      1.019      0.059     9.1556     96.315     34.632  29.644619     1.0473      7.191   308.6765 9.3405e+01     0.8337      0.999      1.449    18.0188 0.0000e+00
      1.034      0.054     9.2201     96.950     34.621  29.619719     1.0254      7.195   308.7447 9.2349e+01     0.8792      1.014      1.471    17.9216 0.0000e+00
      1.047      0.051     9.2893     97.643     34.626  29.612027     1.0244      7.199   308.8338 9.1299e+01     0.9158      1.028      1.492    17.8583 0.0000e+00
      1.058      0.051     9.3604     98.376     34.635  29.615109     1.0264      7.202   308.9807 9.0382e+01     0.9101      1.037      1.504    17.8194 0.0000e+00
      1.070      0.052     9.4235     99.040     34.610  29.593465     1.0120      7.206   309.0572 8.9407e+01     0.9316      1.049      1.521    17.7922 0.0000e+00
      1.083      0.053     9.4741     99.564     34.551  29.540853     0.9797      7.207   309.0704 8.8466e+01     1.0246      1.062      1.540    17.7721 0.0000e+00
      1.098      0.055     9.5175     99.983     34.503  29.487013     0.9571      7.208   309.1399 8.7860e+01     1.1181      1.075      1.560    17.7524 0.0000e+00
      1.113      0.056     9.5536    100.290     34.488  29.450502     0.9511      7.210   309.2098 8.7439e+01     1.1163      1.092      1.583    17.7447 0.0000e+00
      1.128      0.056     9.5804    100.466     34.490  29.416891     0.9712      7.213   309.2273 8.7278e+01     1.0644      1.107      1.606    17.7513 0.0000e+00
      1.143      0.056     9.5990    100.540     34.515  29.398095     1.0068      7.216   309.3509 8.7168e+01     1.0396      1.122      1.627    17.7502 0.0000e+00
      1.157      0.056     9.6077    100.534     34.571  29.413704     1.0225      7.217   309.5860 8.6938e+01     1.0602      1.134      1.645    17.7334 0.0000e+00
      1.169      0.057     9.6045    100.467     34.585  29.415058     1.0329      7.216   309.8339 8.6647e+01     1.1002      1.145      1.662    17.6985 0.0000e+00
      1.183      0.058     9.5966    100.392     34.507  29.350955     1.0679      7.215   310.1109 8.6343e+01     1.0962      1.159      1.681    17.6455 0.0000e+00
      1.198      0.060     9.5956    100.342     34.432  29.273681     1.1152      7.214   310.2676 8.6004e+01     1.0723      1.175      1.705    17.5806 0.0000e+00
      1.214      0.062     9.6044    100.325     34.438  29.242764     1.1450      7.213   310.2652 8.5653e+01     1.0867      1.191      1.727    17.5222 0.0000e+00
      1.230      0.063     9.6153    100.314     34.473  29.231099     1.1610      7.213   310.3406 8.5241e+01     1.0871      1.206      1.749    17.5101 0.0000e+00
      1.247      0.065     9.6221    100.269     34.477  29.196099     1.1987      7.212   310.4907 8.4684e+01     0.9852      1.224      1.775    17.5354 0.0000e+00
      1.264      0.068     9.6257    100.192     34.452  29.137041     1.2521      7.209   310.5314 8.4375e+01     0.8310      1.240      1.798    17.5226 0.0000e+00
      1.279      0.070     9.6291    100.128     34.433  29.088517     1.2739      7.205   310.5752 8.4275e+01     0.7793      1.254      1.819    17.4526 0.0000e+00
      1.297      0.070     9.6302    100.072     34.419  29.053877     1.2784      7.203   310.6761 8.4194e+01     0.8183      1.270      1.842    17.3877 0.0000e+00
      1.317      0.069     9.6289     99.999     34.421  29.035698     1.3061      7.203   310.7187 8.4224e+01     0.8142      1.291      1.873    17.3409 0.0000e+00
      1.338      0.067     9.6259     99.897     34.476  29.059199     1.3426      7.203   310.8326 8.4214e+01     0.7912      1.315      1.907    17.2790 0.0000e+00
      1.356      0.064     9.6153     99.723     34.531  29.083980     1.3530      7.203   311.0211 8.4247e+01     0.8147      1.331      1.930    17.2264 0.0000e+00
      1.370      0.059     9.6008     99.541     34.540  29.081288     1.3387      7.203   311.1043 8.4375e+01     0.8222      1.342      1.947    17.2017 0.0000e+00
      1.383      0.054     9.5911     99.454     34.545  29.090134     1.3347      7.202   311.0648 8.4385e+01     0.7906      1.356      1.966    17.1765 0.0000e+00
      1.395      0.049     9.5893     99.485     34.570  29.127438     1.3419      7.202   311.1445 8.4287e+01     0.7682      1.368      1.984    17.1386 0.0000e+00
      1.408      0.046     9.5951     99.607     34.574  29.151343     1.3429      7.202   311.4667 8.4146e+01     0.7957      1.380      2.002    17.1018 0.0000e+00
      1.419      0.045     9.6154     99.853     34.529  29.125181     1.3473      7.200   311.6903 8.3969e+01     0.8488      1.392      2.018    17.0854 0.0000e+00
      1.429      0.043     9.6560    100.257     34.464  29.065144     1.3494      7.197   311.6972 8.3764e+01     0.8613      1.400      2.030    17.0935 0.0000e+00
      1.439      0.042     9.7027    100.682     34.407  28.996949     1.3490      7.197   311.7227 8.3457e+01     0.8548      1.411      2.046    17.1204 0.0000e+00
      1.451      0.040     9.7424    101.007     34.368  28.935646     1.3516      7.198   311.8259 8.3187e+01     0.8626      1.425      2.065    17.1579 0.0000e+00
      1.462      0.039     9.7717    101.200     34.363  28.895423     1.3451      7.199   311.8264 8.3096e+01     0.8640      1.434      2.079    17.1816 0.0000e+00
      1.471      0.038     9.7849    101.210     34.408  28.891581     1.3440      7.200   311.7291 8.3057e+01     0.8714      1.441      2.090    17.1700 0.0000e+00
      1.480      0.037     9.7782    101.020     34.452  28.889135     1.3650      7.203   311.6820 8.3042e+01     0.8902      1.451      2.105    17.1363 0.0000e+00
      1.489      0.037     9.7523    100.659     34.461  28.865805     1.3965      7.206   311.6012 8.3042e+01     0.9089      1.461      2.119    17.0970 0.0000e+00
      1.498      0.037     9.7103    100.164     34.482  28.863466     1.4135      7.210   311.6124 8.3016e+01     0.9144      1.469      2.131    17.0441 0.0000e+00
      1.507      0.038     9.6654     99.659     34.496  28.860832     1.4140      7.213   311.8176 8.2962e+01     0.8955      1.478      2.144    16.9784 0.0000e+00
      1.516      0.038     9.6355     99.314     34.478  28.833934     1.4111      7.215   311.9313 8.2807e+01     0.8943      1.487      2.157    16.9174 0.0000e+00
      1.526      0.039     9.6231     99.158     34.439  28.792242     1.4065      7.217   311.9545 8.2732e+01     0.8999      1.496      2.170    16.8720 0.0000e+00
      1.537      0.042     9.6174     99.078     34.383  28.737734     1.4042      7.218   312.0130 8.2712e+01     0.8715      1.507      2.185    16.8446 0.0000e+00
      1.548      0.045     9.6132     98.991     34.335  28.682889     1.4102      7.218   312.1215 8.2604e+01     0.8565      1.519      2.203    16.8290 0.0000e+00
      1.559      0.048     9.6153     98.928     34.314  28.637109     1.4247      7.217   312.3199 8.2529e+01     0.8704      1.528      2.216    16.8093 0.0000e+00
      1.571      0.051     9.6223     98.898     34.343  28.628685     1.4323      7.216   312.4331 8.2331e+01     0.8574      1.539      2.233    16.7941 0.0000e+00
      1.586      0.053     9.6264     98.865     34.392  28.644491     1.4201      7.214   312.4573 8.2172e+01     0.8212      1.556      2.257    16.7920 0.0000e+00
      1.600      0.054     9.6294     98.851     34.401  28.637688     1.4058      7.212   312.6120 8.1987e+01     0.7986      1.569      2.276    16.7752 0.0000e+00
      1.615      0.055     9.6403     98.926     34.383  28.609910     1.4064      7.211   312.8416 8.1623e+01     0.7977      1.584      2.297    16.7281 0.0000e+00
      1.629      0.055     9.6651     99.127     34.347  28.562626     1.3996      7.211   312.9097 8.1298e+01     0.8100      1.598      2.318    16.6702 0.0000e+00
      1.643      0.055     9.7032     99.439     34.315  28.510468     1.3787      7.211   312.8331 8.0913e+01     0.8248      1.611      2.337    16.6326 0.0000e+00
      1.655      0.055     9.7512     99.837     34.325  28.487245     1.3649      7.213   312.8621 8.0617e+01     0.8245      1.623      2.354    16.6181 0.0000e+00
      1.668      0.055     9.8013    100.257     34.343  28.472306     1.3618      7.214   313.0024 8.0324e+01     0.8065      1.635      2.372    16.6042 0.0000e+00
      1.683      0.056     9.8433    100.611     34.354  28.456803     1.3774      7.215   313.0672 7.9874e+01     0.8200      1.652      2.395    16.5793 0.0000e+00
      1.698      0.058     9.8765    100.896     34.339  28.426768     1.4063      7.217   313.1285 7.9448e+01     0.8667      1.666      2.416    16.5408 0.0000e+00
      1.714      0.060     9.9039    101.124     34.282  28.363143     1.4173      7.218   313.3136 7.8957e+01     0.8823      1.681      2.438    16.4920 0.0000e+00
      1.729      0.060     9.9269    101.286     34.261  28.322507     1.4090      7.218   313.4121 7.8397e+01     0.8572      1.695      2.459    16.4461 0.0000e+00
      1.745      0.060     9.9452    101.398     34.283  28.316412     1.3891      7.219   313.2873 7.7847e+01     0.8377      1.710      2.480    16.4092 0.0000e+00
      1.760      0.060     9.9594    101.483     34.274  28.289412     1.3611      7.221   313.1814 7.7365e+01     0.8292      1.727      2.505    16.3845 0.0000e+00
      1.775      0.059     9.9714    101.548     34.248  28.250034     1.3546      7.222   313.1641 7.7021e+01     0.8155      1.741      2.525    16.3697 0.0000e+00
      1.790      0.058     9.9839    101.618     34.235  28.221274     1.3576      7.225   313.1650 7.6751e+01     0.7944      1.755      2.546    16.3301 0.0000e+00
      1.805      0.057    10.0009    101.733     34.226  28.195655     1.3231      7.228   313.1912 7.6521e+01     0.8174      1.771      2.568    16.2877 0.0000e+00
      1.820      0.054    10.0233    101.895     34.250  28.194261     1.2676      7.230   313.1372 7.6289e+01     0.8800      1.784      2.588    16.2683 0.0000e+00
      1.834      0.052    10.0476    102.087     34.283  28.204394     1.2293      7.231   313.0289 7.6058e+01     0.8797      1.799      2.610    16.2391 0.0000e+00
      1.847      0.049    10.0683    102.271     34.278  28.191159     1.2181      7.231   313.0001 7.5881e+01     0.8457      1.812      2.629    16.2123 0.0000e+00
      1.859      0.047    10.0822    102.403     34.245  28.161217     1.2251      7.232   313.0471 7.5608e+01     0.8046      1.824      2.645    16.1887 0.0000e+00
      1.869      0.045    10.0930    102.495     34.172  28.096362     1.2311      7.235   313.1662 7.5270e+01     0.7785      1.834      2.660    16.1538 0.0000e+00
      1.879      0.045    10.1078    102.598     34.047  27.978497     1.2356      7.236   313.3220 7.4970e+01     0.8349      1.842      2.673    16.1237 0.0000e+00
      1.891      0.045    10.1259    102.700     33.957  27.879095     1.2336      7.237   313.3817 7.4568e+01     0.8762      1.855      2.689    16.1142 0.0000e+00
      1.904      0.044    10.1440    102.787     33.955  27.846952     1.2244      7.240   313.3720 7.4139e+01     0.8512      1.866      2.707    16.1152 0.0000e+00
      1.917      0.044    10.1623    102.890     33.982  27.843825     1.2255      7.244   313.3766 7.3792e+01     0.8374      1.879      2.726    16.1105 0.0000e+00
      1.928      0.043    10.1819    103.038     33.999  27.841251     1.2291      7.247   313.4380 7.3483e+01     0.8319      1.893      2.745    16.0909 0.0000e+00
      1.938      0.042    10.2091    103.284     33.979  27.815808     1.2212      7.249   313.5114 7.3273e+01     0.8157      1.901      2.756    16.0490 0.0000e+00
      1.947      0.041    10.2533    103.701     33.959  27.790188     1.2136      7.251   313.4904 7.3104e+01     0.8242      1.909      2.769    15.9998 0.0000e+00
      1.957      0.040    10.3178    104.318     33.966  27.785464     1.2195      7.255   313.5280 7.2924e+01     0.9043      1.920      2.784    15.9580 0.0000e+00
      1.968      0.040    10.3963    105.073     33.947  27.758677     1.2290      7.258   313.7081 7.2767e+01     1.0206      1.930      2.799    15.9365 0.0000e+00
      1.978      0.040    10.4813    105.882     33.919  27.720288     1.2272      7.261   313.8607 7.2573e+01     1.0706      1.940      2.814    15.9294 0.0000e+00
      1.988      0.041    10.5663    106.675     33.921  27.702288     1.2251      7.265   313.9965 7.2398e+01     1.0519      1.950      2.828    15.9148 0.0000e+00
      1.999      0.042    10.6435    107.380     33.905  27.668009     1.2486      7.269   314.0600 7.2238e+01     1.0376      1.960      2.843    15.8971 0.0000e+00
      2.009      0.044    10.7065    107.949     33.875  27.623280     1.2826      7.273   313.9399 7.2021e+01     1.0502      1.970      2.857    15.8843 0.0000e+00
      2.020      0.045    10.7527    108.371     33.870  27.605942     1.2959      7.277   313.9204 7.1740e+01     1.0524      1.980      2.872    15.8620 0.0000e+00
      2.032      0.046    10.7835    108.666     33.850  27.585354     1.2892      7.282   313.9968 7.1394e+01     1.0338      1.992      2.889    15.8296 0.0000e+00
      2.045      0.046    10.8039    108.868     33.826  27.564844     1.2479      7.287   314.0028 7.1091e+01     1.0378      2.006      2.910    15.7974 0.0000e+00
      2.058      0.046    10.8207    109.031     33.808  27.548445     1.1922      7.290   314.1659 7.0866e+01     1.0717      2.019      2.928    15.7647 0.0000e+00
      2.070      0.045    10.8367    109.187     33.768  27.514071     1.1752      7.291   314.3336 7.0596e+01     1.0772      2.030      2.944    15.7436 0.0000e+00
      2.081      0.043    10.8527    109.326     33.718  27.466722     1.1810      7.294   314.3106 7.0349e+01     1.0434      2.041      2.960    15.7410 0.0000e+00
      2.091      0.041    10.8702    109.433     33.685  27.420440     1.1885      7.298   314.2317 7.0174e+01     1.0288      2.051      2.975    15.7430 0.0000e+00
      2.101      0.041    10.8867    109.483     33.700  27.398934     1.2015      7.301   314.2397 7.0006e+01     1.0531      2.061      2.989    15.7377 0.0000e+00
      2.110      0.041    10.8973    109.466     33.742  27.397147     1.2109      7.306   314.4077 6.9910e+01     1.0933      2.070      3.002    15.7365 0.0000e+00
      2.120      0.042    10.9035    109.417     33.783  27.398796     1.2186      7.309   314.4554 6.9810e+01     1.0876      2.078      3.014    15.7355 0.0000e+00
      2.131      0.044    10.9105    109.377     33.847  27.418830     1.2209      7.312   314.3862 6.9638e+01     1.0446      2.088      3.029    15.7064 0.0000e+00
      2.143      0.046    10.9217    109.375     33.925  27.448839     1.2119      7.318   314.4313 6.9381e+01     1.0316      2.102      3.047    15.6471 0.0000e+00
      2.156      0.049    10.9387    109.437     33.958  27.444101     1.2094      7.324   314.4851 6.9071e+01     1.0220      2.114      3.067    15.5909 0.0000e+00
      2.169      0.052    10.9583    109.545     33.966  27.425003     1.2189      7.331   314.5193 6.8791e+01     1.0207      2.127      3.085    15.5485 0.0000e+00
      2.182      0.056    10.9750    109.653     33.967  27.408388     1.2249      7.336   314.5869 6.8513e+01     1.0461      2.140      3.103    15.5011 0.0000e+00
      2.194      0.058    10.9849    109.710     33.935  27.370187     1.2277      7.341   314.7005 6.8196e+01     1.0545      2.151      3.120    15.4504 0.0000e+00
      2.209      0.060    10.9808    109.619     33.920  27.344090     1.2343      7.346   314.8600 6.7891e+01     1.0306      2.165      3.139    15.4022 0.0000e+00
      2.228      0.061    10.9551    109.296     33.948  27.346829     1.2407      7.348   314.9672 6.7726e+01     1.0015      2.185      3.169    15.3622 0.0000e+00
      2.246      0.061    10.9050    108.726     33.964  27.339780     1.2411      7.349   314.9646 6.7634e+01     1.0080      2.202      3.195    15.3397 0.0000e+00
      2.262      0.059    10.8351    107.974     33.963  27.322331     1.2477      7.352   315.0007 6.7587e+01     1.0475      2.217      3.217    15.3259 0.0000e+00
      2.277      0.054    10.7578    107.171     33.979  27.326328     1.2647      7.355   315.1461 6.7658e+01     1.0829      2.234      3.240    15.3069 0.0000e+00
      2.291      0.049    10.6859    106.442     33.982  27.324606     1.2812      7.357   315.2593 6.7662e+01     1.1000      2.246      3.259    15.2759 0.0000e+00
      2.302      0.045    10.6291    105.861     33.959  27.301498     1.2912      7.357   315.3373 6.7530e+01     1.1019      2.258      3.275    15.2416 0.0000e+00
      2.311      0.042    10.5853    105.405     33.965  27.300920     1.2848      7.357   315.4005 6.7440e+01     1.1055      2.266      3.286    15.2175 0.0000e+00
      2.320      0.039    10.5513    105.053     33.991  27.317617     1.2686      7.360   315.4220 6.7397e+01     1.0820      2.274      3.298    15.2027 0.0000e+00
      2.330      0.037    10.5339    104.874     33.987  27.312874     1.2602      7.361   315.5106 6.7279e+01     1.0629      2.285      3.314    15.2030 0.0000e+00
      2.340      0.035    10.5323    104.858     33.980  27.307071     1.2661      7.361   315.6111 6.7112e+01     1.0877      2.295      3.329    15.1978 0.0000e+00
      2.350      0.033    10.5373    104.916     33.981  27.310949     1.2765      7.361   315.6909 6.6968e+01     1.0765      2.305      3.343    15.1831 0.0000e+00
      2.358      0.033    10.5422    104.976     33.959  27.296270     1.2752      7.361   315.7862 6.6834e+01     1.0499      2.313      3.355    15.1796 0.0000e+00
      2.364      0.033    10.5469    105.027     33.909  27.256593     1.2687      7.360   315.8175 6.6710e+01     1.0704      2.319      3.362    15.1763 0.0000e+00
      2.370      0.035    10.5554    105.081     33.865  27.212202     1.2715      7.359   315.8972 6.6470e+01     1.1117      2.324      3.371    15.1759 0.0000e+00
      2.378      0.038    10.5651    105.106     33.880  27.204010     1.2820      7.357   316.0613 6.6156e+01     1.1218      2.331      3.381    15.1819 0.0000e+00
      2.389      0.041    10.5712    105.105     33.925  27.221005     1.3122      7.355   316.1670 6.5961e+01     1.1315      2.341      3.396    15.1865 0.0000e+00
      2.402      0.044    10.5769    105.130     33.945  27.227178     1.3692      7.353   316.2288 6.5814e+01     1.1986      2.356      3.418    15.1924 0.0000e+00
      2.415      0.046    10.5880    105.215     33.939  27.215141     1.4117      7.352   316.4638 6.5685e+01     1.2616      2.369      3.436    15.1855 0.0000e+00
      2.427      0.047    10.6025    105.331     33.934  27.202452     1.4210      7.350   316.8581 6.5607e+01     1.2825      2.381      3.452    15.1406 0.0000e+00
      2.439      0.048    10.6195    105.458     33.947  27.200732     1.4457      7.345   317.1243 6.5424e+01     1.2678      2.392      3.469    15.1069 0.0000e+00
      2.449      0.051    10.6428    105.617     33.966  27.194333     1.4991      7.341   317.2728 6.4984e+01     1.2370      2.402      3.483    15.1041 0.0000e+00
      2.460      0.054    10.6698    105.799     33.991  27.188555     1.5322      7.339   317.3628 6.4531e+01     1.2461      2.411      3.497    15.0907 0.0000e+00
      2.474      0.058    10.6928    105.978     34.016  27.194335     1.5343      7.339   317.4391 6.4206e+01     1.2858      2.425      3.518    15.0796 0.0000e+00
      2.492      0.063    10.7063    106.114     34.023  27.200714     1.5157      7.337   317.5925 6.3731e+01     1.2898      2.444      3.545    15.0654 0.0000e+00
      2.510      0.067    10.7143    106.173     34.033  27.202174     1.4912      7.333   317.6695 6.3147e+01     1.2640      2.462      3.571    15.0324 0.0000e+00
      2.527      0.069    10.7181    106.131     34.075  27.211989     1.4857      7.329   317.6816 6.2669e+01     1.3105      2.478      3.594    14.9842 0.0000e+00
      2.544      0.071    10.7072    105.953     34.076  27.192364     1.4852      7.325   317.8249 6.2184e+01     1.3939      2.494      3.617    14.9552 0.0000e+00
      2.564      0.071    10.6807    105.673     34.036  27.155347     1.4766      7.322   318.0256 6.1628e+01     1.3869      2.514      3.647    14.9755 0.0000e+00
      2.583      0.072    10.6488    105.353     34.026  27.145407     1.4735      7.319   318.1299 6.1144e+01     1.3170      2.534      3.676    14.9769 0.0000e+00
      2.601      0.072    10.6179    105.011     34.027  27.135667     1.4845      7.316   318.2249 6.0735e+01     1.2516      2.551      3.699    14.9226 0.0000e+00
      2.618      0.072    10.5864    104.652     34.001  27.101063     1.4896      7.314   318.3991 6.0273e+01     1.2369      2.566      3.722    14.8825 0.0000e+00
      2.636      0.072    10.5562    104.304     33.949  27.044483     1.4806      7.311   318.5162 5.9794e+01     1.3227      2.585      3.750    14.8864 0.0000e+00
      2.655      0.072    10.5350    104.001     33.958  27.023024     1.4766      7.306   318.4362 5.9258e+01     1.4337      2.605      3.778    14.8957 0.0000e+00
      2.674      0.073    10.5207    103.727     34.020  27.032055     1.4781      7.302   318.2913 5.8625e+01     1.4800      2.621      3.802    14.8711 0.0000e+00
      2.692      0.073    10.5047    103.439     34.063  27.026637     1.4807      7.300   318.3132 5.8026e+01     1.4864      2.640      3.829    14.8450 0.0000e+00
      2.711      0.073    10.4888    103.162     34.102  27.020958     1.4798      7.299   318.4428 5.7413e+01     1.4808      2.659      3.856    14.8391 0.0000e+00
      2.729      0.072    10.4769    102.953     34.145  27.026848     1.5223      7.300   318.5680 5.6941e+01     1.4423      2.677      3.882    14.7938 0.0000e+00
      2.748      0.070    10.4685    102.813     34.176  27.034323     1.6179      7.300   318.7086 5.6608e+01     1.3564      2.695      3.909    14.7227 0.0000e+00
      2.767      0.067    10.4670    102.718     34.224  27.047832     1.6709      7.300   318.7665 5.6184e+01     1.2669      2.713      3.935    14.6700 0.0000e+00
      2.784      0.064    10.4671    102.614     34.284  27.063154     1.6769      7.299   318.7523 5.5690e+01     1.2449      2.731      3.961    14.6106 0.0000e+00
      2.800      0.061    10.4587    102.444     34.356  27.092549     1.6805      7.296   318.8809 5.5303e+01     1.3344      2.746      3.983    14.5622 0.0000e+00
      2.814      0.059    10.4471    102.216     34.473  27.149229     1.6782      7.293   319.0306 5.5128e+01     1.4332      2.761      4.003    14.5557 0.0000e+00
      2.827      0.059    10.4370    101.942     34.577  27.176954     1.6765      7.290   319.0135 5.4867e+01     1.4630      2.773      4.021    14.5209 0.0000e+00
      2.841      0.058    10.4134    101.567     34.630  27.173711     1.6789      7.288   318.9323 5.4474e+01     1.5116      2.785      4.039    14.4561 0.0000e+00
      2.857      0.057    10.3696    101.089     34.650  27.173455     1.6883      7.287   318.8224 5.4063e+01     1.5637      2.800      4.062    14.4299 0.0000e+00
      2.874      0.055    10.3137    100.534     34.654  27.173848     1.7068      7.285   318.8031 5.3591e+01     1.5431      2.818      4.088    14.3937 0.0000e+00
      2.889      0.054    10.2444     99.852     34.663  27.178453     1.7188      7.283   318.8713 5.3121e+01     1.5068      2.835      4.111    14.2891 0.0000e+00
      2.902      0.054    10.1621     99.025     34.738  27.229134     1.7242      7.281   318.8731 5.2764e+01     1.5209      2.846      4.127    14.2069 0.0000e+00
      2.912      0.055    10.0794     98.103     34.930  27.342138     1.7261      7.276   318.8252 5.2581e+01     1.5919      2.855      4.141    14.2059 0.0000e+00
      2.924      0.058    10.0010     97.123     35.180  27.465268     1.7321      7.270   318.8079 5.2368e+01     1.6934      2.865      4.157    14.2043 0.0000e+00
      2.938      0.061     9.9224     96.111     35.508  27.638341     1.7411      7.265   318.8354 5.2101e+01     1.7117      2.880      4.177    14.1983 0.0000e+00
      2.955      0.064     9.8451     95.140     35.792  27.783685     1.7347      7.260   318.8997 5.1887e+01     1.6601      2.898      4.203    14.2083 0.0000e+00
      2.975      0.066     9.7617     94.191     35.909  27.825544     1.7279      7.254   319.0693 5.1676e+01     1.6806      2.918      4.233    14.1573 0.0000e+00
      2.994      0.066     9.6556     93.141     36.250  28.080896     1.7321      7.247   319.2523 5.1555e+01     1.7151      2.937      4.260    14.0336 0.0000e+00
      3.011      0.065     9.5234     91.853     37.073  28.712100     1.7394      7.240   319.4773 5.1373e+01     1.7107      2.954      4.285    13.9118 0.0000e+00
      3.026      0.065     9.3643     90.181     37.898  29.297721     1.7432      7.230   319.8102 5.1165e+01     1.7195      2.969      4.306    13.8000 0.0000e+00
      3.041      0.066     9.1759     88.127     38.211  29.446287     1.7411      7.219   320.0085 5.1048e+01     1.7299      2.981      4.323    13.7104 0.0000e+00
      3.056      0.067     8.9638     85.850     38.148  29.301737     1.7686      7.207   320.0681 5.0734e+01     1.7441      2.995      4.345    13.7234 0.0000e+00
      3.074      0.068     8.7325     83.427     37.961  29.073967     1.8275      7.194   320.1864 5.0332e+01     1.7394      3.013      4.369    13.7546 0.0000e+00
      3.094      0.068     8.4681     80.755     37.834  28.914867     1.8555      7.180   320.3199 4.9996e+01     1.7032      3.034      4.400    13.6737 0.0000e+00
      3.114      0.068     8.1513     77.650     37.866  28.902091     1.8515      7.164   320.3923 4.9713e+01     1.7031      3.055      4.431    13.5209 0.0000e+00
      3.131      0.067     7.7896     74.067     37.891  28.855954     1.8529      7.145   320.3729 4.9499e+01     1.7686      3.072      4.455    13.3988 0.0000e+00
      3.146      0.064     7.4097     70.227     37.881  28.737975     1.8538      7.127   320.3430 4.9232e+01     1.8542      3.086      4.475    13.2828 0.0000e+00
      3.161      0.062     7.0336     66.465     37.854  28.618539     1.8525      7.110   320.4620 4.8912e+01     1.9135      3.100      4.496    13.1829 0.0000e+00
      3.177      0.060     6.6931     63.137     37.761  28.491279     1.8557      7.094   320.6927 4.8602e+01     1.9366      3.115      4.519    13.1814 0.0000e+00
      3.192      0.060     6.4230     60.497     37.631  28.342263     1.8925      7.078   320.9819 4.8326e+01     1.9811      3.131      4.541    13.1107 0.0000e+00
      3.207      0.061     6.2288     58.535     37.477  28.150272     1.9668      7.062   321.2052 4.8138e+01     2.0549      3.145      4.561    12.9146 0.0000e+00
      3.222      0.062     6.1045     57.203     37.417  28.011371     2.0099      7.048   321.4137 4.7930e+01     2.0971      3.160      4.583    12.7693 0.0000e+00
      3.238      0.063     6.0489     56.532     37.513  27.996234     2.0090      7.035   321.8683 4.7631e+01     2.1553      3.175      4.604    12.7213 0.0000e+00
      3.254      0.064     6.0562     56.482     37.567  27.967153     2.0019      7.024   322.4853 4.7286e+01     2.4229      3.191      4.628    12.6733 0.0000e+00
      3.272      0.064     6.1078     56.864     37.488  27.850176     2.0064      7.014   323.0223 4.6901e+01     2.8613      3.209      4.654    12.5639 0.0000e+00
      3.289      0.063     6.1834     57.469     37.481  27.788311     2.0087      7.005   323.1990 4.6536e+01     3.0916      3.225      4.678    12.4227 0.0000e+00
      3.305      0.061     6.2674     58.174     37.628  27.854087     1.9921      6.998   323.1599 4.6212e+01     3.1010      3.241      4.701    12.3015 0.0000e+00
      3.320      0.059     6.3459     58.902     37.668  27.883415     1.9350      6.993   323.2377 4.5928e+01     3.2502      3.257      4.724    12.2145 0.0000e+00
      3.335      0.057     6.4229     59.654     37.476  27.761917     1.8508      6.989   323.2787 4.5630e+01     3.5522      3.272      4.745    12.1449 0.0000e+00
      3.348      0.056     6.5081     60.393     37.284  27.591589     1.8100      6.986   323.3980 4.5365e+01     3.7319      3.284      4.763    12.0673 0.0000e+00
      3.361      0.056     6.5935     61.008     37.254  27.474939     1.8095      6.982   323.7340 4.5161e+01     3.7740      3.295      4.778    11.9825 0.0000e+00
      3.375      0.057     6.6650     61.456     37.349  27.430884     1.8084      6.977   323.9855 4.4902e+01     3.7868      3.309      4.800    11.9880 0.0000e+00
      3.390      0.059     6.7173     61.766     37.487  27.439802     1.7413      6.972   324.0302 4.4616e+01     3.8250      3.325      4.823    12.0707 0.0000e+00
      3.405      0.062     6.7512     61.961     37.592  27.455672     1.6144      6.966   324.0161 4.4306e+01     3.9000      3.338      4.843    12.0410 0.0000e+00
      3.422      0.065     6.7722     62.081     37.699  27.495696     1.5514      6.961   323.9870 4.3976e+01     3.9307      3.356      4.867    11.8769 0.0000e+00
      3.439      0.067     6.7898     62.194     37.887  27.606199     1.5489      6.956   323.9367 4.3682e+01     3.9222      3.374      4.893    11.7050 0.0000e+00
      3.456      0.069     6.8071     62.307     37.978  27.648741     1.4835      6.951   324.0103 4.3393e+01     3.7971      3.389      4.915    11.5815 0.0000e+00
      3.473      0.071     6.8219     62.379     37.823  27.502037     1.3582      6.944   324.1885 4.3057e+01     3.5473      3.406      4.939    11.5053 0.0000e+00
      3.492      0.072     6.8326     62.389     37.686  27.356357     1.2931      6.938   324.3701 4.2702e+01     3.4047      3.424      4.966    11.4589 0.0000e+00
      3.512      0.071     6.8331     62.296     37.745  27.347759     1.2749      6.931   324.4860 4.2343e+01     3.3547      3.444      4.994    11.4289 0.0000e+00
      3.532      0.070     6.8169     62.057     37.880  27.398028     1.1841      6.926   324.4708 4.1978e+01     3.1252      3.465      5.025    11.4028 0.0000e+00
      3.551      0.067     6.7787     61.629     38.020  27.456117     1.0401      6.921   324.3589 4.1642e+01     2.7361      3.483      5.052    11.3616 0.0000e+00
      3.567      0.064     6.7212     61.039     38.102  27.478570     0.9680      6.916   324.2510 4.1375e+01     2.5259      3.498      5.074    11.2946 0.0000e+00
      3.581      0.062     6.6574     60.411     38.139  27.478971     0.9652      6.910   324.1987 4.1158e+01     2.5061      3.512      5.094    11.2223 0.0000e+00
      3.594      0.060     6.5985     59.845     38.227  27.524441     0.9502      6.904   324.1570 4.0893e+01     2.4054      3.524      5.112    11.1589 0.0000e+00
      3.609      0.060     6.5490     59.361     38.335  27.583823     0.9158      6.898   324.2629 4.0604e+01     2.2244      3.538      5.132    11.1023 0.0000e+00
      3.626      0.060     6.5052     58.924     38.425  27.625445     0.8988      6.893   324.4460 4.0294e+01     2.1475      3.555      5.157    11.0524 0.0000e+00
      3.643      0.061     6.4657     58.527     38.485  27.646662     0.9002      6.888   324.4789 3.9900e+01     2.1474      3.574      5.184    11.0175 0.0000e+00
      3.658      0.061     6.4286     58.154     38.519  27.649832     0.9142      6.883   324.4016 3.9491e+01     2.0712      3.588      5.204    11.0011 0.0000e+00
      3.673      0.060     6.3876     57.750     38.565  27.663758     0.9399      6.878   324.3717 3.9091e+01     1.9584      3.601      5.223    10.9775 0.0000e+00
      3.689      0.057     6.3356     57.259     38.616  27.688020     0.9536      6.873   324.4618 3.8731e+01     1.9429      3.617      5.247    10.9439 0.0000e+00
      3.704      0.052     6.2696     56.653     38.625  27.689177     0.9611      6.868   324.4592 3.8479e+01     1.9755      3.633      5.269    10.9157 0.0000e+00
      3.719      0.046     6.1942     55.970     38.610  27.677737     0.9656      6.864   324.3403 3.8292e+01     1.9556      3.648      5.291    10.8879 0.0000e+00
      3.731      0.040     6.1168     55.275     38.605  27.676696     0.9437      6.859   324.3143 3.8084e+01     1.8851      3.661      5.309    10.8602 0.0000e+00
      3.739      0.033     6.0421     54.607     38.598  27.676601     0.9081      6.855   324.4030 3.7754e+01     1.7648      3.668      5.319    10.8448 0.0000e+00
      3.744      0.029     6.0057     54.282     38.594  27.676593     0.8930      6.854   324.4673 3.7332e+01     1.6918      3.673      5.326    10.8395 0.0000e+00
      3.749 -9.990e-29 -9.990e-29 -9.990e-29 -9.990e-29 -9.990e-29 -9.990e-29 -9.990e-29 -9.990e-29 3.6892e+01 -9.990e-29      3.676      5.332    10.8391 0.0000e+00
      3.754 -9.990e-29 -9.990e-29 -9.990e-29 -9.990e-29 -9.990e-29 -9.990e-29 -9.990e-29 -9.990e-29 3.6561e+01 -9.990e-29      3.681      5.339    10.8420 0.0000e+00
      3.758 -9.990e-29 -9.990e-29 -9.990e-29 -9.990e-29 -9.990e-29 -9.990e-29 -9.990e-29 -9.990e-29 3.6496e+01 -9.990e-29      3.686      5.346    10.8498 0.0000e+00
      3.759 -9.990e-29 -9.990e-29 -9.990e-29 -9.990e-29 -9.990e-29 -9.990e-29 -9.990e-29 -9.990e-29 3.6537e+01 -9.990e-29      3.688      5.348    10.8571 0.0000e+00
