* Sea-Bird SBE19plus  Data File:
* FileName = C:\DATA\051418_fcr_0006.hex
* Software version 2.6.3.104 SB_Terminal.dll
* Temperature SN = 7809
* Conductivity SN = 7809
* System UpLoad Time = May 14 2018 15:32:34
* <ApplicationData>
* <Seaterm232>
* <SoftwareVersion>2.6.3.104</SoftwareVersion>
* <BuildDate>30-Jun-2017</BuildDate>
* </Seaterm232>
* </ApplicationData>
* cast   6 14 May 2018 17:35:25 samples 4199 to 5177, avg = 1, stop = mag switch
# nquan = 15
# nvalues = 845                         
# units = specified
# name 0 = depFM: Depth [fresh water, m]
# name 1 = dz/dtM: Descent Rate [m/s]
# name 2 = sbeox0Mg/L: Oxygen, SBE 43 [mg/l]
# name 3 = sbeox0PS: Oxygen, SBE 43 [% saturation]
# name 4 = specc: Specific Conductance [uS/cm]
# name 5 = c0uS/cm: Conductivity [uS/cm]
# name 6 = flECO-AFL: Fluorescence, WET Labs ECO-AFL/FL [mg/m^3]
# name 7 = ph: pH
# name 8 = orp: Oxidation Reduction Potential [mV]
# name 9 = par/sat/log: PAR/Logarithmic, Satlantic
# name 10 = turbWETntu0: Turbidity, WET Labs ECO [NTU]
# name 11 = prdM: Pressure, Strain Gauge [db]
# name 12 = prdE: Pressure, Strain Gauge [psi]
# name 13 = tv290C: Temperature [ITS-90, deg C]
# name 14 = flag:  0.000e+00
# span 0 =     -0.117,      9.469       
# span 1 =     -0.211,      0.143       
# span 2 =     4.9133,    10.2636       
# span 3 =     60.083,    108.969       
# span 4 =     34.192,     39.612       
# span 5 =  27.065244,  37.105651       
# span 6 =     0.2925,     3.2998       
# span 7 =      6.458,      7.520       
# span 8 =   279.4107,   354.7086       
# span 9 = 5.9941e+00, 2.5697e+03       
# span 10 =    -0.4162,     1.2584      
# span 11 =     -0.116,      9.288      
# span 12 =     -0.168,     13.471      
# span 13 =     9.3292,    25.7825      
# span 14 = 0.0000e+00, 0.0000e+00      
# interval = seconds: 0.25
# start_time = May 14 2018 17:35:25 [Instrument's time stamp, header]
# bad_flag = -9.990e-29
# <Sensors count="9" >
#   <sensor Channel="1" >
#     <!-- Count, Temperature -->
#     <TemperatureSensor SensorID="58" >
#       <SerialNumber>7809</SerialNumber>
#       <CalibrationDate>09-Mar-18</CalibrationDate>
#       <A0>1.21093245e-003</A0>
#       <A1>2.84356597e-004</A1>
#       <A2>-1.94507398e-006</A2>
#       <A3>2.12806664e-007</A3>
#       <Slope>1.00000000</Slope>
#       <Offset>0.0000</Offset>
#     </TemperatureSensor>
#   </sensor>
#   <sensor Channel="2" >
#     <!-- Frequency 0, Conductivity -->
#     <ConductivitySensor SensorID="3" >
#       <SerialNumber>7809</SerialNumber>
#       <CalibrationDate>09-Mar-18</CalibrationDate>
#       <UseG_J>1</UseG_J>
#       <!-- Cell const and series R are applicable only for wide range sensors. -->
#       <SeriesR>0.0000</SeriesR>
#       <CellConst>2000.0000</CellConst>
#       <ConductivityType>0</ConductivityType>
#       <Coefficients equation="0" >
#         <A>0.00000000e+000</A>
#         <B>0.00000000e+000</B>
#         <C>0.00000000e+000</C>
#         <D>0.00000000e+000</D>
#         <M>0.0</M>
#         <CPcor>-9.57000000e-008</CPcor>
#       </Coefficients>
#       <Coefficients equation="1" >
#         <G>-1.00672082e+000</G>
#         <H>1.26906489e-001</H>
#         <I>-1.40584351e-004</I>
#         <J>2.47837121e-005</J>
#         <CPcor>-9.57000000e-008</CPcor>
#         <CTcor>3.2500e-006</CTcor>
#         <!-- WBOTC not applicable unless ConductivityType = 1. -->
#         <WBOTC>0.00000000e+000</WBOTC>
#       </Coefficients>
#       <Slope>1.00000000</Slope>
#       <Offset>0.00000</Offset>
#     </ConductivitySensor>
#   </sensor>
#   <sensor Channel="3" >
#     <!-- Count, Pressure, Strain Gauge -->
#     <PressureSensor SensorID="46" >
#       <SerialNumber>7809</SerialNumber>
#       <CalibrationDate>07-Mar-18</CalibrationDate>
#       <PA0>-4.08176359e-002</PA0>
#       <PA1>4.85188419e-004</PA1>
#       <PA2>-3.51168169e-012</PA2>
#       <PTEMPA0>-5.37806900e+001</PTEMPA0>
#       <PTEMPA1>5.36620721e+001</PTEMPA1>
#       <PTEMPA2>4.87214332e-002</PTEMPA2>
#       <PTCA0>5.25213435e+005</PTCA0>
#       <PTCA1>1.79532409e+000</PTCA1>
#       <PTCA2>-2.84353509e-001</PTCA2>
#       <PTCB0>2.51668750e+001</PTCB0>
#       <PTCB1>3.75000000e-004</PTCB1>
#       <PTCB2>0.00000000e+000</PTCB2>
#       <Offset>0.000000</Offset>
#     </PressureSensor>
#   </sensor>
#   <sensor Channel="4" >
#     <!-- A/D voltage 0, pH -->
#     <pH_Sensor SensorID="43" >
#       <SerialNumber>0363</SerialNumber>
#       <CalibrationDate>16-Mar-18</CalibrationDate>
#       <Slope>4.6194</Slope>
#       <Offset>2.5947</Offset>
#     </pH_Sensor>
#   </sensor>
#   <sensor Channel="5" >
#     <!-- A/D voltage 1, Oxidation Reduction Potential -->
#     <OxidationReductionPotentialSensor SensorID="41" >
#       <SerialNumber>0363</SerialNumber>
#       <CalibrationDate>16-Mar-18</CalibrationDate>
#       <B>2.499480</B>
#       <M>-0.496195</M>
#       <Offset>0.0</Offset>
#     </OxidationReductionPotentialSensor>
#   </sensor>
#   <sensor Channel="6" >
#     <!-- A/D voltage 2, Oxygen, SBE 43 -->
#     <OxygenSensor SensorID="38" >
#       <SerialNumber>0434</SerialNumber>
#       <CalibrationDate>13-Mar-18</CalibrationDate>
#       <Use2007Equation>1</Use2007Equation>
#       <CalibrationCoefficients equation="0" >
#         <!-- Coefficients for Owens-Millard equation. -->
#         <Boc>0.0000</Boc>
#         <Soc>0.0000e+000</Soc>
#         <offset>0.0000</offset>
#         <Pcor>0.00e+000</Pcor>
#         <Tcor>0.0000</Tcor>
#         <Tau>0.0</Tau>
#       </CalibrationCoefficients>
#       <CalibrationCoefficients equation="1" >
#         <!-- Coefficients for Sea-Bird equation - SBE calibration in 2007 and later. -->
#         <Soc>4.5718e-001</Soc>
#         <offset>-0.6113</offset>
#         <A>-4.0649e-003</A>
#         <B> 2.0945e-004</B>
#         <C>-3.3182e-006</C>
#         <D0> 2.5826e+000</D0>
#         <D1> 1.92634e-004</D1>
#         <D2>-4.64803e-002</D2>
#         <E> 3.6000e-002</E>
#         <Tau20> 1.2200</Tau20>
#         <H1>-3.3000e-002</H1>
#         <H2> 5.0000e+003</H2>
#         <H3> 1.4500e+003</H3>
#       </CalibrationCoefficients>
#     </OxygenSensor>
#   </sensor>
#   <sensor Channel="7" >
#     <!-- A/D voltage 3, PAR/Logarithmic, Satlantic -->
#     <PARLog_SatlanticSensor SensorID="76" >
#       <SerialNumber>1122</SerialNumber>
#       <CalibrationDate>22-Jun-2017</CalibrationDate>
#       <a0>9.6090e-001</a0>
#       <a1>8.0780e-001</a1>
#       <Im>1.3589e+000</Im>
#       <Multiplier>1.0000e+000</Multiplier>
#     </PARLog_SatlanticSensor>
#   </sensor>
#   <sensor Channel="8" >
#     <!-- A/D voltage 4, Fluorometer, WET Labs ECO-AFL/FL -->
#     <FluoroWetlabECO_AFL_FL_Sensor SensorID="20" >
#       <SerialNumber>FLNTURT-2496</SerialNumber>
#       <CalibrationDate>25-Jan-2017</CalibrationDate>
#       <ScaleFactor>5.30000000e+001</ScaleFactor>
#       <!-- Dark output -->
#       <Vblank>0.0560</Vblank>
#     </FluoroWetlabECO_AFL_FL_Sensor>
#   </sensor>
#   <sensor Channel="9" >
#     <!-- A/D voltage 5, Turbidity Meter, WET Labs, ECO-NTU -->
#     <TurbidityMeter SensorID="67" >
#       <SerialNumber>FLNTURT-2496</SerialNumber>
#       <CalibrationDate>25-Jan-2017</CalibrationDate>
#       <ScaleFactor>176.000000</ScaleFactor>
#       <!-- Dark output -->
#       <DarkVoltage>0.072000</DarkVoltage>
#     </TurbidityMeter>
#   </sensor>
# </Sensors>
# datcnv_date = May 14 2018 15:34:58, 7.26.7.114 [datcnv_vars = 14]
# datcnv_in = C:\DATA\051418_fcr49.hex C:\DATA\SBE19plusV2_7809.xmlcon
# datcnv_skipover = 0
# datcnv_ox_hysteresis_correction = yes
# datcnv_ox_tau_correction = yes
# filter_date = May 14 2018 15:35:17, 7.26.7.114
# filter_in = C:\DATA\051418_fcr49.cnv
# filter_low_pass_tc_A = 0.030
# filter_low_pass_tc_B = 0.150
# filter_low_pass_A_vars = prdM prdE tv290C
# filter_low_pass_B_vars = depFM dz/dtM sbeox0Mg/L sbeox0PS specc c0uS/cm flECO-AFL ph orp par/sat/log turbWETntu0
# alignctd_date = May 14 2018 15:35:42, 7.26.7.114
# alignctd_in = C:\DATA\051418_fcr49.cnv
# alignctd_adv = dz/dtM 1.000, sbeox0Mg/L 1.000, sbeox0PS 1.000, specc 1.000, c0uS/cm 1.000, flECO-AFL 1.000, ph 1.000, orp 1.000, turbWETntu0 1.000                                                                                 
# file_type = ascii
*END*
      0.015      0.093     8.3106    101.961     36.412  36.955532     0.6657      7.207   279.6889 2.5226e+02     0.2615     -0.000      0.001    25.7632 0.0000e+00
      0.056      0.118     8.3571    102.510     36.280  36.813903     0.6674      7.228   279.6854 2.4913e+02     0.2380      0.055      0.080    25.7825 0.0000e+00
      0.101      0.136     8.4047    103.069     36.157  36.678890     0.6702      7.246   279.4107 2.4753e+02     0.2364      0.104      0.151    25.7728 0.0000e+00
      0.139      0.143     8.4527    103.578     36.040  36.530072     0.6724      7.252   279.5503 2.4064e+02     0.2417      0.134      0.194    25.7516 0.0000e+00
      0.178      0.136     8.4907    103.828     35.878  36.284994     0.6757      7.247   279.9967 2.2509e+02     0.2415      0.174      0.253    25.7398 0.0000e+00
      0.218      0.121     8.4742    103.259     35.737  36.002408     0.6827      7.239   280.4208 2.1073e+02     0.2339      0.217      0.315    25.7285 0.0000e+00
      0.248      0.105     8.3762    101.644     35.678  35.781115     0.6839      7.239   280.8923 2.0660e+02     0.2105      0.247      0.359    25.7216 0.0000e+00
      0.268      0.092     8.2407     99.624     35.685  35.641830     0.6530      7.247   280.9650 2.1521e+02     0.2333      0.264      0.383    25.7017 0.0000e+00
      0.284      0.081     8.1026     97.649     35.753  35.588540     0.5937      7.262   280.6118 2.4923e+02     0.3266      0.279      0.403    25.5969 0.0000e+00
      0.299      0.071     7.9643     95.741     35.843  35.581269     0.5547      7.281   280.6650 4.3267e+02     0.3930      0.293      0.425    25.3738 0.0000e+00
      0.316      0.063     7.8265     93.904     35.891  35.553775     0.5392      7.300   281.0050 8.1062e+02     0.3946      0.308      0.447    25.1253 0.0000e+00
      0.336      0.054     7.6889     92.119     35.902  35.510094     0.5173      7.315   281.5408 1.0311e+03     0.3460      0.329      0.478    24.9214 0.0000e+00
      0.354      0.043     7.5594     90.469     35.996  35.561211     0.4925      7.329   282.0663 1.0370e+03     0.2633      0.351      0.509    24.7541 0.0000e+00
      0.365      0.026     7.4591     89.194     36.261  35.790639     0.4879      7.347   281.8520 1.1897e+03     0.2186      0.362      0.524    24.6184 0.0000e+00
      0.369      0.001     7.3940     88.355     36.497  35.997241     0.4975      7.370   281.3593 1.2195e+03     0.2335      0.365      0.528    24.5153 0.0000e+00
      0.368     -0.033     7.3442     87.712     36.484  35.962946     0.5265      7.390   281.0988 1.1282e+03     0.2909      0.360      0.523    24.4416 0.0000e+00
      0.363     -0.074     7.2957     87.102     36.418  35.884135     0.5813      7.404   281.0266 1.2825e+03     0.3624      0.359      0.520    24.3864 0.0000e+00
      0.347     -0.119     7.2453     86.489     36.410  35.870122     0.6187      7.414   281.2608 1.2749e+03     0.4263      0.349      0.507    24.3420 0.0000e+00
      0.309     -0.161     7.1918     85.842     36.335  35.793511     0.6284      7.423   281.8653 1.1398e+03     0.4535      0.309      0.448    24.3079 0.0000e+00
      0.253     -0.193     7.1396     85.210     36.329  35.783617     0.6340      7.432   282.3128 1.1377e+03     0.2338      0.251      0.364    24.2756 0.0000e+00
      0.188     -0.211     7.0941     84.664     36.491  35.941059     0.6323      7.440   282.1978 9.5254e+02    -0.1861      0.188      0.273    24.2555 0.0000e+00
      0.117     -0.210     7.0468     84.098     36.598  36.045537     0.6254      7.447   282.0231 6.9622e+02    -0.4115      0.112      0.162    24.2533 0.0000e+00
      0.053     -0.189     6.9847     83.353     36.585  36.030491     0.6244      7.441   282.0067 9.7841e+02    -0.4162      0.044      0.064    24.2493 0.0000e+00
      0.006     -0.155     6.9078     82.449     36.625  36.076760     0.6195      7.420   282.0859 1.6702e+03    -0.3953      0.002      0.004    24.2400 0.0000e+00
     -0.027     -0.115     6.8222     81.462     36.629  36.096793     0.5845      7.406   282.5511 2.0250e+03    -0.2804     -0.030     -0.044    24.2403 0.0000e+00
     -0.048     -0.075     6.7312     80.416     36.464  35.955113     0.5225      7.405   283.3285 2.0606e+03    -0.0043     -0.053     -0.077    24.2416 0.0000e+00
     -0.054     -0.040     6.6470     79.449     36.311  35.824779     0.4776      7.406   283.9139 2.0703e+03     0.1962     -0.054     -0.078    24.2323 0.0000e+00
     -0.055     -0.015     6.5860     78.764     36.320  35.854941     0.4732      7.403   284.1231 2.0456e+03     0.2221     -0.052     -0.076    24.2383 0.0000e+00
     -0.056      0.000     6.5528     78.409     36.384  35.938701     0.5160      7.400   284.2230 1.9893e+03     0.2167     -0.057     -0.083    24.2692 0.0000e+00
     -0.051      0.005     6.5395     78.289     36.374  35.948224     0.5808      7.404   284.1746 1.5480e+03     0.2219     -0.052     -0.075    24.2967 0.0000e+00
     -0.041      0.001     6.5356     78.284     36.312  35.906584     0.6138      7.416   283.7963 1.1840e+03     0.2244     -0.038     -0.056    24.3216 0.0000e+00
     -0.036     -0.004     6.5374     78.360     36.257  35.879925     0.6120      7.430   283.5209 1.6293e+03     0.2160     -0.032     -0.046    24.3535 0.0000e+00
     -0.041     -0.007     6.5503     78.587     36.285  35.943546     0.6134      7.436   283.8573 1.7182e+03     0.2124     -0.038     -0.055    24.3831 0.0000e+00
     -0.052     -0.010     6.5774     78.991     36.408  36.104165     0.6222      7.431   284.5070 1.4124e+03     0.2116     -0.052     -0.075    24.4080 0.0000e+00
     -0.062     -0.013     6.6067     79.414     36.503  36.233943     0.6173      7.431   284.7519 1.8282e+03     0.2070     -0.065     -0.094    24.4322 0.0000e+00
     -0.063     -0.013     6.6252     79.702     36.478  36.242266     0.6083      7.442   284.5809 2.3098e+03     0.2168     -0.066     -0.096    24.4692 0.0000e+00
     -0.057     -0.011     6.6330     79.859     36.409  36.204854     0.6144      7.459   284.3320 2.4037e+03     0.2385     -0.054     -0.078    24.5221 0.0000e+00
     -0.056     -0.007     6.6304     79.878     36.406  36.226302     0.6275      7.476   284.0663 2.4507e+03     0.2556     -0.051     -0.072    24.5802 0.0000e+00
     -0.063     -0.004     6.6115     79.688     36.472  36.311057     0.6293      7.486   284.0354 2.4949e+03     0.2407     -0.062     -0.090    24.6286 0.0000e+00
     -0.070     -0.004     6.5729     79.254     36.549  36.403841     0.6168      7.490   284.3880 2.5129e+03     0.2110     -0.073     -0.105    24.6693 0.0000e+00
     -0.070     -0.004     6.5147     78.578     36.591  36.458831     0.5775      7.489   284.8025 2.4613e+03     0.2324     -0.070     -0.102    24.7173 0.0000e+00
     -0.067     -0.002     6.4413     77.708     36.593  36.467769     0.5225      7.488   285.2614 2.1647e+03     0.2553     -0.065     -0.095    24.7518 0.0000e+00
     -0.065      0.001     6.3617     76.753     36.571  36.448395     0.4940      7.487   285.5488 1.5657e+03     0.2132     -0.064     -0.093    24.7725 0.0000e+00
     -0.065      0.002     6.2838     75.814     36.537  36.415156     0.4899      7.488   285.3517 9.6254e+02     0.1803     -0.062     -0.091    24.7963 0.0000e+00
     -0.066      0.001     6.2095     74.919     36.504  36.383502     0.4909      7.493   285.1154 6.4200e+02     0.1935     -0.065     -0.094    24.8157 0.0000e+00
     -0.067      0.001     6.1404     74.089     36.502  36.383296     0.5064      7.497   285.0151 5.6197e+02     0.2204     -0.067     -0.098    24.8257 0.0000e+00
     -0.067      0.001     6.0776     73.335     36.530  36.412664     0.5393      7.498   285.5146 5.5003e+02     0.2306     -0.066     -0.096    24.8271 0.0000e+00
     -0.066      0.001     6.0203     72.646     36.537  36.420965     0.5576      7.499   286.5088 5.8113e+02     0.2264     -0.065     -0.094    24.8270 0.0000e+00
     -0.064      0.001     5.9704     72.047     36.533  36.420138     0.5540      7.501   286.8829 7.6271e+02     0.2300     -0.063     -0.090    24.8285 0.0000e+00
     -0.063      0.001     5.9281     71.540     36.578  36.466200     0.5688      7.505   286.7693 1.1585e+03     0.3045     -0.061     -0.088    24.8309 0.0000e+00
     -0.064      0.000     5.8895     71.078     36.643  36.533232     0.6076      7.510   286.5113 1.6573e+03     0.4562     -0.062     -0.089    24.8334 0.0000e+00
     -0.066      0.000     5.8509     70.617     36.703  36.595370     0.6279      7.514   286.1729 2.0126e+03     0.5072     -0.065     -0.094    24.8357 0.0000e+00
     -0.067     -0.001     5.8117     70.149     36.751  36.645782     0.6217      7.517   286.6363 2.0789e+03     0.4322     -0.066     -0.096    24.8388 0.0000e+00
     -0.066     -0.001     5.7706     69.657     36.738  36.634570     0.5958      7.517   287.8981 1.9009e+03     0.3434     -0.064     -0.094    24.8416 0.0000e+00
     -0.065     -0.001     5.7261     69.123     36.688  36.586857     0.5630      7.518   288.6951 1.5428e+03     0.2574     -0.063     -0.091    24.8442 0.0000e+00
     -0.065     -0.001     5.6824     68.598     36.677  36.577092     0.5560      7.519   288.6149 1.0954e+03     0.2164     -0.063     -0.091    24.8475 0.0000e+00
     -0.066      0.000     5.6414     68.108     36.677  36.580028     0.5578      7.520   288.2193 7.7167e+02     0.2145     -0.065     -0.094    24.8505 0.0000e+00
     -0.068      0.003     5.6018     67.633     36.717  36.622355     0.5479      7.519   288.2129 6.5978e+02     0.2355     -0.066     -0.096    24.8533 0.0000e+00
     -0.068      0.004     5.5644     67.184     36.800  36.707718     0.5464      7.514   288.6249 6.5264e+02     0.3167     -0.066     -0.096    24.8565 0.0000e+00
     -0.066      0.002     5.5335     66.817     36.749  36.659282     0.5589      7.510   288.9842 7.4086e+02     0.4027     -0.066     -0.096    24.8587 0.0000e+00
     -0.061      0.000     5.5131     66.582     36.564  36.481397     0.5694      7.507   289.1157 1.0064e+03     0.4511     -0.063     -0.090    24.8620 0.0000e+00
     -0.056     -0.000     5.5057     66.511     36.471  36.399139     0.5635      7.498   289.1821 1.3181e+03     0.4753     -0.051     -0.074    24.8655 0.0000e+00
     -0.059     -0.000     5.5181     66.670     36.556  36.490551     0.5515      7.484   289.2704 1.4364e+03     0.4518     -0.054     -0.078    24.8685 0.0000e+00
     -0.068     -0.001     5.5566     67.139     36.698  36.633796     0.5438      7.476   288.9792 1.4788e+03     0.4104     -0.072     -0.104    24.8692 0.0000e+00
     -0.070     -0.004     5.6212     67.944     36.721  36.670037     0.5441      7.479   288.6734 1.5449e+03     0.4011     -0.074     -0.106    24.8793 0.0000e+00
     -0.063     -0.004     5.7090     69.065     36.627  36.611127     0.5739      7.487   288.9279 1.3431e+03     0.3394     -0.060     -0.086    24.8978 0.0000e+00
     -0.060     -0.002     5.8139     70.397     36.600  36.620351     0.6095      7.494   289.2169 1.0909e+03     0.2144     -0.056     -0.079    24.9092 0.0000e+00
     -0.064      0.000     5.9196     71.723     36.672  36.718092     0.6160      7.500   289.3291 1.3357e+03     0.1704     -0.063     -0.092    24.9014 0.0000e+00
     -0.069     -0.002     6.0056     72.808     36.708  36.776547     0.6168      7.506   289.5097 1.8700e+03     0.2045     -0.071     -0.103    24.9081 0.0000e+00
     -0.069     -0.004     6.0619     73.523     36.669  36.755430     0.6187      7.510   289.2498 2.2505e+03     0.2305     -0.069     -0.099    24.9754 0.0000e+00
     -0.066     -0.004     6.0851     73.819     36.622  36.716903     0.6022      7.513   288.5956 2.4182e+03     0.2403     -0.064     -0.092    25.0301 0.0000e+00
     -0.066     -0.002     6.0720     73.664     36.594  36.691875     0.5737      7.514   288.5690 2.3516e+03     0.2314     -0.065     -0.094    25.0540 0.0000e+00
     -0.069     -0.000     6.0291     73.145     36.608  36.706925     0.5501      7.514   289.1005 1.9391e+03     0.2150     -0.068     -0.098    25.0917 0.0000e+00
     -0.071     -0.000     5.9695     72.422     36.673  36.771816     0.5453      7.513   289.6011 1.3096e+03     0.2251     -0.070     -0.100    25.1190 0.0000e+00
     -0.071     -0.001     5.8971     71.544     36.742  36.841223     0.5717      7.512   289.2876 8.6073e+02     0.2927     -0.071     -0.102    25.1261 0.0000e+00
     -0.069     -0.001     5.8178     70.585     36.747  36.847333     0.6120      7.511   288.2344 7.5928e+02     0.3911     -0.069     -0.099    25.1274 0.0000e+00
     -0.067     -0.002     5.7427     69.676     36.682  36.782175     0.6282      7.512   287.7082 9.4005e+02     0.4380     -0.065     -0.095    25.1291 0.0000e+00
     -0.067     -0.003     5.6765     68.871     36.652  36.752180     0.6203      7.513   287.9162 1.3773e+03     0.4326     -0.064     -0.093    25.1279 0.0000e+00
     -0.069     -0.003     5.6190     68.171     36.703  36.802291     0.6171      7.514   288.4259 1.9205e+03     0.4474     -0.067     -0.098    25.1275 0.0000e+00
     -0.073     -0.003     5.5692     67.566     36.781  36.879864     0.6181      7.513   288.7949 2.3115e+03     0.4652     -0.073     -0.106    25.1306 0.0000e+00
     -0.075     -0.003     5.5241     67.021     36.828  36.927794     0.6136      7.512   288.6775 2.4510e+03     0.4339     -0.075     -0.108    25.1328 0.0000e+00
     -0.074     -0.002     5.4828     66.524     36.835  36.937136     0.6081      7.511   288.2109 2.4242e+03     0.4046     -0.073     -0.106    25.1310 0.0000e+00
     -0.073      0.000     5.4477     66.102     36.825  36.929305     0.5894      7.510   287.8851 2.3037e+03     0.3555     -0.072     -0.104    25.1276 0.0000e+00
     -0.073      0.002     5.4176     65.738     36.791  36.896639     0.5614      7.508   287.8357 2.1080e+03     0.2672     -0.071     -0.103    25.1273 0.0000e+00
     -0.073      0.002     5.3881     65.382     36.753  36.859798     0.5450      7.507   287.9582 1.8961e+03     0.2226     -0.071     -0.103    25.1302 0.0000e+00
     -0.072      0.001     5.3572     65.009     36.757  36.865016     0.5386      7.508   288.3338 1.7446e+03     0.2127     -0.071     -0.103    25.1337 0.0000e+00
     -0.072      0.001     5.3265     64.639     36.787  36.896205     0.5577      7.509   288.7632 1.7027e+03     0.2080     -0.071     -0.102    25.1365 0.0000e+00
     -0.071      0.001     5.2968     64.280     36.808  36.919274     0.6007      7.510   288.8477 1.7615e+03     0.2269     -0.069     -0.100    25.1381 0.0000e+00
     -0.071      0.001     5.2681     63.935     36.841  36.953373     0.6272      7.509   288.6682 1.8908e+03     0.2585     -0.070     -0.101    25.1391 0.0000e+00
     -0.071      0.001     5.2419     63.620     36.876  36.990863     0.6301      7.507   288.4853 2.0716e+03     0.2540     -0.070     -0.102    25.1407 0.0000e+00
     -0.071      0.001     5.2168     63.318     36.874  36.991414     0.6262      7.504   288.3575 2.2351e+03     0.2032     -0.069     -0.100    25.1426 0.0000e+00
     -0.070      0.000     5.1927     63.029     36.841  36.960044     0.6357      7.504   288.8435 2.3249e+03     0.1629     -0.069     -0.099    25.1449 0.0000e+00
     -0.070 2.2073e-08     5.1724     62.785     36.809  36.929194     0.6619      7.505   289.7159 2.3359e+03     0.1634     -0.068     -0.099    25.1472 0.0000e+00
     -0.071 2.4280e-07     5.1557     62.585     36.814  36.936034     0.6768      7.505   289.9576 2.2921e+03     0.1799     -0.069     -0.099    25.1496 0.0000e+00
     -0.072 6.2179e-07     5.1399     62.396     36.856  36.979233     0.6780      7.504   289.8726 2.2271e+03     0.2092     -0.070     -0.102    25.1524 0.0000e+00
     -0.072      0.000     5.1238     62.202     36.882  37.006829     0.6675      7.504   289.8061 2.1115e+03     0.2421     -0.072     -0.104    25.1552 0.0000e+00
     -0.071      0.000     5.1070     62.001     36.889  37.015597     0.6410      7.504   290.1861 1.9365e+03     0.2418     -0.071     -0.102    25.1580 0.0000e+00
     -0.070      0.001     5.0898     61.796     36.893  37.021724     0.6244      7.504   291.1120 1.7937e+03     0.2065     -0.069     -0.100    25.1598 0.0000e+00
     -0.070      0.001     5.0745     61.612     36.887  37.017385     0.6226      7.505   291.5367 1.7162e+03     0.1812     -0.068     -0.099    25.1614 0.0000e+00
     -0.070      0.002     5.0607     61.447     36.895  37.026658     0.6196      7.506   291.6211 1.6804e+03     0.2408     -0.068     -0.099    25.1634 0.0000e+00
     -0.070      0.004     5.0461     61.271     36.937  37.070318     0.6147      7.506   291.5309 1.7376e+03     0.3478     -0.068     -0.099    25.1656 0.0000e+00
     -0.070      0.004     5.0347     61.135     36.967  37.100600     0.6195      7.503   291.0482 1.8706e+03     0.4066     -0.070     -0.101    25.1681 0.0000e+00
     -0.069      0.003     5.0290     61.068     36.940  37.075160     0.6310      7.495   291.1198 2.0146e+03     0.4335     -0.068     -0.100    25.1708 0.0000e+00
     -0.065      0.000     5.0315     61.103     36.878  37.016830     0.6346      7.486   291.8799 2.1161e+03     0.3678     -0.063     -0.093    25.1727 0.0000e+00
     -0.062     -0.004     5.0478     61.307     36.760  36.903555     0.6264      7.477   292.4947 2.0597e+03     0.2224     -0.058     -0.084    25.1745 0.0000e+00
     -0.064     -0.007     5.0698     61.579     36.639  36.785505     0.6146      7.467   292.7019 1.8223e+03     0.1713     -0.061     -0.089    25.1757 0.0000e+00
     -0.069     -0.007     5.0893     61.817     36.651  36.796481     0.6206      7.451   292.5786 1.5264e+03     0.2072     -0.067     -0.097    25.1771 0.0000e+00
     -0.076     -0.007     5.1082     62.042     36.766  36.909216     0.6439      7.435   292.4668 1.4293e+03     0.2292     -0.075     -0.108    25.1811 0.0000e+00
     -0.081     -0.007     5.1265     62.276     36.854  37.005110     0.6664      7.428   292.5548 1.6898e+03     0.2240     -0.083     -0.122    25.1887 0.0000e+00
     -0.077     -0.007     5.1457     62.562     36.818  37.003047     0.6727      7.428   292.7830 2.0378e+03     0.2053     -0.077     -0.112    25.1948 0.0000e+00
     -0.072     -0.008     5.1727     62.966     36.715  36.947850     0.6641      7.432   293.0742 2.1119e+03     0.1855     -0.068     -0.098    25.1956 0.0000e+00
     -0.073     -0.011     5.2067     63.435     36.642  36.909547     0.6636      7.438   293.2365 1.8416e+03     0.1985     -0.070     -0.101    25.1867 0.0000e+00
     -0.080     -0.016     5.2394     63.859     36.575  36.857612     0.6388      7.445   293.1973 1.4043e+03     0.2707     -0.078     -0.113    25.1805 0.0000e+00
     -0.087     -0.020     5.2674     64.202     36.545  36.828132     0.5762      7.453   292.7718 1.0901e+03     0.3577     -0.085     -0.124    25.2351 0.0000e+00
     -0.095     -0.020     5.2922     64.491     36.595  36.870736     0.5407      7.459   292.3944 1.1932e+03     0.3952     -0.092     -0.134    25.3224 0.0000e+00
     -0.103     -0.017     5.3159     64.775     36.655  36.928036     0.5406      7.463   292.6773 1.7318e+03     0.3879     -0.103     -0.149    25.3677 0.0000e+00
     -0.108     -0.013     5.3367     65.061     36.656  36.949209     0.5471      7.464   293.0083 2.2545e+03     0.3308     -0.109     -0.158    25.3884 0.0000e+00
     -0.106     -0.009     5.3536     65.341     36.598  36.936183     0.5549      7.463   293.0414 2.4536e+03     0.2235     -0.105     -0.152    25.3864 0.0000e+00
     -0.104     -0.005     5.3724     65.638     36.520  36.897665     0.5524      7.462   293.0777 2.3979e+03     0.1595     -0.100     -0.145    25.3697 0.0000e+00
     -0.106     -0.003     5.4017     66.025     36.470  36.864710     0.5436      7.464   292.7592 2.0797e+03     0.1974     -0.104     -0.150    25.3535 0.0000e+00
     -0.110     -0.002     5.4444     66.553     36.457  36.855377     0.5321      7.468   292.2024 1.5376e+03     0.2539     -0.109     -0.157    25.3740 0.0000e+00
     -0.111     -0.002     5.4948     67.169     36.450  36.848348     0.5144      7.469   292.1095 1.0275e+03     0.2322     -0.109     -0.158    25.4615 0.0000e+00
     -0.110     -0.001     5.5512     67.853     36.448  36.843246     0.5040      7.470   292.4101 7.6928e+02     0.1793     -0.108     -0.156    25.5272 0.0000e+00
     -0.109      0.000     5.6152     68.624     36.468  36.857220     0.4985      7.470   292.8258 8.5011e+02     0.1643     -0.107     -0.155    25.5394 0.0000e+00
     -0.109      0.002     5.6820     69.427     36.508  36.890242     0.5035      7.470   292.4891 1.2753e+03     0.1728     -0.107     -0.155    25.5412 0.0000e+00
     -0.109      0.002     5.7432     70.165     36.548  36.924879     0.5266      7.472   291.4368 1.8585e+03     0.1904     -0.107     -0.154    25.5414 0.0000e+00
     -0.108      0.001     5.7883     70.716     36.582  36.958373     0.5490      7.475   291.1158 2.2875e+03     0.1934     -0.106     -0.153    25.5374 0.0000e+00
     -0.107      0.001     5.8103     70.993     36.597  36.977582     0.5630      7.476   291.3603 2.4533e+03     0.1793     -0.105     -0.153    25.5279 0.0000e+00
     -0.107      0.001     5.8095     70.992     36.581  36.966562     0.5668      7.477   291.6401 2.4405e+03     0.2338     -0.104     -0.151    25.5160 0.0000e+00
     -0.107      0.001     5.7890     70.748     36.563  36.952193     0.5588      7.477   292.0039 2.3020e+03     0.3632     -0.105     -0.152    25.5073 0.0000e+00
     -0.107      0.001     5.7515     70.288     36.543  36.930905     0.5478      7.476   291.8875 2.0829e+03     0.4315     -0.105     -0.153    25.5066 0.0000e+00
     -0.107      0.000     5.7013     69.667     36.516  36.899743     0.5445      7.474   291.3505 1.9040e+03     0.4194     -0.105     -0.153    25.5133 0.0000e+00
     -0.106 4.2828e-07     5.6484     69.010     36.515  36.893038     0.5462      7.474   291.1035 1.8546e+03     0.3995     -0.104     -0.151    25.5230 0.0000e+00
     -0.106      0.000     5.5997     68.405     36.541  36.913356     0.5500      7.473   291.2241 1.9037e+03     0.3744     -0.104     -0.151    25.5285 0.0000e+00
     -0.107      0.000     5.5563     67.867     36.586  36.954812     0.5535      7.471   291.5182 1.9901e+03     0.3295     -0.105     -0.152    25.5273 0.0000e+00
     -0.107      0.001     5.5178     67.393     36.646  37.013118     0.5530      7.470   291.9070 2.1012e+03     0.2831     -0.106     -0.153    25.5205 0.0000e+00
     -0.107      0.001     5.4828     66.968     36.678  37.046598     0.5520      7.468   292.1394 2.2442e+03     0.2406     -0.105     -0.153    25.5116 0.0000e+00
     -0.106      0.001     5.4493     66.567     36.669  37.041986     0.5505      7.468   292.0902 2.3791e+03     0.1821     -0.104     -0.151    25.5026 0.0000e+00
     -0.105      0.001     5.4176     66.190     36.642  37.020895     0.5544      7.469   291.9146 2.4583e+03     0.1564     -0.103     -0.150    25.4956 0.0000e+00
     -0.105      0.001     5.3869     65.823     36.598  36.982165     0.5618      7.470   291.7371 2.4862e+03     0.2042     -0.102     -0.148    25.4931 0.0000e+00
     -0.105      0.000     5.3570     65.461     36.570  36.954874     0.5572      7.470   291.7517 2.4807e+03     0.2414     -0.102     -0.149    25.4946 0.0000e+00
     -0.106 4.2794e-07     5.3314     65.144     36.562  36.945030     0.5451      7.470   292.2622 2.4544e+03     0.2708     -0.104     -0.151    25.5009 0.0000e+00
     -0.106      0.000     5.3088     64.864     36.546  36.926664     0.5346      7.470   292.9199 2.4211e+03     0.3454     -0.104     -0.152    25.5121 0.0000e+00
     -0.105      0.000     5.2863     64.589     36.544  36.923394     0.5315      7.469   293.0786 2.4094e+03     0.4109     -0.104     -0.150    25.5213 0.0000e+00
     -0.104      0.001     5.2664     64.346     36.589  36.969004     0.5442      7.467   292.9768 2.4315e+03     0.4526     -0.102     -0.148    25.5220 0.0000e+00
     -0.104      0.001     5.2495     64.141     36.652  37.033455     0.5692      7.467   292.8073 2.4408e+03     0.4226     -0.102     -0.148    25.5171 0.0000e+00
     -0.104      0.001     5.2320     63.931     36.683  37.067412     0.5940      7.466   293.0946 2.4009e+03     0.2926     -0.102     -0.148    25.5132 0.0000e+00
     -0.104      0.000     5.2133     63.708     36.674  37.061945     0.6055      7.465   294.0416 2.3384e+03     0.2236     -0.102     -0.149    25.5123 0.0000e+00
     -0.104     -0.001     5.1953     63.495     36.640  37.030885     0.6168      7.464   294.4476 2.3242e+03     0.2593     -0.102     -0.148    25.5124 0.0000e+00
     -0.104     -0.002     5.1793     63.300     36.618  37.009513     0.6297      7.464   294.2183 2.3847e+03     0.2662     -0.101     -0.147    25.5137 0.0000e+00
     -0.105     -0.002     5.1643     63.116     36.603  36.994103     0.6235      7.465   293.8503 2.4571e+03     0.2465     -0.103     -0.150    25.5176 0.0000e+00
     -0.107     -0.002     5.1498     62.936     36.582  36.971618     0.6148      7.465   293.5259 2.4980e+03     0.2340     -0.104     -0.152    25.5240 0.0000e+00
     -0.107     -0.002     5.1352     62.755     36.603  36.991753     0.6170      7.464   293.9096 2.5075e+03     0.2073     -0.105     -0.152    25.5293 0.0000e+00
     -0.108     -0.001     5.1198     62.567     36.658  37.046973     0.6045      7.462   294.7042 2.4808e+03     0.1977     -0.106     -0.154    25.5306 0.0000e+00
     -0.108      0.000     5.1059     62.400     36.677  37.067544     0.5729      7.462   295.0457 2.3962e+03     0.2102     -0.106     -0.154    25.5285 0.0000e+00
     -0.107      0.000     5.0953     62.274     36.657  37.049898     0.5469      7.462   294.9410 2.2291e+03     0.2060     -0.105     -0.152    25.5260 0.0000e+00
     -0.107      0.001     5.0863     62.167     36.630  37.024194     0.5385      7.463   294.7285 2.0243e+03     0.2070     -0.104     -0.151    25.5238 0.0000e+00
     -0.107      0.001     5.0773     62.057     36.617  37.010876     0.5457      7.463   294.7136 1.8976e+03     0.2230     -0.104     -0.151    25.5227 0.0000e+00
     -0.107      0.001     5.0668     61.927     36.623  37.015925     0.5507      7.462   294.9331 1.9205e+03     0.2163     -0.105     -0.152    25.5253 0.0000e+00
     -0.107      0.001     5.0558     61.790     36.630  37.021715     0.5439      7.460   295.2319 2.0533e+03     0.1866     -0.105     -0.153    25.5304 0.0000e+00
     -0.106      0.002     5.0453     61.662     36.625  37.017349     0.5367      7.457   295.4862 2.2160e+03     0.1696     -0.104     -0.151    25.5334 0.0000e+00
     -0.106      0.003     5.0335     61.518     36.634  37.026657     0.5371      7.454   295.7712 2.3560e+03     0.1931     -0.104     -0.151    25.5329 0.0000e+00
     -0.106      0.005     5.0221     61.379     36.677  37.070738     0.5488      7.453   296.0967 2.4298e+03     0.2885     -0.104     -0.151    25.5307 0.0000e+00
     -0.105      0.005     5.0142     61.287     36.709  37.105651     0.5592      7.450   295.8940 2.3719e+03     0.4380     -0.104     -0.150    25.5290 0.0000e+00
     -0.103      0.005     5.0067     61.201     36.668  37.067636     0.5527      7.446   295.2993 2.1127e+03     0.5052     -0.102     -0.147    25.5289 0.0000e+00
     -0.100      0.005     4.9985     61.106     36.589  36.992265     0.5437      7.444   295.1872 1.7249e+03     0.4596     -0.097     -0.141    25.5298 0.0000e+00
     -0.098      0.004     4.9930     61.040     36.553  36.956657     0.5603      7.444   295.5714 1.4149e+03     0.4053     -0.095     -0.137    25.5296 0.0000e+00
     -0.098      0.003     4.9901     61.005     36.552  36.954732     0.5969      7.445   295.9861 1.2920e+03     0.3375     -0.096     -0.139    25.5317 0.0000e+00
     -0.098      0.001     4.9874     60.971     36.567  36.968983     0.6090      7.446   296.1584 1.3673e+03     0.2495     -0.097     -0.141    25.5398 0.0000e+00
     -0.098     -0.002     4.9831     60.920     36.598  37.001916     0.6056      7.446   295.5894 1.6278e+03     0.1960     -0.096     -0.139    25.5469 0.0000e+00
     -0.098     -0.004     4.9758     60.832     36.630  37.035293     0.6021      7.446   294.6987 1.9759e+03     0.1796     -0.095     -0.138    25.5466 0.0000e+00
     -0.099     -0.004     4.9655     60.709     36.648  37.054920     0.5764      7.446   294.6809 2.2590e+03     0.2041     -0.096     -0.140    25.5441 0.0000e+00
     -0.102     -0.005     4.9537     60.568     36.640  37.048645     0.5521      7.445   295.1164 2.3710e+03     0.2169     -0.100     -0.145    25.5435 0.0000e+00
     -0.104     -0.006     4.9422     60.433     36.611  37.022950     0.5468      7.444   295.4042 2.3020e+03     0.1819     -0.103     -0.149    25.5449 0.0000e+00
     -0.105     -0.006     4.9317     60.310     36.583  36.998353     0.5492      7.444   295.2354 2.1000e+03     0.2383     -0.103     -0.149    25.5471 0.0000e+00
     -0.106     -0.006     4.9215     60.187     36.526  36.941830     0.5534      7.444   294.4523 1.8068e+03     0.3807     -0.104     -0.150    25.5486 0.0000e+00
     -0.107     -0.005     4.9133     60.083     36.246  36.657171     0.5520      7.444   294.0228 1.5296e+03     0.4385     -0.105     -0.152    25.5515 0.0000e+00
     -0.109     -0.004     4.9172     60.101     35.774  36.161063     0.5514      7.444   294.1731 1.4379e+03     0.4185     -0.107     -0.156    25.5568 0.0000e+00
     -0.111     -0.003     5.0026     61.047     35.511  35.834744     0.5550      7.443   294.5486 1.5273e+03     0.3822     -0.110     -0.159    25.5628 0.0000e+00
     -0.112     -0.002     5.3082     64.613     35.532  35.760713     0.5495      7.441   295.0346 1.6872e+03     0.3351     -0.110     -0.159    25.5649 0.0000e+00
     -0.111     -0.000     5.8913     71.549     35.632  35.773989     0.5490      7.439   295.0594 1.8998e+03     0.2767     -0.108     -0.157    25.5641 0.0000e+00
     -0.111      0.001     6.6141     80.216     35.718  35.804564     0.5582      7.438   294.4181 2.1066e+03     0.2259     -0.108     -0.157    25.5593 0.0000e+00
     -0.110      0.002     7.2772     88.199     35.754  35.812702     0.5595      7.438   293.9053 2.2164e+03     0.2087     -0.108     -0.157    25.4757 0.0000e+00
     -0.109      0.002     7.7828     94.298     35.764  35.808819     0.5555      7.439   294.0213 2.2402e+03     0.2525     -0.107     -0.156    25.3068 0.0000e+00
     -0.109      0.002     8.1176     98.342     35.781  35.821118     0.5552      7.439   294.3578 2.2543e+03     0.3590     -0.106     -0.154    25.1733 0.0000e+00
     -0.109      0.002     8.2954    100.495     35.795  35.834353     0.5653      7.439   294.5328 2.3091e+03     0.4270     -0.107     -0.154    25.1023 0.0000e+00
     -0.108      0.001     8.3300    100.920     35.800  35.841802     0.5680      7.439   294.7611 2.3836e+03     0.4345     -0.107     -0.155    25.0675 0.0000e+00
     -0.106      0.001     8.2445     99.898     35.800  35.847671     0.5515      7.438   294.9675 2.4261e+03     0.4496     -0.104     -0.151    25.0549 0.0000e+00
     -0.106      0.002     8.0987     98.144     35.790  35.841795     0.5397      7.436   294.8772 2.3892e+03     0.4571     -0.103     -0.150    25.0480 0.0000e+00
     -0.108      0.002     7.9612     96.483     35.781  35.834288     0.5452      7.432   294.7017 2.2843e+03     0.4634     -0.106     -0.156    25.0477 0.0000e+00
     -0.108      0.002     7.8685     95.356     35.768  35.820428     0.5531      7.428   294.6523 2.1744e+03     0.4651     -0.107     -0.155    25.0519 0.0000e+00
     -0.105      0.002     7.8247     94.811     35.754  35.801258     0.5710      7.424   295.1398 2.0699e+03     0.3865     -0.102     -0.147    25.0603 0.0000e+00
     -0.103      0.002     7.8098     94.608     35.755  35.793065     0.5955      7.423   295.8644 1.9708e+03     0.2758     -0.099     -0.144    25.0685 0.0000e+00
     -0.104      0.002     7.7913     94.356     35.758  35.784878     0.6020      7.423   296.0996 1.9239e+03     0.2256     -0.101     -0.148    25.0712 0.0000e+00
     -0.104      0.001     7.7568     93.909     35.751  35.765766     0.6032      7.424   295.9196 1.9634e+03     0.2076     -0.103     -0.150    25.0698 0.0000e+00
     -0.104     -0.001     7.7161     93.390     35.749  35.752531     0.6105      7.424   295.4941 2.0495e+03     0.2408     -0.102     -0.148    25.0626 0.0000e+00
     -0.104     -0.001     7.6775     92.912     35.752  35.751887     0.6165      7.425   295.2568 2.0858e+03     0.3513     -0.101     -0.147    25.0477 0.0000e+00
     -0.104     -0.001     7.6422     92.489     35.757  35.757972     0.6207      7.426   295.8895 2.0588e+03     0.4151     -0.102     -0.147    25.0326 0.0000e+00
     -0.104     -0.001     7.6132     92.149     35.758  35.762581     0.6246      7.428   296.8631 2.0288e+03     0.4012     -0.102     -0.147    25.0143 0.0000e+00
     -0.105     -0.002     7.5965     91.959     35.734  35.744100     0.6182      7.430   297.0486 1.9963e+03     0.3980     -0.103     -0.149    24.9955 0.0000e+00
     -0.106     -0.002     7.5952     91.950     35.711  35.725098     0.5887      7.431   296.8412 1.9630e+03     0.4067     -0.104     -0.151    24.9896 0.0000e+00
     -0.106     -0.002     7.6013     92.022     35.711  35.723408     0.5526      7.431   296.5924 1.9483e+03     0.4145     -0.105     -0.152    24.9940 0.0000e+00
     -0.106     -0.002     7.6019     92.013     35.718  35.723653     0.5402      7.432   296.1921 1.9198e+03     0.4315     -0.104     -0.151    25.0009 0.0000e+00
     -0.107     -0.002     7.6021     91.995     35.731  35.728053     0.5400      7.433   296.5613 1.8173e+03     0.4587     -0.104     -0.151    25.0089 0.0000e+00
     -0.108     -0.001     7.6196     92.186     35.724  35.713064     0.5229      7.432   297.6146 1.6010e+03     0.4694     -0.106     -0.153    25.0157 0.0000e+00
     -0.108     -0.000     7.6567     92.620     35.687  35.669456     0.4984      7.431   298.0863 1.3395e+03     0.4384     -0.106     -0.154    25.0143 0.0000e+00
     -0.108      0.000     7.6981     93.104     35.669  35.645440     0.4927      7.431   297.8771 1.1562e+03     0.4196     -0.107     -0.155    25.0037 0.0000e+00
     -0.108      0.001     7.7259     93.423     35.709  35.676768     0.4996      7.433   297.5803 1.1385e+03     0.4258     -0.106     -0.154    24.9888 0.0000e+00
     -0.107      0.003     7.7394     93.571     35.769  35.730619     0.5176      7.434   297.6805 1.3430e+03     0.4217     -0.105     -0.152    24.9761 0.0000e+00
     -0.106      0.005     7.7506     93.691     35.769  35.724839     0.5532      7.433   298.2287 1.6763e+03     0.4312     -0.104     -0.151    24.9700 0.0000e+00
     -0.106      0.005     7.7611     93.801     35.722  35.670398     0.5727      7.431   298.6162 1.8818e+03     0.4484     -0.104     -0.151    24.9617 0.0000e+00
     -0.105      0.004     7.7627     93.801     35.703  35.644066     0.5693      7.428   298.6655 1.7958e+03     0.4468     -0.104     -0.150    24.9478 0.0000e+00
     -0.102      0.002     7.7563     93.711     35.725  35.660536     0.5857      7.425   298.6533 1.5701e+03     0.3821     -0.100     -0.144    24.9399 0.0000e+00
     -0.100      0.002     7.7515     93.651     35.745  35.678955     0.6232      7.424   298.6399 1.4616e+03     0.2757     -0.096     -0.139    24.9341 0.0000e+00
     -0.100      0.002     7.7515     93.654     35.740  35.676202     0.6371      7.423   298.3317 1.5540e+03     0.2290     -0.098     -0.142    24.9223 0.0000e+00
     -0.103      0.002     7.7515     93.665     35.750  35.690784     0.6251      7.419   297.9387 1.7607e+03     0.2140     -0.101     -0.147    24.9098 0.0000e+00
     -0.103      0.001     7.7431     93.585     35.779  35.728227     0.6068      7.416   298.0175 1.8859e+03     0.2467     -0.103     -0.149    24.9020 0.0000e+00
     -0.100      0.001     7.7246     93.390     35.787  35.747802     0.5908      7.414   298.3385 1.8736e+03     0.3498     -0.099     -0.143    24.9010 0.0000e+00
     -0.097      0.002     7.7086     93.224     35.765  35.736913     0.5878      7.413   298.6363 1.8485e+03     0.4232     -0.093     -0.134    24.9021 0.0000e+00
     -0.097      0.002     7.7063     93.209     35.746  35.723635     0.5799      7.413   298.7790 1.8147e+03     0.4319     -0.095     -0.137    24.9078 0.0000e+00
     -0.099      0.001     7.7193     93.357     35.740  35.714307     0.5589      7.413   298.2574 1.7254e+03     0.3935     -0.099     -0.143    24.9211 0.0000e+00
     -0.099 -8.488e-07     7.7428     93.621     35.722  35.687643     0.5455      7.412   297.4918 1.6369e+03     0.3866     -0.097     -0.142    24.9389 0.0000e+00
     -0.099      0.000     7.7682     93.909     35.698  35.655315     0.5466      7.412   297.6089 1.5854e+03     0.4398     -0.096     -0.140    24.9583 0.0000e+00
     -0.099      0.000     7.7887     94.140     35.691  35.641035     0.5532      7.411   298.2109 1.5720e+03     0.4569     -0.098     -0.141    24.9690 0.0000e+00
     -0.099     -0.001     7.8024     94.288     35.698  35.642024     0.5520      7.410   298.4031 1.5500e+03     0.4108     -0.097     -0.141    24.9609 0.0000e+00
     -0.098     -0.002     7.8089     94.359     35.727  35.667249     0.5605      7.410   297.8688 1.5626e+03     0.3401     -0.096     -0.139    24.9447 0.0000e+00
     -0.097     -0.002     7.8063     94.344     35.745  35.691939     0.5914      7.412   296.9996 1.7422e+03     0.2733     -0.094     -0.136    24.9334 0.0000e+00
     -0.100      0.001     7.7953     94.243     35.726  35.686478     0.6136      7.412   296.6688 2.0096e+03     0.2437     -0.096     -0.139    24.9255 0.0000e+00
     -0.105      0.004     7.7740     94.009     35.695  35.664763     0.6176      7.408   296.7088 2.1333e+03     0.2270     -0.104     -0.151    24.9138 0.0000e+00
     -0.105      0.005     7.7430     93.629     35.652  35.619961     0.6120      7.403   296.9670 1.9688e+03     0.1930     -0.107     -0.154    24.9034 0.0000e+00
     -0.098      0.004     7.7180     93.292     35.635  35.589428     0.6097      7.401   297.5540 1.6050e+03     0.1994     -0.097     -0.140    24.9151 0.0000e+00
     -0.089      0.003     7.7161     93.221     35.680  35.613178     0.6175      7.401   297.6970 1.2353e+03     0.2424     -0.085     -0.123    24.9417 0.0000e+00
     -0.088      0.000     7.7351     93.407     35.738  35.653009     0.6239      7.401   297.1473 9.8312e+02     0.2553     -0.084     -0.122    24.9579 0.0000e+00
     -0.093     -0.005     7.7609     93.704     35.781  35.689861     0.6220      7.397   296.6716 9.2668e+02     0.2342     -0.091     -0.132    24.9557 0.0000e+00
     -0.098     -0.010     7.7864     94.040     35.820  35.741127     0.6136      7.392   296.5926 1.1403e+03     0.2012     -0.097     -0.140    24.9324 0.0000e+00
     -0.102     -0.014     7.8099     94.393     35.816  35.764709     0.6142      7.389   296.8809 1.6555e+03     0.1913     -0.100     -0.144    24.8991 0.0000e+00
     -0.105     -0.014     7.8300     94.721     35.801  35.784468     0.6201      7.389   297.3171 2.2004e+03     0.2065     -0.103     -0.150    24.8705 0.0000e+00
     -0.109     -0.012     7.8402     94.931     35.834  35.853028     0.5933      7.389   297.5647 2.4677e+03     0.2316     -0.106     -0.155    24.8558 0.0000e+00
     -0.112     -0.010     7.8320     94.908     35.844  35.894980     0.5377      7.389   297.5514 2.5223e+03     0.2512     -0.110     -0.159    24.8746 0.0000e+00
     -0.115     -0.008     7.8070     94.648     35.778  35.847101     0.4993      7.388   297.3288 2.4618e+03     0.2293     -0.113     -0.164    24.9211 0.0000e+00
     -0.117     -0.006     7.7806     94.311     35.658  35.718816     0.4868      7.387   297.0243 2.2611e+03     0.2108     -0.115     -0.167    24.9707 0.0000e+00
     -0.117     -0.004     7.7649     94.046     35.584  35.614312     0.4794      7.388   296.7953 1.9821e+03     0.2103     -0.116     -0.168    25.0216 0.0000e+00
     -0.116     -0.002     7.7591     93.890     35.605  35.599867     0.4744      7.391   296.9685 1.7441e+03     0.1937     -0.114     -0.166    25.0717 0.0000e+00
     -0.116     -0.000     7.7610     93.849     35.639  35.607617     0.4807      7.394   297.5696 1.5510e+03     0.1928     -0.114     -0.165    25.1042 0.0000e+00
     -0.117      0.001     7.7696     93.907     35.631  35.580940     0.4821      7.396   298.0402 1.4510e+03     0.1993     -0.115     -0.166    25.0942 0.0000e+00
     -0.117      0.001     7.7821     94.004     35.603  35.531376     0.4823      7.397   298.0984 1.6177e+03     0.2118     -0.116     -0.168    25.0391 0.0000e+00
     -0.116      0.001     7.7991     94.141     35.616  35.516478     0.5112      7.399   297.9291 1.9781e+03     0.2208     -0.114     -0.167    24.9801 0.0000e+00
     -0.115      0.002     7.8200     94.335     35.652  35.527812     0.5459      7.402   297.7149 2.2865e+03     0.1869     -0.113     -0.164    24.9447 0.0000e+00
     -0.115      0.002     7.8381     94.517     35.681  35.541340     0.5528      7.405   298.0034 2.4493e+03     0.1676     -0.113     -0.163    24.9267 0.0000e+00
     -0.115      0.003     7.8482     94.614     35.702  35.552973     0.5485      7.409   298.7494 2.4949e+03     0.2008     -0.112     -0.163    24.8991 0.0000e+00
     -0.115      0.003     7.8497     94.613     35.698  35.541412     0.5499      7.409   298.9914 2.4949e+03     0.2831     -0.113     -0.163    24.8511 0.0000e+00
     -0.114      0.003     7.8438     94.525     35.692  35.528595     0.5514      7.407   298.7786 2.4970e+03     0.3698     -0.112     -0.161    24.8142 0.0000e+00
     -0.112      0.003     7.8356     94.407     35.697  35.525036     0.5478      7.405   298.4992 2.4974e+03     0.3946     -0.110     -0.159    24.7972 0.0000e+00
     -0.112      0.003     7.8307     94.328     35.679  35.498361     0.5518      7.404   298.1084 2.4869e+03     0.4001     -0.109     -0.159    24.7842 0.0000e+00
     -0.111      0.003     7.8307     94.305     35.650  35.460147     0.5635      7.404   298.1838 2.4745e+03     0.3746     -0.108     -0.157    24.7734 0.0000e+00
     -0.111      0.004     7.8330     94.300     35.646  35.444104     0.5609      7.405   298.8944 2.4690e+03     0.3005     -0.108     -0.156    24.7657 0.0000e+00
     -0.111      0.004     7.8333     94.265     35.649  35.431412     0.5564      7.406   299.4733 2.4658e+03     0.2364     -0.108     -0.157    24.7547 0.0000e+00
     -0.110      0.005     7.8305     94.202     35.664  35.433715     0.5639      7.407   299.5903 2.4624e+03     0.1789     -0.107     -0.156    24.7409 0.0000e+00
     -0.107      0.005     7.8303     94.191     35.706  35.471920     0.5883      7.405   299.4485 2.4596e+03     0.1549     -0.104     -0.152    24.7310 0.0000e+00
     -0.105      0.005     7.8375     94.291     35.741  35.512216     0.6209      7.402   299.2210 2.4410e+03     0.1905     -0.103     -0.149    24.7127 0.0000e+00
     -0.104      0.004     7.8518     94.485     35.760  35.539807     0.6272      7.401   299.1634 2.3527e+03     0.2133     -0.102     -0.148    24.6863 0.0000e+00
     -0.103      0.002     7.8669     94.690     35.763  35.551458     0.6186      7.402   299.4401 2.1484e+03     0.1862     -0.101     -0.147    24.6664 0.0000e+00
     -0.103     -0.001     7.8742     94.796     35.729  35.526059     0.6179      7.404   299.7275 2.0257e+03     0.1673     -0.101     -0.146    24.6611 0.0000e+00
     -0.103     -0.003     7.8741     94.804     35.685  35.486801     0.6189      7.406   299.7133 2.1918e+03     0.1991     -0.100     -0.146    24.6724 0.0000e+00
     -0.104     -0.004     7.8737     94.795     35.658  35.457929     0.6212      7.406   299.6125 2.4224e+03     0.2346     -0.101     -0.148    24.6877 0.0000e+00
     -0.106     -0.004     7.8747     94.790     35.638  35.431054     0.6280      7.406   299.4554 2.5000e+03     0.2302     -0.104     -0.152    24.6993 0.0000e+00
     -0.108     -0.004     7.8722     94.733     35.635  35.415928     0.6279      7.406   299.1903 2.4987e+03     0.2073     -0.106     -0.154    24.7113 0.0000e+00
     -0.109     -0.003     7.8648     94.609     35.635  35.402073     0.6017      7.406   299.1607 2.4896e+03     0.1713     -0.107     -0.155    24.7195 0.0000e+00
     -0.110     -0.002     7.8586     94.496     35.639  35.390547     0.5675      7.407   299.1839 2.4755e+03     0.1614     -0.107     -0.156    24.7159 0.0000e+00
     -0.111      0.000     7.8579     94.449     35.668  35.403589     0.5543      7.408   299.2123 2.4609e+03     0.2095     -0.108     -0.157    24.7054 0.0000e+00
     -0.111      0.003     7.8610     94.455     35.710  35.432696     0.5443      7.409   299.5038 2.4570e+03     0.2339     -0.109     -0.159    24.6890 0.0000e+00
     -0.110      0.008     7.8658     94.511     35.767  35.488375     0.5377      7.408   299.2667 2.4610e+03     0.2122     -0.109     -0.157    24.6679 0.0000e+00
     -0.108      0.011     7.8700     94.608     35.829  35.568627     0.5487      7.405   298.4099 2.4655e+03     0.2220     -0.106     -0.154    24.6466 0.0000e+00
     -0.104      0.012     7.8699     94.695     35.865  35.640787     0.5572      7.402   298.1799 2.4630e+03     0.2604     -0.103     -0.149    24.6228 0.0000e+00
     -0.099      0.011     7.8639     94.724     35.845  35.662176     0.5579      7.401   298.7219 2.3870e+03     0.2498     -0.098     -0.142    24.6000 0.0000e+00
     -0.092      0.008     7.8609     94.772     35.784  35.636739     0.5757      7.401   299.2840 2.1580e+03     0.2157     -0.089     -0.129    24.5934 0.0000e+00
     -0.089      0.004     7.8692     94.937     35.772  35.650894     0.6159      7.400   299.6422 1.8731e+03     0.2137     -0.084     -0.122    24.6219 0.0000e+00
     -0.091     -0.001     7.8813     95.140     35.805  35.706312     0.6392      7.397   299.4400 1.6498e+03     0.1954     -0.089     -0.130    24.6797 0.0000e+00
     -0.096     -0.005     7.8839     95.232     35.809  35.735122     0.6375      7.394   298.7320 1.4896e+03     0.1772     -0.096     -0.140    24.7431 0.0000e+00
     -0.098     -0.008     7.8723     95.149     35.796  35.745197     0.6137      7.392   298.4802 1.4560e+03     0.1777     -0.097     -0.141    24.7939 0.0000e+00
     -0.099     -0.008     7.8503     94.925     35.798  35.764641     0.5722      7.392   298.6328 1.6045e+03     0.1712     -0.096     -0.140    24.8257 0.0000e+00
     -0.102     -0.006     7.8253     94.654     35.800  35.779669     0.5588      7.392   298.8570 1.8895e+03     0.1893     -0.100     -0.146    24.8545 0.0000e+00
     -0.104     -0.004     7.8070     94.471     35.805  35.799878     0.5614      7.390   299.0395 2.2019e+03     0.2139     -0.104     -0.150    24.8922 0.0000e+00
     -0.104     -0.003     7.7978     94.412     35.801  35.818443     0.5394      7.386   298.8603 2.4258e+03     0.2245     -0.103     -0.150    24.9278 0.0000e+00
     -0.104      0.000     7.7932     94.411     35.774  35.813595     0.5048      7.383   298.5832 2.5236e+03     0.2263     -0.101     -0.148    24.9508 0.0000e+00
     -0.105      0.003     7.7956     94.471     35.752  35.804825     0.4820      7.381   298.4421 2.5438e+03     0.2053     -0.103     -0.150    24.9641 0.0000e+00
     -0.105      0.005     7.8059     94.598     35.722  35.775938     0.4843      7.380   298.5308 2.5378e+03     0.1829     -0.104     -0.151    24.9823 0.0000e+00
     -0.103      0.005     7.8189     94.729     35.675  35.718417     0.4964      7.378   298.7098 2.5143e+03     0.1994     -0.102     -0.148    25.0170 0.0000e+00
     -0.100      0.005     7.8295     94.805     35.659  35.681027     0.4994      7.378   298.8853 2.4218e+03     0.2222     -0.098     -0.142    25.0546 0.0000e+00
     -0.096      0.004     7.8320     94.775     35.709  35.704961     0.4929      7.379   299.1048 2.1553e+03     0.1844     -0.094     -0.136    25.0739 0.0000e+00
     -0.095      0.003     7.8222     94.615     35.774  35.753673     0.4816      7.376   299.1259 1.8430e+03     0.1388     -0.092     -0.134    25.0742 0.0000e+00
     -0.097      0.002     7.8036     94.384     35.784  35.761788     0.4829      7.372   299.0547 1.8371e+03     0.1594     -0.094     -0.137    25.0595 0.0000e+00
     -0.099      0.002     7.7848     94.176     35.754  35.739562     0.5089      7.371   298.8467 2.1328e+03     0.1894     -0.099     -0.143    25.0271 0.0000e+00
     -0.099      0.002     7.7731     94.064     35.741  35.739037     0.5379      7.373   298.5031 2.3974e+03     0.1964     -0.098     -0.142    24.9837 0.0000e+00
     -0.097      0.003     7.7741     94.106     35.746  35.755468     0.5488      7.376   298.6860 2.5064e+03     0.2135     -0.095     -0.138    24.9572 0.0000e+00
     -0.094      0.003     7.7900     94.319     35.730  35.747680     0.5483      7.378   299.3374 2.5365e+03     0.2129     -0.093     -0.135    24.9574 0.0000e+00
     -0.092      0.002     7.8164     94.638     35.690  35.708402     0.5508      7.379   299.6687 2.5378e+03     0.1891     -0.090     -0.130    24.9716 0.0000e+00
     -0.092      0.001     7.8467     94.979     35.654  35.661701     0.5516      7.379   299.4217 2.5248e+03     0.1697     -0.089     -0.129    24.9906 0.0000e+00
     -0.093      0.001     7.8768     95.304     35.636  35.627654     0.5491      7.379   299.0182 2.5051e+03     0.1614     -0.091     -0.133    25.0085 0.0000e+00
     -0.095      0.000     7.9012     95.560     35.639  35.614329     0.5573      7.379   298.9197 2.4773e+03     0.1806     -0.093     -0.135    25.0234 0.0000e+00
     -0.095     -0.002     7.9117     95.654     35.665  35.627603     0.5683      7.380   299.4353 2.4316e+03     0.2178     -0.094     -0.136    25.0253 0.0000e+00
     -0.094     -0.004     7.9087     95.587     35.712  35.661093     0.5712      7.381   300.3474 2.3457e+03     0.2453     -0.092     -0.134    25.0069 0.0000e+00
     -0.093     -0.007     7.9017     95.479     35.762  35.701627     0.5657      7.384   300.7426 2.2419e+03     0.2386     -0.090     -0.131    24.9810 0.0000e+00
     -0.094     -0.009     7.8953     95.411     35.793  35.736544     0.5562      7.386   300.5997 2.1813e+03     0.2290     -0.091     -0.132    24.9576 0.0000e+00
     -0.098     -0.011     7.8891     95.384     35.802  35.765671     0.5663      7.387   300.5122 2.1963e+03     0.2508     -0.096     -0.138    24.9414 0.0000e+00
     -0.104     -0.011     7.8821     95.363     35.811  35.799744     0.6053      7.387   300.7172 2.2998e+03     0.2883     -0.102     -0.148    24.9236 0.0000e+00
     -0.110     -0.010     7.8720     95.299     35.819  35.830939     0.6332      7.386   301.1860 2.4336e+03     0.3166     -0.109     -0.158    24.9013 0.0000e+00
     -0.112     -0.007     7.8604     95.204     35.795  35.825278     0.6272      7.385   301.4485 2.5089e+03     0.2885     -0.111     -0.161    24.9053 0.0000e+00
     -0.112     -0.004     7.8527     95.140     35.752  35.794843     0.6157      7.382   301.3961 2.5309e+03     0.2230     -0.110     -0.160    24.9407 0.0000e+00
     -0.111     -0.001     7.8500     95.115     35.735  35.780580     0.6037      7.380   301.1546 2.5336e+03     0.2561     -0.109     -0.158    24.9806 0.0000e+00
     -0.109      0.002     7.8492     95.093     35.740  35.779873     0.5832      7.377   300.8518 2.5170e+03     0.3837     -0.107     -0.155    25.0140 0.0000e+00
     -0.109      0.004     7.8441     95.009     35.755  35.786284     0.5713      7.373   300.8316 2.4754e+03     0.4538     -0.106     -0.154    25.0406 0.0000e+00
     -0.111      0.004     7.8302     94.831     35.766  35.794558     0.5607      7.368   301.0821 2.3258e+03     0.4626     -0.109     -0.158    25.0587 0.0000e+00
     -0.111      0.003     7.8112     94.612     35.783  35.816387     0.5466      7.362   301.3858 1.8679e+03     0.4592     -0.110     -0.160    25.0638 0.0000e+00
     -0.107      0.001     7.7960     94.456     35.815  35.859658     0.5476      7.357   301.6638 1.1888e+03     0.4440     -0.105     -0.152    25.0533 0.0000e+00
     -0.103     -0.000     7.7913     94.439     35.812  35.873109     0.5540      7.356   301.9492 7.6790e+02     0.4311     -0.097     -0.140    25.0351 0.0000e+00
     -0.104     -0.001     7.8005     94.595     35.774  35.851996     0.5502      7.358   302.0835 9.0033e+02     0.4251     -0.100     -0.145    25.0281 0.0000e+00
     -0.109     -0.002     7.8191     94.858     35.765  35.858496     0.5392      7.361   301.5665 1.4940e+03     0.3721     -0.110     -0.158    25.0377 0.0000e+00
     -0.112     -0.004     7.8394     95.130     35.784  35.888210     0.5320      7.366   300.7746 2.1377e+03     0.2785     -0.112     -0.161    25.0538 0.0000e+00
     -0.110     -0.005     7.8600     95.398     35.782  35.893666     0.5363      7.369   300.5960 2.4596e+03     0.2392     -0.107     -0.155    25.0776 0.0000e+00
     -0.109     -0.004     7.8785     95.631     35.746  35.860948     0.5450      7.369   300.7838 2.5108e+03     0.2328     -0.106     -0.153    25.1063 0.0000e+00
     -0.111     -0.002     7.8938     95.811     35.697  35.810244     0.5446      7.368   300.8943 2.4356e+03     0.2617     -0.109     -0.158    25.1284 0.0000e+00
     -0.114     -0.001     7.9042     95.909     35.687  35.788786     0.5408      7.367   300.6415 2.2728e+03     0.3449     -0.112     -0.163    25.1418 0.0000e+00
     -0.114      0.000     7.9024     95.841     35.709  35.792051     0.5463      7.366   300.0497 2.1555e+03     0.3843     -0.113     -0.162    25.1510 0.0000e+00
     -0.113      0.001     7.8885     95.625     35.722  35.786166     0.5548      7.368   299.7618 2.1794e+03     0.4019     -0.112     -0.162    25.1574 0.0000e+00
     -0.112      0.002     7.8685     95.352     35.730  35.781122     0.5524      7.371   299.9998 2.2597e+03     0.4356     -0.111     -0.161    25.1579 0.0000e+00
     -0.110      0.003     7.8479     95.093     35.747  35.794572     0.5447      7.373   300.4324 2.3336e+03     0.4557     -0.108     -0.156    25.1422 0.0000e+00
     -0.109      0.003     7.8308     94.904     35.767  35.821741     0.5447      7.374   300.6045 2.3461e+03     0.4936     -0.106     -0.154    25.1098 0.0000e+00
     -0.110      0.003     7.8212     94.825     35.785  35.855532     0.5431      7.375   300.3597 2.1419e+03     0.5268     -0.107     -0.155    25.0801 0.0000e+00
     -0.110      0.002     7.8203     94.861     35.796  35.885557     0.5431      7.376   299.9684 1.6109e+03     0.4916     -0.108     -0.157    25.0611 0.0000e+00
     -0.109      0.001     7.8254     94.967     35.760  35.867181     0.5631      7.376   299.8304 1.2034e+03     0.3724     -0.108     -0.156    25.0552 0.0000e+00
     -0.108      0.001     7.8348     95.108     35.705  35.823946     0.5924      7.374   300.0679 1.4113e+03     0.2454     -0.106     -0.154    25.0674 0.0000e+00
     -0.107      0.001     7.8481     95.276     35.687  35.807485     0.6129      7.369   300.4313 1.8603e+03     0.2071     -0.104     -0.151    25.0911 0.0000e+00
     -0.108      0.001     7.8636     95.446     35.682  35.795197     0.6267      7.364   300.5247 2.1652e+03     0.2452     -0.106     -0.153    25.1203 0.0000e+00
     -0.109      0.000     7.8778     95.582     35.704  35.802402     0.6124      7.359   300.3366 2.3674e+03     0.2488     -0.107     -0.156    25.1476 0.0000e+00
     -0.109      0.000     7.8897     95.684     35.749  35.831059     0.5683      7.359   300.1354 2.4844e+03     0.1889     -0.107     -0.155    25.1647 0.0000e+00
     -0.108      0.000     7.8977     95.748     35.755  35.824039     0.5435      7.361   299.9848 2.5097e+03     0.1628     -0.107     -0.155    25.1681 0.0000e+00
     -0.108      0.001     7.8965     95.716     35.719  35.781034     0.5515      7.363   299.8919 2.4810e+03     0.1768     -0.105     -0.153    25.1572 0.0000e+00
     -0.108      0.001     7.8886     95.612     35.698  35.755737     0.5647      7.366   299.8726 2.4103e+03     0.2362     -0.106     -0.152    25.1341 0.0000e+00
     -0.108      0.001     7.8792     95.493     35.716  35.772257     0.5652      7.369   300.0957 2.2338e+03     0.3623     -0.106     -0.153    25.1061 0.0000e+00
     -0.107      0.001     7.8654     95.326     35.734  35.790207     0.5570      7.372   300.4387 2.0044e+03     0.4494     -0.105     -0.152    25.0864 0.0000e+00
     -0.107      0.001     7.8505     95.146     35.725  35.782199     0.5481      7.374   300.4923 1.8877e+03     0.4349     -0.105     -0.152    25.0783 0.0000e+00
     -0.106      0.003     7.8435     95.054     35.685  35.738959     0.5492      7.375   300.3139 1.9827e+03     0.4011     -0.104     -0.151    25.0744 0.0000e+00
     -0.106      0.008     7.8489     95.077     35.612  35.648522     0.5521      7.378   300.0025 2.2444e+03     0.4065     -0.104     -0.151    25.0716 0.0000e+00
     -0.106      0.013     7.8653     95.184     35.579  35.578016     0.5462      7.379   299.8242 2.4623e+03     0.4091     -0.105     -0.152    25.0724 0.0000e+00
     -0.104      0.016     7.8863     95.326     35.632  35.585158     0.5435      7.377   300.3957 2.5311e+03     0.4021     -0.104     -0.151    25.0738 0.0000e+00
     -0.097      0.016     7.9024     95.428     35.692  35.607767     0.5276      7.375   301.2333 2.5077e+03     0.4134     -0.098     -0.142    25.0762 0.0000e+00
     -0.086      0.015     7.9045     95.398     35.704  35.597236     0.5008      7.372   301.4336 2.2409e+03     0.4234     -0.084     -0.122    25.0578 0.0000e+00
     -0.079      0.014     7.9000     95.320     35.701  35.584834     0.4868      7.370   301.0976 1.5757e+03     0.4319     -0.072     -0.106    24.9963 0.0000e+00
     -0.079      0.012     7.9025     95.341     35.704  35.584843     0.4774      7.368   300.6119 8.8687e+02     0.4546     -0.074     -0.108    24.9239 0.0000e+00
     -0.083      0.011     7.9091     95.418     35.718  35.597339     0.4788      7.367   300.4644 6.0306e+02     0.4536     -0.084     -0.123    24.8686 0.0000e+00
     -0.083      0.011     7.9149     95.492     35.728  35.608877     0.5040      7.368   301.1216 8.1190e+02     0.3899     -0.085     -0.122    24.8367 0.0000e+00
     -0.078      0.012     7.9220     95.585     35.714  35.597317     0.5425      7.370   302.1055 1.4433e+03     0.2943     -0.076     -0.109    24.8287 0.0000e+00
     -0.073      0.012     7.9282     95.656     35.703  35.584613     0.5678      7.372   302.3798 2.1007e+03     0.2438     -0.071     -0.104    24.8267 0.0000e+00
     -0.067      0.013     7.9304     95.672     35.704  35.582313     0.5627      7.374   301.9431 2.3781e+03     0.2377     -0.068     -0.098    24.8228 0.0000e+00
     -0.059      0.015     7.9346     95.717     35.694  35.569506     0.5450      7.374   301.4716 2.3783e+03     0.2502     -0.054     -0.079    24.8255 0.0000e+00
     -0.059      0.016     7.9445     95.824     35.686  35.556803     0.5284      7.371   301.5826 2.3623e+03     0.2737     -0.055     -0.080    24.8330 0.0000e+00
     -0.063      0.013     7.9550     95.930     35.694  35.555753     0.5092      7.369   302.3386 2.2239e+03     0.2772     -0.068     -0.100    24.8305 0.0000e+00
     -0.058      0.008     7.9592     95.965     35.701  35.556803     0.4964      7.368   302.9555 1.8323e+03     0.2622     -0.060     -0.088    24.8207 0.0000e+00
     -0.046      0.004     7.9552     95.919     35.713  35.569487     0.4747      7.368   303.0184 1.4972e+03     0.2756     -0.040     -0.058    24.8212 0.0000e+00
     -0.042      0.002     7.9499     95.868     35.721  35.582076     0.4394      7.368   302.7559 1.5182e+03     0.3468     -0.037     -0.053    24.8167 0.0000e+00
     -0.049      0.001     7.9468     95.844     35.715  35.581970     0.4185      7.369   302.5342 1.4936e+03     0.4215     -0.048     -0.070    24.7991 0.0000e+00
     -0.058     -0.002     7.9430     95.797     35.702  35.568215     0.4152      7.372   302.4026 1.2028e+03     0.4461     -0.060     -0.087    24.7893 0.0000e+00
     -0.060     -0.003     7.9380     95.711     35.686  35.542808     0.4187      7.375   302.1107 1.1905e+03     0.3702     -0.061     -0.089    24.7908 0.0000e+00
     -0.057     -0.001     7.9334     95.621     35.686  35.528847     0.4241      7.378   301.7588 1.5851e+03     0.2664     -0.056     -0.081    24.7989 0.0000e+00
     -0.052      0.002     7.9268     95.522     35.692  35.526432     0.4338      7.381   301.5892 2.0765e+03     0.2284     -0.050     -0.073    24.8106 0.0000e+00
     -0.050      0.003     7.9178     95.405     35.682  35.513603     0.4352      7.383   301.4368 2.4289e+03     0.1856     -0.047     -0.069    24.8140 0.0000e+00
     -0.050      0.002     7.9103     95.297     35.677  35.500776     0.3952      7.385   301.2068 2.5496e+03     0.1762     -0.049     -0.071    24.7953 0.0000e+00
     -0.053      0.001     7.9047     95.199     35.687  35.498373     0.3272      7.387   301.3890 2.5555e+03     0.2062     -0.052     -0.076    24.7677 0.0000e+00
     -0.054      0.000     7.9001     95.116     35.684  35.484525     0.2925      7.387   301.9194 2.5076e+03     0.2130     -0.054     -0.078    24.7590 0.0000e+00
     -0.053      0.000     7.8955     95.041     35.667  35.460368     0.2971      7.387   302.1133 2.0133e+03     0.2276     -0.053     -0.076    24.7620 0.0000e+00
     -0.052      0.000     7.8893     94.956     35.672  35.460367     0.3091      7.387   301.9263 1.2252e+03     0.2310     -0.051     -0.073    24.7504 0.0000e+00
     -0.051      0.001     7.8835     94.878     35.699  35.484507     0.3465      7.388   301.7238 8.6246e+02     0.1623     -0.049     -0.071    24.7289 0.0000e+00
     -0.051      0.001     7.8810     94.841     35.716  35.498147     0.4088      7.389   301.8154 7.1536e+02     0.0383     -0.050     -0.072    24.7118 0.0000e+00
     -0.052      0.001     7.8824     94.855     35.717  35.498241     0.4380      7.390   302.2596 5.6979e+02    -0.0170     -0.051     -0.074    24.7019 0.0000e+00
     -0.052      0.000     7.8845     94.885     35.702  35.485650     0.4335      7.389   302.8795 5.4462e+02     0.0118     -0.052     -0.075    24.6973 0.0000e+00
     -0.051 -1.387e-10     7.8881     94.935     35.687  35.472955     0.4003      7.387   303.2013 5.6782e+02     0.0206     -0.051     -0.073    24.6928 0.0000e+00
     -0.051 -1.526e-09     7.8992     95.074     35.684  35.471791     0.3395      7.386   303.0531 8.6834e+02    -0.0025     -0.049     -0.072    24.6875 0.0000e+00
     -0.051 -1.678e-08     7.9202     95.328     35.683  35.471582     0.3043      7.386   302.8943 1.6127e+03    -0.0230     -0.050     -0.073    24.6857 0.0000e+00
     -0.052 -1.846e-07     7.9431     95.599     35.684  35.470427     0.3058      7.386   302.9163 2.3038e+03    -0.0135     -0.051     -0.073    24.6900 0.0000e+00
     -0.052 -1.846e-07     7.9582     95.765     35.678  35.457817     0.3571      7.385   302.9748 2.5474e+03     0.1117     -0.051     -0.074    24.6947 0.0000e+00
     -0.052 -1.678e-08     7.9644     95.813     35.677  35.446155     0.4374      7.385   302.9985 2.5648e+03     0.3007     -0.051     -0.074    24.6975 0.0000e+00
     -0.052 -1.526e-09     7.9654     95.799     35.697  35.456446     0.4769      7.385   303.0311 2.5611e+03     0.4103     -0.051     -0.073    24.6984 0.0000e+00
     -0.052 -1.387e-10     7.9645     95.773     35.702  35.455187     0.4858      7.385   303.1106 2.5622e+03     0.4597     -0.051     -0.073    24.6979 0.0000e+00
     -0.052 -1.261e-11     7.9640     95.759     35.681  35.430925     0.4810      7.383   303.1857 2.5626e+03     0.4100     -0.050     -0.072    24.6891 0.0000e+00
     -0.052 -1.146e-12     7.9630     95.739     35.671  35.417180     0.4737      7.380   303.1651 2.5582e+03     0.2665     -0.051     -0.073    24.6700 0.0000e+00
     -0.053 -1.065e-13     7.9604     95.699     35.673  35.416035     0.4806      7.379   303.0340 2.5624e+03     0.1898     -0.052     -0.075    24.6539 0.0000e+00
     -0.053 -3.491e-14     7.9595     95.682     35.676  35.417067     0.4821      7.379   302.9770 2.5692e+03     0.1851     -0.052     -0.076    24.6467 0.0000e+00
     -0.052 -2.807e-13     7.9615     95.702     35.691  35.429656     0.4828      7.379   302.9914 2.5665e+03     0.1786     -0.051     -0.074    24.6438 0.0000e+00
     -0.051 -3.078e-12     7.9639     95.723     35.706  35.441205     0.4882      7.380   302.9507 2.5647e+03     0.1728     -0.050     -0.072    24.6389 0.0000e+00
     -0.051 -3.386e-11     7.9628     95.705     35.696  35.429656     0.4827      7.381   303.0008 2.5665e+03     0.1749     -0.050     -0.072    24.6337 0.0000e+00
     -0.052 -3.724e-10     7.9577     95.640     35.685  35.417057     0.4807      7.383   303.1670 2.5648e+03     0.1741     -0.051     -0.074    24.6305 0.0000e+00
     -0.052 -4.097e-09     7.9523     95.570     35.686  35.415913     0.5107      7.384   303.3259 2.5613e+03     0.1931     -0.051     -0.074    24.6278 0.0000e+00
     -0.052 -4.506e-08     7.9479     95.511     35.688  35.415819     0.5508      7.386   303.3725 2.5604e+03     0.2229     -0.051     -0.074    24.6230 0.0000e+00
     -0.052 -4.957e-07     7.9443     95.464     35.690  35.415914     0.5608      7.389   303.3866 2.5614e+03     0.1980     -0.051     -0.074    24.6197 0.0000e+00
     -0.052     -0.000     7.9392     95.401     35.691  35.417068     0.5499      7.389   303.4105 2.5627e+03     0.1665     -0.051     -0.074    24.6203 0.0000e+00
     -0.052     -0.000     7.9329     95.322     35.705  35.429773     0.5386      7.389   303.4032 2.5652e+03     0.1783     -0.051     -0.073    24.6165 0.0000e+00
     -0.052     -0.001     7.9289     95.269     35.720  35.442477     0.5346      7.390   303.4706 2.5663e+03     0.2495     -0.050     -0.073    24.6116 0.0000e+00
     -0.052     -0.002     7.9260     95.238     35.720  35.443631     0.5472      7.390   303.5369 2.5648e+03     0.3864     -0.051     -0.073    24.6096 0.0000e+00
     -0.052     -0.005     7.9235     95.227     35.713  35.443725     0.5627      7.391   303.5165 2.5648e+03     0.4599     -0.050     -0.073    24.6095 0.0000e+00
     -0.052     -0.008     7.9252     95.269     35.704  35.443617     0.5647      7.393   303.3961 2.5674e+03     0.4364     -0.050     -0.072    24.6086 0.0000e+00
     -0.055     -0.010     7.9317     95.362     35.696  35.442346     0.5808      7.394   303.1993 2.5676e+03     0.4378     -0.054     -0.078    24.6032 0.0000e+00
     -0.059     -0.007     7.9414     95.486     35.679  35.428371     0.6203      7.393   303.2882 2.5654e+03     0.4772     -0.057     -0.083    24.6031 0.0000e+00
     -0.065      0.000     7.9517     95.601     35.655  35.401684     0.6378      7.388   303.6112 2.5656e+03     0.4849     -0.062     -0.090    24.6166 0.0000e+00
     -0.070      0.012     7.9581     95.650     35.639  35.373756     0.6261      7.381   303.7485 2.5686e+03     0.4396     -0.072     -0.105    24.6328 0.0000e+00
     -0.067      0.027     7.9584     95.614     35.626  35.344769     0.5981      7.373   303.6575 2.5697e+03     0.3569     -0.069     -0.100    24.6394 0.0000e+00
     -0.056      0.042     7.9564     95.545     35.604  35.305259     0.5666      7.364   303.2860 2.5676e+03     0.2784     -0.056     -0.081    24.6458 0.0000e+00
     -0.038      0.055     7.9571     95.498     35.599  35.277152     0.5575      7.356   302.9565 2.5500e+03     0.2232     -0.039     -0.057    24.6434 0.0000e+00
     -0.018      0.064     7.9575     95.429     35.610  35.258972     0.5619      7.351   303.0290 2.3380e+03     0.2082     -0.016     -0.024    24.6229 0.0000e+00
      0.002      0.068     7.9546     95.315     35.595  35.212445     0.5639      7.350   303.1297 2.0248e+03     0.2799      0.003      0.006    24.6001 0.0000e+00
      0.020      0.068     7.9532     95.227     35.570  35.159190     0.5639      7.350   302.9694 1.9382e+03     0.3879      0.020      0.029    24.5768 0.0000e+00
      0.035      0.065     7.9562     95.195     35.562  35.123190     0.5616      7.353   302.7263 1.8712e+03     0.4464      0.034      0.050    24.5461 0.0000e+00
      0.051      0.062     7.9605     95.177     35.562  35.094731     0.5545      7.357   302.5126 1.7565e+03     0.4369      0.050      0.071    24.5022 0.0000e+00
      0.066      0.061     7.9635     95.147     35.563  35.069145     0.5514      7.362   302.3641 1.8607e+03     0.3964      0.067      0.097    24.4544 0.0000e+00
      0.081      0.062     7.9655     95.113     35.585  35.067873     0.5517      7.364   302.3082 1.9226e+03     0.3835      0.080      0.116    24.4155 0.0000e+00
      0.096      0.063     7.9675     95.083     35.618  35.079311     0.5492      7.364   302.4389 1.8019e+03     0.4030      0.095      0.137    24.3799 0.0000e+00
      0.111      0.065     7.9692     95.049     35.641  35.080362     0.5587      7.364   302.7407 1.9124e+03     0.4489      0.110      0.160    24.3375 0.0000e+00
      0.127      0.067     7.9679     94.989     35.660  35.080553     0.5744      7.364   302.9455 1.9903e+03     0.4807      0.124      0.180    24.2978 0.0000e+00
      0.146      0.069     7.9609     94.877     35.672  35.081593     0.5647      7.365   303.1073 1.8161e+03     0.4518      0.143      0.207    24.2685 0.0000e+00
      0.165      0.070     7.9529     94.770     35.689  35.092916     0.5515      7.365   302.9758 1.7563e+03     0.4045      0.163      0.236    24.2390 0.0000e+00
      0.184      0.071     7.9518     94.740     35.693  35.090407     0.5610      7.362   302.5608 1.5788e+03     0.3974      0.180      0.262    24.2069 0.0000e+00
      0.202      0.072     7.9568     94.772     35.665  35.051257     0.5595      7.357   302.6494 1.2943e+03     0.4259      0.198      0.288    24.1778 0.0000e+00
      0.219      0.072     7.9655     94.845     35.625  35.000652     0.5616      7.352   303.0151 1.3018e+03     0.3839      0.215      0.311    24.1616 0.0000e+00
      0.236      0.073     7.9772     94.950     35.625  34.986688     0.5861      7.348   303.4543 1.6275e+03     0.2553      0.231      0.335    24.1611 0.0000e+00
      0.256      0.075     7.9862     95.022     35.662  35.009446     0.5999      7.346   304.2607 1.8662e+03     0.1837      0.251      0.364    24.1533 0.0000e+00
      0.275      0.078     7.9846     94.974     35.687  35.021711     0.6086      7.346   304.5903 1.7788e+03     0.1897      0.270      0.391    24.1336 0.0000e+00
      0.295      0.081     7.9696     94.772     35.682  35.007927     0.6364      7.347   304.3431 1.7960e+03     0.2061      0.289      0.420    24.1184 0.0000e+00
      0.316      0.085     7.9472     94.486     35.652  34.969816     0.6687      7.350   304.6276 1.9605e+03     0.1987      0.311      0.449    24.0986 0.0000e+00
      0.337      0.090     7.9270     94.226     35.632  34.942014     0.6769      7.353   305.3619 1.8400e+03     0.1612      0.330      0.478    24.0760 0.0000e+00
      0.360      0.095     7.9144     94.050     35.626  34.925848     0.6723      7.355   306.0808 1.5198e+03     0.1492      0.352      0.510    24.0610 0.0000e+00
      0.385      0.099     7.9060     93.919     35.614  34.901368     0.6775      7.355   306.6946 1.4028e+03     0.1759      0.378      0.548    24.0485 0.0000e+00
      0.411      0.102     7.8956     93.763     35.626  34.900088     0.6847      7.354   306.5888 1.5133e+03     0.2098      0.402      0.583    24.0373 0.0000e+00
      0.440      0.102     7.8836     93.587     35.651  34.910354     0.6854      7.353   305.9199 1.6051e+03     0.2226      0.431      0.625    24.0267 0.0000e+00
      0.470      0.100     7.8701     93.384     35.657  34.898438     0.6857      7.352   305.7479 1.6522e+03     0.2085      0.462      0.671    24.0137 0.0000e+00
      0.495      0.095     7.8527     93.119     35.665  34.883031     0.6980      7.349   306.2305 1.5446e+03     0.2223      0.486      0.706    23.9939 0.0000e+00
      0.518      0.090     7.8328     92.811     35.662  34.851073     0.7154      7.346   306.8514 1.2694e+03     0.2378      0.508      0.737    23.9745 0.0000e+00
      0.539      0.086     7.8130     92.507     35.605  34.766072     0.7209      7.346   307.3186 1.1725e+03     0.2122      0.531      0.769    23.9572 0.0000e+00
      0.558      0.087     7.7944     92.217     35.548  34.680994     0.7182      7.346   307.5767 1.2508e+03     0.1870      0.549      0.796    23.9345 0.0000e+00
      0.576      0.091     7.7765     91.918     35.551  34.648107     0.7188      7.344   307.5637 1.3527e+03     0.1775      0.564      0.817    23.9026 0.0000e+00
      0.596      0.097     7.7592     91.619     35.565  34.622461     0.7286      7.341   307.5046 1.3134e+03     0.1888      0.582      0.843    23.8539 0.0000e+00
      0.624      0.102     7.7464     91.376     35.540  34.561401     0.7361      7.338   307.6361 1.1388e+03     0.2022      0.610      0.885    23.8151 0.0000e+00
      0.658      0.107     7.7462     91.285     35.496  34.481455     0.7270      7.334   307.8635 9.9975e+02     0.1870      0.646      0.937    23.7823 0.0000e+00
      0.689      0.108     7.7643     91.403     35.471  34.418006     0.7186      7.332   308.5329 9.9133e+02     0.1884      0.677      0.982    23.7259 0.0000e+00
      0.717      0.105     7.7977     91.678     35.467  34.365864     0.7538      7.332   309.5358 1.0682e+03     0.2798      0.703      1.019    23.6680 0.0000e+00
      0.742      0.099     7.8409     92.030     35.460  34.295564     0.8221      7.332   309.8363 1.1053e+03     0.4073      0.727      1.055    23.6171 0.0000e+00
      0.766      0.092     7.8894     92.430     35.435  34.203096     0.8561      7.332   309.4983 1.1200e+03     0.4475      0.752      1.090    23.5655 0.0000e+00
      0.788      0.087     7.9389     92.860     35.364  34.073474     0.8514      7.333   309.3216 1.0384e+03     0.4300      0.773      1.120    23.5156 0.0000e+00
      0.808      0.083     7.9850     93.284     35.269  33.935051     0.8482      7.334   309.3350 9.2163e+02     0.3800      0.793      1.150    23.4509 0.0000e+00
      0.828      0.079     8.0280     93.677     35.040  33.672673     0.8550      7.335   309.8317 8.5948e+02     0.2995      0.813      1.180    23.3565 0.0000e+00
      0.848      0.077     8.0780     94.045     34.621  33.187596     0.8597      7.336   310.6815 8.3396e+02     0.2812      0.831      1.205    23.2490 0.0000e+00
      0.867      0.077     8.1468     94.396     34.297  32.706504     0.8592      7.336   311.0925 9.3129e+02     0.2801      0.850      1.234    23.1641 0.0000e+00
      0.886      0.078     8.2302     94.723     34.192  32.365083     0.8573      7.334   311.2729 1.0496e+03     0.2864      0.868      1.260    23.0973 0.0000e+00
      0.905      0.079     8.3177     95.047     34.258  32.171263     0.8558      7.332   311.2276 9.8395e+02     0.3581      0.887      1.287    23.0575 0.0000e+00
      0.925      0.081     8.4092     95.456     34.411  32.077509     0.8583      7.330   310.9752 9.4237e+02     0.4150      0.907      1.315    22.9842 0.0000e+00
      0.946      0.083     8.5175     96.136     34.537  31.993311     0.8613      7.328   311.5769 9.8129e+02     0.4246      0.927      1.344    22.7142 0.0000e+00
      0.968      0.086     8.6552     97.245     34.627  31.915087     0.8729      7.324   312.9094 8.9164e+02     0.4121      0.950      1.377    22.3226 0.0000e+00
      0.990      0.088     8.8163     98.716     34.667  31.830107     0.8976      7.321   313.5792 7.9747e+02     0.4173      0.971      1.408    21.9423 0.0000e+00
      1.012      0.089     8.9892    100.387     34.657  31.727796     0.9122      7.321   313.5663 7.9738e+02     0.4565      0.992      1.439    21.5853 0.0000e+00
      1.035      0.091     9.1634    102.057     34.655  31.630577     0.9118      7.321   313.4413 8.1871e+02     0.4590      1.015      1.472    21.2951 0.0000e+00
      1.060      0.094     9.3272    103.566     34.678  31.543659     0.9201      7.319   313.1865 7.8947e+02     0.4172      1.039      1.507    21.0579 0.0000e+00
      1.084      0.096     9.4732    104.869     34.679  31.438842     0.9572      7.319   312.9808 7.5724e+02     0.4082      1.063      1.542    20.8822 0.0000e+00
      1.107      0.097     9.5948    105.906     34.656  31.315751     1.0110      7.322   313.2767 7.8339e+02     0.4418      1.084      1.573    20.7749 0.0000e+00
      1.133      0.098     9.6877    106.629     34.636  31.198401     1.0470      7.323   314.0973 7.8021e+02     0.4581      1.110      1.609    20.6424 0.0000e+00
      1.160      0.099     9.7507    107.047     34.626  31.099487     1.0523      7.323   314.6433 7.3660e+02     0.4222      1.139      1.653    20.4727 0.0000e+00
      1.184      0.099     9.7940    107.279     34.613  31.008798     1.0572      7.323   314.7151 7.3849e+02     0.3734      1.161      1.684    20.3216 0.0000e+00
      1.208      0.099     9.8311    107.466     34.601  30.927385     1.0873      7.324   314.7940 7.5542e+02     0.3568      1.182      1.715    20.1763 0.0000e+00
      1.235      0.099     9.8699    107.691     34.617  30.877136     1.1136      7.324   315.0815 6.9825e+02     0.3734      1.212      1.756    20.0268 0.0000e+00
      1.261      0.099     9.9155    108.005     34.647  30.845716     1.1173      7.324   315.1791 6.8035e+02     0.4221      1.238      1.794    19.8970 0.0000e+00
      1.286      0.100     9.9658    108.373     34.662  30.801441     1.1413      7.323   314.9423 7.4074e+02     0.4881      1.262      1.830    19.7858 0.0000e+00
      1.309      0.102    10.0128    108.702     34.639  30.722778     1.1928      7.323   314.9709 7.4560e+02     0.5611      1.285      1.862    19.6836 0.0000e+00
      1.333      0.102    10.0491    108.914     34.629  30.656622     1.2256      7.323   315.3532 7.2379e+02     0.6328      1.305      1.893    19.5914 0.0000e+00
      1.361      0.101    10.0710    108.969     34.671  30.636543     1.2426      7.322   315.8645 7.3479e+02     0.6529      1.334      1.936    19.5082 0.0000e+00
      1.390      0.099    10.0770    108.850     34.704  30.606946     1.2788      7.322   316.2485 7.5139e+02     0.6204      1.364      1.979    19.4275 0.0000e+00
      1.417      0.095    10.0677    108.567     34.708  30.552719     1.3325      7.321   315.8667 7.2439e+02     0.6071      1.390      2.015    19.3432 0.0000e+00
      1.442      0.089    10.0422    108.120     34.697  30.488873     1.3689      7.321   315.2060 7.1299e+02     0.6146      1.416      2.052    19.2596 0.0000e+00
      1.464      0.084     9.9920    107.429     34.658  30.406478     1.3781      7.322   315.2285 7.4234e+02     0.6190      1.435      2.082    19.1771 0.0000e+00
      1.482      0.079     9.9134    106.447     34.608  30.318499     1.3793      7.323   315.4519 6.8157e+02     0.5682      1.454      2.109    19.0932 0.0000e+00
      1.499      0.077     9.8172    105.273     34.583  30.250654     1.3838      7.322   315.6694 6.0251e+02     0.4587      1.470      2.133    19.0085 0.0000e+00
      1.515      0.077     9.7163    104.047     34.603  30.221170     1.3868      7.320   316.1380 6.1110e+02     0.4233      1.485      2.154    18.9265 0.0000e+00
      1.535      0.081     9.6196    102.879     34.648  30.215978     1.3790      7.316   316.2140 6.3588e+02     0.4458      1.505      2.182    18.8585 0.0000e+00
      1.556      0.087     9.5410    101.910     34.664  30.187820     1.3720      7.311   315.8136 6.8080e+02     0.4262      1.526      2.213    18.7997 0.0000e+00
      1.579      0.094     9.4924    101.251     34.657  30.134676     1.3579      7.306   315.7702 7.1074e+02     0.3993      1.548      2.245    18.7338 0.0000e+00
      1.604      0.100     9.4747    100.912     34.654  30.081410     1.3270      7.303   315.9478 6.5539e+02     0.3956      1.572      2.280    18.6612 0.0000e+00
      1.631      0.103     9.4836    100.865     34.674  30.051764     1.3111      7.301   316.1533 5.7377e+02     0.4120      1.598      2.318    18.5982 0.0000e+00
      1.661      0.104     9.5091    101.013     34.697  30.030187     1.3130      7.300   316.7064 5.2179e+02     0.4451      1.629      2.362    18.5420 0.0000e+00
      1.690      0.103     9.5361    101.196     34.715  30.010990     1.3135      7.297   317.3872 5.1014e+02     0.4601      1.659      2.406    18.4734 0.0000e+00
      1.716      0.103     9.5544    101.300     34.750  30.010121     1.3080      7.292   317.7592 5.0354e+02     0.4401      1.684      2.443    18.3965 0.0000e+00
      1.740      0.103     9.5613    101.287     34.721  29.956140     1.3014      7.288   317.6768 4.8452e+02     0.4172      1.706      2.475    18.3263 0.0000e+00
      1.762      0.103     9.5574    101.154     34.652  29.866309     1.3154      7.286   317.5088 4.8853e+02     0.4277      1.728      2.507    18.2669 0.0000e+00
      1.787      0.103     9.5436    100.914     34.626  29.813023     1.4046      7.282   317.5354 4.8655e+02     0.4448      1.750      2.538    18.2175 0.0000e+00
      1.817      0.104     9.5211    100.587     34.595  29.756346     1.5438      7.277   317.7414 4.5351e+02     0.4406      1.781      2.583    18.1748 0.0000e+00
      1.847      0.106     9.4979    100.251     34.553  29.689029     1.6194      7.272   318.1061 4.1694e+02     0.4686      1.814      2.632    18.1351 0.0000e+00
      1.873      0.108     9.4872    100.033     34.530  29.634110     1.6390      7.269   318.5889 3.8343e+02     0.5096      1.837      2.665    18.0923 0.0000e+00
      1.897      0.110     9.4991    100.038     34.464  29.536809     1.7066      7.266   319.1049 3.6279e+02     0.5392      1.859      2.696    18.0428 0.0000e+00
      1.925      0.112     9.5384    100.313     34.359  29.401570     1.8221      7.262   319.4411 3.6317e+02     0.5831      1.888      2.738    18.0014 0.0000e+00
      1.954      0.116     9.6019    100.822     34.340  29.332469     1.8861      7.259   319.5563 3.5794e+02     0.6127      1.916      2.779    17.9613 0.0000e+00
      1.984      0.121     9.6828    101.497     34.411  29.336286     1.8919      7.258   319.4659 3.3429e+02     0.6530      1.945      2.821    17.9078 0.0000e+00
      2.016      0.123     9.7762    102.296     34.461  29.320644     1.9379      7.258   319.2083 3.2450e+02     0.6726      1.977      2.868    17.8506 0.0000e+00
      2.049      0.123     9.8760    103.164     34.469  29.270273     2.0379      7.259   319.1087 3.3156e+02     0.6371      2.009      2.914    17.7855 0.0000e+00
      2.083      0.119     9.9767    104.051     34.490  29.235208     2.0906      7.261   319.5521 3.1609e+02     0.6205      2.043      2.963    17.7066 0.0000e+00
      2.116      0.113    10.0726    104.906     34.520  29.214118     2.0884      7.263   320.1811 2.8822e+02     0.6235      2.077      3.012    17.6219 0.0000e+00
      2.144      0.105    10.1546    105.629     34.558  29.205725     2.0839      7.264   320.2621 2.7683e+02     0.6127      2.105      3.052    17.5365 0.0000e+00
      2.168      0.099    10.2127    106.112     34.593  29.197188     2.0823      7.264   320.1003 2.7174e+02     0.6122      2.127      3.083    17.4517 0.0000e+00
      2.190      0.094    10.2449    106.323     34.612  29.174354     2.0784      7.264   320.1181 2.6324e+02     0.6168      2.148      3.115    17.3743 0.0000e+00
      2.211      0.092    10.2599    106.352     34.671  29.183600     2.0734      7.263   320.1325 2.5519e+02     0.6075      2.169      3.145    17.3085 0.0000e+00
      2.232      0.094    10.2636    106.275     34.711  29.181927     2.0779      7.261   320.4460 2.4778e+02     0.5913      2.187      3.172    17.2494 0.0000e+00
      2.257      0.099    10.2573    106.096     34.645  29.090584     2.0684      7.259   321.2423 2.4065e+02     0.6041      2.213      3.209    17.1958 0.0000e+00
      2.283      0.104    10.2406    105.779     34.553  28.968164     2.0414      7.256   321.7586 2.3565e+02     0.6405      2.240      3.248    17.1432 0.0000e+00
      2.311      0.109    10.2095    105.285     34.547  28.908245     2.0272      7.253   321.7851 2.3268e+02     0.6350      2.267      3.288    17.0795 0.0000e+00
      2.341      0.112    10.1638    104.649     34.567  28.874070     2.0246      7.251   321.8202 2.2938e+02     0.6290      2.294      3.328    17.0278 0.0000e+00
      2.371      0.114    10.1098    103.951     34.543  28.808894     2.0282      7.248   321.8396 2.2572e+02     0.6592      2.325      3.372    16.9881 0.0000e+00
      2.402      0.117    10.0539    103.241     34.530  28.755174     2.0342      7.245   321.6747 2.2392e+02     0.6639      2.358      3.420    16.9196 0.0000e+00
      2.430      0.119     9.9999    102.543     34.559  28.732502     2.0334      7.243   321.7190 2.2237e+02     0.6560      2.382      3.455    16.8323 0.0000e+00
      2.458      0.121     9.9494    101.881     34.606  28.725227     2.0367      7.242   322.1172 2.2183e+02     0.6546      2.409      3.493    16.7565 0.0000e+00
      2.489      0.122     9.9078    101.325     34.663  28.730651     2.1467      7.242   322.4450 2.2578e+02     0.6469      2.439      3.538    16.6949 0.0000e+00
      2.523      0.122     9.8822    100.948     34.713  28.734534     2.3629      7.242   322.5853 2.3235e+02     0.6546      2.474      3.589    16.6359 0.0000e+00
      2.558      0.121     9.8734    100.740     34.728  28.708627     2.4824      7.243   322.6096 2.3338e+02     0.6571      2.511      3.641    16.5683 0.0000e+00
      2.588      0.117     9.8791    100.671     34.733  28.671363     2.4882      7.244   322.4810 2.2683e+02     0.6461      2.538      3.681    16.4955 0.0000e+00
      2.616      0.112     9.8916    100.666     34.778  28.664942     2.4688      7.245   322.3205 2.2218e+02     0.6439      2.565      3.720    16.4365 0.0000e+00
      2.645      0.107     9.8961    100.593     34.861  28.694442     2.4408      7.246   322.3032 2.2058e+02     0.6600      2.595      3.764    16.3861 0.0000e+00
      2.671      0.104     9.8844    100.374     34.921  28.710483     2.4268      7.246   322.4443 2.1972e+02     0.6587      2.622      3.802    16.3303 0.0000e+00
      2.693      0.103     9.8599    100.017     34.913  28.668351     2.4191      7.244   322.5636 2.2123e+02     0.6286      2.641      3.830    16.2713 0.0000e+00
      2.717      0.103     9.8277     99.556     34.920  28.629490     2.4121      7.242   322.6277 2.2481e+02     0.6316      2.661      3.861    16.2050 0.0000e+00
      2.745      0.104     9.7893     99.026     34.967  28.621572     2.3786      7.241   322.8752 2.2866e+02     0.6642      2.692      3.905    16.1452 0.0000e+00
      2.775      0.105     9.7433     98.435     34.958  28.572567     2.3161      7.239   323.1470 2.2691e+02     0.6568      2.722      3.949    16.1064 0.0000e+00
      2.803      0.106     9.6874     97.740     34.900  28.481425     2.2820      7.238   323.0737 2.2811e+02     0.6329      2.750      3.988    16.0588 0.0000e+00
      2.829      0.106     9.6240     96.932     34.881  28.408555     2.2884      7.238   322.9365 2.3528e+02     0.6498      2.774      4.023    15.9916 0.0000e+00
      2.854      0.107     9.5588     96.093     34.935  28.389939     2.3739      7.236   323.2085 2.3434e+02     0.6473      2.798      4.058    15.9173 0.0000e+00
      2.880      0.109     9.4974     95.322     34.991  28.383261     2.5263      7.231   323.9536 2.3115e+02     0.6328      2.825      4.096    15.8622 0.0000e+00
      2.907      0.112     9.4490     94.681     34.988  28.327749     2.6053      7.221   324.9769 2.2950e+02     0.6279      2.849      4.132    15.8114 0.0000e+00
      2.937      0.115     9.4184     94.178     34.947  28.226687     2.6033      7.211   325.6003 2.2485e+02     0.6188      2.880      4.176    15.7219 0.0000e+00
      2.969      0.117     9.4023     93.768     34.915  28.113750     2.6399      7.202   325.5535 2.2176e+02     0.6758      2.912      4.223    15.6192 0.0000e+00
      3.000      0.117     9.3957     93.399     34.957  28.041637     2.7264      7.195   325.3584 2.1981e+02     0.7980      2.942      4.265    15.5545 0.0000e+00
      3.030      0.116     9.3870     93.010     35.023  27.989657     2.7847      7.188   325.3914 2.1789e+02     0.8760      2.973      4.311    15.4884 0.0000e+00
      3.059      0.113     9.3679     92.550     35.066  27.929630     2.8017      7.183   325.6949 2.1733e+02     0.8555      3.001      4.353    15.3858 0.0000e+00
      3.088      0.109     9.3389     91.974     35.141  27.887240     2.7949      7.178   326.1023 2.1698e+02     0.8247      3.028      4.391    15.2726 0.0000e+00
      3.116      0.107     9.3001     91.256     35.254  27.858001     2.7861      7.172   326.3591 2.1594e+02     0.8396      3.056      4.432    15.1053 0.0000e+00
      3.142      0.104     9.2523     90.429     35.381  27.829968     2.7960      7.165   326.4775 2.1542e+02     0.8525      3.083      4.471    14.9423 0.0000e+00
      3.166      0.103     9.1958     89.523     35.509  27.802138     2.8048      7.159   326.8458 2.1640e+02     0.8583      3.104      4.501    14.8294 0.0000e+00
      3.192      0.106     9.1316     88.583     35.623  27.775367     2.7909      7.150   327.4561 2.1379e+02     0.8787      3.129      4.537    14.6854 0.0000e+00
      3.220      0.111     9.0671     87.676     35.737  27.760142     2.7650      7.139   327.9191 2.0653e+02     0.8860      3.160      4.582    14.5094 0.0000e+00
      3.245      0.116     9.0031     86.772     35.854  27.744926     2.7499      7.129   328.1425 2.0210e+02     0.8860      3.182      4.614    14.3289 0.0000e+00
      3.274      0.120     8.9326     85.821     35.953  27.718270     2.7362      7.120   328.3508 1.9992e+02     0.8782      3.205      4.647    14.1348 0.0000e+00
      3.310      0.122     8.8548     84.837     36.035  27.691716     2.7282      7.111   328.8027 1.9854e+02     0.8534      3.247      4.709    13.9722 0.0000e+00
      3.346      0.122     8.7679     83.784     36.129  27.677764     2.7908      7.101   329.3037 1.9887e+02     0.8601      3.286      4.766    13.8452 0.0000e+00
      3.375      0.119     8.6691     82.632     36.234  27.676480     2.9152      7.091   329.4189 1.9255e+02     0.8681      3.308      4.799    13.6864 0.0000e+00
      3.405      0.112     8.5670     81.472     36.331  27.676097     2.9913      7.084   329.2493 1.8136e+02     0.8586      3.339      4.843    13.5342 0.0000e+00
      3.434      0.101     8.4665     80.352     36.414  27.673050     3.0025      7.079   329.2321 1.7732e+02     0.8674      3.370      4.888    13.4216 0.0000e+00
      3.460      0.091     8.3639     79.245     36.442  27.639562     3.0414      7.072   329.8130 1.7754e+02     0.8217      3.392      4.920    13.3006 0.0000e+00
      3.483      0.091     8.2680     78.224     36.437  27.588627     3.1311      7.059   330.7665 1.7465e+02     0.7027      3.419      4.959    13.1824 0.0000e+00
      3.500      0.099     8.1949     77.370     36.496  27.565138     3.1963      7.044   331.1239 1.6834e+02     0.6187      3.437      4.985    13.0833 0.0000e+00
      3.512      0.110     8.1380     76.555     36.627  27.545974     3.2131      7.031   330.7787 1.5914e+02     0.5990      3.441      4.991    12.9885 0.0000e+00
      3.534      0.118     8.0829     75.697     36.824  27.547280     3.2334      7.023   330.3788 1.4693e+02     0.6483      3.456      5.013    12.9108 0.0000e+00
      3.576      0.121     8.0278     74.905     37.029  27.580769     3.2763      7.019   330.2462 1.3450e+02     0.7568      3.502      5.079    12.8633 0.0000e+00
      3.630      0.120     7.9717     74.221     37.109  27.569755     3.2998      7.016   330.2940 1.2470e+02     0.8430      3.567      5.172    12.7945 0.0000e+00
      3.670      0.115     7.9145     73.592     37.128  27.541035     3.2975      7.012   330.2685 1.1771e+02     0.8662      3.608      5.234    12.6191 0.0000e+00
      3.690      0.104     7.8492     72.913     37.184  27.550970     3.2670      7.007   330.2823 1.1306e+02     0.7931      3.621      5.252    12.3824 0.0000e+00
      3.703      0.089     7.7677     72.117     37.224  27.562840     3.2155      6.999   330.5468 1.1016e+02     0.6611      3.630      5.264    12.2091 0.0000e+00
      3.718      0.075     7.6765     71.262     37.222  27.557550     3.1899      6.990   330.7132 1.0851e+02     0.6129      3.645      5.287    12.1330 0.0000e+00
      3.737      0.069     7.5877     70.436     37.213  27.550496     3.1786      6.981   330.7460 1.0863e+02     0.6373      3.665      5.315    12.0865 0.0000e+00
      3.758      0.071     7.5067     69.675     37.206  27.541051     3.1431      6.971   331.2876 1.1138e+02     0.6510      3.687      5.347    12.0345 0.0000e+00
      3.778      0.078     7.4360     68.983     37.184  27.506837     3.0818      6.959   332.1856 1.1587e+02     0.6571      3.707      5.377    12.0122 0.0000e+00
      3.794      0.090     7.3838     68.357     37.205  27.454305     3.0434      6.944   332.6556 1.2205e+02     0.6497      3.721      5.398    12.0135 0.0000e+00
      3.809      0.101     7.3522     67.768     37.344  27.413809     3.0471      6.931   332.6681 1.2826e+02     0.6524      3.732      5.413    12.0169 0.0000e+00
      3.833      0.108     7.3304     67.239     37.539  27.398021     3.0523      6.923   332.5090 1.3097e+02     0.6599      3.753      5.443    12.0088 0.0000e+00
      3.871      0.112     7.3137     66.860     37.679  27.390238     3.0048      6.918   332.1945 1.3053e+02     0.6490      3.793      5.502    12.0055 0.0000e+00
      3.915      0.112     7.3003     66.591     37.769  27.383087     2.9142      6.916   331.8762 1.3066e+02     0.6429      3.844      5.575    11.9464 0.0000e+00
      3.949      0.109     7.2806     66.289     37.840  27.374991     2.8662      6.914   331.7580 1.3252e+02     0.6465      3.879      5.626    11.7099 0.0000e+00
      3.969      0.103     7.2497     65.890     37.895  27.355786     2.8658      6.909   331.7977 1.3297e+02     0.6621      3.893      5.648    11.4516 0.0000e+00
      3.985      0.097     7.2102     65.391     37.973  27.341306     2.8173      6.904   331.9260 1.3074e+02     0.6483      3.906      5.665    11.3284 0.0000e+00
      4.004      0.094     7.1643     64.813     38.067  27.326827     2.7124      6.896   332.1046 1.2774e+02     0.6018      3.925      5.692    11.2468 0.0000e+00
      4.027      0.098     7.1117     64.185     38.148  27.307633     2.6547      6.887   332.5808 1.2373e+02     0.5883      3.948      5.726    11.1656 0.0000e+00
      4.055      0.106     7.0551     63.534     38.238  27.299653     2.6524      6.880   333.2959 1.1822e+02     0.6074      3.976      5.765    11.0987 0.0000e+00
      4.087      0.111     6.9990     62.876     38.343  27.293764     2.5834      6.871   333.4379 1.1313e+02     0.6192      4.008      5.813    11.0081 0.0000e+00
      4.120      0.112     6.9489     62.266     38.470  27.299843     2.4366      6.862   333.2654 1.0963e+02     0.6084      4.042      5.862    10.8848 0.0000e+00
      4.150      0.109     6.9084     61.779     38.577  27.309558     2.3471      6.853   333.6189 1.0722e+02     0.5996      4.070      5.903    10.7835 0.0000e+00
      4.177      0.104     6.8743     61.405     38.592  27.284162     2.3287      6.845   334.0121 1.0490e+02     0.6038      4.096      5.941    10.7017 0.0000e+00
      4.202      0.099     6.8489     61.131     38.575  27.246730     2.2414      6.835   334.1481 1.0290e+02     0.5982      4.123      5.979    10.5929 0.0000e+00
      4.224      0.095     6.8335     60.939     38.604  27.237936     2.0728      6.823   334.9186 1.0228e+02     0.5932      4.143      6.009    10.4710 0.0000e+00
      4.245      0.094     6.8266     60.831     38.645  27.241307     1.9720      6.811   336.1017 1.0229e+02     0.6032      4.161      6.035    10.3754 0.0000e+00
      4.268      0.094     6.8317     60.835     38.652  27.223964     1.9514      6.801   336.5793 1.0226e+02     0.6290      4.185      6.069    10.3419 0.0000e+00
      4.293      0.092     6.8487     60.931     38.687  27.218709     1.9333      6.794   336.4763 1.0247e+02     0.6612      4.210      6.106    10.3232 0.0000e+00
      4.319      0.088     6.8758     61.112     38.765  27.241245     1.9093      6.790   336.0614 1.0238e+02     0.6566      4.234      6.141    10.2693 0.0000e+00
      4.345      0.080     6.9121     61.382     38.807  27.242412     1.8915      6.790   335.4347 1.0206e+02     0.6333      4.261      6.180    10.2405 0.0000e+00
      4.368      0.070     6.9576     61.750     38.820  27.232792     1.8920      6.789   335.0928 1.0218e+02     0.6238      4.287      6.218    10.2217 0.0000e+00
      4.383      0.059     7.0151     62.245     38.860  27.251903     1.8968      6.787   335.4558 1.0225e+02     0.6034      4.301      6.238    10.1754 0.0000e+00
      4.392      0.048     7.0882     62.886     38.910  27.282979     1.8946      6.785   336.2088 1.0189e+02     0.6005      4.307      6.247    10.1328 0.0000e+00
      4.400      0.038     7.1752     63.646     38.930  27.291042     1.8931      6.783   336.5409 1.0139e+02     0.6195      4.315      6.258    10.0932 0.0000e+00
      4.410      0.030     7.2711     64.474     38.938  27.285887     1.8882      6.782   336.5464 1.0083e+02     0.6192      4.324      6.272    10.0672 0.0000e+00
      4.418      0.027     7.3722     65.353     38.949  27.284129     1.8813      6.782   336.4475 1.0018e+02     0.6269      4.334      6.285    10.0594 0.0000e+00
      4.423      0.029     7.4723     66.239     38.930  27.269774     1.8555      6.780   336.2054 9.9991e+01     0.6518      4.338      6.292    10.0584 0.0000e+00
      4.425      0.033     7.5682     67.080     38.892  27.239324     1.8064      6.776   336.3715 9.9144e+01     0.6460      4.340      6.294    10.0531 0.0000e+00
      4.430      0.041     7.6627     67.850     38.931  27.233451     1.7749      6.770   337.1660 9.6289e+01     0.6176      4.341      6.297    10.0338 0.0000e+00
      4.442      0.052     7.7519     68.496     39.071  27.262226     1.7594      6.760   338.0678 9.3458e+01     0.6130      4.354      6.316    10.0181 0.0000e+00
      4.458      0.066     7.8239     68.975     39.191  27.269677     1.6926      6.748   338.8435 9.0868e+01     0.6210      4.373      6.342    10.0202 0.0000e+00
      4.476      0.080     7.8753     69.310     39.258  27.259954     1.5731      6.736   339.3175 8.8031e+01     0.6225      4.388      6.364    10.0312 0.0000e+00
      4.498      0.090     7.9195     69.622     39.327  27.271608     1.4997      6.726   339.3243 8.6755e+01     0.6319      4.410      6.396     9.9978 0.0000e+00
      4.525      0.097     7.9723     70.046     39.372  27.283542     1.4768      6.720   339.2707 8.6233e+01     0.6432      4.438      6.436     9.8871 0.0000e+00
      4.555      0.101     8.0469     70.686     39.374  27.277237     1.3612      6.717   338.9276 8.5196e+01     0.6672      4.467      6.479     9.7759 0.0000e+00
      4.584      0.103     8.1468     71.551     39.356  27.258859     1.1583      6.713   338.1871 8.4928e+01     0.7082      4.497      6.522     9.7099 0.0000e+00
      4.609      0.102     8.2630     72.559     39.353  27.251838     1.0544      6.709   338.0606 8.5451e+01     0.7127      4.521      6.557     9.6618 0.0000e+00
      4.633      0.099     8.3879     73.642     39.368  27.255828     1.0421      6.705   338.4309 8.5849e+01     0.6595      4.543      6.589     9.6404 0.0000e+00
      4.658      0.096     8.5109     74.703     39.363  27.243602     1.0097      6.702   338.7920 8.6140e+01     0.6140      4.568      6.624     9.6374 0.0000e+00
      4.683      0.093     8.6204     75.643     39.358  27.230998     0.9562      6.698   339.2437 8.6164e+01     0.6212      4.592      6.660     9.6286 0.0000e+00
      4.707      0.091     8.7074     76.390     39.367  27.230419     0.9199      6.696   339.3322 8.5762e+01     0.6247      4.616      6.695     9.6222 0.0000e+00
      4.730      0.090     8.7674     76.901     39.386  27.236602     0.9108      6.695   338.5709 8.5387e+01     0.6248      4.639      6.729     9.6162 0.0000e+00
      4.751      0.088     8.8054     77.220     39.403  27.242251     0.9188      6.694   337.5249 8.5220e+01     0.6535      4.659      6.757     9.6029 0.0000e+00
      4.773      0.086     8.8294     77.423     39.398  27.235219     0.9620      6.692   337.1818 8.4702e+01     0.6670      4.680      6.787     9.5906 0.0000e+00
      4.796      0.085     8.8461     77.560     39.374  27.215068     1.0197      6.692   337.2614 8.3828e+01     0.6651      4.704      6.822     9.5829 0.0000e+00
      4.818      0.085     8.8585     77.640     39.354  27.189103     1.0376      6.691   337.2834 8.2662e+01     0.6617      4.725      6.853     9.5746 0.0000e+00
      4.838      0.086     8.8687     77.677     39.366  27.175252     1.0313      6.690   337.5339 8.1380e+01     0.6567      4.744      6.881     9.5650 0.0000e+00
      4.858      0.087     8.8771     77.686     39.405  27.174564     1.0081      6.690   338.0533 8.0477e+01     0.6646      4.764      6.910     9.5621 0.0000e+00
      4.879      0.089     8.8810     77.662     39.450  27.180758     0.9594      6.688   338.0562 7.9649e+01     0.6658      4.784      6.938     9.5616 0.0000e+00
      4.903      0.092     8.8830     77.638     39.485  27.186627     0.9290      6.685   337.4831 7.8432e+01     0.6410      4.807      6.972     9.5477 0.0000e+00
      4.929      0.097     8.8887     77.661     39.495  27.182000     0.9162      6.680   337.4047 7.6979e+01     0.6088      4.834      7.012     9.5160 0.0000e+00
      4.954      0.101     8.9025     77.764     39.515  27.188304     0.8691      6.674   337.7963 7.5682e+01     0.6120      4.857      7.045     9.4768 0.0000e+00
      4.979      0.102     8.9256     77.952     39.539  27.199338     0.8095      6.667   338.1740 7.4436e+01     0.6498      4.880      7.079     9.4433 0.0000e+00
      5.006      0.102     8.9569     78.215     39.530  27.188418     0.7939      6.661   338.6163 7.3085e+01     0.6385      4.910      7.121     9.4214 0.0000e+00
      5.035      0.099     8.9961     78.550     39.527  27.183262     0.7907      6.657   338.8425 7.1854e+01     0.5967      4.937      7.161     9.4085 0.0000e+00
      5.062      0.094     9.0372     78.906     39.553  27.200484     0.7793      6.652   338.6722 7.0739e+01     0.6025      4.965      7.201     9.3999 0.0000e+00
      5.086      0.088     9.0718     79.208     39.561  27.206153     0.7856      6.648   338.6219 6.9825e+01     0.6480      4.989      7.238     9.3928 0.0000e+00
      5.106      0.081     9.0998     79.453     39.535  27.188312     0.7927      6.643   338.9229 6.9160e+01     0.6888      5.008      7.264     9.3868 0.0000e+00
      5.123      0.076     9.1232     79.655     39.518  27.175254     0.7821      6.639   339.2134 6.8648e+01     0.6688      5.024      7.287     9.3827 0.0000e+00
      5.141      0.074     9.1378     79.781     39.520  27.175264     0.7493      6.635   339.3817 6.8272e+01     0.6502      5.041      7.312     9.3813 0.0000e+00
      5.158      0.074     9.1428     79.821     39.540  27.188437     0.6997      6.631   339.5812 6.7790e+01     0.6469      5.059      7.337     9.3823 0.0000e+00
      5.176      0.075     9.1430     79.820     39.570  27.207529     0.6787      6.628   340.2484 6.7216e+01     0.5975      5.076      7.363     9.3833 0.0000e+00
      5.196      0.078     9.1424     79.810     39.584  27.215599     0.6878      6.624   341.1683 6.6637e+01     0.5726      5.095      7.389     9.3818 0.0000e+00
      5.217      0.082     9.1421     79.805     39.595  27.222516     0.6908      6.622   341.4113 6.5921e+01     0.5898      5.116      7.418     9.3795 0.0000e+00
      5.239      0.084     9.1396     79.783     39.603  27.227669     0.6970      6.622   341.2065 6.5266e+01     0.6232      5.139      7.453     9.3790 0.0000e+00
      5.261      0.084     9.1334     79.728     39.584  27.214403     0.7070      6.621   340.8438 6.4731e+01     0.6711      5.159      7.482     9.3771 0.0000e+00
      5.283      0.083     9.1269     79.670     39.548  27.189119     0.7022      6.619   340.2951 6.4071e+01     0.6804      5.180      7.514     9.3738 0.0000e+00
      5.306      0.082     9.1196     79.604     39.530  27.175946     0.6934      6.619   340.0794 6.3447e+01     0.6440      5.205      7.549     9.3734 0.0000e+00
      5.326      0.081     9.1097     79.516     39.541  27.182130     0.6742      6.620   340.9029 6.2847e+01     0.6586      5.224      7.576     9.3737 0.0000e+00
      5.345      0.081     9.0994     79.425     39.568  27.200383     0.6361      6.621   342.3368 6.2099e+01     0.7652      5.241      7.602     9.3729 0.0000e+00
      5.364      0.080     9.0877     79.322     39.577  27.206146     0.6180      6.620   342.9616 6.1495e+01     0.8645      5.259      7.628     9.3720 0.0000e+00
      5.385      0.079     9.0776     79.233     39.551  27.188313     0.6210      6.620   342.6926 6.0919e+01     0.8825      5.280      7.657     9.3712 0.0000e+00
      5.407      0.079     9.0735     79.198     39.532  27.175254     0.6363      6.619   342.1817 6.0141e+01     0.7996      5.302      7.690     9.3700 0.0000e+00
      5.428      0.078     9.0713     79.180     39.531  27.175253     0.6648      6.618   341.9459 5.9406e+01     0.6867      5.324      7.722     9.3690 0.0000e+00
      5.447      0.077     9.0691     79.163     39.548  27.188297     0.6801      6.616   342.0791 5.8705e+01     0.6470      5.342      7.748     9.3689 0.0000e+00
      5.465      0.076     9.0711     79.183     39.573  27.205973     0.6841      6.616   342.5873 5.7866e+01     0.6552      5.358      7.772     9.3691 0.0000e+00
      5.484      0.074     9.0756     79.223     39.562  27.198483     0.6667      6.616   343.4452 5.7112e+01     0.6631      5.378      7.800     9.3689 0.0000e+00
      5.503      0.074     9.0767     79.232     39.508  27.161223     0.6349      6.615   343.8480 5.6571e+01     0.6820      5.397      7.827     9.3699 0.0000e+00
      5.521      0.073     9.0783     79.244     39.473  27.136463     0.6306      6.615   343.6710 5.5961e+01     0.7004      5.414      7.853     9.3714 0.0000e+00
      5.541      0.072     9.0822     79.275     39.498  27.153104     0.6333      6.614   343.2849 5.5241e+01     0.6710      5.433      7.881     9.3718 0.0000e+00
      5.560      0.071     9.0849     79.297     39.527  27.171934     0.6218      6.614   342.7924 5.4538e+01     0.6326      5.453      7.910     9.3727 0.0000e+00
      5.578      0.069     9.0851     79.294     39.532  27.173631     0.6108      6.614   342.6204 5.3815e+01     0.6326      5.471      7.936     9.3730 0.0000e+00
      5.595      0.068     9.0836     79.273     39.537  27.173631     0.6102      6.613   342.9260 5.3182e+01     0.6408      5.486      7.958     9.3712 0.0000e+00
      5.611      0.068     9.0830     79.259     39.540  27.171927     0.6157      6.612   343.3036 5.2822e+01     0.6407      5.503      7.981     9.3696 0.0000e+00
      5.627      0.068     9.0823     79.246     39.517  27.153023     0.6117      6.611   343.4007 5.2532e+01     0.6303      5.519      8.003     9.3698 0.0000e+00
      5.644      0.067     9.0807     79.228     39.494  27.135549     0.6078      6.611   343.3255 5.2068e+01     0.6683      5.534      8.026     9.3677 0.0000e+00
      5.663      0.066     9.0779     79.201     39.518  27.151148     0.6150      6.609   343.4273 5.1398e+01     0.7942      5.554      8.055     9.3618 0.0000e+00
      5.683      0.066     9.0749     79.173     39.519  27.151133     0.6250      6.607   343.7718 5.0675e+01     0.8710      5.574      8.085     9.3566 0.0000e+00
      5.698      0.066     9.0749     79.172     39.496  27.135363     0.6285      6.606   343.5332 5.0090e+01     0.8645      5.589      8.106     9.3535 0.0000e+00
      5.712      0.067     9.0780     79.199     39.519  27.150963     0.6201      6.603   342.7790 4.9615e+01     0.8680      5.601      8.123     9.3513 0.0000e+00
      5.726      0.071     9.0802     79.219     39.517  27.149259     0.6147      6.599   342.7404 4.9207e+01     0.8831      5.615      8.145     9.3499 0.0000e+00
      5.743      0.076     9.0804     79.221     39.467  27.114769     0.6277      6.595   343.0669 4.8670e+01     0.8937      5.630      8.165     9.3496 0.0000e+00
      5.764      0.082     9.0812     79.229     39.467  27.114925     0.6402      6.590   343.4565 4.7981e+01     0.8752      5.651      8.196     9.3494 0.0000e+00
      5.788      0.087     9.0827     79.243     39.519  27.151149     0.6367      6.586   344.1813 4.7356e+01     0.8425      5.676      8.233     9.3491 0.0000e+00
      5.813      0.089     9.0804     79.223     39.549  27.171759     0.6315      6.582   344.6896 4.6643e+01     0.8641      5.700      8.267     9.3490 0.0000e+00
      5.838      0.089     9.0744     79.170     39.551  27.173632     0.6322      6.579   344.0954 4.5797e+01     0.9223      5.726      8.304     9.3490 0.0000e+00
      5.862      0.088     9.0714     79.143     39.552  27.173802     0.6272      6.577   342.8483 4.5145e+01     0.9366      5.749      8.339     9.3494 0.0000e+00
      5.883      0.086     9.0700     79.131     39.552  27.173804     0.6172      6.576   342.5160 4.4714e+01     0.9149      5.769      8.368     9.3502 0.0000e+00
      5.902      0.084     9.0668     79.102     39.552  27.173649     0.6116      6.574   342.8315 4.4252e+01     0.9037      5.788      8.395     9.3506 0.0000e+00
      5.922      0.082     9.0663     79.097     39.550  27.171932     0.6155      6.572   343.3071 4.3729e+01     0.8930      5.807      8.422     9.3507 0.0000e+00
      5.943      0.080     9.0702     79.131     39.523  27.153038     0.6278      6.571   343.8787 4.3214e+01     0.8773      5.828      8.452     9.3502 0.0000e+00
      5.966      0.076     9.0759     79.181     39.497  27.135705     0.6315      6.570   344.0640 4.2711e+01     0.8658      5.851      8.486     9.3496 0.0000e+00
      5.987      0.071     9.0825     79.240     39.521  27.152852     0.6228      6.570   343.8271 4.2232e+01     0.7850      5.872      8.517     9.3491 0.0000e+00
      6.005      0.066     9.0884     79.293     39.545  27.169870     0.6144      6.570   343.1652 4.1780e+01     0.6635      5.890      8.542     9.3489 0.0000e+00
      6.020      0.062     9.0927     79.333     39.517  27.150963     0.6125      6.570   342.6861 4.1413e+01     0.6485      5.905      8.564     9.3489 0.0000e+00
      6.033      0.060     9.0976     79.375     39.464  27.114753     0.6185      6.568   343.0237 4.1137e+01     0.6946      5.916      8.580     9.3490 0.0000e+00
      6.044      0.064     9.1026     79.417     39.462  27.113050     0.6223      6.564   343.6342 4.0824e+01     0.7017      5.926      8.595     9.3496 0.0000e+00
      6.058      0.073     9.1034     79.422     39.489  27.130369     0.6220      6.559   343.9591 4.0509e+01     0.6736      5.941      8.617     9.3510 0.0000e+00
      6.074      0.082     9.1010     79.400     39.494  27.133660     0.6237      6.555   344.4561 4.0056e+01     0.6605      5.955      8.637     9.3521 0.0000e+00
      6.098      0.088     9.1005     79.396     39.523  27.152836     0.6243      6.555   345.0846 3.9247e+01     0.6645      5.975      8.666     9.3516 0.0000e+00
      6.130      0.092     9.1009     79.397     39.551  27.171727     0.6113      6.556   345.0184 3.8487e+01     0.6919      6.012      8.721     9.3506 0.0000e+00
      6.160      0.092     9.0994     79.383     39.552  27.171587     0.5765      6.557   344.4300 3.8038e+01     0.7781      6.046      8.768     9.3497 0.0000e+00
      6.183      0.090     9.0959     79.351     39.522  27.151135     0.5527      6.557   343.9932 3.7592e+01     0.8524      6.065      8.796     9.3491 0.0000e+00
      6.202      0.086     9.0912     79.309     39.470  27.114939     0.5534      6.557   343.6950 3.7160e+01     0.8574      6.082      8.821     9.3490 0.0000e+00
      6.220      0.081     9.0875     79.278     39.470  27.114926     0.5673      6.558   343.5773 3.6838e+01     0.7775      6.100      8.847     9.3484 0.0000e+00
      6.238      0.079     9.0840     79.249     39.521  27.150978     0.6011      6.558   344.2906 3.6418e+01     0.6497      6.116      8.871     9.3474 0.0000e+00
      6.258      0.079     9.0801     79.216     39.548  27.169856     0.6216      6.558   345.3508 3.5918e+01     0.5933      6.136      8.900     9.3465 0.0000e+00
      6.281      0.082     9.0783     79.201     39.523  27.152682     0.6136      6.558   345.5553 3.5477e+01     0.6149      6.160      8.935     9.3464 0.0000e+00
      6.302      0.084     9.0785     79.203     39.495  27.133817     0.6140      6.557   345.3010 3.5042e+01     0.6362      6.181      8.965     9.3468 0.0000e+00
      6.323      0.085     9.0814     79.228     39.493  27.132257     0.6172      6.556   344.9431 3.4583e+01     0.6378      6.200      8.992     9.3475 0.0000e+00
      6.345      0.085     9.0876     79.282     39.495  27.133832     0.6064      6.555   344.3251 3.4149e+01     0.6645      6.222      9.024     9.3485 0.0000e+00
      6.368      0.085     9.0926     79.327     39.522  27.152852     0.6030      6.556   344.2812 3.3753e+01     0.7140      6.246      9.059     9.3487 0.0000e+00
      6.389      0.086     9.0938     79.339     39.548  27.171728     0.6132      6.556   345.3587 3.3355e+01     0.7480      6.266      9.088     9.3485 0.0000e+00
      6.410      0.086     9.0918     79.322     39.548  27.171573     0.6191      6.556   346.7709 3.2971e+01     0.7705      6.287      9.118     9.3487 0.0000e+00
      6.432      0.085     9.0865     79.276     39.518  27.150965     0.6190      6.554   347.5899 3.2606e+01     0.7728      6.308      9.149     9.3488 0.0000e+00
      6.455      0.085     9.0779     79.200     39.463  27.113057     0.6214      6.552   347.7758 3.2178e+01     0.7755      6.329      9.180     9.3497 0.0000e+00
      6.478      0.085     9.0667     79.102     39.436  27.094218     0.6291      6.551   347.5556 3.1775e+01     0.8031      6.352      9.213     9.3504 0.0000e+00
      6.499      0.086     9.0567     79.013     39.466  27.113683     0.6401      6.548   347.2511 3.1448e+01     0.8330      6.373      9.244     9.3502 0.0000e+00
      6.519      0.088     9.0514     78.964     39.531  27.157907     0.6621      6.545   347.3631 3.1083e+01     0.8313      6.393      9.272     9.3503 0.0000e+00
      6.540      0.090     9.0501     78.950     39.571  27.184446     0.6839      6.543   347.8770 3.0683e+01     0.8131      6.414      9.302     9.3499 0.0000e+00
      6.564      0.092     9.0513     78.960     39.567  27.180561     0.6824      6.541   348.3024 3.0239e+01     0.8267      6.436      9.334     9.3492 0.0000e+00
      6.589      0.093     9.0539     78.983     39.558  27.174436     0.6621      6.539   348.4621 2.9753e+01     0.8425      6.460      9.370     9.3490 0.0000e+00
      6.615      0.093     9.0559     79.000     39.557  27.173884     0.6231      6.538   348.6032 2.9332e+01     0.8207      6.487      9.409     9.3481 0.0000e+00
      6.640      0.092     9.0577     79.016     39.557  27.173894     0.5960      6.538   348.8037 2.8964e+01     0.8077      6.512      9.446     9.3465 0.0000e+00
      6.664      0.089     9.0629     79.062     39.557  27.174552     0.6102      6.538   348.9085 2.8624e+01     0.8379      6.536      9.480     9.3455 0.0000e+00
      6.684      0.087     9.0693     79.119     39.567  27.181838     0.6301      6.538   348.4071 2.8339e+01     0.8813      6.556      9.508     9.3455 0.0000e+00
      6.704      0.086     9.0722     79.147     39.589  27.198487     0.6251      6.537   347.5603 2.8029e+01     0.8745      6.573      9.534     9.3457 0.0000e+00
      6.725      0.087     9.0730     79.162     39.566  27.185367     0.6140      6.537   347.4461 2.7659e+01     0.8466      6.594      9.563     9.3458 0.0000e+00
      6.747      0.088     9.0763     79.197     39.511  27.150207     0.6153      6.536   347.6286 2.7294e+01     0.8799      6.616      9.596     9.3462 0.0000e+00
      6.770      0.090     9.0815     79.242     39.517  27.154356     0.6038      6.534   347.7885 2.6950e+01     0.9112      6.638      9.628     9.3459 0.0000e+00
      6.794      0.091     9.0858     79.277     39.544  27.172037     0.5758      6.533   348.3462 2.6605e+01     0.8889      6.661      9.662     9.3473 0.0000e+00
      6.819      0.090     9.0886     79.299     39.548  27.173489     0.5620      6.533   348.6924 2.6252e+01     0.8542      6.687      9.700     9.3532 0.0000e+00
      6.844      0.088     9.0885     79.295     39.547  27.171904     0.5479      6.533   347.9311 2.5914e+01     0.8277      6.713      9.735     9.3568 0.0000e+00
      6.867      0.084     9.0868     79.278     39.521  27.152869     0.5514      6.533   346.7125 2.5608e+01     0.8437      6.733      9.767     9.3552 0.0000e+00
      6.887      0.079     9.0840     79.256     39.492  27.133835     0.5959      6.534   346.4345 2.5321e+01     0.8942      6.753      9.795     9.3538 0.0000e+00
      6.906      0.074     9.0800     79.227     39.487  27.132261     0.6163      6.534   346.6337 2.5047e+01     0.8895      6.772      9.822     9.3531 0.0000e+00
      6.923      0.070     9.0763     79.198     39.487  27.133835     0.6058      6.533   346.7123 2.4801e+01     0.8483      6.790      9.848     9.3520 0.0000e+00
      6.939      0.068     9.0727     79.164     39.515  27.152870     0.6061      6.532   347.1271 2.4573e+01     0.8536      6.805      9.870     9.3489 0.0000e+00
      6.955      0.068     9.0677     79.117     39.545  27.171918     0.6108      6.532   347.7768 2.4340e+01     0.8616      6.820      9.892     9.3493 0.0000e+00
      6.972      0.069     9.0632     79.075     39.550  27.173650     0.6171      6.531   347.5984 2.4106e+01     0.8540      6.837      9.916     9.3558 0.0000e+00
      6.990      0.072     9.0610     79.052     39.552  27.173808     0.6274      6.530   346.6059 2.3895e+01     0.8533      6.855      9.942     9.3578 0.0000e+00
      7.009      0.075     9.0613     79.051     39.554  27.173823     0.6246      6.529   346.1007 2.3703e+01     0.8219      6.874      9.969     9.3552 0.0000e+00
      7.028      0.077     9.0656     79.084     39.557  27.173824     0.6017      6.528   346.1363 2.3509e+01     0.8106      6.892      9.996     9.3533 0.0000e+00
      7.048      0.079     9.0710     79.128     39.559  27.173824     0.5716      6.527   346.3477 2.3303e+01     0.8387      6.911     10.022     9.3516 0.0000e+00
      7.070      0.081     9.0753     79.163     39.561  27.173824     0.5450      6.526   346.7643 2.3075e+01     0.8253      6.934     10.056     9.3501 0.0000e+00
      7.091      0.084     9.0806     79.208     39.561  27.173824     0.5370      6.525   347.1292 2.2824e+01     0.8009      6.955     10.088     9.3479 0.0000e+00
      7.111      0.086     9.0858     79.254     39.561  27.173824     0.5675      6.523   347.3187 2.2573e+01     0.8192      6.974     10.114     9.3452 0.0000e+00
      7.133      0.086     9.0868     79.264     39.560  27.173824     0.6101      6.521   347.3337 2.2325e+01     0.8628      6.995     10.145     9.3433 0.0000e+00
      7.156      0.085     9.0842     79.243     39.559  27.173824     0.6207      6.521   347.2255 2.2035e+01     0.8713      7.018     10.178     9.3421 0.0000e+00
      7.181      0.084     9.0823     79.227     39.559  27.173829     0.6214      6.520   347.1281 2.1725e+01     0.8296      7.042     10.213     9.3410 0.0000e+00
      7.203      0.081     9.0814     79.218     39.560  27.173881     0.6276      6.520   347.0169 2.1478e+01     0.8170      7.065     10.247     9.3411 0.0000e+00
      7.223      0.078     9.0796     79.202     39.561  27.174454     0.6229      6.519   347.0003 2.1285e+01     0.8410      7.085     10.275     9.3429 0.0000e+00
      7.241      0.076     9.0774     79.182     39.570  27.180752     0.6199      6.518   347.7015 2.1105e+01     0.8751      7.101     10.300     9.3440 0.0000e+00
      7.257      0.074     9.0758     79.167     39.579  27.186523     0.6102      6.517   348.7837 2.0919e+01     0.8946      7.117     10.322     9.3436 0.0000e+00
      7.276      0.074     9.0782     79.188     39.571  27.180735     0.5970      6.517   349.1586 2.0711e+01     0.8315      7.134     10.347     9.3432 0.0000e+00
      7.296      0.074     9.0828     79.230     39.561  27.174267     0.6071      6.517   349.0497 2.0511e+01     0.7232      7.155     10.377     9.3429 0.0000e+00
      7.316      0.074     9.0833     79.236     39.556  27.171821     0.6220      6.518   348.7580 2.0334e+01     0.6536      7.174     10.405     9.3425 0.0000e+00
      7.336      0.073     9.0810     79.218     39.524  27.151160     0.6212      6.519   348.2990 2.0158e+01     0.6301      7.195     10.435     9.3421 0.0000e+00
      7.355      0.071     9.0800     79.213     39.469  27.114945     0.6155      6.519   348.1470 1.9995e+01     0.6533      7.214     10.463     9.3423 0.0000e+00
      7.373      0.066     9.0804     79.220     39.467  27.114943     0.6270      6.519   348.8118 1.9848e+01     0.6894      7.229     10.486     9.3430 0.0000e+00
      7.389      0.062     9.0813     79.230     39.518  27.151138     0.6595      6.519   349.9699 1.9705e+01     0.6694      7.246     10.510     9.3436 0.0000e+00
      7.405      0.059     9.0809     79.228     39.547  27.171590     0.6863      6.519   350.5352 1.9602e+01     0.6256      7.264     10.535     9.3447 0.0000e+00
      7.418      0.059     9.0770     79.195     39.547  27.171732     0.7119      6.519   350.3987 1.9541e+01     0.7096      7.276     10.554     9.3470 0.0000e+00
      7.428      0.062     9.0693     79.129     39.519  27.152854     0.7391      6.519   350.1262 1.9421e+01     0.8610      7.284     10.564     9.3497 0.0000e+00
      7.442      0.068     9.0616     79.064     39.490  27.133835     0.7386      6.517   349.9929 1.9222e+01     0.8998      7.296     10.582     9.3504 0.0000e+00
      7.460      0.075     9.0575     79.027     39.488  27.132262     0.7253      6.514   349.9060 1.9004e+01     0.9028      7.314     10.609     9.3505 0.0000e+00
      7.482      0.080     9.0550     79.001     39.493  27.133836     0.7153      6.512   349.9363 1.8753e+01     0.8973      7.336     10.638     9.3510 0.0000e+00
      7.508      0.082     9.0528     78.980     39.522  27.152870     0.7003      6.512   350.1873 1.8480e+01     0.8638      7.362     10.677     9.3523 0.0000e+00
      7.534      0.082     9.0509     78.961     39.551  27.171905     0.6913      6.512   350.3584 1.8265e+01     0.8647      7.390     10.719     9.3544 0.0000e+00
      7.555      0.077     9.0499     78.949     39.555  27.173486     0.6899      6.512   350.4564 1.8129e+01     0.8778      7.411     10.749     9.3529 0.0000e+00
      7.571      0.069     9.0544     78.988     39.553  27.171977     0.6826      6.513   350.5121 1.8017e+01     0.8688      7.426     10.769     9.3502 0.0000e+00
      7.586      0.063     9.0621     79.053     39.528  27.153671     0.6768      6.513   350.4303 1.7890e+01     0.8484      7.441     10.792     9.3493 0.0000e+00
      7.601      0.060     9.0662     79.086     39.514  27.142638     0.6753      6.512   350.3277 1.7792e+01     0.8443      7.456     10.814     9.3480 0.0000e+00
      7.613      0.062     9.0698     79.112     39.550  27.165573     0.6733      6.510   350.4766 1.7742e+01     0.8495      7.467     10.828     9.3466 0.0000e+00
      7.625      0.069     9.0758     79.161     39.569  27.176973     0.6710      6.507   350.8536 1.7647e+01     0.8506      7.477     10.843     9.3462 0.0000e+00
      7.641      0.079     9.0803     79.198     39.536  27.153487     0.6660      6.503   351.0997 1.7452e+01     0.8572      7.492     10.866     9.3456 0.0000e+00
      7.663      0.089     9.0831     79.221     39.511  27.135597     0.6500      6.500   351.2154 1.7195e+01     0.8688      7.513     10.896     9.3439 0.0000e+00
      7.690      0.098     9.0858     79.244     39.534  27.151158     0.6246      6.498   351.3060 1.6918e+01     0.8693      7.541     10.937     9.3412 0.0000e+00
      7.721      0.103     9.0878     79.261     39.534  27.151141     0.6160      6.497   351.3342 1.6621e+01     0.8621      7.573     10.984     9.3388 0.0000e+00
      7.751      0.104     9.0890     79.271     39.511  27.135383     0.6198      6.497   351.0406 1.6324e+01     0.8433      7.602     11.027     9.3375 0.0000e+00
      7.778      0.101     9.0885     79.266     39.534  27.151125     0.6158      6.497   350.5095 1.6094e+01     0.7637      7.629     11.064     9.3371 0.0000e+00
      7.803      0.095     9.0883     79.264     39.534  27.150983     0.6138      6.498   350.3333 1.5914e+01     0.6630      7.654     11.100     9.3369 0.0000e+00
      7.826      0.089     9.0905     79.284     39.509  27.133667     0.6227      6.498   350.4583 1.5754e+01     0.6325      7.674     11.131     9.3364 0.0000e+00
      7.846      0.085     9.0924     79.301     39.507  27.132247     0.6307      6.497   350.7305 1.5600e+01     0.6396      7.694     11.159     9.3361 0.0000e+00
      7.866      0.083     9.0947     79.321     39.509  27.133821     0.6458      6.497   351.0431 1.5431e+01     0.6875      7.715     11.190     9.3363 0.0000e+00
      7.886      0.083     9.0977     79.347     39.537  27.152686     0.6867      6.496   351.0544 1.5251e+01     0.7850      7.733     11.216     9.3364 0.0000e+00
      7.907      0.084     9.0980     79.349     39.562  27.169860     0.7199      6.495   350.7817 1.5059e+01     0.8417      7.753     11.244     9.3362 0.0000e+00
      7.929      0.086     9.0965     79.336     39.534  27.150967     0.7171      6.494   350.4135 1.4872e+01     0.8542      7.776     11.278     9.3360 0.0000e+00
      7.953      0.088     9.0954     79.326     39.482  27.114743     0.6987      6.494   350.3024 1.4710e+01     0.8440      7.800     11.313     9.3366 0.0000e+00
      7.975      0.090     9.0939     79.313     39.479  27.112869     0.6904      6.494   350.4699 1.4540e+01     0.8407      7.821     11.344     9.3368 0.0000e+00
      7.998      0.090     9.0919     79.295     39.502  27.128313     0.6903      6.492   350.5456 1.4352e+01     0.8759      7.843     11.375     9.3362 0.0000e+00
      8.021      0.089     9.0906     79.283     39.477  27.110981     0.6792      6.491   350.6161 1.4170e+01     0.8722      7.866     11.409     9.3356 0.0000e+00
      8.044      0.089     9.0915     79.292     39.452  27.093805     0.6660      6.492   350.8062 1.3990e+01     0.8268      7.889     11.441     9.3355 0.0000e+00
      8.067      0.090     9.0934     79.308     39.477  27.111135     0.6690      6.492   351.0373 1.3818e+01     0.8154      7.910     11.474     9.3355 0.0000e+00
      8.089      0.091     9.0953     79.326     39.505  27.130015     0.6780      6.492   351.1727 1.3647e+01     0.8258      7.933     11.506     9.3353 0.0000e+00
      8.111      0.092     9.0981     79.350     39.507  27.131591     0.6841      6.489   351.0665 1.3451e+01     0.8299      7.954     11.537     9.3352 0.0000e+00
      8.135      0.092     9.0998     79.365     39.505  27.130186     0.6877      6.488   350.9578 1.3259e+01     0.8350      7.976     11.568     9.3351 0.0000e+00
      8.160      0.092     9.0995     79.363     39.480  27.113024     0.6748      6.489   351.0629 1.3081e+01     0.8261      8.002     11.605     9.3357 0.0000e+00
      8.185      0.091     9.0984     79.353     39.482  27.114585     0.6476      6.489   351.2187 1.2907e+01     0.8136      8.029     11.645     9.3361 0.0000e+00
      8.209      0.089     9.0958     79.331     39.531  27.149065     0.6348      6.489   351.2930 1.2744e+01     0.8375      8.052     11.678     9.3360 0.0000e+00
      8.230      0.087     9.0911     79.290     39.531  27.148923     0.6393      6.489   351.3592 1.2577e+01     0.8709      8.071     11.706     9.3356 0.0000e+00
      8.251      0.085     9.0869     79.255     39.478  27.112869     0.6471      6.490   351.4162 1.2417e+01     0.8195      8.091     11.735     9.3355 0.0000e+00
      8.272      0.084     9.0856     79.245     39.450  27.094134     0.6559      6.490   351.3798 1.2274e+01     0.7045      8.112     11.765     9.3361 0.0000e+00
      8.293      0.084     9.0856     79.246     39.476  27.112884     0.6726      6.489   351.3501 1.2122e+01     0.6713      8.132     11.795     9.3365 0.0000e+00
      8.315      0.084     9.0862     79.251     39.529  27.149081     0.6924      6.489   351.4880 1.1960e+01     0.6927      8.154     11.826     9.3369 0.0000e+00
      8.337      0.084     9.0877     79.262     39.533  27.150799     0.7021      6.489   351.6692 1.1811e+01     0.7493      8.177     11.859     9.3369 0.0000e+00
      8.359      0.083     9.0880     79.262     39.509  27.133650     0.7068      6.489   351.6479 1.1667e+01     0.8378      8.197     11.889     9.3377 0.0000e+00
      8.379      0.081     9.0866     79.249     39.508  27.132232     0.7131      6.489   351.5753 1.1508e+01     0.8461      8.216     11.918     9.3392 0.0000e+00
      8.400      0.079     9.0819     79.207     39.510  27.133650     0.7229      6.489   351.5654 1.1357e+01     0.8188      8.238     11.948     9.3384 0.0000e+00
      8.420      0.078     9.0733     79.132     39.535  27.150797     0.7153      6.488   351.5289 1.1229e+01     0.8128      8.258     11.978     9.3370 0.0000e+00
      8.439      0.079     9.0663     79.071     39.533  27.149069     0.6856      6.488   351.5636 1.1095e+01     0.8047      8.276     12.004     9.3362 0.0000e+00
      8.457      0.081     9.0629     79.041     39.480  27.112753     0.6759      6.486   351.7268 1.0949e+01     0.8125      8.293     12.027     9.3353 0.0000e+00
      8.476      0.085     9.0593     79.009     39.451  27.092693     0.6893      6.484   351.9536 1.0812e+01     0.8456      8.313     12.056     9.3350 0.0000e+00
      8.497      0.089     9.0564     78.984     39.458  27.097011     0.7009      6.482   351.9833 1.0666e+01     0.8695      8.332     12.085     9.3349 0.0000e+00
      8.522      0.093     9.0577     78.994     39.465  27.101468     0.7058      6.481   351.8277 1.0491e+01     0.8579      8.355     12.118     9.3351 0.0000e+00
      8.549      0.094     9.0608     79.020     39.438  27.083086     0.7122      6.481   351.7928 1.0320e+01     0.8270      8.385     12.161     9.3347 0.0000e+00
      8.576      0.094     9.0653     79.059     39.412  27.065244     0.7236      6.482   351.8193 1.0169e+01     0.8006      8.412     12.201     9.3343 0.0000e+00
      8.599      0.092     9.0715     79.113     39.428  27.076235     0.7242      6.482   351.8041 1.0012e+01     0.7829      8.433     12.231     9.3343 0.0000e+00
      8.622      0.087     9.0736     79.131     39.448  27.088987     0.7188      6.482   351.7809 9.8591e+00     0.7965      8.455     12.262     9.3341 0.0000e+00
      8.645      0.082     9.0711     79.109     39.453  27.092432     0.7231      6.482   351.7115 9.7394e+00     0.8432      8.479     12.297     9.3338 0.0000e+00
      8.665      0.077     9.0721     79.117     39.490  27.117881     0.7207      6.482   351.6531 9.6323e+00     0.8589      8.498     12.325     9.3336 0.0000e+00
      8.682      0.074     9.0767     79.157     39.526  27.142698     0.7084      6.482   351.5914 9.5255e+00     0.8652      8.514     12.348     9.3336 0.0000e+00
      8.699      0.074     9.0798     79.184     39.520  27.138502     0.6751      6.482   351.4824 9.4382e+00     0.8886      8.532     12.374     9.3336 0.0000e+00
      8.716      0.075     9.0820     79.204     39.508  27.130646     0.6206      6.481   351.4529 9.3516e+00     0.8662      8.547     12.396     9.3335 0.0000e+00
      8.734      0.077     9.0835     79.218     39.480  27.111209     0.6013      6.480   351.4922 9.2417e+00     0.8394      8.564     12.420     9.3332 0.0000e+00
      8.756      0.079     9.0841     79.223     39.455  27.093983     0.6165      6.480   351.6142 9.1335e+00     0.8384      8.586     12.452     9.3328 0.0000e+00
      8.780      0.081     9.0848     79.228     39.483  27.112856     0.6393      6.480   351.9812 9.0254e+00     0.8241      8.610     12.488     9.3328 0.0000e+00
      8.802      0.081     9.0840     79.222     39.535  27.148908     0.6652      6.480   352.4017 8.9071e+00     0.8183      8.632     12.520     9.3330 0.0000e+00
      8.821      0.080     9.0794     79.181     39.535  27.148895     0.6722      6.479   352.5678 8.7933e+00     0.8300      8.650     12.546     9.3332 0.0000e+00
      8.840      0.079     9.0724     79.120     39.483  27.112700     0.6689      6.478   352.6992 8.6791e+00     0.8434      8.668     12.572     9.3334 0.0000e+00
      8.860      0.077     9.0667     79.070     39.453  27.092262     0.6624      6.477   352.7007 8.5660e+00     0.8581      8.688     12.600     9.3333 0.0000e+00
      8.880      0.077     9.0621     79.029     39.453  27.092278     0.6396      6.476   352.4992 8.4575e+00     0.8560      8.708     12.630     9.3333 0.0000e+00
      8.900      0.078     9.0583     78.996     39.483  27.112888     0.6135      6.475   352.5864 8.3474e+00     0.8477      8.728     12.660     9.3330 0.0000e+00
      8.919      0.080     9.0563     78.978     39.539  27.150972     0.5953      6.474   353.0669 8.2433e+00     0.8498      8.747     12.687     9.3327 0.0000e+00
      8.939      0.082     9.0550     78.966     39.569  27.171750     0.6038      6.473   353.5761 8.1464e+00     0.8510      8.764     12.712     9.3327 0.0000e+00
      8.959      0.084     9.0523     78.942     39.573  27.173624     0.6424      6.471   353.6666 8.0432e+00     0.8617      8.785     12.742     9.3326 0.0000e+00
      8.981      0.086     9.0487     78.911     39.573  27.173626     0.6661      6.470   353.5598 7.9267e+00     0.8569      8.808     12.774     9.3325 0.0000e+00
      9.004      0.088     9.0476     78.901     39.570  27.171766     0.6697      6.469   353.5746 7.7988e+00     0.8238      8.830     12.806     9.3321 0.0000e+00
      9.028      0.089     9.0501     78.924     39.540  27.151143     0.6678      6.468   353.4151 7.6888e+00     0.7969      8.854     12.841     9.3316 0.0000e+00
      9.051      0.089     9.0556     78.971     39.487  27.114763     0.6439      6.468   353.1800 7.6093e+00     0.7452      8.877     12.875     9.3315 0.0000e+00
      9.073      0.088     9.0598     79.008     39.484  27.112888     0.6103      6.467   353.4859 7.5222e+00     0.6569      8.897     12.905     9.3315 0.0000e+00
      9.096      0.087     9.0606     79.015     39.507  27.128473     0.6017      6.465   354.1889 7.4307e+00     0.6143      8.919     12.937     9.3315 0.0000e+00
      9.118      0.085     9.0611     79.019     39.485  27.112717     0.6133      6.464   354.5383 7.3541e+00     0.6269      8.943     12.970     9.3315 0.0000e+00
      9.140      0.084     9.0619     79.026     39.485  27.112874     0.6304      6.464   354.5273 7.2616e+00     0.6879      8.964     13.001     9.3318 0.0000e+00
      9.161      0.082     9.0616     79.022     39.510  27.130362     0.6521      6.465   354.4853 7.1584e+00     0.7715      8.984     13.031     9.3319 0.0000e+00
      9.181      0.080     9.0613     79.021     39.515  27.133669     0.6654      6.465   354.3750 7.0802e+00     0.7832      9.003     13.058     9.3317 0.0000e+00
      9.201      0.079     9.0602     79.011     39.542  27.152860     0.6717      6.464   354.2267 7.0046e+00     0.7687      9.023     13.087     9.3316 0.0000e+00
      9.221      0.080     9.0594     79.004     39.570  27.171909     0.6816      6.463   354.2410 6.9312e+00     0.8089      9.043     13.116     9.3314 0.0000e+00
      9.240      0.082     9.0624     79.030     39.572  27.173486     0.6837      6.462   354.4619 6.8695e+00     0.8419      9.061     13.142     9.3313 0.0000e+00
      9.260      0.087     9.0664     79.064     39.570  27.171926     0.6703      6.461   354.6597 6.7831e+00     0.8329      9.080     13.169     9.3313 0.0000e+00
      9.281      0.090     9.0687     79.083     39.543  27.153052     0.6572      6.459   354.6533 6.6745e+00     0.8526      9.102     13.200     9.3314 0.0000e+00
      9.306      0.091     9.0700     79.093     39.519  27.135774     0.6819      6.459   354.6431 6.5636e+00     1.0190      9.125     13.234     9.3315 0.0000e+00
      9.334      0.088     9.0691     79.085     39.545  27.153508     0.7304      6.458   354.7086 6.4633e+00     1.2267      9.153     13.275     9.3313 0.0000e+00
      9.361      0.080     9.0669     79.065     39.580  27.176980     0.7563      6.458   354.4988 6.4090e+00     1.2584      9.182     13.318     9.3312 0.0000e+00
      9.382      0.069     9.0659     79.057     39.564  27.165579     0.7375      6.458   354.0854 6.3948e+00     1.1280      9.204     13.349     9.3308 0.0000e+00
      9.397      0.058     9.0665     79.063     39.530  27.142654     0.6687      6.460   353.8398 6.3621e+00     0.9311      9.216     13.368     9.3302 0.0000e+00
      9.407      0.048     9.0674     79.071     39.546  27.153793     0.6223      6.462   353.7658 6.3151e+00     0.8315      9.226     13.381     9.3295 0.0000e+00
      9.413      0.038     9.0684     79.080     39.575  27.173259     0.6171      6.463   353.9663 6.2814e+00     0.8386      9.231     13.387     9.3292 0.0000e+00
      9.420      0.031     9.0683     79.079     39.595  27.187519     0.6066      6.464   354.3707 6.2256e+00     0.8342      9.236     13.397     9.3293 0.0000e+00
      9.430      0.027     9.0663     79.062     39.612  27.199216     0.6051      6.465   354.5257 6.1389e+00     0.8392      9.250     13.414     9.3297 0.0000e+00
      9.439      0.024     9.0635     79.039     39.594  27.187695     0.6181      6.466   354.1191 6.0789e+00     0.8685      9.258     13.428     9.3300 0.0000e+00
      9.444      0.021     9.0605     79.015     39.574  27.175206     0.6259      6.467   353.4990 6.0770e+00     0.8838      9.261     13.432     9.3302 0.0000e+00
      9.446      0.018     9.0578     78.998     39.571  27.175215     0.6252      6.468   353.2229 6.1005e+00     0.8717      9.263     13.435     9.3302 0.0000e+00
      9.449      0.015     9.0559     78.993     39.582  27.187810     0.6191      6.469   353.1039 6.1135e+00     0.8747      9.266     13.440     9.3303 0.0000e+00
      9.454      0.013     9.0537     78.988     39.591  27.200500     0.5976      6.469   353.0929 6.1079e+00     0.8894      9.271     13.446     9.3308 0.0000e+00
      9.458      0.012     9.0491     78.963     39.583  27.201652     0.5680      6.470   353.4330 6.0806e+00     0.8665      9.275     13.453     9.3318 0.0000e+00
      9.461      0.012     9.0459     78.943     39.579  27.201747     0.5549      6.470   353.6889 6.0514e+00     0.8419      9.278     13.456     9.3342 0.0000e+00
      9.463 -9.990e-29 -9.990e-29 -9.990e-29 -9.990e-29 -9.990e-29 -9.990e-29 -9.990e-29 -9.990e-29 6.0364e+00 -9.990e-29      9.280     13.459     9.3404 0.0000e+00
      9.465 -9.990e-29 -9.990e-29 -9.990e-29 -9.990e-29 -9.990e-29 -9.990e-29 -9.990e-29 -9.990e-29 6.0139e+00 -9.990e-29      9.282     13.463     9.3494 0.0000e+00
      9.468 -9.990e-29 -9.990e-29 -9.990e-29 -9.990e-29 -9.990e-29 -9.990e-29 -9.990e-29 -9.990e-29 5.9956e+00 -9.990e-29      9.286     13.467     9.3592 0.0000e+00
      9.469 -9.990e-29 -9.990e-29 -9.990e-29 -9.990e-29 -9.990e-29 -9.990e-29 -9.990e-29 -9.990e-29 5.9941e+00 -9.990e-29      9.288     13.471     9.3647 0.0000e+00
