* Sea-Bird SBE19plus  Data File:
* FileName = C:\DATA\051418_fcr_0002.hex
* Software version 2.6.3.104 SB_Terminal.dll
* Temperature SN = 7809
* Conductivity SN = 7809
* System UpLoad Time = May 14 2018 15:31:00
* <ApplicationData>
* <Seaterm232>
* <SoftwareVersion>2.6.3.104</SoftwareVersion>
* <BuildDate>30-Jun-2017</BuildDate>
* </Seaterm232>
* </ApplicationData>
* cast   2 14 May 2018 15:47:17 samples 1108 to 1762, avg = 1, stop = mag switch
# nquan = 15
# nvalues = 581                         
# units = specified
# name 0 = depFM: Depth [fresh water, m]
# name 1 = dz/dtM: Descent Rate [m/s]
# name 2 = sbeox0Mg/L: Oxygen, SBE 43 [mg/l]
# name 3 = sbeox0PS: Oxygen, SBE 43 [% saturation]
# name 4 = specc: Specific Conductance [uS/cm]
# name 5 = c0uS/cm: Conductivity [uS/cm]
# name 6 = flECO-AFL: Fluorescence, WET Labs ECO-AFL/FL [mg/m^3]
# name 7 = ph: pH
# name 8 = orp: Oxidation Reduction Potential [mV]
# name 9 = par/sat/log: PAR/Logarithmic, Satlantic
# name 10 = turbWETntu0: Turbidity, WET Labs ECO [NTU]
# name 11 = prdM: Pressure, Strain Gauge [db]
# name 12 = prdE: Pressure, Strain Gauge [psi]
# name 13 = tv290C: Temperature [ITS-90, deg C]
# name 14 = flag:  0.000e+00
# span 0 =     -0.524,      2.729       
# span 1 =     -0.080,      0.237       
# span 2 =     4.9796,    13.0831       
# span 3 =     51.772,    132.699       
# span 4 =      0.755,     89.036       
# span 5 =   0.873695,  72.292000       
# span 6 =    -1.4355,   251.1708       
# span 7 =      6.117,      8.477       
# span 8 =  -924.1882,   518.7720       
# span 9 = 1.8034e+02, 2.4657e+03       
# span 10 =   -10.5385,     6.3748      
# span 11 =     -0.514,      2.677      
# span 12 =     -0.746,      3.882      
# span 13 =    15.5115,    32.9065      
# span 14 = 0.0000e+00, 0.0000e+00      
# interval = seconds: 0.25
# start_time = May 14 2018 15:47:17 [Instrument's time stamp, header]
# bad_flag = -9.990e-29
# <Sensors count="9" >
#   <sensor Channel="1" >
#     <!-- Count, Temperature -->
#     <TemperatureSensor SensorID="58" >
#       <SerialNumber>7809</SerialNumber>
#       <CalibrationDate>09-Mar-18</CalibrationDate>
#       <A0>1.21093245e-003</A0>
#       <A1>2.84356597e-004</A1>
#       <A2>-1.94507398e-006</A2>
#       <A3>2.12806664e-007</A3>
#       <Slope>1.00000000</Slope>
#       <Offset>0.0000</Offset>
#     </TemperatureSensor>
#   </sensor>
#   <sensor Channel="2" >
#     <!-- Frequency 0, Conductivity -->
#     <ConductivitySensor SensorID="3" >
#       <SerialNumber>7809</SerialNumber>
#       <CalibrationDate>09-Mar-18</CalibrationDate>
#       <UseG_J>1</UseG_J>
#       <!-- Cell const and series R are applicable only for wide range sensors. -->
#       <SeriesR>0.0000</SeriesR>
#       <CellConst>2000.0000</CellConst>
#       <ConductivityType>0</ConductivityType>
#       <Coefficients equation="0" >
#         <A>0.00000000e+000</A>
#         <B>0.00000000e+000</B>
#         <C>0.00000000e+000</C>
#         <D>0.00000000e+000</D>
#         <M>0.0</M>
#         <CPcor>-9.57000000e-008</CPcor>
#       </Coefficients>
#       <Coefficients equation="1" >
#         <G>-1.00672082e+000</G>
#         <H>1.26906489e-001</H>
#         <I>-1.40584351e-004</I>
#         <J>2.47837121e-005</J>
#         <CPcor>-9.57000000e-008</CPcor>
#         <CTcor>3.2500e-006</CTcor>
#         <!-- WBOTC not applicable unless ConductivityType = 1. -->
#         <WBOTC>0.00000000e+000</WBOTC>
#       </Coefficients>
#       <Slope>1.00000000</Slope>
#       <Offset>0.00000</Offset>
#     </ConductivitySensor>
#   </sensor>
#   <sensor Channel="3" >
#     <!-- Count, Pressure, Strain Gauge -->
#     <PressureSensor SensorID="46" >
#       <SerialNumber>7809</SerialNumber>
#       <CalibrationDate>07-Mar-18</CalibrationDate>
#       <PA0>-4.08176359e-002</PA0>
#       <PA1>4.85188419e-004</PA1>
#       <PA2>-3.51168169e-012</PA2>
#       <PTEMPA0>-5.37806900e+001</PTEMPA0>
#       <PTEMPA1>5.36620721e+001</PTEMPA1>
#       <PTEMPA2>4.87214332e-002</PTEMPA2>
#       <PTCA0>5.25213435e+005</PTCA0>
#       <PTCA1>1.79532409e+000</PTCA1>
#       <PTCA2>-2.84353509e-001</PTCA2>
#       <PTCB0>2.51668750e+001</PTCB0>
#       <PTCB1>3.75000000e-004</PTCB1>
#       <PTCB2>0.00000000e+000</PTCB2>
#       <Offset>0.000000</Offset>
#     </PressureSensor>
#   </sensor>
#   <sensor Channel="4" >
#     <!-- A/D voltage 0, pH -->
#     <pH_Sensor SensorID="43" >
#       <SerialNumber>0363</SerialNumber>
#       <CalibrationDate>16-Mar-18</CalibrationDate>
#       <Slope>4.6194</Slope>
#       <Offset>2.5947</Offset>
#     </pH_Sensor>
#   </sensor>
#   <sensor Channel="5" >
#     <!-- A/D voltage 1, Oxidation Reduction Potential -->
#     <OxidationReductionPotentialSensor SensorID="41" >
#       <SerialNumber>0363</SerialNumber>
#       <CalibrationDate>16-Mar-18</CalibrationDate>
#       <B>2.499480</B>
#       <M>-0.496195</M>
#       <Offset>0.0</Offset>
#     </OxidationReductionPotentialSensor>
#   </sensor>
#   <sensor Channel="6" >
#     <!-- A/D voltage 2, Oxygen, SBE 43 -->
#     <OxygenSensor SensorID="38" >
#       <SerialNumber>0434</SerialNumber>
#       <CalibrationDate>13-Mar-18</CalibrationDate>
#       <Use2007Equation>1</Use2007Equation>
#       <CalibrationCoefficients equation="0" >
#         <!-- Coefficients for Owens-Millard equation. -->
#         <Boc>0.0000</Boc>
#         <Soc>0.0000e+000</Soc>
#         <offset>0.0000</offset>
#         <Pcor>0.00e+000</Pcor>
#         <Tcor>0.0000</Tcor>
#         <Tau>0.0</Tau>
#       </CalibrationCoefficients>
#       <CalibrationCoefficients equation="1" >
#         <!-- Coefficients for Sea-Bird equation - SBE calibration in 2007 and later. -->
#         <Soc>4.5718e-001</Soc>
#         <offset>-0.6113</offset>
#         <A>-4.0649e-003</A>
#         <B> 2.0945e-004</B>
#         <C>-3.3182e-006</C>
#         <D0> 2.5826e+000</D0>
#         <D1> 1.92634e-004</D1>
#         <D2>-4.64803e-002</D2>
#         <E> 3.6000e-002</E>
#         <Tau20> 1.2200</Tau20>
#         <H1>-3.3000e-002</H1>
#         <H2> 5.0000e+003</H2>
#         <H3> 1.4500e+003</H3>
#       </CalibrationCoefficients>
#     </OxygenSensor>
#   </sensor>
#   <sensor Channel="7" >
#     <!-- A/D voltage 3, PAR/Logarithmic, Satlantic -->
#     <PARLog_SatlanticSensor SensorID="76" >
#       <SerialNumber>1122</SerialNumber>
#       <CalibrationDate>22-Jun-2017</CalibrationDate>
#       <a0>9.6090e-001</a0>
#       <a1>8.0780e-001</a1>
#       <Im>1.3589e+000</Im>
#       <Multiplier>1.0000e+000</Multiplier>
#     </PARLog_SatlanticSensor>
#   </sensor>
#   <sensor Channel="8" >
#     <!-- A/D voltage 4, Fluorometer, WET Labs ECO-AFL/FL -->
#     <FluoroWetlabECO_AFL_FL_Sensor SensorID="20" >
#       <SerialNumber>FLNTURT-2496</SerialNumber>
#       <CalibrationDate>25-Jan-2017</CalibrationDate>
#       <ScaleFactor>5.30000000e+001</ScaleFactor>
#       <!-- Dark output -->
#       <Vblank>0.0560</Vblank>
#     </FluoroWetlabECO_AFL_FL_Sensor>
#   </sensor>
#   <sensor Channel="9" >
#     <!-- A/D voltage 5, Turbidity Meter, WET Labs, ECO-NTU -->
#     <TurbidityMeter SensorID="67" >
#       <SerialNumber>FLNTURT-2496</SerialNumber>
#       <CalibrationDate>25-Jan-2017</CalibrationDate>
#       <ScaleFactor>176.000000</ScaleFactor>
#       <!-- Dark output -->
#       <DarkVoltage>0.072000</DarkVoltage>
#     </TurbidityMeter>
#   </sensor>
# </Sensors>
# datcnv_date = May 14 2018 15:34:56, 7.26.7.114 [datcnv_vars = 14]
# datcnv_in = C:\DATA\051418_fcr10.hex C:\DATA\SBE19plusV2_7809.xmlcon
# datcnv_skipover = 0
# datcnv_ox_hysteresis_correction = yes
# datcnv_ox_tau_correction = yes
# filter_date = May 14 2018 15:35:17, 7.26.7.114
# filter_in = C:\DATA\051418_fcr10.cnv
# filter_low_pass_tc_A = 0.030
# filter_low_pass_tc_B = 0.150
# filter_low_pass_A_vars = prdM prdE tv290C
# filter_low_pass_B_vars = depFM dz/dtM sbeox0Mg/L sbeox0PS specc c0uS/cm flECO-AFL ph orp par/sat/log turbWETntu0
# alignctd_date = May 14 2018 15:35:42, 7.26.7.114
# alignctd_in = C:\DATA\051418_fcr10.cnv
# alignctd_adv = dz/dtM 1.000, sbeox0Mg/L 1.000, sbeox0PS 1.000, specc 1.000, c0uS/cm 1.000, flECO-AFL 1.000, ph 1.000, orp 1.000, turbWETntu0 1.000                                                                                 
# file_type = ascii
*END*
     -0.524 9.8134e-16     7.1756     99.730      0.801   0.927882    -0.2058      6.124  -354.2213 2.4648e+02    -0.3355     -0.513     -0.745    32.9050 0.0000e+00
     -0.524 1.0789e-14     7.1773     99.750      0.800   0.926737    -0.1918      6.117  -379.1917 2.4103e+02    -0.3210     -0.513     -0.745    32.9061 0.0000e+00
     -0.524 1.1868e-13     7.1808     99.796      0.789   0.914149    -0.1853      6.126  -427.9236 2.3463e+02    -0.3617     -0.514     -0.745    32.9065 0.0000e+00
     -0.524 1.3055e-12     7.1829     99.826      0.779   0.902506    -0.1635      6.135  -475.8970 2.4015e+02    -1.0717     -0.514     -0.745    32.9036 0.0000e+00
     -0.524 1.4360e-11     7.1803     99.788      0.788   0.912778    -0.1025      6.142  -537.0380 4.3256e+02    -2.3444     -0.514     -0.746    32.8997 0.0000e+00
     -0.524 1.5796e-10     7.1797     99.773      0.787   0.911521    -0.0546      6.147  -611.7915 8.3821e+02    -3.0229     -0.514     -0.745    32.8973 0.0000e+00
     -0.524 1.7376e-09     7.1819     99.791      0.766   0.887310    -0.0623      6.146  -681.9575 9.5909e+02    -3.0500     -0.514     -0.745    32.8971 0.0000e+00
     -0.524 1.9113e-08     7.1832     99.783      0.755   0.873695    -0.2691      6.146  -736.8445 8.5335e+02    -2.5199     -0.513     -0.745    32.8976 0.0000e+00
     -0.523 2.1025e-07     7.1847     99.773      0.755   0.873724    -0.6346      6.148  -788.7010 1.0129e+03    -1.5273     -0.513     -0.744    32.8975 0.0000e+00
     -0.523      0.000     7.1878     99.790      0.767   0.887658    -0.8236      6.150  -845.0275 1.2169e+03    -0.9972     -0.513     -0.745    32.8943 0.0000e+00
     -0.523      0.000     7.1898     99.801      0.791   0.915347    -0.8454      6.148  -894.1616 1.3142e+03    -0.9318     -0.514     -0.745    32.8881 0.0000e+00
     -0.523      0.000     7.1911     99.801      0.936   1.081692    -1.0624      6.147  -924.1882 1.4677e+03    -0.4624     -0.513     -0.745    32.8707 0.0000e+00
     -0.524      0.003     7.1969     99.813      2.627   3.025735    -1.4355      6.156  -822.5356 1.6599e+03     0.4366     -0.514     -0.745    32.8506 0.0000e+00
     -0.524      0.014     7.2374     99.858      7.898   9.009217    -1.1300      6.208  -225.9778 1.7479e+03     0.9051     -0.514     -0.745    32.8315 0.0000e+00
     -0.524      0.037     7.3608     99.939     16.631  18.621168     4.7085      6.367   474.9826 1.5072e+03     0.6541     -0.514     -0.745    32.8283 0.0000e+00
     -0.523      0.072     7.5500    100.004     25.916  28.374976    69.1396      6.662   518.7720 1.2982e+03    -2.2930     -0.514     -0.745    32.8128 0.0000e+00
     -0.513      0.113     7.7306    100.002     31.890  34.196950   187.2254      7.022   330.8366 1.6238e+03    -7.6585     -0.514     -0.745    32.8191 0.0000e+00
     -0.478      0.158     7.8817     99.985     33.853  35.610829   251.1243      7.292   303.6637 2.0442e+03   -10.5385     -0.480     -0.696    32.7554 0.0000e+00
     -0.419      0.198     8.0309    100.065     34.271  35.370696   251.1708      7.400   284.5261 2.1976e+03   -10.5023     -0.410     -0.597    31.7772 0.0000e+00
     -0.352      0.227     8.1826    100.298     34.683  35.167264   187.8343      7.406   272.6427 2.1533e+03    -7.8013     -0.347     -0.504    29.9848 0.0000e+00
     -0.282      0.237     8.3196    100.681     35.184  35.182847    70.7728      7.380   267.3594 1.6663e+03    -2.8745     -0.277     -0.402    28.5953 0.0000e+00
     -0.211      0.226     8.4307    101.166     35.632  35.304296     6.9035      7.333   266.2466 9.3213e+02    -0.1895     -0.204     -0.297    27.6057 0.0000e+00
     -0.148      0.198     8.5198    101.698     36.027  35.491852     1.1155      7.260   267.6198 6.2792e+02     0.0655     -0.142     -0.207    26.5804 0.0000e+00
     -0.097      0.161     8.5925    102.211     36.412  35.735206     0.5881      7.188   268.9918 6.6826e+02     0.0860     -0.087     -0.127    25.6196 0.0000e+00
     -0.064      0.120     8.6470    102.613     36.672  35.896172     0.5268      7.145   269.6716 6.3498e+02     0.1803     -0.057     -0.083    24.9020 0.0000e+00
     -0.044      0.082     8.6803    102.846     36.753  35.913408     0.5212      7.124   269.9027 6.3617e+02     0.4126     -0.042     -0.060    24.4801 0.0000e+00
     -0.032      0.052     8.6947    102.921     36.756  35.879995     0.5293      7.118   270.8389 8.3607e+02     0.5442     -0.027     -0.039    24.2213 0.0000e+00
     -0.030      0.032     8.6951    102.891     36.762  35.873263     0.5426      7.119   271.3559 1.0602e+03     0.5507     -0.026     -0.038    24.0495 0.0000e+00
     -0.032      0.020     8.6835    102.794     36.705  35.831984     0.5803      7.124   271.7656 1.0097e+03     0.5535     -0.035     -0.050    23.9227 0.0000e+00
     -0.030      0.014     8.6582    102.558     36.543  35.698544     0.6353      7.133   277.8572 7.2092e+02     0.5470     -0.033     -0.046    23.8386 0.0000e+00
     -0.022      0.010     8.5677    101.528     36.484  35.657365     0.6661      7.148   284.3509 5.2597e+02     0.5337     -0.020     -0.030    23.7973 0.0000e+00
     -0.015      0.008     8.3666     99.192     36.913  36.096375     0.6685      7.164   281.2761 4.6727e+02     0.5146     -0.012     -0.017    23.7646 0.0000e+00
     -0.013      0.006     8.1416     96.587     38.010  37.195184     0.6548      7.179   281.2913 4.4140e+02     0.4985     -0.011     -0.017    23.8014 0.0000e+00
     -0.015      0.003     7.9968     94.940     39.401  38.588285     0.6468      7.194   285.9976 4.3636e+02     0.4924     -0.014     -0.022    23.8508 0.0000e+00
     -0.017      0.000     7.9183     94.099     40.650  39.853345     0.6553      7.206   287.1585 4.4101e+02     0.5013     -0.017     -0.025    23.8553 0.0000e+00
     -0.019     -0.002     7.8430     93.313     41.629  40.864478     0.6658      7.212   291.5415 4.6109e+02     0.5139     -0.019     -0.027    23.8844 0.0000e+00
     -0.019     -0.002     7.7601     92.441     42.194  41.474028     0.6723      7.215   295.4563 4.7391e+02     0.5239     -0.020     -0.029    23.9220 0.0000e+00
     -0.017     -0.002     7.7166     92.028     42.367  41.695589     0.6700      7.220   295.5161 5.2452e+02     0.5301     -0.017     -0.024    23.9547 0.0000e+00
     -0.015     -0.003     7.7300     92.274     42.393  41.764314     0.6651      7.230   295.3622 7.0988e+02     0.5282     -0.013     -0.019    24.0088 0.0000e+00
     -0.017     -0.004     7.7589     92.689     42.391  41.796706     0.6592      7.244   294.8002 9.9063e+02     0.5313     -0.016     -0.023    24.0737 0.0000e+00
     -0.020     -0.005     7.7496     92.632     42.337  41.769584     0.6532      7.259   294.0557 1.1880e+03     0.5070     -0.020     -0.028    24.1420 0.0000e+00
     -0.022     -0.005     7.6889     91.937     42.306  41.754123     0.6575      7.274   292.9847 1.2973e+03     0.4475     -0.021     -0.031    24.2071 0.0000e+00
     -0.024     -0.003     7.6049     90.945     42.476  41.927489     0.6658      7.291   288.7342 1.4246e+03     0.3917     -0.024     -0.036    24.2545 0.0000e+00
     -0.025      0.000     7.5190     89.924     42.762  42.213670     0.6704      7.307   281.4674 1.5522e+03     0.3514     -0.025     -0.037    24.2956 0.0000e+00
     -0.024      0.004     7.4320     88.894     42.963  42.418479     0.6759      7.320   276.8786 1.5382e+03     0.3267     -0.024     -0.035    24.3293 0.0000e+00
     -0.023      0.007     7.3387     87.799     43.033  42.497548     0.6870      7.333   275.5828 1.2267e+03     0.3065     -0.023     -0.033    24.3460 0.0000e+00
     -0.020      0.011     7.2347     86.577     42.994  42.470723     0.6936      7.346   274.9201 8.1141e+02     0.2905     -0.020     -0.028    24.3503 0.0000e+00
     -0.016      0.016     7.1170     85.187     42.925  42.411875     0.6911      7.354   274.7166 8.6884e+02     0.2850     -0.015     -0.022    24.3513 0.0000e+00
     -0.013      0.023     6.9964     83.757     42.927  42.421460     0.6934      7.341   275.1876 1.5561e+03     0.2706     -0.013     -0.019    24.3576 0.0000e+00
     -0.010      0.029     6.9071     82.702     42.957  42.459536     0.6944      7.310   276.0541 2.2198e+03     0.2688     -0.012     -0.018    24.3719 0.0000e+00
     -0.002      0.034     6.8753     82.332     42.853  42.363915     0.6851      7.288   276.5037 2.4541e+03     0.2943     -0.005     -0.007    24.3866 0.0000e+00
      0.012      0.037     6.8908     82.511     42.453  41.964297     0.6818      7.292   276.1501 2.4657e+03     0.3038      0.011      0.017    24.3979 0.0000e+00
      0.028      0.038     6.9340     83.000     41.810  41.313206     0.6827      7.312   275.6501 2.3155e+03     0.2919      0.030      0.044    24.4060 0.0000e+00
      0.039      0.038     7.0043     83.805     41.356  40.845649     0.6592      7.338   275.5346 2.0630e+03     0.3033      0.041      0.060    24.4155 0.0000e+00
      0.044      0.031     7.1164     85.117     41.284  40.758852     0.6173      7.361   275.6143 1.9366e+03     0.3195      0.043      0.063    24.4279 0.0000e+00
      0.049      0.016     7.2718     86.947     41.312  40.772032     0.5999      7.379   276.0108 1.5833e+03     0.3047      0.046      0.066    24.4240 0.0000e+00
      0.058     -0.007     7.4384     88.900     41.117  40.560229     0.6052      7.395   276.7153 1.1721e+03     0.3079      0.057      0.083    24.4013 0.0000e+00
      0.066     -0.032     7.5748     90.482     40.549  39.976973     0.6075      7.417   277.2492 1.4345e+03     0.4194      0.071      0.103    24.3739 0.0000e+00
      0.060     -0.052     7.6622     91.484     39.829  39.247519     0.6089      7.441   277.5619 1.8368e+03     0.6151      0.067      0.097    24.3564 0.0000e+00
      0.035     -0.062     7.6971     91.872     39.574  38.983347     0.6124      7.454   278.0011 1.9259e+03     0.7206      0.039      0.058    24.3453 0.0000e+00
     -0.004     -0.061     7.6792     91.641     40.058  39.451277     0.6131      7.455   278.6019 1.9575e+03     0.7185     -0.005     -0.007    24.3198 0.0000e+00
     -0.039     -0.051     7.6228     90.971     40.692  40.076655     0.6091      7.454   279.1483 1.9711e+03     0.6815     -0.048     -0.069    24.2854 0.0000e+00
     -0.051     -0.032     7.5406     90.074     40.830  40.254836     0.6003      7.456   279.5306 1.9313e+03     0.6085     -0.061     -0.088    24.2613 0.0000e+00
     -0.040     -0.011     7.4436     89.121     40.423  39.953795     0.5899      7.462   279.7835 1.6127e+03     0.5379     -0.041     -0.060    24.2438 0.0000e+00
     -0.023      0.006     7.3549     88.284     39.904  39.550176     0.5839      7.468   280.0541 1.2943e+03     0.4984     -0.018     -0.025    24.2375 0.0000e+00
     -0.014      0.015     7.2849     87.564     39.735  39.441125     0.6109      7.472   280.4798 1.2123e+03     0.4368     -0.010     -0.014    24.2238 0.0000e+00
     -0.014      0.013     7.2226     86.834     39.938  39.651900     0.6683      7.476   280.9725 1.1985e+03     0.3431     -0.014     -0.020    24.2501 0.0000e+00
     -0.018      0.005     7.1557     86.003     40.241  39.938488     0.6983      7.476   281.4509 1.5352e+03     0.2810     -0.019     -0.028    24.4099 0.0000e+00
     -0.020     -0.002     7.0818     85.065     40.439  40.110686     0.6978      7.473   281.9621 1.7387e+03     0.2660     -0.021     -0.030    24.5857 0.0000e+00
     -0.019     -0.005     7.0014     84.046     40.502  40.145506     0.6995      7.471   282.3353 1.3050e+03     0.3131     -0.019     -0.027    24.6483 0.0000e+00
     -0.019     -0.005     6.9154     82.976     40.482  40.105311     0.7005      7.475   282.5223 7.2350e+02     0.4546     -0.018     -0.026    24.6423 0.0000e+00
     -0.020     -0.006     6.8299     81.934     40.390  40.005880     0.6818      7.482   282.6742 4.5837e+02     0.6340     -0.020     -0.028    24.6240 0.0000e+00
     -0.022     -0.007     6.7540     81.022     40.280  39.896319     0.6570      7.486   282.9677 7.9197e+02     0.7115     -0.020     -0.030    24.5897 0.0000e+00
     -0.025     -0.007     6.6965     80.337     40.306  39.924255     0.6589      7.486   283.3168 1.5013e+03     0.6902     -0.025     -0.036    24.5487 0.0000e+00
     -0.029     -0.006     6.6573     79.878     40.466  40.089512     0.6948      7.481   283.5400 1.9043e+03     0.5906     -0.029     -0.043    24.5235 0.0000e+00
     -0.031     -0.004     6.6243     79.502     40.610  40.242511     0.7414      7.480   283.6876 1.9308e+03     0.4224     -0.031     -0.046    24.5157 0.0000e+00
     -0.030     -0.002     6.5878     79.082     40.671  40.312836     0.7638      7.482   283.8968 1.7473e+03     0.3353     -0.029     -0.043    24.5179 0.0000e+00
     -0.030      0.000     6.5451     78.586     40.654  40.304461     0.7635      7.483   284.3488 1.2554e+03     0.3303     -0.028     -0.041    24.5179 0.0000e+00
     -0.029      0.002     6.4957     78.012     40.606  40.268334     0.7653      7.481   284.8513 9.5921e+02     0.3315     -0.029     -0.042    24.5261 0.0000e+00
     -0.028      0.003     6.4408     77.375     40.582  40.257267     0.7754      7.480   285.2396 1.3136e+03     0.3495     -0.028     -0.040    24.5434 0.0000e+00
     -0.028      0.003     6.3800     76.668     40.609  40.297743     0.7846      7.480   285.5162 1.7829e+03     0.3658     -0.027     -0.039    24.5546 0.0000e+00
     -0.027      0.002     6.3141     75.899     40.675  40.376528     0.7846      7.483   285.6145 1.9433e+03     0.3757     -0.027     -0.039    24.5636 0.0000e+00
     -0.026      0.001     6.2480     75.128     40.668  40.383893     0.7856      7.485   285.7391 1.9639e+03     0.3767     -0.026     -0.038    24.5776 0.0000e+00
     -0.025      0.000     6.1854     74.400     40.592  40.323269     0.8058      7.485   286.0764 1.9651e+03     0.3483     -0.024     -0.035    24.5944 0.0000e+00
     -0.025     -0.001     6.1284     73.738     40.597  40.342457     0.8267      7.485   286.5093 1.9595e+03     0.3373     -0.024     -0.034    24.6113 0.0000e+00
     -0.027     -0.002     6.0764     73.134     40.732  40.488840     0.8270      7.483   286.7572 1.9515e+03     0.3656     -0.027     -0.038    24.6276 0.0000e+00
     -0.028     -0.003     6.0279     72.569     40.865  40.631850     0.8092      7.480   286.9229 1.9472e+03     0.4152     -0.029     -0.042    24.6440 0.0000e+00
     -0.028     -0.005     5.9847     72.066     40.896  40.673770     0.7769      7.477   287.1363 1.9464e+03     0.4797     -0.028     -0.041    24.6631 0.0000e+00
     -0.028     -0.008     5.9488     71.653     40.888  40.678025     0.7577      7.472   287.1858 1.9455e+03     0.5045     -0.026     -0.038    24.6793 0.0000e+00
     -0.030     -0.011     5.9199     71.334     40.811  40.619775     0.7613      7.470   287.1782 1.9445e+03     0.5017     -0.029     -0.041    24.6956 0.0000e+00
     -0.033     -0.012     5.8944     71.073     40.640  40.477796     0.7648      7.468   287.2171 1.9419e+03     0.5070     -0.032     -0.047    24.7107 0.0000e+00
     -0.037     -0.011     5.8689     70.827     40.547  40.422757     0.7642      7.460   287.3113 1.9348e+03     0.4472     -0.035     -0.051    24.7221 0.0000e+00
     -0.044     -0.009     5.8444     70.592     40.613  40.526204     0.7624      7.445   287.4563 1.9266e+03     0.3272     -0.044     -0.065    24.7340 0.0000e+00
     -0.050     -0.006     5.8239     70.372     40.718  40.648497     0.7710      7.432   287.5939 1.9220e+03     0.2770     -0.053     -0.076    24.7538 0.0000e+00
     -0.049     -0.003     5.8061     70.146     40.771  40.694203     0.7853      7.427   287.8567 1.9240e+03     0.2976     -0.050     -0.073    24.7913 0.0000e+00
     -0.044     -0.001     5.7869     69.899     40.784  40.697595     0.7797      7.429   288.2254 1.9337e+03     0.3020     -0.042     -0.061    24.8389 0.0000e+00
     -0.042      0.001     5.7651     69.639     40.773  40.689496     0.7663      7.433   288.6096 1.9442e+03     0.3003     -0.040     -0.058    24.8988 0.0000e+00
     -0.043      0.002     5.7399     69.350     40.733  40.659824     0.7620      7.438   288.9745 1.9538e+03     0.3071     -0.042     -0.061    24.9243 0.0000e+00
     -0.045      0.001     5.7109     69.017     40.718  40.656535     0.7649      7.442   289.1950 1.9647e+03     0.3229     -0.045     -0.065    24.8986 0.0000e+00
     -0.046      0.001     5.6794     68.656     40.763  40.713282     0.7829      7.444   289.3831 1.9733e+03     0.3391     -0.046     -0.067    24.8809 0.0000e+00
     -0.045      0.002     5.6456     68.269     40.810  40.774132     0.8134      7.445   289.6998 1.9728e+03     0.3191     -0.045     -0.065    24.8887 0.0000e+00
     -0.044      0.003     5.6082     67.843     40.839  40.820440     0.8308      7.447   289.9275 1.9625e+03     0.2954     -0.043     -0.062    24.9046 0.0000e+00
     -0.042      0.003     5.5694     67.403     40.827  40.828451     0.8273      7.451   289.8990 1.9519e+03     0.3272     -0.041     -0.060    24.9174 0.0000e+00
     -0.041      0.002     5.5319     66.982     40.784  40.807488     0.8270      7.456   289.7854 1.9447e+03     0.3672     -0.040     -0.059    24.9313 0.0000e+00
     -0.040      0.001     5.4970     66.593     40.776  40.821164     0.8355      7.461   289.7588 1.9380e+03     0.3522     -0.039     -0.057    24.9496 0.0000e+00
     -0.040     -0.001     5.4654     66.243     40.800  40.866765     0.8389      7.465   289.8352 1.9334e+03     0.3285     -0.039     -0.057    24.9709 0.0000e+00
     -0.041     -0.002     5.4361     65.916     40.828  40.914105     0.8310      7.466   290.0206 1.9332e+03     0.3251     -0.040     -0.058    24.9954 0.0000e+00
     -0.043     -0.002     5.4093     65.618     40.845  40.948807     0.8315      7.466   290.3658 1.9357e+03     0.3722     -0.043     -0.061    25.0224 0.0000e+00
     -0.044     -0.003     5.3853     65.356     40.845  40.968682     0.8452      7.464   290.7402 1.9385e+03     0.4710     -0.044     -0.064    25.0498 0.0000e+00
     -0.044     -0.003     5.3637     65.124     40.820  40.963835     0.8410      7.461   291.1051 1.9412e+03     0.5127     -0.043     -0.063    25.0763 0.0000e+00
     -0.044     -0.003     5.3447     64.922     40.790  40.953760     0.8262      7.459   291.5080 1.9448e+03     0.5105     -0.043     -0.062    25.0994 0.0000e+00
     -0.044     -0.002     5.3271     64.736     40.791  40.973977     0.8236      7.457   291.7404 1.9488e+03     0.5050     -0.043     -0.063    25.1214 0.0000e+00
     -0.045     -0.002     5.3101     64.556     40.817  41.017691     0.8459      7.454   291.8500 1.9527e+03     0.4456     -0.044     -0.064    25.1452 0.0000e+00
     -0.047     -0.002     5.2951     64.398     40.820  41.037552     0.8837      7.452   291.9735 1.9549e+03     0.3725     -0.046     -0.066    25.1702 0.0000e+00
     -0.048     -0.001     5.2806     64.244     40.790  41.023530     0.8953      7.448   292.0290 1.9534e+03     0.3235     -0.047     -0.068    25.1957 0.0000e+00
     -0.048     -0.001     5.2653     64.080     40.790  41.038796     0.8854      7.443   292.0900 1.9504e+03     0.2802     -0.047     -0.069    25.2189 0.0000e+00
     -0.048     -0.001     5.2523     63.941     40.833  41.095073     0.8742      7.440   292.1951 1.9480e+03     0.2760     -0.047     -0.069    25.2402 0.0000e+00
     -0.047     -0.002     5.2423     63.838     40.794  41.068598     0.8608      7.440   292.1812 1.9473e+03     0.3338     -0.046     -0.067    25.2612 0.0000e+00
     -0.046     -0.004     5.2353     63.773     40.621  40.909323     0.8524      7.437   292.0081 1.9489e+03     0.3998     -0.046     -0.066    25.2806 0.0000e+00
     -0.046     -0.006     5.2317     63.756     40.515  40.821308     0.8456      7.431   291.8232 1.9511e+03     0.4013     -0.044     -0.064    25.2995 0.0000e+00
     -0.049     -0.010     5.2275     63.738     40.565  40.893988     0.8345      7.424   291.6663 1.9563e+03     0.3533     -0.047     -0.068    25.3145 0.0000e+00
     -0.054     -0.016     5.2239     63.713     40.556  40.898583     0.8277      7.418   291.4018 1.9782e+03     0.3073     -0.055     -0.079    25.3297 0.0000e+00
     -0.056     -0.021     5.2290     63.782     40.404  40.749816     0.8365      7.415   291.2056 2.0008e+03     0.3024     -0.055     -0.081    25.3473 0.0000e+00
     -0.060     -0.022     5.2430     63.965     40.332  40.683708     0.8487      7.417   291.2731 1.9956e+03     0.3244     -0.056     -0.081    25.3648 0.0000e+00
     -0.070     -0.020     5.2567     64.150     40.433  40.798198     0.8285      7.422   291.3578 1.9717e+03     0.2984     -0.067     -0.098    25.4066 0.0000e+00
     -0.082     -0.016     5.2652     64.281     40.541  40.926908     0.7853      7.426   291.4549 1.9397e+03     0.2636     -0.084     -0.122    25.4228 0.0000e+00
     -0.087     -0.012     5.2703     64.404     40.541  40.969211     0.7676      7.424   291.6737 1.9057e+03     0.2700     -0.090     -0.129    25.4175 0.0000e+00
     -0.084     -0.008     5.2749     64.576     40.422  40.928506     0.7713      7.416   291.8516 1.8789e+03     0.2840     -0.083     -0.119    25.4317 0.0000e+00
     -0.081     -0.003     5.2836     64.807     40.227  40.816105     0.7840      7.408   291.9706 1.8708e+03     0.2795     -0.078     -0.113    25.4419 0.0000e+00
     -0.081      0.000     5.2980     65.046     40.062  40.690453     0.8103      7.406   291.9942 1.8863e+03     0.2773     -0.078     -0.114    25.4648 0.0000e+00
     -0.082      0.001     5.3132     65.241     40.047  40.680078     0.8233      7.410   291.9656 1.9119e+03     0.2880     -0.080     -0.117    25.4988 0.0000e+00
     -0.084      0.001     5.3270     65.425     40.172  40.817737     0.8217      7.412   292.0551 1.9398e+03     0.2873     -0.083     -0.121    25.6133 0.0000e+00
     -0.085      0.001     5.3430     65.670     40.277  40.957052     0.8093      7.410   292.2151 1.9718e+03     0.2990     -0.084     -0.123    25.7563 0.0000e+00
     -0.083      0.002     5.3631     65.981     40.245  40.966745     0.7833      7.410   292.3517 2.0028e+03     0.3078     -0.082     -0.119    25.7969 0.0000e+00
     -0.080      0.003     5.3878     66.336     40.118  40.871465     0.7739      7.415   292.3306 2.0210e+03     0.3021     -0.078     -0.113    25.7796 0.0000e+00
     -0.080      0.004     5.4173     66.735     40.045  40.821692     0.7788      7.422   292.3041 2.0218e+03     0.3209     -0.076     -0.111    25.7828 0.0000e+00
     -0.080      0.004     5.4511     67.188     40.072  40.873279     0.7782      7.428   292.4607 2.0026e+03     0.3525     -0.080     -0.116    25.8339 0.0000e+00
     -0.080      0.003     5.4913     67.727     40.094  40.923399     0.7755      7.433   292.5034 1.9716e+03     0.4093     -0.079     -0.116    25.8982 0.0000e+00
     -0.078      0.001     5.5343     68.301     40.062  40.919428     0.7736      7.434   292.4769 1.9447e+03     0.4889     -0.076     -0.110    25.9388 0.0000e+00
     -0.077      0.000     5.5717     68.795     40.012  40.888841     0.7737      7.432   292.6561 1.9245e+03     0.5212     -0.074     -0.108    25.9633 0.0000e+00
     -0.077      0.000     5.6030     69.198     39.984  40.871301     0.7763      7.429   292.8639 1.9132e+03     0.5261     -0.075     -0.108    25.9908 0.0000e+00
     -0.078     -0.001     5.6284     69.517     40.007  40.897979     0.7775      7.426   293.0102 1.9157e+03     0.4866     -0.077     -0.110    26.0273 0.0000e+00
     -0.079     -0.002     5.6436     69.706     40.064  40.957256     0.7794      7.424   293.2200 1.9295e+03     0.3791     -0.078     -0.113    26.0674 0.0000e+00
     -0.080     -0.002     5.6481     69.769     40.117  41.016167     0.7814      7.423   293.4221 1.9467e+03     0.3247     -0.079     -0.114    26.0952 0.0000e+00
     -0.080     -0.001     5.6436     69.727     40.130  41.038429     0.7826      7.423   293.5615 1.9606e+03     0.3173     -0.078     -0.113    26.1063 0.0000e+00
     -0.079     -0.001     5.6297     69.572     40.118  41.035825     0.8029      7.423   293.7010 1.9711e+03     0.3510     -0.078     -0.113    26.1075 0.0000e+00
     -0.079      0.000     5.6085     69.325     40.120  41.048240     0.8349      7.423   293.8180 1.9787e+03     0.4578     -0.077     -0.112    26.1069 0.0000e+00
     -0.079      0.000     5.5831     69.026     40.124  41.061478     0.8387      7.421   294.0293 1.9815e+03     0.5100     -0.078     -0.113    26.1124 0.0000e+00
     -0.080      0.000     5.5557     68.699     40.124  41.068827     0.8212      7.418   294.2767 1.9784e+03     0.4937     -0.079     -0.114    26.1244 0.0000e+00
     -0.080      0.001     5.5255     68.335     40.123  41.073562     0.8156      7.416   294.3997 1.9696e+03     0.4433     -0.079     -0.114    26.1381 0.0000e+00
     -0.079      0.001     5.4928     67.939     40.099  41.055197     0.8265      7.416   294.4847 1.9596e+03     0.3588     -0.078     -0.113    26.1516 0.0000e+00
     -0.079      0.001     5.4611     67.556     40.076  41.037405     0.8418      7.416   294.5302 1.9539e+03     0.3259     -0.077     -0.112    26.1634 0.0000e+00
     -0.079      0.001     5.4328     67.215     40.081  41.049061     0.8452      7.418   294.6048 1.9490e+03     0.3204     -0.077     -0.112    26.1717 0.0000e+00
     -0.078      0.001     5.4057     66.889     40.094  41.069058     0.8214      7.418   294.7845 1.9450e+03     0.2925     -0.076     -0.110    26.1790 0.0000e+00
     -0.078      0.000     5.3772     66.547     40.106  41.088588     0.7839      7.419   295.0693 1.9462e+03     0.2938     -0.076     -0.111    26.1862 0.0000e+00
     -0.078 2.6823e-11     5.3483     66.202     40.105  41.094596     0.7688      7.420   295.3809 1.9506e+03     0.3052     -0.076     -0.111    26.1931 0.0000e+00
     -0.078 2.9505e-10     5.3224     65.892     40.082  41.078168     0.7761      7.420   295.5407 1.9556e+03     0.3082     -0.077     -0.111    26.2004 0.0000e+00
     -0.079 3.2455e-09     5.2985     65.607     40.077  41.080583     0.7804      7.419   295.6242 1.9615e+03     0.3303     -0.077     -0.112    26.2089 0.0000e+00
     -0.079 3.5701e-08     5.2730     65.301     40.113  41.123809     0.7934      7.418   295.7878 1.9647e+03     0.3278     -0.077     -0.112    26.2185 0.0000e+00
     -0.079 3.9271e-07     5.2473     64.991     40.138  41.156047     0.8230      7.418   295.9711 1.9641e+03     0.3096     -0.077     -0.112    26.2280 0.0000e+00
     -0.079      0.000     5.2237     64.709     40.128  41.152688     0.8438      7.418   296.1187 1.9631e+03     0.3235     -0.077     -0.112    26.2370 0.0000e+00
     -0.079      0.000     5.2026     64.456     40.117  41.146753     0.8523      7.418   296.2822 1.9612e+03     0.3432     -0.077     -0.112    26.2457 0.0000e+00
     -0.079      0.001     5.1822     64.212     40.112  41.147823     0.8524      7.417   296.4853 1.9572e+03     0.3347     -0.077     -0.112    26.2540 0.0000e+00
     -0.079      0.001     5.1611     63.959     40.124  41.165636     0.8449      7.416   296.6820 1.9520e+03     0.3112     -0.077     -0.112    26.2622 0.0000e+00
     -0.079      0.001     5.1404     63.710     40.125  41.171522     0.8346      7.416   296.8533 1.9482e+03     0.3032     -0.077     -0.112    26.2702 0.0000e+00
     -0.078      0.000     5.1213     63.480     40.105  41.155456     0.8300      7.416   297.0069 1.9476e+03     0.2991     -0.076     -0.110    26.2776 0.0000e+00
     -0.078 1.8616e-08     5.1039     63.270     40.107  41.162010     0.8350      7.415   297.1630 1.9472e+03     0.2924     -0.076     -0.110    26.2847 0.0000e+00
     -0.078 2.0478e-07     5.0875     63.072     40.127  41.187225     0.8304      7.413   297.3643 1.9474e+03     0.2834     -0.076     -0.111    26.2912 0.0000e+00
     -0.078 2.0506e-07     5.0725     62.892     40.142  41.206182     0.8203      7.412   297.6340 1.9500e+03     0.2817     -0.077     -0.112    26.2977 0.0000e+00
     -0.078 2.1972e-08     5.0585     62.725     40.132  41.200609     0.8233      7.411   297.9281 1.9510e+03     0.3024     -0.076     -0.111    26.3043 0.0000e+00
     -0.078 3.8640e-08     5.0454     62.569     40.111  41.183393     0.8199      7.409   298.1673 1.9499e+03     0.3196     -0.077     -0.111    26.3097 0.0000e+00
     -0.078 4.0658e-07     5.0342     62.437     40.111  41.188648     0.7979      7.408   298.3760 1.9489e+03     0.3067     -0.076     -0.111    26.3142 0.0000e+00
     -0.078      0.000     5.0226     62.300     40.118  41.200612     0.7782      7.407   298.6442 1.9467e+03     0.2688     -0.077     -0.111    26.3189 0.0000e+00
     -0.078      0.000     5.0104     62.154     40.114  41.200974     0.7752      7.406   298.9147 1.9433e+03     0.2582     -0.076     -0.110    26.3245 0.0000e+00
     -0.078      0.001     4.9995     62.026     40.102  41.193034     0.7981      7.405   299.1514 1.9407e+03     0.3006     -0.076     -0.111    26.3308 0.0000e+00
     -0.078      0.001     4.9890     61.901     39.950  41.041077     0.8344      7.402   299.3551 1.9401e+03     0.3239     -0.076     -0.111    26.3372 0.0000e+00
     -0.077      0.000     4.9796     61.777     38.754  39.808455     0.8463      7.401   299.3990 1.9407e+03     0.2949     -0.076     -0.110    26.3432 0.0000e+00
     -0.077 1.4779e-08     4.9891     61.774     36.364  37.280548     0.8409      7.401   299.4244 1.9414e+03     0.2559     -0.075     -0.109    26.3489 0.0000e+00
     -0.077 1.6257e-07     5.0924     62.581     34.719  35.316394     0.8339      7.402   299.4897 1.9410e+03     0.2491     -0.075     -0.109    26.3540 0.0000e+00
     -0.077 -2.438e-07     5.4164     65.691     34.628  34.736485     0.8073      7.402   299.5011 1.9381e+03     0.2741     -0.075     -0.109    26.3598 0.0000e+00
     -0.078      0.000     5.9973     71.796     35.033  34.651147     0.7766      7.402   299.6476 1.9350e+03     0.2835     -0.076     -0.110    26.3650 0.0000e+00
     -0.078      0.000     6.7185     79.720     35.333  34.601431     0.7666      7.402   299.8851 1.9339e+03     0.2708     -0.077     -0.111    26.3640 0.0000e+00
     -0.078     -0.001     7.4463     87.898     35.521  34.579497     0.7689      7.402   299.9633 1.9344e+03     0.2725     -0.076     -0.111    25.9991 0.0000e+00
     -0.077     -0.002     8.0938     95.254     35.640  34.576218     0.7859      7.403   299.9047 1.9372e+03     0.3045     -0.076     -0.110    25.1398 0.0000e+00
     -0.077     -0.002     8.6029    101.068     35.697  34.561618     0.8239      7.404   299.7779 1.9409e+03     0.3222     -0.076     -0.110    24.3574 0.0000e+00
     -0.078     -0.002     8.9506    105.053     35.703  34.529910     0.8520      7.404   299.5499 1.9435e+03     0.3037     -0.077     -0.111    23.8911 0.0000e+00
     -0.079     -0.001     9.1328    107.137     35.703  34.510383     0.8500      7.403   299.3849 1.9427e+03     0.2939     -0.078     -0.113    23.6279 0.0000e+00
     -0.081      0.001     9.1558    107.373     35.721  34.516045     0.8187      7.399   299.4171 1.9387e+03     0.3261     -0.081     -0.117    23.4810 0.0000e+00
     -0.082      0.002     9.0622    106.257     35.747  34.534844     0.7769      7.394   299.5089 1.9366e+03     0.3573     -0.082     -0.119    23.3879 0.0000e+00
     -0.080      0.002     8.9211    104.598     35.762  34.547112     0.7675      7.389   299.6353 1.9368e+03     0.3349     -0.078     -0.114    23.3446 0.0000e+00
     -0.076      0.002     8.7845    102.995     35.752  34.537333     0.7787      7.384   299.8258 1.9383e+03     0.2994     -0.073     -0.106    23.3222 0.0000e+00
     -0.075      0.003     8.6776    101.735     35.762  34.543638     0.7922      7.382   299.9197 1.9436e+03     0.2945     -0.072     -0.105    23.3050 0.0000e+00
     -0.076      0.003     8.6035    100.854     35.783  34.559826     0.8122      7.383   299.8249 1.9505e+03     0.3063     -0.075     -0.109    23.2946 0.0000e+00
     -0.077      0.004     8.5475    100.184     35.770  34.542505     0.8264      7.386   299.7115 1.9517e+03     0.3201     -0.077     -0.111    23.2953 0.0000e+00
     -0.077      0.006     8.4973     99.583     35.757  34.524758     0.8354      7.389   299.7531 1.9463e+03     0.3087     -0.076     -0.111    23.2974 0.0000e+00
     -0.075      0.006     8.4525     99.045     35.773  34.535796     0.8384      7.390   299.8107 1.9430e+03     0.2606     -0.074     -0.107    23.2927 0.0000e+00
     -0.071      0.005     8.4118     98.555     35.792  34.548918     0.8349      7.389   299.7200 1.9489e+03     0.2574     -0.071     -0.103    23.2856 0.0000e+00
     -0.066      0.003     8.3699     98.056     35.803  34.556368     0.8390      7.389   299.6030 1.9613e+03     0.3000     -0.065     -0.094    23.2786 0.0000e+00
     -0.064      0.001     8.3296     97.585     35.809  34.562353     0.8426      7.390   299.5158 1.9735e+03     0.3172     -0.061     -0.088    23.2711 0.0000e+00
     -0.067     -0.001     8.2979     97.221     35.802  34.557765     0.8328      7.391   299.4396 1.9811e+03     0.3132     -0.065     -0.094    23.2649 0.0000e+00
     -0.072     -0.003     8.2778     97.000     35.802  34.564420     0.8395      7.389   299.4552 1.9813e+03     0.3125     -0.072     -0.104    23.2559 0.0000e+00
     -0.074     -0.003     8.2686     96.915     35.808  34.579309     0.8772      7.386   299.5325 1.9696e+03     0.3394     -0.074     -0.108    23.2512 0.0000e+00
     -0.073     -0.003     8.2667     96.921     35.830  34.610751     0.9123      7.387   299.6000 1.9468e+03     0.3635     -0.072     -0.104    23.2521 0.0000e+00
     -0.071     -0.002     8.2685     96.967     35.837  34.627009     0.9150      7.389   299.6696 1.9266e+03     0.3601     -0.070     -0.101    23.2555 0.0000e+00
     -0.071      0.000     8.2736     97.040     35.788  34.585338     0.9000      7.391   299.6855 1.9177e+03     0.3284     -0.070     -0.102    23.2645 0.0000e+00
     -0.072      0.001     8.2814     97.127     35.755  34.551547     0.8966      7.392   299.6198 1.9181e+03     0.2861     -0.071     -0.103    23.2779 0.0000e+00
     -0.074      0.005     8.2910     97.223     35.745  34.536032     0.9015      7.392   299.5642 1.9229e+03     0.2760     -0.072     -0.105    23.2926 0.0000e+00
     -0.074      0.010     8.3023     97.337     35.741  34.524777     0.9038      7.389   299.5289 1.9279e+03     0.2971     -0.072     -0.105    23.3088 0.0000e+00
     -0.073      0.015     8.3086     97.398     35.764  34.542495     0.8877      7.382   299.5374 1.9311e+03     0.3279     -0.071     -0.103    23.3199 0.0000e+00
     -0.068      0.017     8.3050     97.356     35.782  34.559702     0.8545      7.374   299.5808 1.9322e+03     0.3432     -0.068     -0.099    23.3138 0.0000e+00
     -0.058      0.016     8.2957     97.256     35.761  34.542264     0.8329      7.370   299.5373 1.9351e+03     0.3288     -0.058     -0.084    23.3032 0.0000e+00
     -0.048      0.014     8.2846     97.131     35.738  34.522224     0.8280      7.371   299.5286 1.9451e+03     0.3379     -0.044     -0.064    23.2926 0.0000e+00
     -0.043      0.011     8.2751     97.018     35.724  34.507959     0.8416      7.374   299.6476 1.9677e+03     0.3921     -0.038     -0.056    23.2822 0.0000e+00
     -0.046      0.009     8.2718     96.969     35.716  34.496818     0.8690      7.374   299.7702 1.9992e+03     0.3732     -0.045     -0.066    23.2844 0.0000e+00
     -0.051      0.007     8.2755     96.999     35.740  34.514548     0.8838      7.371   299.8071 2.0157e+03     0.2926     -0.052     -0.075    23.2911 0.0000e+00
     -0.051      0.007     8.2828     97.073     35.762  34.531764     0.8823      7.370   299.7494 2.0031e+03     0.2721     -0.051     -0.074    23.2955 0.0000e+00
     -0.046      0.011     8.2906     97.158     35.747  34.514424     0.8693      7.370   299.7618 1.9736e+03     0.3089     -0.045     -0.065    23.2954 0.0000e+00
     -0.040      0.015     8.2968     97.223     35.730  34.495436     0.8472      7.372   299.8706 1.9490e+03     0.3411     -0.037     -0.054    23.2877 0.0000e+00
     -0.036      0.015     8.2966     97.215     35.730  34.492730     0.8345      7.374   299.9456 1.9372e+03     0.3255     -0.035     -0.052    23.2788 0.0000e+00
     -0.030      0.011     8.2879     97.109     35.720  34.481702     0.8346      7.377   299.9810 1.9334e+03     0.3332     -0.032     -0.046    23.2733 0.0000e+00
     -0.023      0.006     8.2714     96.915     35.728  34.489132     0.8392      7.380   300.1260 1.9378e+03     0.4344     -0.019     -0.028    23.2698 0.0000e+00
     -0.022      0.003     8.2521     96.693     35.758  34.519053     0.8452      7.383   300.4082 1.9480e+03     0.5429     -0.017     -0.025    23.2661 0.0000e+00
     -0.028      0.001     8.2373     96.521     35.764  34.525888     0.8420      7.384   300.6397 1.9557e+03     0.5458     -0.028     -0.041    23.2624 0.0000e+00
     -0.034      0.000     8.2286     96.418     35.746  34.508244     0.8373      7.384   300.7750 1.9603e+03     0.5001     -0.035     -0.051    23.2589 0.0000e+00
     -0.034      0.000     8.2261     96.395     35.732  34.496279     0.8437      7.384   300.8385 1.9625e+03     0.5095     -0.034     -0.049    23.2587 0.0000e+00
     -0.029      0.001     8.2303     96.454     35.740  34.508254     0.8462      7.384   300.8925 1.9590e+03     0.4760     -0.027     -0.039    23.2641 0.0000e+00
     -0.025      0.002     8.2382     96.557     35.754  34.526012     0.8400      7.385   300.9972 1.9549e+03     0.3694     -0.022     -0.033    23.2642 0.0000e+00
     -0.024      0.003     8.2458     96.658     35.744  34.520437     0.8331      7.388   301.1584 1.9534e+03     0.3191     -0.023     -0.034    23.2608 0.0000e+00
     -0.026      0.002     8.2476     96.689     35.723  34.504367     0.8273      7.391   301.3788 1.9498e+03     0.3260     -0.025     -0.036    23.2652 0.0000e+00
     -0.028      0.000     8.2376     96.576     35.740  34.522276     0.8248      7.392   301.5105 1.9448e+03     0.3614     -0.027     -0.041    23.2716 0.0000e+00
     -0.028      0.000     8.2160     96.322     35.765  34.546424     0.8310      7.392   301.5469 1.9426e+03     0.3814     -0.028     -0.041    23.2770 0.0000e+00
     -0.027      0.000     8.1886     95.998     35.761  34.542268     0.8470      7.392   301.6462 1.9441e+03     0.3533     -0.026     -0.038    23.2835 0.0000e+00
     -0.025      0.001     8.1610     95.673     35.755  34.535542     0.8517      7.392   301.7651 1.9476e+03     0.3272     -0.024     -0.035    23.2899 0.0000e+00
     -0.025      0.001     8.1358     95.374     35.750  34.528622     0.8240      7.391   301.8650 1.9537e+03     0.3100     -0.023     -0.034    23.2923 0.0000e+00
     -0.025      0.001     8.1127     95.097     35.745  34.522111     0.7875      7.389   301.9944 1.9628e+03     0.2980     -0.024     -0.036    23.2908 0.0000e+00
     -0.026      0.002     8.0905     94.831     35.745  34.520332     0.7870      7.388   302.1247 1.9667e+03     0.2734     -0.025     -0.036    23.2896 0.0000e+00
     -0.026      0.002     8.0670     94.556     35.732  34.507109     0.8002      7.386   302.2361 1.9627e+03     0.2567     -0.026     -0.038    23.2886 0.0000e+00
     -0.026      0.002     8.0389     94.230     35.713  34.489264     0.7909      7.385   302.3095 1.9579e+03     0.3097     -0.027     -0.038    23.2872 0.0000e+00
     -0.023      0.002     8.0069     93.855     35.718  34.495134     0.7757      7.385   302.3234 1.9537e+03     0.3646     -0.021     -0.031    23.2831 0.0000e+00
     -0.021      0.003     7.9755     93.488     35.738  34.514557     0.7730      7.384   302.4037 1.9474e+03     0.3715     -0.019     -0.029    23.2794 0.0000e+00
     -0.022      0.003     7.9459     93.142     35.757  34.533554     0.7760      7.384   302.5926 1.9427e+03     0.3623     -0.022     -0.032    23.2801 0.0000e+00
     -0.023      0.002     7.9181     92.818     35.757  34.534274     0.7755      7.384   302.7143 1.9426e+03     0.3143     -0.023     -0.034    23.2824 0.0000e+00
     -0.022      0.001     7.8943     92.542     35.745  34.523264     0.7764      7.383   302.7565 1.9439e+03     0.2792     -0.021     -0.031    23.2831 0.0000e+00
     -0.021      0.001     7.8751     92.318     35.749  34.527470     0.7775      7.381   302.8450 1.9459e+03     0.3045     -0.021     -0.030    23.2814 0.0000e+00
     -0.021      0.001     7.8600     92.138     35.744  34.521600     0.7800      7.377   302.9237 1.9492e+03     0.3150     -0.021     -0.030    23.2824 0.0000e+00
     -0.020      0.001     7.8485     91.999     35.740  34.515808     0.7787      7.372   302.9337 1.9522e+03     0.2844     -0.019     -0.028    23.2850 0.0000e+00
     -0.020      0.001     7.8444     91.947     35.747  34.520967     0.7704      7.368   302.9666 1.9548e+03     0.2703     -0.019     -0.028    23.2862 0.0000e+00
     -0.020      0.002     7.8516     92.027     35.748  34.520456     0.7718      7.367   303.0631 1.9539e+03     0.2972     -0.020     -0.029    23.2869 0.0000e+00
     -0.020      0.002     7.8666     92.198     35.738  34.509619     0.7866      7.367   303.2406 1.9494e+03     0.3346     -0.020     -0.030    23.2847 0.0000e+00
     -0.019      0.003     7.8803     92.356     35.746  34.516973     0.7934      7.367   303.3909 1.9463e+03     0.3559     -0.019     -0.028    23.2821 0.0000e+00
     -0.018      0.004     7.8890     92.459     35.776  34.545855     0.7803      7.368   303.3320 1.9457e+03     0.3413     -0.018     -0.026    23.2802 0.0000e+00
     -0.016      0.005     7.8997     92.589     35.769  34.541235     0.7658      7.370   303.2168 1.9453e+03     0.3104     -0.016     -0.024    23.2773 0.0000e+00
     -0.016      0.005     7.9152     92.779     35.749  34.524633     0.7661      7.371   303.2028 1.9422e+03     0.3180     -0.015     -0.022    23.2750 0.0000e+00
     -0.015      0.004     7.9270     92.923     35.757  34.535680     0.7746      7.370   303.2481 1.9384e+03     0.3427     -0.015     -0.021    23.2735 0.0000e+00
     -0.013      0.003     7.9290     92.953     35.767  34.547767     0.7946      7.368   303.4204 1.9407e+03     0.3337     -0.013     -0.018    23.2743 0.0000e+00
     -0.011      0.001     7.9282     92.950     35.761  34.543743     0.8239      7.367   303.5658 1.9459e+03     0.3004     -0.011     -0.016    23.2774 0.0000e+00
     -0.011      0.000     7.9302     92.978     35.767  34.550558     0.8344      7.366   303.6288 1.9459e+03     0.2757     -0.011     -0.016    23.2816 0.0000e+00
     -0.012     -0.002     7.9258     92.929     35.782  34.566646     0.8301      7.363   303.8381 1.9409e+03     0.2793     -0.012     -0.018    23.2855 0.0000e+00
     -0.014     -0.003     7.9025     92.659     35.761  34.547705     0.8180      7.360   303.9457 1.9353e+03     0.2838     -0.014     -0.020    23.2891 0.0000e+00
     -0.015     -0.003     7.8622     92.188     35.723  34.512103     0.7884      7.356   303.8120 1.9323e+03     0.2692     -0.015     -0.022    23.2930 0.0000e+00
     -0.017     -0.003     7.8191     91.682     35.729  34.517298     0.7668      7.353   303.7694 1.9338e+03     0.2556     -0.016     -0.024    23.2945 0.0000e+00
     -0.017     -0.002     7.7831     91.259     35.760  34.547006     0.7680      7.350   303.8604 1.9383e+03     0.2715     -0.017     -0.025    23.2959 0.0000e+00
     -0.017     -0.001     7.7560     90.938     35.769  34.553699     0.7848      7.348   303.8805 1.9425e+03     0.3690     -0.017     -0.025    23.2987 0.0000e+00
     -0.017      0.000     7.7378     90.720     35.750  34.534700     0.8133      7.348   303.9269 1.9491e+03     0.4894     -0.016     -0.023    23.2995 0.0000e+00
     -0.017      0.001     7.7279     90.601     35.724  34.507845     0.8273      7.348   304.0768 1.9580e+03     0.5368     -0.017     -0.024    23.2993 0.0000e+00
     -0.018      0.002     7.7259     90.573     35.700  34.483074     0.8254      7.347   304.1445 1.9618e+03     0.5449     -0.018     -0.026    23.2985 0.0000e+00
     -0.018      0.002     7.7333     90.657     35.708  34.489264     0.8270      7.345   304.1435 1.9600e+03     0.5274     -0.018     -0.025    23.2957 0.0000e+00
     -0.017      0.002     7.7413     90.752     35.738  34.519176     0.8289      7.345   304.1496 1.9572e+03     0.5072     -0.017     -0.024    23.2940 0.0000e+00
     -0.015      0.002     7.7429     90.777     35.745  34.527145     0.8300      7.348   304.2190 1.9525e+03     0.5147     -0.013     -0.021    23.2921 0.0000e+00
     -0.014      0.002     7.7474     90.837     35.736  34.522100     0.8210      7.352   304.3803 1.9447e+03     0.4962     -0.012     -0.018    23.2884 0.0000e+00
     -0.014      0.001     7.7585     90.980     35.730  34.521692     0.8132      7.354   304.5513 1.9390e+03     0.4964     -0.013     -0.019    23.2878 0.0000e+00
     -0.014      0.000     7.7766     91.206     35.725  34.522222     0.8466      7.355   304.7374 1.9374e+03     0.5480     -0.014     -0.020    23.2883 0.0000e+00
     -0.015     -0.001     7.8001     91.489     35.728  34.528517     0.8931      7.357   304.9094 1.9373e+03     0.5705     -0.015     -0.021    23.2899 0.0000e+00
     -0.015     -0.001     7.8160     91.675     35.734  34.534291     0.8977      7.357   304.9107 1.9397e+03     0.5555     -0.015     -0.021    23.2952 0.0000e+00
     -0.015     -0.001     7.8184     91.700     35.729  34.528517     0.8836      7.356   304.7536 1.9464e+03     0.5189     -0.016     -0.022    23.3031 0.0000e+00
     -0.015      0.000     7.8206     91.725     35.724  34.522213     0.8694      7.356   304.7296 1.9564e+03     0.4331     -0.015     -0.023    23.3131 0.0000e+00
     -0.016      0.000     7.8358     91.899     35.724  34.521588     0.8458      7.356   304.8794 1.9640e+03     0.3125     -0.016     -0.022    23.3185 0.0000e+00
     -0.016     -0.001     7.8629     92.209     35.726  34.520962     0.8275      7.357   304.9291 1.9679e+03     0.2505     -0.016     -0.023    23.3160 0.0000e+00
     -0.015     -0.001     7.8986     92.614     35.726  34.514650     0.8228      7.357   304.8151 1.9727e+03     0.2630     -0.015     -0.021    23.3135 0.0000e+00
     -0.015     -0.001     7.9341     93.022     35.724  34.508771     0.8268      7.358   304.7911 1.9748e+03     0.3424     -0.014     -0.020    23.3135 0.0000e+00
     -0.016     -0.001     7.9581     93.303     35.729  34.513400     0.8292      7.358   304.8971 1.9708e+03     0.4773     -0.015     -0.022    23.3130 0.0000e+00
     -0.018     -0.001     7.9695     93.443     35.720  34.507096     0.8336      7.358   304.8930 1.9651e+03     0.5518     -0.018     -0.026    23.3086 0.0000e+00
     -0.018     -0.000     7.9752     93.515     35.705  34.496067     0.8426      7.360   304.9131 1.9566e+03     0.5404     -0.019     -0.028    23.2987 0.0000e+00
     -0.017      0.001     7.9807     93.585     35.715  34.507095     0.8466      7.363   305.0531 1.9486e+03     0.5233     -0.018     -0.026    23.2911 0.0000e+00
     -0.016      0.002     7.9832     93.618     35.720  34.513398     0.8461      7.364   305.2092 1.9467e+03     0.5276     -0.016     -0.023    23.2922 0.0000e+00
     -0.015      0.003     7.9783     93.567     35.712  34.508759     0.8448      7.363   305.4245 1.9473e+03     0.5314     -0.015     -0.022    23.2975 0.0000e+00
     -0.015      0.003     7.9665     93.435     35.715  34.514523     0.8402      7.363   305.6774 1.9489e+03     0.5380     -0.014     -0.021    23.3014 0.0000e+00
     -0.015      0.002     7.9517     93.269     35.717  34.519577     0.8271      7.363   305.8570 1.9541e+03     0.5169     -0.014     -0.021    23.3029 0.0000e+00
     -0.015      0.001     7.9451     93.199     35.701  34.506353     0.8242      7.362   305.8765 1.9584e+03     0.4596     -0.014     -0.021    23.3052 0.0000e+00
     -0.014      0.000     7.9552     93.321     35.674  34.481675     0.8331      7.361   305.8273 1.9598e+03     0.4553     -0.013     -0.019    23.3090 0.0000e+00
     -0.014     -0.001     7.9793     93.602     35.668  34.475276     0.8335      7.362   305.7781 1.9608e+03     0.4953     -0.014     -0.020    23.3125 0.0000e+00
     -0.015     -0.001     8.0017     93.862     35.687  34.492505     0.8376      7.362   305.7977 1.9613e+03     0.4850     -0.014     -0.021    23.3168 0.0000e+00
     -0.015     -0.001     8.0013     93.855     35.696  34.499420     0.8466      7.360   305.9781 1.9612e+03     0.4226     -0.015     -0.022    23.3218 0.0000e+00
     -0.016      0.000     7.9729     93.522     35.691  34.495369     0.8505      7.358   306.1531 1.9597e+03     0.3512     -0.016     -0.023    23.3242 0.0000e+00
     -0.016 3.9135e-07     7.9295     93.014     35.703  34.507041     0.8566      7.357   306.2785 1.9556e+03     0.2937     -0.015     -0.022    23.3224 0.0000e+00
     -0.015      0.000     7.8880     92.528     35.710  34.513506     0.8563      7.357   306.4623 1.9536e+03     0.2758     -0.014     -0.021    23.3201 0.0000e+00
     -0.015      0.000     7.8599     92.197     35.706  34.510027     0.8564      7.357   306.7401 1.9542e+03     0.3187     -0.014     -0.021    23.3189 0.0000e+00
     -0.015      0.001     7.8476     92.052     35.725  34.528496     0.8763      7.358   306.9702 1.9543e+03     0.4151     -0.014     -0.021    23.3190 0.0000e+00
     -0.016      0.001     7.8473     92.050     35.743  34.546254     0.8939      7.359   307.0073 1.9572e+03     0.4956     -0.015     -0.022    23.3201 0.0000e+00
     -0.016      0.001     7.8544     92.139     35.729  34.534185     0.8956      7.359   307.0170 1.9611e+03     0.5282     -0.016     -0.023    23.3200 0.0000e+00
     -0.015      0.001     7.8673     92.299     35.699  34.509613     0.8782      7.360   307.0873 1.9605e+03     0.5045     -0.014     -0.021    23.3192 0.0000e+00
     -0.013      0.001     7.8843     92.510     35.688  34.503231     0.8398      7.360   307.1692 1.9581e+03     0.3924     -0.013     -0.019    23.3191 0.0000e+00
     -0.013      0.001     7.9033     92.744     35.701  34.520555     0.8167      7.360   307.3194 1.9579e+03     0.3019     -0.013     -0.019    23.3196 0.0000e+00
     -0.014      0.000     7.9250     93.004     35.706  34.528515     0.8293      7.361   307.6122 1.9572e+03     0.3254     -0.013     -0.019    23.3224 0.0000e+00
     -0.014      0.000     7.9478     93.272     35.714  34.535963     0.8539      7.361   307.9555 1.9542e+03     0.4019     -0.014     -0.020    23.3280 0.0000e+00
     -0.014     -0.001     7.9635     93.454     35.727  34.547097     0.8758      7.361   308.1145 1.9517e+03     0.4640     -0.014     -0.020    23.3345 0.0000e+00
     -0.014     -0.001     7.9669     93.494     35.716  34.536089     0.8999      7.361   308.0725 1.9501e+03     0.4975     -0.015     -0.021    23.3414 0.0000e+00
     -0.014     -0.002     7.9627     93.452     35.707  34.529899     0.9156      7.361   308.1364 1.9503e+03     0.5316     -0.013     -0.020    23.3464 0.0000e+00
     -0.015     -0.002     7.9622     93.454     35.709  34.535786     0.9103      7.361   308.2847 1.9520e+03     0.5406     -0.014     -0.021    23.3464 0.0000e+00
     -0.016     -0.002     7.9708     93.564     35.714  34.543756     0.9000      7.360   308.3164 1.9535e+03     0.5156     -0.016     -0.022    23.3423 0.0000e+00
     -0.017     -0.002     7.9823     93.707     35.730  34.562745     0.8924      7.358   308.4337 1.9573e+03     0.5034     -0.016     -0.023    23.3413 0.0000e+00
     -0.018     -0.001     7.9892     93.800     35.738  34.574821     0.8922      7.356   308.6712 1.9587e+03     0.5152     -0.018     -0.026    23.3467 0.0000e+00
     -0.019      0.000     7.9891     93.814     35.719  34.562742     0.9057      7.353   308.8641 1.9554e+03     0.5357     -0.019     -0.027    23.3526 0.0000e+00
     -0.018 -2.026e-08     7.9801     93.724     35.692  34.543742     0.9182      7.349   308.9591 1.9562e+03     0.5386     -0.017     -0.025    23.3566 0.0000e+00
     -0.016 -2.229e-07     7.9646     93.555     35.678  34.535667     0.9235      7.347   308.8736 1.9602e+03     0.5186     -0.016     -0.023    23.3608 0.0000e+00
     -0.016 -2.163e-07     7.9503     93.394     35.668  34.528635     0.9149      7.346   308.7770 1.9608e+03     0.5083     -0.016     -0.022    23.3670 0.0000e+00
     -0.016 5.9728e-08     7.9436     93.315     35.661  34.522236     0.8975      7.345   308.7376 1.9596e+03     0.5363     -0.016     -0.022    23.3761 0.0000e+00
     -0.017 8.6026e-07     7.9506     93.391     35.664  34.521818     0.9240      7.343   308.6552 1.9579e+03     0.4899     -0.017     -0.024    23.3864 0.0000e+00
     -0.018      0.000     7.9731     93.645     35.670  34.523578     0.9880      7.342   308.6412 1.9543e+03     0.3448     -0.018     -0.026    23.3949 0.0000e+00
     -0.019      0.000     7.9967     93.911     35.695  34.543513     1.0179      7.341   308.6539 1.9486e+03     0.2774     -0.019     -0.028    23.3985 0.0000e+00
     -0.018      0.001     8.0053     94.007     35.728  34.572291     1.0195      7.339   308.8085 1.9454e+03     0.3150     -0.017     -0.026    23.3987 0.0000e+00
     -0.016      0.003     7.9990     93.933     35.708  34.553923     0.9978      7.337   309.0484 1.9509e+03     0.4030     -0.016     -0.023    23.3956 0.0000e+00
     -0.016      0.004     7.9827     93.748     35.662  34.511978     0.9483      7.335   309.0599 1.9570e+03     0.4874     -0.015     -0.022    23.3877 0.0000e+00
     -0.015      0.004     7.9611     93.498     35.658  34.509783     0.9180      7.335   309.0327 1.9589e+03     0.5111     -0.015     -0.022    23.3801 0.0000e+00
     -0.014      0.004     7.9371     93.215     35.676  34.527379     0.9064      7.335   309.1501 1.9636e+03     0.5057     -0.013     -0.019    23.3766 0.0000e+00
     -0.012      0.004     7.9097     92.885     35.687  34.534182     0.8824      7.336   309.2748 1.9676e+03     0.5139     -0.011     -0.016    23.3775 0.0000e+00
     -0.010      0.003     7.8852     92.582     35.688  34.528511     0.8480      7.338   309.3363 1.9681e+03     0.5498     -0.009     -0.014    23.3818 0.0000e+00
     -0.010      0.002     7.8780     92.478     35.689  34.522322     0.8302      7.341   309.4631 1.9653e+03     0.5737     -0.009     -0.014    23.3849 0.0000e+00
     -0.010      0.001     7.8940     92.646     35.699  34.522854     0.8321      7.343   309.6026 1.9574e+03     0.5591     -0.010     -0.014    23.3857 0.0000e+00
     -0.010      0.000     7.9262     93.005     35.719  34.534934     0.8347      7.345   309.6468 1.9485e+03     0.5260     -0.010     -0.015    23.3811 0.0000e+00
     -0.010     -0.001     7.9642     93.436     35.732  34.541325     0.8342      7.347   309.6533 1.9415e+03     0.4471     -0.010     -0.015    23.3700 0.0000e+00
     -0.011     -0.001     8.0000     93.847     35.730  34.536610     0.8355      7.349   309.5963 1.9377e+03     0.3683     -0.010     -0.015    23.3592 0.0000e+00
     -0.011     -0.002     8.0281     94.179     35.734  34.541440     0.8408      7.349   309.6456 1.9393e+03     0.3355     -0.011     -0.016    23.3480 0.0000e+00
     -0.011     -0.002     8.0457     94.397     35.725  34.536205     0.8431      7.348   309.8189 1.9458e+03     0.2948     -0.011     -0.016    23.3360 0.0000e+00
     -0.012     -0.002     8.0504     94.465     35.720  34.536839     0.8721      7.347   309.7987 1.9559e+03     0.3342     -0.011     -0.016    23.3267 0.0000e+00
     -0.013     -0.002     8.0384     94.332     35.730  34.549107     0.9341      7.345   309.7458 1.9678e+03     0.4765     -0.013     -0.018    23.3210 0.0000e+00
     -0.014     -0.001     8.0077     93.976     35.737  34.557502     0.9676      7.342   309.8673 1.9778e+03     0.5504     -0.014     -0.020    23.3231 0.0000e+00
     -0.014      0.000     7.9658     93.488     35.753  34.574825     0.9646      7.340   309.8918 1.9792e+03     0.5254     -0.014     -0.020    23.3317 0.0000e+00
     -0.014      0.001     7.9307     93.082     35.743  34.568009     0.9446      7.339   309.7829 1.9726e+03     0.4485     -0.013     -0.020    23.3391 0.0000e+00
     -0.013      0.001     7.9140     92.891     35.710  34.538617     0.9187      7.339   309.7550 1.9676e+03     0.3536     -0.012     -0.018    23.3431 0.0000e+00
     -0.012      0.001     7.9163     92.921     35.707  34.537047     0.9096      7.340   309.7267 1.9644e+03     0.2937     -0.011     -0.017    23.3445 0.0000e+00
     -0.012      0.000     7.9326     93.115     35.719  34.549022     0.9071      7.340   309.6987 1.9578e+03     0.2740     -0.011     -0.016    23.3470 0.0000e+00
     -0.012     -0.001     7.9581     93.415     35.727  34.556366     0.9079      7.339   309.7614 1.9496e+03     0.3288     -0.011     -0.017    23.3511 0.0000e+00
     -0.012     -0.002     7.9913     93.805     35.733  34.562331     0.9284      7.339   309.7107 1.9435e+03     0.4368     -0.012     -0.017    23.3536 0.0000e+00
     -0.013     -0.003     8.0266     94.221     35.727  34.557616     0.9518      7.339   309.6872 1.9408e+03     0.5120     -0.012     -0.017    23.3555 0.0000e+00
     -0.014     -0.003     8.0576     94.591     35.730  34.562880     0.9613      7.339   309.8218 1.9429e+03     0.5369     -0.014     -0.021    23.3571 0.0000e+00
     -0.016     -0.003     8.0814     94.876     35.727  34.562463     0.9792      7.338   309.9613 1.9475e+03     0.4933     -0.016     -0.023    23.3571 0.0000e+00
     -0.016     -0.002     8.0957     95.054     35.713  34.552579     1.0108      7.337   310.1697 1.9515e+03     0.4120     -0.016     -0.022    23.3557 0.0000e+00
     -0.016     -0.002     8.1034     95.155     35.727  34.570422     1.0316      7.336   310.3622 1.9575e+03     0.3772     -0.015     -0.022    23.3575 0.0000e+00
     -0.016     -0.001     8.1110     95.253     35.741  34.587649     1.0380      7.335   310.3964 1.9644e+03     0.3779     -0.016     -0.023    23.3607 0.0000e+00
     -0.016     -0.000     8.1201     95.365     35.721  34.570317     1.0325      7.335   310.3248 1.9699e+03     0.3603     -0.016     -0.023    23.3639 0.0000e+00
     -0.017 4.2659e-07     8.1266     95.441     35.701  34.551423     1.0021      7.336   310.2710 1.9743e+03     0.3777     -0.017     -0.024    23.3698 0.0000e+00
     -0.017      0.000     8.1274     95.449     35.700  34.549757     0.9641      7.337   310.2623 1.9756e+03     0.4659     -0.017     -0.024    23.3762 0.0000e+00
     -0.016      0.000     8.1264     95.431     35.703  34.550173     0.9595      7.338   310.2198 1.9730e+03     0.5419     -0.015     -0.022    23.3817 0.0000e+00
     -0.016      0.001     8.1293     95.454     35.715  34.556449     0.9653      7.340   310.1868 1.9666e+03     0.5641     -0.015     -0.022    23.3839 0.0000e+00
     -0.016      0.002     8.1320     95.474     35.725  34.562119     0.9415      7.341   310.2079 1.9583e+03     0.5516     -0.016     -0.023    23.3838 0.0000e+00
     -0.016      0.002     8.1282     95.420     35.721  34.555196     0.9113      7.340   310.2164 1.9521e+03     0.5431     -0.016     -0.024    23.3836 0.0000e+00
     -0.015      0.001     8.1212     95.329     35.705  34.536255     0.9037      7.340   310.2891 1.9486e+03     0.5521     -0.013     -0.021    23.3803 0.0000e+00
     -0.014      0.001     8.1137     95.233     35.695  34.523655     0.9140      7.341   310.3995 1.9471e+03     0.5386     -0.012     -0.018    23.3734 0.0000e+00
     -0.014      0.001     8.1026     95.097     35.705  34.529894     0.9350      7.343   310.4322 1.9473e+03     0.5336     -0.013     -0.019    23.3660 0.0000e+00
     -0.015      0.001     8.0827     94.858     35.726  34.548157     0.9552      7.344   310.5122 1.9485e+03     0.5519     -0.014     -0.021    23.3610 0.0000e+00
     -0.015      0.000     8.0530     94.506     35.733  34.553922     0.9651      7.345   310.6779 1.9524e+03     0.5164     -0.015     -0.021    23.3571 0.0000e+00
     -0.015     -0.001     8.0216     94.137     35.715  34.536078     0.9716      7.345   310.8874 1.9579e+03     0.4696     -0.014     -0.021    23.3525 0.0000e+00
     -0.014     -0.001     7.9955     93.830     35.702  34.522958     0.9511      7.344   311.0668 1.9619e+03     0.4137     -0.013     -0.020    23.3490 0.0000e+00
     -0.014     -0.001     7.9728     93.562     35.702  34.522334     0.9102      7.343   311.0397 1.9630e+03     0.2983     -0.013     -0.020    23.3461 0.0000e+00
     -0.015     -0.001     7.9537     93.338     35.708  34.528524     0.8908      7.342   310.9897 1.9610e+03     0.2342     -0.015     -0.021    23.3439 0.0000e+00
     -0.015     -0.001     7.9444     93.231     35.713  34.534289     0.8821      7.341   311.1513 1.9597e+03     0.2485     -0.015     -0.022    23.3435 0.0000e+00
     -0.016     -0.001     7.9407     93.190     35.706  34.528514     0.8502      7.341   311.3590 1.9596e+03     0.2880     -0.016     -0.023    23.3441 0.0000e+00
     -0.016     -0.001     7.9338     93.107     35.700  34.522219     0.7997      7.340   311.5215 1.9578e+03     0.3159     -0.016     -0.024    23.3426 0.0000e+00
     -0.016     -0.001     7.9250     92.997     35.703  34.521689     0.7771      7.339   311.6531 1.9548e+03     0.3107     -0.015     -0.022    23.3418 0.0000e+00
     -0.016     -0.000     7.9203     92.930     35.708  34.522106     0.7796      7.339   311.6600 1.9517e+03     0.3162     -0.015     -0.021    23.3440 0.0000e+00
     -0.016      0.000     7.9254     92.977     35.719  34.527256     0.7740      7.340   311.5187 1.9484e+03     0.3520     -0.016     -0.023    23.3459 0.0000e+00
     -0.017      0.000     7.9412     93.151     35.717  34.520432     0.7739      7.341   311.4072 1.9461e+03     0.3776     -0.017     -0.024    23.3456 0.0000e+00
     -0.017      0.001     7.9607     93.371     35.702  34.503109     0.7789      7.341   311.5168 1.9481e+03     0.3511     -0.016     -0.023    23.3413 0.0000e+00
     -0.016      0.001     7.9757     93.540     35.711  34.508354     0.7696      7.341   311.7251 1.9523e+03     0.3061     -0.016     -0.023    23.3346 0.0000e+00
     -0.015      0.000     7.9839     93.629     35.726  34.520329     0.7635      7.340   311.7755 1.9550e+03     0.3217     -0.015     -0.022    23.3261 0.0000e+00
     -0.014 -1.548e-11     7.9838     93.619     35.730  34.520849     0.7692      7.337   311.6958 1.9575e+03     0.4175     -0.014     -0.021    23.3187 0.0000e+00
     -0.014 -1.703e-10     7.9711     93.464     35.727  34.514649     0.7738      7.334   311.7080 1.9603e+03     0.5190     -0.013     -0.018    23.3151 0.0000e+00
     -0.015 -1.874e-09     7.9469     93.177     35.722  34.508874     0.7813      7.332   311.8366 1.9622e+03     0.5418     -0.013     -0.019    23.3116 0.0000e+00
     -0.018 -2.061e-08     7.9202     92.865     35.727  34.514545     0.7877      7.331   311.8739 1.9631e+03     0.5101     -0.017     -0.026    23.3072 0.0000e+00
     -0.018 -2.267e-07     7.9027     92.661     35.732  34.519704     0.7862      7.332   311.8153 1.9617e+03     0.5022     -0.019     -0.027    23.3026 0.0000e+00
     -0.016 -6.328e-07     7.9012     92.642     35.720  34.507730     0.7820      7.332   311.8153 1.9565e+03     0.5371     -0.015     -0.022    23.2975 0.0000e+00
     -0.014      0.000     7.9115     92.761     35.710  34.496807     0.7728      7.332   311.9603 1.9503e+03     0.5666     -0.013     -0.019    23.2958 0.0000e+00
     -0.014      0.000     7.9225     92.891     35.728  34.514670     0.7678      7.332   312.1060 1.9472e+03     0.5533     -0.014     -0.020    23.2980 0.0000e+00
     -0.015     -0.001     7.9248     92.921     35.746  34.533148     0.7766      7.331   312.1145 1.9464e+03     0.5293     -0.015     -0.021    23.2989 0.0000e+00
     -0.017     -0.002     7.9143     92.797     35.743  34.529670     0.7871      7.329   312.1497 1.9461e+03     0.5196     -0.017     -0.024    23.2973 0.0000e+00
     -0.017     -0.002     7.8891     92.501     35.750  34.536136     0.7938      7.329   312.1869 1.9494e+03     0.4975     -0.018     -0.025    23.2955 0.0000e+00
     -0.017     -0.001     7.8576     92.132     35.760  34.547809     0.7841      7.328   312.3068 1.9555e+03     0.4759     -0.017     -0.024    23.2964 0.0000e+00
     -0.017     -0.000     7.8327     91.845     35.754  34.543767     0.7617      7.326   312.5659 1.9587e+03     0.5031     -0.016     -0.024    23.2982 0.0000e+00
     -0.017      0.001     7.8175     91.669     35.760  34.550786     0.7619      7.324   312.7385 1.9588e+03     0.5512     -0.017     -0.025    23.2980 0.0000e+00
     -0.017      0.001     7.8095     91.578     35.779  34.569159     0.7765      7.323   312.9311 1.9589e+03     0.5695     -0.018     -0.026    23.2968 0.0000e+00
     -0.016      0.000     7.8061     91.539     35.784  34.575359     0.7824      7.322   313.0878 1.9611e+03     0.5411     -0.016     -0.023    23.2979 0.0000e+00
     -0.015 2.1843e-08     7.8070     91.547     35.772  34.562229     0.7784      7.322   313.0853 1.9643e+03     0.5124     -0.014     -0.021    23.3014 0.0000e+00
     -0.016 2.4027e-07     7.8160     91.648     35.749  34.537447     0.7741      7.322   313.1582 1.9647e+03     0.5280     -0.016     -0.023    23.3032 0.0000e+00
     -0.018 6.1254e-07     7.8312     91.824     35.742  34.529789     0.7768      7.322   313.2802 1.9630e+03     0.5468     -0.018     -0.025    23.3039 0.0000e+00
     -0.018      0.000     7.8424     91.959     35.744  34.533158     0.7742      7.322   313.2697 1.9618e+03     0.5565     -0.017     -0.025    23.3053 0.0000e+00
     -0.017      0.000     7.8463     92.010     35.722  34.514662     0.7700      7.322   313.1186 1.9598e+03     0.5531     -0.016     -0.024    23.3038 0.0000e+00
     -0.016      0.001     7.8473     92.027     35.701  34.496713     0.8000      7.323   313.0020 1.9566e+03     0.5361     -0.015     -0.022    23.2992 0.0000e+00
     -0.016      0.001     7.8466     92.020     35.711  34.506699     0.8606      7.323   313.0644 1.9538e+03     0.5347     -0.015     -0.022    23.2973 0.0000e+00
     -0.016      0.001     7.8419     91.964     35.713  34.508365     0.8967      7.322   313.1840 1.9525e+03     0.5669     -0.016     -0.023    23.2999 0.0000e+00
     -0.016      0.000     7.8321     91.850     35.722  34.516855     0.9051      7.319   313.2442 1.9535e+03     0.6197     -0.016     -0.024    23.3044 0.0000e+00
     -0.016 1.8919e-08     7.8217     91.729     35.752  34.545830     0.9074      7.315   313.1902 1.9566e+03     0.6235     -0.015     -0.022    23.3077 0.0000e+00
     -0.015 2.0811e-07     7.8166     91.669     35.747  34.541115     0.9058      7.312   313.0468 1.9589e+03     0.5834     -0.015     -0.022    23.3081 0.0000e+00
     -0.015 2.4167e-07     7.8138     91.636     35.728  34.523368     0.9045      7.310   312.9733 1.9605e+03     0.5614     -0.015     -0.022    23.3069 0.0000e+00
     -0.016 4.2470e-07     7.8046     91.528     35.727  34.521807     0.9008      7.309   312.9894 1.9628e+03     0.5411     -0.015     -0.022    23.3071 0.0000e+00
     -0.016      0.000     7.7884     91.342     35.726  34.522233     0.8882      7.307   313.0698 1.9640e+03     0.4605     -0.016     -0.023    23.3085 0.0000e+00
     -0.016      0.000     7.7759     91.200     35.730  34.528518     0.8627      7.303   313.1711 1.9640e+03     0.3497     -0.016     -0.023    23.3086 0.0000e+00
     -0.016      0.001     7.7767     91.215     35.734  34.534291     0.8404      7.303   313.1812 1.9641e+03     0.2992     -0.016     -0.023    23.3078 0.0000e+00
     -0.015      0.001     7.7935     91.415     35.727  34.528517     0.8389      7.304   313.1930 1.9625e+03     0.3084     -0.015     -0.021    23.3073 0.0000e+00
     -0.015      0.000     7.8219     91.750     35.719  34.522222     0.8447      7.304   313.1417 1.9582e+03     0.3083     -0.015     -0.021    23.3091 0.0000e+00
     -0.015     -0.001     7.8501     92.085     35.716  34.521701     0.8369      7.305   312.9903 1.9577e+03     0.2677     -0.015     -0.021    23.3126 0.0000e+00
     -0.014     -0.002     7.8706     92.335     35.713  34.522221     0.8277      7.305   312.9975 1.9619e+03     0.2449     -0.014     -0.020    23.3161 0.0000e+00
     -0.014     -0.003     7.8844     92.507     35.715  34.528515     0.8247      7.306   313.1428 1.9635e+03     0.2761     -0.013     -0.019    23.3185 0.0000e+00
     -0.016     -0.003     7.8882     92.567     35.715  34.534288     0.8104      7.307   313.1988 1.9619e+03     0.3099     -0.015     -0.022    23.3194 0.0000e+00
     -0.019     -0.003     7.8817     92.509     35.701  34.528513     0.7838      7.307   313.1583 1.9586e+03     0.3178     -0.019     -0.027    23.3216 0.0000e+00
     -0.020     -0.002     7.8745     92.440     35.688  34.522218     0.7683      7.306   313.1685 1.9512e+03     0.3098     -0.020     -0.028    23.3259 0.0000e+00
     -0.020     -0.002     7.8714     92.411     35.684  34.521707     0.7712      7.305   313.1500 1.9451e+03     0.3052     -0.019     -0.028    23.3318 0.0000e+00
     -0.019     -0.003     7.8701     92.396     35.685  34.522332     0.7723      7.304   313.0215 1.9475e+03     0.3230     -0.020     -0.029    23.3407 0.0000e+00
     -0.018     -0.009     7.8723     92.420     35.694  34.529773     0.7548      7.305   312.9049 1.9551e+03     0.3114     -0.017     -0.025    23.3519 0.0000e+00
     -0.017     -0.019     7.8806     92.518     35.713  34.548155     0.7250      7.307   313.0305 1.9615e+03     0.2559     -0.016     -0.024    23.3623 0.0000e+00
     -0.020     -0.034     7.9000     92.747     35.718  34.554038     0.7053      7.312   313.5080 1.9643e+03     0.2329     -0.018     -0.026    23.3676 0.0000e+00
     -0.029     -0.051     7.9342     93.150     35.700  34.537387     0.7006      7.317   314.1176 1.9631e+03     0.2772     -0.023     -0.034    23.3657 0.0000e+00
     -0.046     -0.066     7.9721     93.598     35.698  34.537387     0.7145      7.319   314.5505 1.9564e+03     0.3645     -0.043     -0.063    23.3630 0.0000e+00
     -0.068     -0.076     7.9912     93.828     35.713  34.554038     0.7441      7.321   314.6994 1.9376e+03     0.4638     -0.065     -0.095    23.3644 0.0000e+00
     -0.095     -0.080     7.9784     93.681     35.706  34.548165     0.7648      7.323   314.7994 1.9105e+03     0.5015     -0.090     -0.131    23.3653 0.0000e+00
     -0.123     -0.076     7.9364     93.191     35.686  34.529896     0.7717      7.326   315.0703 1.9030e+03     0.4544     -0.124     -0.180    23.3652 0.0000e+00
     -0.144     -0.064     7.8704     92.420     35.678  34.523715     0.7728      7.327   315.3080 1.9230e+03     0.3828     -0.144     -0.209    23.3682 0.0000e+00
     -0.158     -0.049     7.7848     91.416     35.691  34.536950     0.7689      7.328   315.3503 1.9399e+03     0.3073     -0.155     -0.225    23.3718 0.0000e+00
     -0.167     -0.034     7.6883     90.286     35.717  34.562878     0.7609      7.330   315.4095 1.9359e+03     0.2735     -0.166     -0.240    23.3733 0.0000e+00
     -0.171     -0.019     7.5910     89.146     35.737  34.583134     0.7587      7.333   315.5933 1.9241e+03     0.2795     -0.169     -0.245    23.3751 0.0000e+00
     -0.171     -0.008     7.4994     88.072     35.745  34.591314     0.7513      7.335   315.7667 1.9175e+03     0.2880     -0.168     -0.244    23.3768 0.0000e+00
     -0.170     -0.002     7.4160     87.094     35.750  34.598253     0.7264      7.335   315.6993 1.9129e+03     0.3145     -0.166     -0.241    23.3780 0.0000e+00
     -0.169      0.003     7.3425     86.234     35.755  34.603517     0.7159      7.336   315.4658 1.9108e+03     0.3260     -0.166     -0.240    23.3793 0.0000e+00
     -0.168      0.006     7.2801     85.504     35.741  34.591447     0.7155      7.336   315.3525 1.9113e+03     0.3041     -0.166     -0.241    23.3803 0.0000e+00
     -0.167      0.008     7.2252     84.862     35.726  34.579359     0.7219      7.336   315.3622 1.9117e+03     0.2940     -0.163     -0.238    23.3815 0.0000e+00
     -0.165      0.009     7.1727     84.252     35.729  34.584404     0.7465      7.336   315.2397 1.9141e+03     0.2952     -0.161     -0.234    23.3831 0.0000e+00
     -0.163      0.007     7.1239     83.683     35.731  34.588928     0.7570      7.337   314.9889 1.9163e+03     0.2892     -0.161     -0.233    23.3846 0.0000e+00
     -0.159      0.004     7.0907     83.298     35.711  34.570545     0.7569      7.338   314.9976 1.9163e+03     0.2827     -0.157     -0.227    23.3864 0.0000e+00
     -0.154      0.003     7.0841     83.223     35.691  34.552700     0.7634      7.338   315.0876 1.9144e+03     0.2770     -0.148     -0.214    23.3892 0.0000e+00
     -0.154      0.003     7.1030     83.447     35.701  34.563718     0.7806      7.338   314.9579 1.9123e+03     0.3430     -0.147     -0.212    23.3920 0.0000e+00
     -0.160      0.004     7.1421     83.911     35.712  34.576723     0.8089      7.339   314.8055 1.9146e+03     0.5004     -0.158     -0.229    23.3955 0.0000e+00
     -0.164      0.006     7.1968     84.557     35.717  34.582913     0.8292      7.339   314.6216 1.9208e+03     0.5933     -0.165     -0.239    23.3987 0.0000e+00
     -0.161      0.011     7.2613     85.316     35.708  34.575036     0.8423      7.336   314.1111 1.9241e+03     0.5511     -0.159     -0.231    23.4004 0.0000e+00
     -0.153      0.020     7.3265     86.084     35.677  34.545010     0.8474      7.332   313.3651 1.9227e+03     0.4479     -0.150     -0.217    23.4018 0.0000e+00
     -0.145      0.035     7.3777     86.690     35.667  34.537457     0.8453      7.327   312.7431 1.9203e+03     0.3523     -0.142     -0.206    23.4042 0.0000e+00
     -0.140      0.050     7.3997     86.953     35.675  34.547234     0.8440      7.325   312.2700 1.9287e+03     0.3105     -0.139     -0.201    23.4067 0.0000e+00
     -0.131      0.064     7.3857     86.793     35.661  34.536196     0.8418      7.325   311.9461 1.9444e+03     0.3083     -0.133     -0.193    23.4076 0.0000e+00
     -0.111      0.076     7.3362     86.214     35.655  34.531027     0.8367      7.325   311.6659 1.9435e+03     0.3563     -0.112     -0.163    23.4073 0.0000e+00
     -0.083      0.086     7.2556     85.262     35.675  34.548254     0.8287      7.325   311.2911 1.9396e+03     0.4633     -0.081     -0.116    23.4108 0.0000e+00
     -0.054      0.094     7.1587     84.111     35.686  34.553931     0.8269      7.324   310.9423 1.9430e+03     0.5352     -0.052     -0.075    23.4152 0.0000e+00
     -0.029      0.097     7.0633     82.973     35.676  34.536136     0.8339      7.321   310.8048 1.9402e+03     0.5539     -0.028     -0.041    23.4167 0.0000e+00
     -0.006      0.095     6.9804     81.984     35.671  34.523642     0.8489      7.316   310.8333 1.9506e+03     0.5366     -0.006     -0.009    23.4196 0.0000e+00
      0.018      0.088     6.9303     81.383     35.683  34.529890     0.8700      7.314   310.7704 2.1302e+03     0.4785      0.018      0.026    23.4185 0.0000e+00
      0.043      0.079     6.9338     81.413     35.707  34.548155     0.8868      7.315   310.5599 2.2469e+03     0.4615      0.044      0.063    23.4091 0.0000e+00
      0.064      0.070     6.9914     82.076     35.719  34.553921     0.8968      7.316   310.0959 1.8695e+03     0.5145      0.064      0.093    23.3951 0.0000e+00
      0.081      0.062     7.0879     83.192     35.709  34.536079     0.8984      7.316   309.4615 1.4595e+03     0.5094      0.081      0.116    23.3841 0.0000e+00
      0.093      0.053     7.2009     84.502     35.703  34.522971     0.8965      7.316   309.0844 1.4805e+03     0.3990      0.092      0.133    23.3785 0.0000e+00
      0.102      0.047     7.3074     85.739     35.709  34.522461     0.9025      7.317   308.9779 1.7065e+03     0.3094      0.100      0.145    23.3719 0.0000e+00
      0.112      0.045     7.3882     86.681     35.720  34.529901     0.9065      7.317   308.8625 2.1443e+03     0.2814      0.109      0.158    23.3633 0.0000e+00
      0.123      0.045     7.4314     87.184     35.742  34.549409     0.8982      7.316   308.6351 2.4244e+03     0.2733      0.121      0.174    23.3521 0.0000e+00
      0.134      0.048     7.4298     87.159     35.763  34.567783     0.8937      7.316   308.4656 1.9832e+03     0.3023      0.132      0.190    23.3409 0.0000e+00
      0.147      0.054     7.3834     86.610     35.758  34.561490     0.8989      7.314   308.6189 1.4629e+03     0.3888      0.144      0.208    23.3325 0.0000e+00
      0.160      0.061     7.3041     85.679     35.733  34.536832     0.8965      7.306   308.9405 1.4426e+03     0.4638      0.158      0.230    23.3285 0.0000e+00
      0.175      0.069     7.2071     84.536     35.721  34.523722     0.8924      7.294   309.1712 1.4794e+03     0.5082      0.170      0.246    23.3292 0.0000e+00
      0.192      0.074     7.1001     83.275     35.731  34.530008     0.8952      7.284   309.3431 1.4939e+03     0.5596      0.186      0.269    23.3238 0.0000e+00
      0.216      0.079     6.9899     81.980     35.752  34.549319     0.8938      7.278   309.6416 1.6675e+03     0.5659      0.209      0.304    23.3198 0.0000e+00
      0.241      0.086     6.8882     80.788     35.770  34.566652     0.8938      7.272   310.2860 1.5927e+03     0.5237      0.238      0.346    23.3214 0.0000e+00
      0.263      0.094     6.8000     79.750     35.753  34.549018     0.9045      7.265   311.1113 1.2843e+03     0.5069      0.260      0.378    23.3190 0.0000e+00
      0.281      0.100     6.7242     78.858     35.732  34.526659     0.9124      7.258   311.7912 1.1912e+03     0.5150      0.273      0.395    23.3121 0.0000e+00
      0.304      0.102     6.6589     78.091     35.757  34.550381     0.9065      7.256   312.3976 1.2051e+03     0.4998      0.295      0.427    23.3100 0.0000e+00
      0.335      0.101     6.6014     77.417     35.790  34.581769     0.8985      7.257   313.0221 1.1137e+03     0.4756      0.327      0.475    23.3145 0.0000e+00
      0.369      0.099     6.5531     76.853     35.795  34.588576     0.8974      7.261   313.5773 1.1028e+03     0.4658      0.365      0.529    23.3105 0.0000e+00
      0.399      0.094     6.5186     76.451     35.773  34.569161     0.9028      7.267   314.0338 1.1200e+03     0.4735      0.393      0.571    23.3073 0.0000e+00
      0.420      0.086     6.5061     76.308     35.739  34.537582     0.9088      7.272   314.4990 9.7591e+02     0.4774      0.413      0.599    23.3080 0.0000e+00
      0.436      0.078     6.5213     76.487     35.725  34.524360     0.9053      7.276   315.0717 9.6881e+02     0.4518      0.429      0.623    23.3062 0.0000e+00
      0.451      0.074     6.5583     76.921     35.737  34.536334     0.8969      7.278   315.5377 1.4019e+03     0.4685      0.440      0.640    23.3089 0.0000e+00
      0.466      0.074     6.6071     77.492     35.757  34.555313     0.9090      7.278   315.9178 1.6296e+03     0.5278      0.456      0.662    23.3120 0.0000e+00
      0.485      0.078     6.6576     78.082     35.767  34.563273     0.9413      7.275   316.3980 1.4780e+03     0.5283      0.475      0.688    23.3146 0.0000e+00
      0.506      0.084     6.6989     78.562     35.776  34.569062     0.9649      7.270   316.7835 1.4167e+03     0.5039      0.495      0.719    23.3145 0.0000e+00
      0.530      0.089     6.7234     78.849     35.769  34.561784     0.9744      7.264   317.0512 1.4756e+03     0.5079      0.520      0.754    23.3128 0.0000e+00
      0.555      0.093     6.7334     78.967     35.744  34.538791     0.9733      7.258   317.3982 1.7786e+03     0.5149      0.544      0.787    23.3146 0.0000e+00
      0.580      0.097     6.7370     79.008     35.751  34.545134     0.9796      7.253   317.7948 1.7291e+03     0.5279      0.570      0.827    23.3118 0.0000e+00
      0.604      0.099     6.7397     79.033     35.786  34.574958     1.0132      7.249   318.1474 1.2730e+03     0.5429      0.594      0.861    23.3075 0.0000e+00
      0.629      0.101     6.7456     79.096     35.796  34.581784     1.0390      7.248   318.4774 1.1199e+03     0.5440      0.615      0.892    23.3069 0.0000e+00
      0.654      0.101     6.7609     79.272     35.779  34.564140     1.0346      7.248   318.8594 1.2503e+03     0.5407      0.642      0.931    23.3093 0.0000e+00
      0.682      0.102     6.7874     79.577     35.770  34.552185     1.0332      7.250   319.2387 1.2917e+03     0.5340      0.669      0.970    23.3102 0.0000e+00
      0.710      0.104     6.8208     79.948     35.792  34.564266     1.0410      7.252   319.4499 1.0476e+03     0.5245      0.697      1.011    23.3028 0.0000e+00
      0.735      0.107     6.8541     80.313     35.824  34.583161     1.0376      7.254   319.4339 7.8865e+02     0.5167      0.722      1.049    23.2979 0.0000e+00
      0.760      0.109     6.8785     80.578     35.841  34.590073     1.0284      7.259   319.3036 7.6536e+02     0.5008      0.744      1.078    23.2985 0.0000e+00
      0.787      0.111     6.8841     80.629     35.842  34.584300     1.0403      7.264   319.3374 9.6584e+02     0.4844      0.770      1.117    23.2969 0.0000e+00
      0.818      0.111     6.8698     80.447     35.842  34.576870     1.0707      7.268   319.4980 1.0761e+03     0.5020      0.802      1.164    23.2820 0.0000e+00
      0.850      0.110     6.8412     80.099     35.834  34.563752     1.0837      7.273   319.5247 8.9503e+02     0.5613      0.835      1.211    23.2599 0.0000e+00
      0.880      0.108     6.8018     79.628     35.828  34.552715     1.0783      7.278   319.6607 7.0911e+02     0.5908      0.864      1.253    23.2477 0.0000e+00
      0.907      0.106     6.7564     79.080     35.854  34.570455     1.0783      7.280   320.0235 6.7298e+02     0.5538      0.890      1.290    23.2417 0.0000e+00
      0.931      0.105     6.7118     78.535     35.884  34.587680     1.0846      7.280   320.2971 7.7610e+02     0.5107      0.913      1.325    23.2305 0.0000e+00
      0.953      0.106     6.6720     78.046     35.877  34.570403     1.0901      7.279   320.4738 9.1997e+02     0.4963      0.935      1.355    23.2190 0.0000e+00
      0.978      0.108     6.6380     77.621     35.872  34.552089     1.0892      7.277   320.6973 8.8798e+02     0.5018      0.957      1.387    23.2182 0.0000e+00
      1.008      0.109     6.6122     77.281     35.897  34.556791     1.0368      7.276   320.9350 7.4242e+02     0.5156      0.988      1.431    23.2069 0.0000e+00
      1.041      0.109     6.6004     77.085     35.867  34.500188     0.9433      7.277   321.1106 6.7045e+02     0.5416      1.023      1.483    23.1861 0.0000e+00
      1.072      0.107     6.6041     77.043     35.781  34.375821     0.8964      7.277   321.3573 6.9357e+02     0.5727      1.052      1.526    23.1740 0.0000e+00
      1.098      0.103     6.6296     77.214     35.724  34.259866     0.8930      7.276   321.6810 6.7337e+02     0.5860      1.078      1.564    23.1567 0.0000e+00
      1.123      0.098     6.6914     77.760     35.659  34.114387     0.8922      7.275   321.8414 6.1409e+02     0.5505      1.104      1.601    23.1324 0.0000e+00
      1.144      0.095     6.7949     78.771     35.583  33.950592     0.9144      7.275   321.9204 6.4651e+02     0.5087      1.122      1.626    23.0938 0.0000e+00
      1.165      0.094     6.9329     80.191     35.517  33.803702     0.9505      7.276   322.1193 6.9374e+02     0.5385      1.141      1.655    23.0395 0.0000e+00
      1.190      0.095     7.0945     81.895     35.457  33.672089     0.9605      7.277   322.3538 6.5782e+02     0.5757      1.167      1.693    22.9590 0.0000e+00
      1.216      0.098     7.2681     83.744     35.485  33.629489     0.9628      7.278   322.5187 6.2585e+02     0.5620      1.193      1.730    22.8304 0.0000e+00
      1.241      0.103     7.4366     85.532     35.665  33.733148     0.9693      7.277   322.6506 6.6040e+02     0.5246      1.218      1.766    22.6948 0.0000e+00
      1.267      0.107     7.5854     87.091     35.988  33.972579     0.9653      7.278   322.7438 7.0195e+02     0.4897      1.242      1.801    22.5787 0.0000e+00
      1.294      0.109     7.7088     88.358     36.405  34.301253     0.9685      7.283   322.8713 6.6932e+02     0.5063      1.269      1.840    22.4736 0.0000e+00
      1.323      0.110     7.8010     89.269     36.782  34.594666     0.9813      7.296   322.9874 6.2737e+02     0.5419      1.295      1.879    22.3812 0.0000e+00
      1.354      0.110     7.8615     89.815     36.987  34.725312     0.9917      7.314   322.9433 6.4415e+02     0.5236      1.328      1.926    22.2866 0.0000e+00
      1.384      0.109     7.8978     90.076     37.138  34.800979     1.0110      7.330   322.9405 6.0124e+02     0.4996      1.359      1.971    22.1940 0.0000e+00
      1.410      0.108     7.9229     90.206     37.423  35.001298     1.0313      7.338   323.2974 5.2777e+02     0.4948      1.382      2.005    22.1056 0.0000e+00
      1.436      0.107     7.9529     90.391     37.753  35.241650     1.0343      7.334   323.8162 5.3161e+02     0.4967      1.408      2.042    22.0203 0.0000e+00
      1.461      0.107     8.0029     90.792     37.953  35.356710     1.0104      7.324   324.1376 5.4632e+02     0.5523      1.434      2.079    21.9411 0.0000e+00
      1.487      0.107     8.0776     91.457     37.989  35.312514     0.9726      7.314   324.3442 5.2408e+02     0.6492      1.457      2.114    21.8488 0.0000e+00
      1.516      0.106     8.1646     92.238     37.908  35.151819     0.9543      7.306   324.5076 5.2267e+02     0.7222      1.486      2.155    21.7576 0.0000e+00
      1.546      0.104     8.2475     92.951     37.779  34.938144     0.9538      7.299   324.4780 5.3459e+02     0.7622      1.518      2.201    21.6724 0.0000e+00
      1.574      0.099     8.3194     93.549     37.683  34.761523     0.9758      7.293   324.3304 5.1972e+02     0.8889      1.546      2.242    21.5762 0.0000e+00
      1.599      0.094     8.3868     94.125     37.662  34.667707     1.0186      7.287   324.4441 4.8413e+02     1.0951      1.568      2.275    21.4750 0.0000e+00
      1.621      0.089     8.4635     94.834     37.688  34.629475     1.0389      7.281   324.8197 4.5828e+02     1.1803      1.590      2.307    21.3660 0.0000e+00
      1.642      0.085     8.5608     95.802     37.658  34.553250     1.0375      7.276   325.0864 4.6395e+02     1.1858      1.611      2.337    21.2319 0.0000e+00
      1.660      0.082     8.6874     97.094     37.385  34.254172     1.0299      7.271   325.2596 4.7093e+02     1.1929      1.628      2.361    21.1085 0.0000e+00
      1.679      0.082     8.8481     98.709     36.973  33.808080     1.0015      7.267   325.5381 4.5168e+02     1.1747      1.645      2.386    21.0175 0.0000e+00
      1.701      0.083     9.0277    100.475     36.708  33.478692     0.9705      7.265   325.7857 4.7873e+02     1.1800      1.668      2.420    20.9289 0.0000e+00
      1.724      0.083     9.1922    102.054     36.565  33.256727     0.9583      7.265   325.9307 5.2473e+02     1.1953      1.692      2.454    20.8705 0.0000e+00
      1.746      0.083     9.3169    103.188     36.415  33.029658     0.9548      7.266   326.0006 4.7974e+02     1.2073      1.713      2.484    20.8225 0.0000e+00
      1.768      0.082     9.4004    103.854     36.225  32.765566     0.9558      7.267   325.9427 4.3207e+02     1.3250      1.735      2.516    20.7257 0.0000e+00
      1.788      0.080     9.4476    104.124     36.003  32.477016     0.9704      7.268   325.9190 4.2518e+02     1.5196      1.754      2.544    20.5959 0.0000e+00
      1.808      0.078     9.4571    104.011     35.718  32.144752     0.9844      7.270   326.0571 4.0653e+02     1.6066      1.772      2.570    20.4671 0.0000e+00
      1.828      0.077     9.4370    103.583     35.268  31.669642     0.9782      7.275   326.2366 3.9079e+02     1.6141      1.794      2.602    20.3503 0.0000e+00
      1.847      0.077     9.4075    103.023     34.739  31.114646     0.9866      7.284   326.2824 3.8470e+02     1.6709      1.812      2.627    20.2206 0.0000e+00
      1.865      0.077     9.3867    102.525     34.384  30.705513     1.0220      7.301   326.1809 3.6789e+02     1.7754      1.829      2.652    20.0883 0.0000e+00
      1.885      0.078     9.3887    102.268     34.224  30.469722     1.0389      7.334   326.1275 3.7267e+02     1.8392      1.849      2.681    19.9906 0.0000e+00
      1.905      0.081     9.4212    102.360     34.127  30.295812     1.0339      7.391   326.0669 3.9699e+02     1.8324      1.868      2.710    19.8997 0.0000e+00
      1.925      0.084     9.4816    102.765     34.029  30.126826     1.0443      7.464   325.7060 3.8779e+02     1.8762      1.888      2.738    19.7846 0.0000e+00
      1.946      0.087     9.5652    103.426     33.920  29.950546     1.0726      7.541   325.1195 3.8185e+02     2.0034      1.908      2.767    19.6476 0.0000e+00
      1.969      0.090     9.6757    104.401     33.847  29.815451     1.0917      7.620   324.5676 3.8710e+02     2.0577      1.930      2.799    19.5062 0.0000e+00
      1.994      0.091     9.8264    105.846     33.780  29.699910     1.1004      7.700   324.1102 3.9145e+02     2.0133      1.956      2.836    19.3801 0.0000e+00
      2.018      0.091    10.0291    107.839     33.699  29.569547     1.1603      7.776   323.7187 3.9960e+02     1.9848      1.980      2.871    19.2626 0.0000e+00
      2.042      0.089    10.2734    110.211     33.645  29.445743     1.2821      7.851   323.3617 3.8243e+02     2.0188      2.002      2.904    19.1389 0.0000e+00
      2.066      0.085    10.5435    112.790     33.491  29.218968     1.3601      7.926   322.5473 3.6124e+02     2.0579      2.027      2.941    19.0283 0.0000e+00
      2.088      0.082    10.8370    115.569     33.269  28.923094     1.3684      7.992   321.0993 3.5003e+02     2.0313      2.049      2.972    18.9574 0.0000e+00
      2.107      0.081    11.1465    118.515     33.154  28.725832     1.3642      8.041   319.6199 3.4958e+02     2.0014      2.066      2.997    18.8814 0.0000e+00
      2.124      0.081    11.4604    121.537     33.046  28.548314     1.3645      8.075   317.6514 3.4706e+02     1.9716      2.083      3.021    18.7634 0.0000e+00
      2.142      0.082    11.7672    124.474     32.928  28.364153     1.3622      8.103   314.9370 3.2618e+02     1.8849      2.099      3.044    18.6239 0.0000e+00
      2.164      0.084    12.0523    127.109     32.864  28.213578     1.3544      8.132   312.7836 3.1764e+02     1.8077      2.121      3.077    18.4616 0.0000e+00
      2.188      0.087    12.2945    129.196     32.821  28.061094     1.3442      8.164   311.5767 3.2133e+02     1.8004      2.146      3.113    18.3062 0.0000e+00
      2.212      0.090    12.4770    130.592     32.801  27.917326     1.3123      8.200   310.6688 3.1647e+02     1.8274      2.170      3.147    18.1893 0.0000e+00
      2.236      0.091    12.5939    131.320     32.815  27.808614     1.2628      8.241   309.8943 2.9458e+02     1.8286      2.193      3.180    18.0747 0.0000e+00
      2.258      0.090    12.6421    131.411     32.877  27.762492     1.2423      8.283   309.4396 2.6964e+02     1.8152      2.214      3.211    17.9329 0.0000e+00
      2.281      0.090    12.6375    131.029     32.947  27.740545     1.2386      8.318   308.6983 2.5970e+02     1.8185      2.236      3.242    17.7528 0.0000e+00
      2.304      0.091    12.6144    130.509     32.944  27.670148     1.1626      8.343   307.2985 2.5236e+02     1.8680      2.261      3.279    17.5468 0.0000e+00
      2.327      0.092    12.5985    130.099     32.790  27.482722     1.0317      8.363   305.9368 2.4346e+02     1.9557      2.282      3.310    17.3543 0.0000e+00
      2.350      0.093    12.6062    129.936     32.433  27.125259     0.9704      8.385   304.4522 2.3916e+02     2.0249      2.302      3.339    17.2069 0.0000e+00
      2.375      0.093    12.6451    130.061     32.018  26.713351     0.9728      8.410   302.8553 2.3907e+02     2.0634      2.328      3.378    17.0893 0.0000e+00
      2.400      0.094    12.7041    130.371     31.772  26.439047     0.9692      8.435   301.7722 2.3938e+02     2.0855      2.354      3.414    16.9849 0.0000e+00
      2.423      0.094    12.7681    130.748     31.741  26.348395     0.9622      8.457   301.3374 2.2937e+02     2.1092      2.376      3.446    16.9020 0.0000e+00
      2.446      0.093    12.8282    131.124     31.845  26.379143     0.9627      8.472   301.2976 2.1667e+02     2.1360      2.398      3.478    16.8176 0.0000e+00
      2.470      0.091    12.8817    131.464     31.963  26.429779     0.9572      8.477   301.2055 2.1573e+02     2.1359      2.422      3.512    16.7156 0.0000e+00
      2.495      0.087    12.9318    131.794     32.041  26.452624     0.8768      8.473   300.7397 2.1581e+02     1.9856      2.448      3.551    16.6004 0.0000e+00
      2.519      0.083    12.9849    132.157     32.183  26.528317     0.7348      8.458   299.9673 2.0932e+02     1.7219      2.471      3.585    16.4948 0.0000e+00
      2.539      0.078    13.0377    132.500     32.768  26.963959     0.6649      8.434   299.4384 2.0402e+02     1.6028      2.490      3.611    16.4112 0.0000e+00
      2.557      0.074    13.0768    132.699     33.899  27.846577     0.6659      8.404   299.0773 2.0060e+02     1.6139      2.507      3.637    16.3360 0.0000e+00
      2.574      0.071    13.0831    132.587     35.135  28.818203     0.6724      8.368   298.2683 1.9786e+02     1.6119      2.524      3.661    16.2746 0.0000e+00
      2.590      0.070    13.0226    131.840     37.332  30.583787     0.7999      8.325   297.2276 1.9402e+02     1.6097      2.540      3.684    16.2146 0.0000e+00
      2.607      0.070    12.8606    130.096     43.426  35.539975     1.0582      8.277   296.5614 1.8893e+02     1.6172      2.557      3.708    16.1427 0.0000e+00
      2.625      0.069    12.5743    127.079     52.999  43.323510     1.2135      8.225   296.3219 1.8244e+02     1.6108      2.574      3.734    16.0681 0.0000e+00
      2.645      0.066    12.1584    122.709     60.607  49.466291     1.2338      8.171   296.1394 1.8035e+02     1.6549      2.594      3.763    16.0029 0.0000e+00
      2.665      0.060    11.6110    117.014     65.120  53.061631     1.1838      8.116   295.8173 1.8368e+02     2.2123      2.615      3.794    15.9555 0.0000e+00
      2.681      0.053    10.9157    109.887     71.189  57.933103     1.0784      8.061   295.3520 1.8478e+02     3.2227      2.631      3.816    15.9240 0.0000e+00
      2.693      0.044    10.0519    101.118     79.154  64.360686     1.0341      8.004   294.6438 1.8412e+02     3.7694      2.642      3.832    15.8850 0.0000e+00
      2.701      0.035     9.0365     90.848     85.411  69.399748     1.2276      7.945   293.8800 1.8172e+02     3.8785      2.650      3.844    15.8120 0.0000e+00
      2.707      0.028     7.9361     79.736     89.036  72.292000     3.3539      7.889   293.3442 1.8034e+02     4.5726      2.655      3.850    15.7310 0.0000e+00
      2.713      0.022     6.7906     68.177     88.397  71.713642     7.2334      7.839   293.1560 1.8175e+02     5.7834      2.661      3.859    15.6820 0.0000e+00
      2.718      0.018     5.6841     57.028     82.868  67.178180     9.3422      7.796   293.2385 1.8534e+02     6.3716      2.667      3.866    15.6534 0.0000e+00
      2.722      0.016     5.1617     51.772     79.241  64.219380     9.5151      7.776   293.3094 1.8497e+02     6.3748      2.670      3.873    15.6228 0.0000e+00
      2.726 -9.990e-29 -9.990e-29 -9.990e-29 -9.990e-29 -9.990e-29 -9.990e-29 -9.990e-29 -9.990e-29 1.8165e+02 -9.990e-29      2.673      3.878    15.5985 0.0000e+00
      2.728 -9.990e-29 -9.990e-29 -9.990e-29 -9.990e-29 -9.990e-29 -9.990e-29 -9.990e-29 -9.990e-29 1.8282e+02 -9.990e-29      2.675      3.879    15.5578 0.0000e+00
      2.729 -9.990e-29 -9.990e-29 -9.990e-29 -9.990e-29 -9.990e-29 -9.990e-29 -9.990e-29 -9.990e-29 1.8382e+02 -9.990e-29      2.676      3.881    15.5185 0.0000e+00
      2.729 -9.990e-29 -9.990e-29 -9.990e-29 -9.990e-29 -9.990e-29 -9.990e-29 -9.990e-29 -9.990e-29 1.8325e+02 -9.990e-29      2.677      3.882    15.5115 0.0000e+00
