* Sea-Bird SBE19plus  Data File:
* FileName = C:\R\Reservoirs\Data\DataNotYetUploadedToEDI\Raw_CTD\RawDownloads\052724_bvr50_S7809_0002.hex
* Software version 2.8.0.119
* Temperature SN = 7809
* Conductivity SN = 7809
* System UpLoad Time = Jun 04 2024 12:20:25
* <ApplicationData>
* <Seaterm232>
* <SoftwareVersion>2.8.0.119</SoftwareVersion>
* <BuildDate>07-Nov-2018</BuildDate>
* </Seaterm232>
* </ApplicationData>
* <InstrumentState>
* <HardwareData DeviceType='SBE19plus' SerialNumber='01907809'>
*
*    <Manufacturer>Sea-Bird Electronics, Inc.</Manufacturer>
*
*    <FirmwareVersion>3.1.8</FirmwareVersion>
*
*    <FirmwareDate>Mar  9 2016 16:22:29</FirmwareDate>
*
*    <CommandSetVersion>1.4</CommandSetVersion>
*
*    <PCBAssembly PCBSerialNum='120721' AssemblyNum='41054J'/>
*
*    <PCBAssembly PCBSerialNum='120715' AssemblyNum='41967A'/>
*
*    <PCBAssembly PCBSerialNum='116699' AssemblyNum='41606'/>
*
*    <PCBAssembly PCBSerialNum='120719' AssemblyNum='41059D'/>
*
*    <MfgDate>28-Apr-2017</MfgDate>
*
*    <InternalSensors>
*
*       <Sensor id='Main Temperature'>
*
*          <type>temperature0</type>
*
*          <SerialNumber>01907809</SerialNumber>
*
*       </Sensor>
*
*       <Sensor id='Main Conductivity'>
*
*          <type>conductivity-0</type>
*
*          <SerialNumber>01907809</SerialNumber>
*
*       </Sensor>
*
*       <Sensor id='Main Pressure'>
*
*          <type>strain-0</type>
*
*          <SerialNumber>10586018</SerialNumber>
*
*       </Sensor>
*
*    </InternalSensors>
*
*    <ExternalSensors>
*
*       <Sensor id='volt 0'>
*
*          <type>pH</type>
*
*          <SerialNumber>27-0363</SerialNumber>
*
*       </Sensor>
*
*       <Sensor id='volt 1'>
*
*          <type>ORP</type>
*
*          <SerialNumber>27-0363</SerialNumber>
*
*       </Sensor>
*
*       <Sensor id='volt 2'>
*
*          <type>OXY</type>
*
*          <SerialNumber>43-0434</SerialNumber>
*
*       </Sensor>
*
*       <Sensor id='volt 3'>
*
*          <type>PAR</type>
*
*          <SerialNumber>1122</SerialNumber>
*
*       </Sensor>
*
*       <Sensor id='volt 4'>
*
*          <type>ECO AFL/FL</type>
*
*          <SerialNumber>FLNTURT-2496</SerialNumber>
*
*       </Sensor>
*
*       <Sensor id='volt 5'>
*
*          <type>ECO-NTU</type>
*
*          <SerialNumber>FLNTURT-2496</SerialNumber>
*
*       </Sensor>
*
*       <Sensor id='serial'>
*
*          <type>not assigned</type>
*
*          <SerialNumber>not assigned</SerialNumber>
*
*       </Sensor>
*
*    </ExternalSensors>
*
* </HardwareData>
* <StatusData DeviceType='SBE19plus' SerialNumber='01907809'>
*
*    <DateTime>2024-06-04T12:18:54</DateTime>
*
*    <LoggingState>not logging</LoggingState>
*
*    <EventSummary numEvents='0'/>
*
*    <Power>
*
*       <vMain>12.8</vMain>
*
*       <vLith>8.4</vLith>
*
*       <iMain>63.0</iMain>
*
*       <iPump>46.1</iPump>
*
*       <iExt01>20.3</iExt01>
*
*       <iExt2345>36.8</iExt2345>
*
*    </Power>
*
*    <MemorySummary>
*
*       <Bytes>337272</Bytes>
*
*       <Samples>14664</Samples>
*
*       <SamplesFree>2846124</SamplesFree>
*
*       <SampleLength>23</SampleLength>
*
*       <Profiles>11</Profiles>
*
*    </MemorySummary>
*
* </StatusData>
* <ConfigurationData DeviceType='SBE19plus' SerialNumber='01907809'>
*
*    <ProfileMode>
*
*       <ScansToAverage>1</ScansToAverage>
*
*       <MinimumCondFreq>0</MinimumCondFreq>
*
*       <PumpDelay>45</PumpDelay>
*
*       <AutoRun>no</AutoRun>
*
*       <IgnoreSwitch>no</IgnoreSwitch>
*
*    </ProfileMode>
*
*    <Battery>
*
*       <Type>alkaline</Type>
*
*       <CutOff>7.5</CutOff>
*
*    </Battery>
*
*    <DataChannels>
*
*       <ExtVolt0>yes</ExtVolt0>
*
*       <ExtVolt1>yes</ExtVolt1>
*
*       <ExtVolt2>yes</ExtVolt2>
*
*       <ExtVolt3>yes</ExtVolt3>
*
*       <ExtVolt4>yes</ExtVolt4>
*
*       <ExtVolt5>yes</ExtVolt5>
*
*       <SBE38>no</SBE38>
*
*       <WETLABS>no</WETLABS>
*
*       <OPTODE>no</OPTODE>
*
*       <SBE63>no</SBE63>
*
*       <SeaFET>no</SeaFET>
*
*       <GTD>no</GTD>
*
*    </DataChannels>
*
*    <EchoCharacters>yes</EchoCharacters>
*
*    <OutputExecutedTag>yes</OutputExecutedTag>
*
*    <OutputFormat>raw HEX</OutputFormat>
*
* </ConfigurationData>
* <CalibrationCoefficients DeviceType='SBE19plus' SerialNumber='01907809'>
*
*    <Calibration format='TEMP1' id='Main Temperature'>
*
*       <SerialNum>01907809</SerialNum>
*
*       <CalDate>31-Jan-23</CalDate>
*
*       <TA0>1.218232e-03</TA0>
*
*       <TA1>2.815090e-04</TA1>
*
*       <TA2>-1.578887e-06</TA2>
*
*       <TA3>1.972343e-07</TA3>
*
*       <TOFFSET>0.000000e+00</TOFFSET>
*
*    </Calibration>
*
*    <Calibration format='WBCOND0' id='Main Conductivity'>
*
*       <SerialNum>01907809</SerialNum>
*
*       <CalDate>31-Jan-23</CalDate>
*
*       <G>-1.005652e+00</G>
*
*       <H>1.267963e-01</H>
*
*       <I>-1.561708e-04</I>
*
*       <J>2.645944e-05</J>
*
*       <CPCOR>-9.570000e-08</CPCOR>
*
*       <CTCOR>3.250000e-06</CTCOR>
*
*       <CSLOPE>1.000000e+00</CSLOPE>
*
*    </Calibration>
*
*    <Calibration format='STRAIN0' id='Main Pressure'>
*
*       <SerialNum>10586018</SerialNum>
*
*       <CalDate>20-Jan-23</CalDate>
*
*       <PA0>4.416439e-02</PA0>
*
*       <PA1>4.850502e-04</PA1>
*
*       <PA2>-3.090426e-12</PA2>
*
*       <PTCA0>5.254757e+05</PTCA0>
*
*       <PTCA1>1.050255e+01</PTCA1>
*
*       <PTCA2>-2.922435e-01</PTCA2>
*
*       <PTCB0>2.516687e+01</PTCB0>
*
*       <PTCB1>3.750000e-04</PTCB1>
*
*       <PTCB2>0.000000e+00</PTCB2>
*
*       <PTEMPA0>-5.470820e+01</PTEMPA0>
*
*       <PTEMPA1>5.485421e+01</PTEMPA1>
*
*       <PTEMPA2>-3.446578e-01</PTEMPA2>
*
*       <POFFSET>8.500000e-01</POFFSET>
*
*       <PRANGE>1.600000e+02</PRANGE>
*
*    </Calibration>
*
*    <Calibration format='VOLT0' id='Volt 0'>
*
*       <OFFSET>-4.920000e-02</OFFSET>
*
*       <SLOPE>1.248122e+00</SLOPE>
*
*    </Calibration>
*
*    <Calibration format='VOLT0' id='Volt 1'>
*
*       <OFFSET>-4.784000e-02</OFFSET>
*
*       <SLOPE>1.248871e+00</SLOPE>
*
*    </Calibration>
*
*    <Calibration format='VOLT0' id='Volt 2'>
*
*       <OFFSET>-4.864632e-02</OFFSET>
*
*       <SLOPE>1.248714e+00</SLOPE>
*
*    </Calibration>
*
*    <Calibration format='VOLT0' id='Volt 3'>
*
*       <OFFSET>-4.743790e-02</OFFSET>
*
*       <SLOPE>1.248571e+00</SLOPE>
*
*    </Calibration>
*
*    <Calibration format='VOLT0' id='Volt 4'>
*
*       <OFFSET>-4.671263e-02</OFFSET>
*
*       <SLOPE>1.248951e+00</SLOPE>
*
*    </Calibration>
*
*    <Calibration format='VOLT0' id='Volt 5'>
*
*       <OFFSET>-4.871053e-02</OFFSET>
*
*       <SLOPE>1.249136e+00</SLOPE>
*
*    </Calibration>
*
*    <Calibration format='FREQ0' id='external frequency channel'>
*
*       <EXTFREQSF>1.000014e+00</EXTFREQSF>
*
*    </Calibration>
*
* </CalibrationCoefficients>
* <EventCounters DeviceType='SBE19plus' SerialNumber='01907809'>
*
*    <EventSummary numEvents='0'/>
*
* </EventCounters></InstrumentState>
* <Headers>
*
* cast   2 27 May 2024 13:20:31 samples 1186 to 2276, avg = 1, stop = mag switch
*
# nquan = 15
# nvalues = 1091                        
# units = specified
# name 0 = depFM: Depth [fresh water, m]
# name 1 = dz/dtM: Descent Rate [m/s]
# name 2 = sbeox0Mg/L: Oxygen, SBE 43 [mg/l]
# name 3 = sbeox0PS: Oxygen, SBE 43 [% saturation]
# name 4 = specc: Specific Conductance [uS/cm]
# name 5 = c0uS/cm: Conductivity [uS/cm]
# name 6 = flECO-AFL: Fluorescence, WET Labs ECO-AFL/FL [mg/m^3]
# name 7 = ph: pH
# name 8 = orp: Oxidation Reduction Potential [mV]
# name 9 = par/sat/log: PAR/Logarithmic, Satlantic
# name 10 = turbWETntu0: Turbidity, WET Labs ECO [NTU]
# name 11 = prdM: Pressure, Strain Gauge [db]
# name 12 = prdE: Pressure, Strain Gauge [psi]
# name 13 = tv290C: Temperature [ITS-90, deg C]
# name 14 = flag:  0.000e+00
# span 0 =     -0.744,      1.934       
# span 1 =     -0.369,      0.189       
# span 2 =     0.9970,     8.9590       
# span 3 =     11.627,    107.907       
# span 4 =      0.698,     45.980       
# span 5 =   0.746743,  40.937800       
# span 6 =    -0.1120,   147.2162       
# span 7 =     -1.974,      7.961       
# span 8 = -1240.7455,   307.2134       
# span 9 = 6.7971e+01, 2.1069e+03       
# span 10 =     1.0004,   124.7447      
# span 11 =     -0.730,      1.899      
# span 12 =     -1.059,      2.754      
# span 13 =    19.4202,    28.4368      
# span 14 = 0.0000e+00, 0.0000e+00      
# interval = seconds: 0.25
# start_time = May 27 2024 13:20:31 [Instrument's time stamp, header]
# bad_flag = -9.990e-29
# <Sensors count="9" >
#   <sensor Channel="1" >
#     <!-- Count, Temperature -->
#     <TemperatureSensor SensorID="58" >
#       <SerialNumber>7809</SerialNumber>
#       <CalibrationDate>31-Jan-23</CalibrationDate>
#       <A0>1.21823180e-003</A0>
#       <A1>2.81508993e-004</A1>
#       <A2>-1.57888696e-006</A2>
#       <A3>1.97234302e-007</A3>
#       <Slope>1.00000000</Slope>
#       <Offset>0.0000</Offset>
#     </TemperatureSensor>
#   </sensor>
#   <sensor Channel="2" >
#     <!-- Frequency 0, Conductivity -->
#     <ConductivitySensor SensorID="3" >
#       <SerialNumber>7809</SerialNumber>
#       <CalibrationDate>31-Jan-23</CalibrationDate>
#       <UseG_J>1</UseG_J>
#       <!-- Cell const and series R are applicable only for wide range sensors. -->
#       <SeriesR>0.0000</SeriesR>
#       <CellConst>2000.0000</CellConst>
#       <ConductivityType>0</ConductivityType>
#       <Coefficients equation="0" >
#         <A>0.00000000e+000</A>
#         <B>0.00000000e+000</B>
#         <C>0.00000000e+000</C>
#         <D>0.00000000e+000</D>
#         <M>0.0</M>
#         <CPcor>-9.57000000e-008</CPcor>
#       </Coefficients>
#       <Coefficients equation="1" >
#         <G>-1.00565232e+000</G>
#         <H>1.26796307e-001</H>
#         <I>-1.56170788e-004</I>
#         <J>2.64594368e-005</J>
#         <CPcor>-9.57000000e-008</CPcor>
#         <CTcor>3.2500e-006</CTcor>
#         <!-- WBOTC not applicable unless ConductivityType = 1. -->
#         <WBOTC>0.00000000e+000</WBOTC>
#       </Coefficients>
#       <Slope>1.00000000</Slope>
#       <Offset>0.00000</Offset>
#     </ConductivitySensor>
#   </sensor>
#   <sensor Channel="3" >
#     <!-- Count, Pressure, Strain Gauge -->
#     <PressureSensor SensorID="46" >
#       <SerialNumber>7809</SerialNumber>
#       <CalibrationDate>20-Jan-23</CalibrationDate>
#       <PA0>4.41643944e-002</PA0>
#       <PA1>4.85050239e-004</PA1>
#       <PA2>-3.09042623e-012</PA2>
#       <PTEMPA0>-5.47081996e+001</PTEMPA0>
#       <PTEMPA1>5.48542136e+001</PTEMPA1>
#       <PTEMPA2>-3.44657813e-001</PTEMPA2>
#       <PTCA0>5.25475731e+005</PTCA0>
#       <PTCA1>1.05025484e+001</PTCA1>
#       <PTCA2>-2.92243463e-001</PTCA2>
#       <PTCB0>2.51668750e+001</PTCB0>
#       <PTCB1>3.75000000e-004</PTCB1>
#       <PTCB2>0.00000000e+000</PTCB2>
#       <Offset>0.000000</Offset>
#     </PressureSensor>
#   </sensor>
#   <sensor Channel="4" >
#     <!-- A/D voltage 0, Oxygen, SBE 43 -->
#     <OxygenSensor SensorID="38" >
#       <SerialNumber>0434</SerialNumber>
#       <CalibrationDate>18-Feb-23</CalibrationDate>
#       <Use2007Equation>1</Use2007Equation>
#       <CalibrationCoefficients equation="0" >
#         <!-- Coefficients for Owens-Millard equation. -->
#         <Boc>0.0000</Boc>
#         <Soc>0.0000e+000</Soc>
#         <offset>0.0000</offset>
#         <Pcor>0.00e+000</Pcor>
#         <Tcor>0.0000</Tcor>
#         <Tau>0.0</Tau>
#       </CalibrationCoefficients>
#       <CalibrationCoefficients equation="1" >
#         <!-- Coefficients for Sea-Bird equation - SBE calibration in 2007 and later. -->
#         <Soc>5.1878e-001</Soc>
#         <offset>-0.5046</offset>
#         <A>-4.2788e-003</A>
#         <B> 1.5372e-004</B>
#         <C>-2.1853e-006</C>
#         <D0> 2.5826e+000</D0>
#         <D1> 1.92634e-004</D1>
#         <D2>-4.64803e-002</D2>
#         <E> 3.6000e-002</E>
#         <Tau20> 0.9900</Tau20>
#         <H1>-3.3000e-002</H1>
#         <H2> 5.0000e+003</H2>
#         <H3> 1.4500e+003</H3>
#       </CalibrationCoefficients>
#     </OxygenSensor>
#   </sensor>
#   <sensor Channel="5" >
#     <!-- A/D voltage 1, PAR/Logarithmic, Satlantic -->
#     <PARLog_SatlanticSensor SensorID="76" >
#       <SerialNumber>1122</SerialNumber>
#       <CalibrationDate>08-Sep-2021</CalibrationDate>
#       <a0>9.6751e-001</a0>
#       <a1>8.0992e-001</a1>
#       <Im>1.3589e+000</Im>
#       <Multiplier>1.0000e+000</Multiplier>
#     </PARLog_SatlanticSensor>
#   </sensor>
#   <sensor Channel="6" >
#     <!-- A/D voltage 2, pH -->
#     <pH_Sensor SensorID="43" >
#       <SerialNumber>0363</SerialNumber>
#       <CalibrationDate>28-Feb-23</CalibrationDate>
#       <Slope>4.7364</Slope>
#       <Offset>2.5433</Offset>
#     </pH_Sensor>
#   </sensor>
#   <sensor Channel="7" >
#     <!-- A/D voltage 3, Oxidation Reduction Potential -->
#     <OxidationReductionPotentialSensor SensorID="41" >
#       <SerialNumber>0363</SerialNumber>
#       <CalibrationDate>28-Feb-23</CalibrationDate>
#       <B>2.499480</B>
#       <M>-0.496195</M>
#       <Offset>0.0</Offset>
#     </OxidationReductionPotentialSensor>
#   </sensor>
#   <sensor Channel="8" >
#     <!-- A/D voltage 4, Fluorometer, WET Labs ECO-AFL/FL -->
#     <FluoroWetlabECO_AFL_FL_Sensor SensorID="20" >
#       <SerialNumber>FLNTURT-2496</SerialNumber>
#       <CalibrationDate>02-Sep-2021</CalibrationDate>
#       <ScaleFactor>4.80000000e+001</ScaleFactor>
#       <!-- Dark output -->
#       <Vblank>0.0550</Vblank>
#     </FluoroWetlabECO_AFL_FL_Sensor>
#   </sensor>
#   <sensor Channel="9" >
#     <!-- A/D voltage 5, Turbidity Meter, WET Labs, ECO-NTU -->
#     <TurbidityMeter SensorID="67" >
#       <SerialNumber>FLNTURT--2496</SerialNumber>
#       <CalibrationDate>02-Sep-2021</CalibrationDate>
#       <ScaleFactor>197.000000</ScaleFactor>
#       <!-- Dark output -->
#       <DarkVoltage>0.070000</DarkVoltage>
#     </TurbidityMeter>
#   </sensor>
# </Sensors>
# datcnv_date = Jun 04 2024 12:35:57, 7.26.7.129 [datcnv_vars = 14]
# datcnv_in = C:\R\Reservoirs\Data\DataNotYetUploadedToEDI\Raw_CTD\RawDownloads\052724_fcr10_S7809002.hex C:\R\Reservoirs\Data\DataNotYetUploadedToEDI\Raw_CTD\RawDownloads\SBE19plusV2_7809_start20230701.xmlcon
# datcnv_skipover = 0
# datcnv_ox_hysteresis_correction = yes
# datcnv_ox_tau_correction = yes
# filter_date = Jun 04 2024 12:36:27, 7.26.7.129
# filter_in = C:\R\Reservoirs\Data\DataNotYetUploadedToEDI\Raw_CTD\RawDownloads\052724_fcr10_S7809002.cnv
# filter_low_pass_tc_A = 0.030
# filter_low_pass_tc_B = 0.150
# filter_low_pass_A_vars = sbeox0Mg/L prdM prdE tv290C
# filter_low_pass_B_vars = depFM dz/dtM sbeox0PS specc c0uS/cm flECO-AFL ph orp par/sat/log turbWETntu0
# alignctd_date = Jun 04 2024 12:36:52, 7.26.7.129
# alignctd_in = C:\R\Reservoirs\Data\DataNotYetUploadedToEDI\Raw_CTD\RawDownloads\052724_fcr10_S7809002.cnv
# alignctd_adv = dz/dtM 1.000, sbeox0PS 1.000, specc 1.000, c0uS/cm 1.000, flECO-AFL 1.000, ph 1.000, orp 1.000, turbWETntu0 1.000                                                                                                   
# file_type = ascii
*END*
     -0.744 2.9403e-16     7.1428     91.956      0.710   0.759304    -0.0566     -1.973 -1240.7455 3.4342e+02     1.3326     -0.729     -1.058    28.4368 0.0000e+00
     -0.744 3.4082e-15     7.1428     91.970      0.710   0.759304    -0.0661     -1.973 -1240.7455 3.0498e+02     1.2439     -0.729     -1.058    28.4358 0.0000e+00
     -0.744 3.7506e-14     7.1432     91.979      0.710   0.759303    -0.0646     -1.973 -1240.7455 2.5033e+02     1.2230     -0.729     -1.058    28.4352 0.0000e+00
     -0.744 4.1256e-13     7.1435     91.979      0.710   0.759295    -0.0724     -1.973 -1240.7455 2.0570e+02     1.1493     -0.729     -1.058    28.4351 0.0000e+00
     -0.743 4.5382e-12     7.1412     91.992      0.710   0.759200    -0.0771     -1.973 -1240.7455 1.7828e+02     1.0697     -0.729     -1.057    28.4350 0.0000e+00
     -0.743 4.9920e-11     7.1440     92.000      0.709   0.758162    -0.0710     -1.973 -1240.7455 1.7108e+02     1.0461     -0.729     -1.057    28.4352 0.0000e+00
     -0.743 5.4912e-10     7.1450     92.004      0.698   0.746743    -0.0564     -1.973 -1240.7455 1.7317e+02     1.0347     -0.730     -1.058    28.4353 0.0000e+00
     -0.743 6.0403e-09     7.1430     92.005      0.699   0.747813    -0.0509     -1.973 -1240.7455 1.7590e+02     1.0004     -0.729     -1.057    28.4347 0.0000e+00
     -0.743 6.6444e-08     7.1462     92.007      0.721   0.771097    -0.0624     -1.973 -1240.7455 1.8270e+02     1.0064     -0.729     -1.057    28.4344 0.0000e+00
     -0.743 7.3088e-07     7.1460     92.013      0.725   0.774908    -0.0629     -1.973 -1240.7455 1.9455e+02     1.0733     -0.729     -1.057    28.4331 0.0000e+00
     -0.743      0.000     7.1465     92.010      0.742   0.793899    -0.0568     -1.973 -1240.7455 2.3490e+02     1.0928     -0.729     -1.057    28.4328 0.0000e+00
     -0.743      0.000     7.1470     92.006      0.937   1.000713    -0.0802     -1.974 -1240.7452 4.1150e+02     1.5837     -0.729     -1.058    28.4307 0.0000e+00
     -0.743      0.001     7.1464     92.016      2.953   3.148799    -0.1120     -1.974 -1240.7418 7.1535e+02     2.6699     -0.730     -1.057    28.4317 0.0000e+00
     -0.744      0.006     7.1484     92.036      8.750   9.281598    -0.1080     -1.970 -1240.7046 8.0929e+02     3.2949     -0.729     -1.058    28.4283 0.0000e+00
     -0.744      0.018     7.1469     92.067     19.074  20.028996    -0.0745     -1.890 -1240.2959 8.3300e+02     3.3677     -0.730     -1.058    28.4318 0.0000e+00
     -0.744      0.035     7.1476     92.101     30.767  31.986421     0.1606     -0.881 -1235.7997 1.2017e+03     3.7556     -0.729     -1.058    28.4231 0.0000e+00
     -0.740      0.053     7.1469     92.137     37.342  38.504853     0.6033      1.509 -1186.3420 1.5962e+03     4.4660     -0.730     -1.059    28.4348 0.0000e+00
     -0.723      0.071     7.1530     92.190     38.655  39.598748     0.8593      3.953  -642.3071 1.7540e+03     4.8864     -0.718     -1.041    28.3995 0.0000e+00
     -0.692      0.090     7.2191     92.266     38.688  39.437864     0.8831      5.575   163.3764 1.8128e+03     4.9441     -0.678     -0.983    27.8919 0.0000e+00
     -0.660      0.109     7.3305     92.676     38.634  39.224689     0.9158      6.598   307.2134 1.8427e+03     4.7886     -0.641     -0.930    27.0708 0.0000e+00
     -0.636      0.125     7.4031     93.500     38.587  39.051747     0.9886      7.202   130.8515 1.8631e+03     4.5433     -0.625     -0.907    26.5039 0.0000e+00
     -0.609      0.139     7.4574     94.132     38.557  38.933129     1.0307      7.539   116.9348 1.8172e+03     4.4712     -0.602     -0.873    26.1861 0.0000e+00
     -0.571      0.150     7.4831     94.382     38.549  38.869164     1.0421      7.738   115.5454 1.6147e+03     4.5313     -0.560     -0.813    25.9513 0.0000e+00
     -0.527      0.162     7.5281     94.562     38.627  38.912848     1.0436      7.860   115.4294 1.3426e+03     4.5189     -0.517     -0.751    25.7450 0.0000e+00
     -0.481      0.175     7.6588     94.804     38.812  39.080500     1.0740      7.924   117.5104 1.1862e+03     4.3898     -0.474     -0.686    25.5752 0.0000e+00
     -0.433      0.185     7.7256     95.100     38.972  39.246271     1.1519      7.951   120.3154 1.1650e+03     4.2686     -0.423     -0.614    25.4661 0.0000e+00
     -0.386      0.189     7.7386     95.376     39.013  39.330693     1.2114      7.961   125.7701 1.2639e+03     4.2490     -0.381     -0.553    25.3993 0.0000e+00
     -0.336      0.188     7.7602     95.610     39.017  39.403245     1.2351      7.960   138.8942 1.3183e+03     4.2894     -0.332     -0.481    25.3601 0.0000e+00
     -0.284      0.182     7.7818     95.886     39.037  39.488999     1.2311      7.951   147.1858 1.2758e+03     4.3472     -0.275     -0.399    25.3320 0.0000e+00
     -0.235      0.169     7.8121     96.278     39.040  39.542649     1.2124      7.938   140.0703 1.2950e+03     4.4353     -0.229     -0.333    25.3242 0.0000e+00
     -0.190      0.149     7.8260     96.708     39.006  39.544315     1.2082      7.921   132.8769 1.2840e+03     4.5010     -0.185     -0.270    25.3864 0.0000e+00
     -0.149      0.121     7.8275     97.020     38.949  39.509193     1.2222      7.899   132.3988 1.2838e+03     4.4927     -0.142     -0.208    25.4947 0.0000e+00
     -0.119      0.091     7.8324     97.103     38.927  39.498792     1.2982      7.875   140.5697 1.2853e+03     4.4716     -0.111     -0.162    25.5810 0.0000e+00
     -0.102      0.061     7.8604     97.001     38.970  39.545488     1.4114      7.854   155.6982 1.2031e+03     4.4505     -0.096     -0.139    25.6432 0.0000e+00
     -0.097      0.034     7.8928     96.842     38.992  39.566113     1.4515      7.837   163.2857 1.2019e+03     4.4423     -0.093     -0.135    25.6893 0.0000e+00
     -0.097      0.013     7.9188     96.652     38.933  39.494326     1.4418      7.821   157.7988 1.2580e+03     4.4747     -0.094     -0.137    25.7184 0.0000e+00
     -0.099      0.001     7.9223     96.443     38.846  39.375570     1.4773      7.803   145.1959 1.2259e+03     4.5692     -0.096     -0.139    25.7325 0.0000e+00
     -0.103     -0.004     7.9067     96.260     38.791  39.272479     1.5476      7.784   138.3293 1.1725e+03     4.6962     -0.100     -0.145    25.7329 0.0000e+00
     -0.108     -0.004     7.8958     96.107     38.767  39.199684     1.5760      7.767   144.1230 1.1446e+03     4.7468     -0.107     -0.155    25.7326 0.0000e+00
     -0.109     -0.003     7.8810     95.943     38.737  39.129935     1.5623      7.752   150.6310 1.0926e+03     4.7369     -0.109     -0.158    25.7254 0.0000e+00
     -0.105      0.001     7.8674     95.662     38.704  39.063688     1.5489      7.737   145.6919 1.0584e+03     4.8154     -0.102     -0.148    25.6834 0.0000e+00
     -0.102      0.008     7.8633     95.033     38.699  39.033241     1.5553      7.721   139.2970 9.8349e+02     4.9790     -0.097     -0.140    25.6131 0.0000e+00
     -0.103      0.014     7.8607     93.703     38.699  39.015601     1.5804      7.703   138.2705 8.9227e+02     5.0405     -0.101     -0.147    25.5464 0.0000e+00
     -0.104      0.017     7.8576     91.531     38.673  38.977287     1.5788      7.686   138.2705 8.5550e+02     5.0130     -0.106     -0.153    25.4982 0.0000e+00
     -0.096      0.018     7.8454     88.854     38.654  38.950728     1.5603      7.671   139.3831 8.3801e+02     4.9881     -0.097     -0.140    25.4577 0.0000e+00
     -0.084      0.018     7.8119     86.213     38.654  38.948303     1.6143      7.657   148.1094 9.0031e+02     4.9443     -0.080     -0.117    25.4213 0.0000e+00
     -0.077      0.018     7.7146     84.058     38.652  38.947964     1.7170      7.645   163.3323 9.5675e+02     4.8936     -0.074     -0.107    25.3999 0.0000e+00
     -0.074      0.014     7.5231     82.461     38.652  38.946634     1.7616      7.635   171.3251 1.0016e+03     4.8187     -0.074     -0.107    25.3867 0.0000e+00
     -0.073      0.008     7.2899     81.154     38.647  38.932227     1.7447      7.626   172.0466 1.1462e+03     4.7221     -0.072     -0.103    25.3752 0.0000e+00
     -0.072      0.003     7.0577     79.958     38.632  38.900669     1.6629      7.617   172.3997 1.2227e+03     4.7165     -0.070     -0.101    25.3714 0.0000e+00
     -0.074      0.002     6.8771     79.026     38.635  38.882336     1.5389      7.608   172.8409 1.1345e+03     4.7855     -0.073     -0.105    25.3773 0.0000e+00
     -0.075      0.003     6.7595     78.820     38.672  38.900915     1.4764      7.598   173.1652 1.0350e+03     4.8052     -0.075     -0.108    25.3801 0.0000e+00
     -0.075      0.004     6.6585     79.619     38.715  38.934891     1.4732      7.588   173.3102 1.0092e+03     4.7836     -0.074     -0.108    25.3675 0.0000e+00
     -0.073      0.005     6.5605     80.977     38.757  38.975834     1.4666      7.579   173.4743 9.7995e+02     4.7284     -0.071     -0.104    25.3430 0.0000e+00
     -0.069      0.006     6.4708     82.129     38.792  39.015209     1.4634      7.571   173.5149 9.0045e+02     4.6842     -0.067     -0.096    25.3116 0.0000e+00
     -0.066      0.005     6.4419     82.752     38.803  39.030222     1.4760      7.563   173.2847 8.3845e+02     4.7276     -0.065     -0.094    25.2849 0.0000e+00
     -0.065      0.004     6.5263     82.970     38.802  39.030442     1.4781      7.556   173.0148 8.2719e+02     4.7755     -0.064     -0.093    25.2735 0.0000e+00
     -0.064      0.001     6.6676     82.898     38.791  39.017866     1.4641      7.549   173.0045 8.1835e+02     4.7500     -0.063     -0.092    25.2757 0.0000e+00
     -0.064     -0.001     6.7690     82.483     38.778  39.005080     1.4477      7.543   173.0743 7.8790e+02     4.6934     -0.063     -0.091    25.2835 0.0000e+00
     -0.065     -0.001     6.8113     81.649     38.775  39.002764     1.4459      7.537   172.9991 7.4850e+02     4.7066     -0.064     -0.093    25.2883 0.0000e+00
     -0.067      0.000     6.8252     80.423     38.760  38.989863     1.4679      7.531   173.0415 7.1513e+02     4.8069     -0.067     -0.097    25.2889 0.0000e+00
     -0.068      0.001     6.8231     78.988     38.745  38.976017     1.5056      7.525   173.1565 7.0009e+02     4.8463     -0.068     -0.098    25.2868 0.0000e+00
     -0.067      0.002     6.7915     77.574     38.731  38.962274     1.5433      7.519   173.0985 7.0394e+02     4.7738     -0.067     -0.096    25.2855 0.0000e+00
     -0.065      0.003     6.7230     76.358     38.721  38.950622     1.5578      7.513   173.0293 7.2127e+02     4.7149     -0.064     -0.093    25.2881 0.0000e+00
     -0.063      0.003     6.6154     75.431     38.734  38.962047     1.5646      7.508   173.0077 7.1669e+02     4.7504     -0.062     -0.090    25.2917 0.0000e+00
     -0.063      0.003     6.4892     74.754     38.746  38.973488     1.5749      7.504   173.0097 6.6876e+02     4.7928     -0.062     -0.089    25.2933 0.0000e+00
     -0.062      0.002     6.3696     74.311     38.734  38.962035     1.5990      7.500   173.0529 6.3312e+02     4.7496     -0.062     -0.089    25.2919 0.0000e+00
     -0.061      0.001     6.2651     74.198     38.722  38.950487     1.6481      7.496   173.0135 6.3216e+02     4.6716     -0.060     -0.087    25.2896 0.0000e+00
     -0.061      0.001     6.1927     74.549     38.732  38.960785     1.6776      7.491   172.9636 6.4561e+02     4.6356     -0.060     -0.087    25.2875 0.0000e+00
     -0.062      0.001     6.1383     75.417     38.730  38.959630     1.6895      7.486   173.0518 6.9305e+02     4.6901     -0.061     -0.089    25.2869 0.0000e+00
     -0.062      0.000     6.0977     76.637     38.705  38.936521     1.7093      7.480   173.2197 7.4289e+02     4.7497     -0.061     -0.088    25.2878 0.0000e+00
     -0.061     -0.001     6.0851     77.967     38.703  38.935211     1.7093      7.475   173.3589 7.4586e+02     4.7075     -0.060     -0.087    25.2886 0.0000e+00
     -0.061     -0.002     6.1091     79.242     38.711  38.943793     1.6886      7.470   173.3579 7.4468e+02     4.6581     -0.060     -0.086    25.2895 0.0000e+00
     -0.062     -0.002     6.1877     80.335     38.680  38.913375     1.6751      7.465   173.2944 7.6023e+02     4.6646     -0.060     -0.087    25.2908 0.0000e+00
     -0.063     -0.001     6.2957     81.166     38.651  38.884729     1.6291      7.460   173.3657 7.8525e+02     4.7178     -0.063     -0.090    25.2921 0.0000e+00
     -0.065      0.000     6.4085     81.703     38.680  38.914726     1.5408      7.457   173.5307 8.5640e+02     4.7546     -0.065     -0.093    25.2934 0.0000e+00
     -0.066      0.001     6.5175     81.948     38.723  38.958771     1.4809      7.455   173.5688 9.1951e+02     4.6990     -0.065     -0.094    25.2945 0.0000e+00
     -0.064      0.003     6.6089     81.935     38.735  38.973065     1.4630      7.452   173.4824 9.0311e+02     4.6951     -0.064     -0.093    25.2955 0.0000e+00
     -0.061      0.004     6.6783     81.747     38.720  38.960643     1.4907      7.448   173.5194 8.3241e+02     4.7752     -0.060     -0.087    25.2959 0.0000e+00
     -0.059      0.004     6.7220     81.494     38.693  38.935492     1.5500      7.444   173.7574 7.8021e+02     4.8138     -0.057     -0.083    25.2963 0.0000e+00
     -0.059      0.003     6.7413     81.238     38.680  38.922802     1.5804      7.439   173.9509 8.2415e+02     4.7867     -0.058     -0.084    25.2982 0.0000e+00
     -0.059      0.000     6.7374     80.971     38.691  38.934130     1.5747      7.435   173.8800 9.2549e+02     4.7211     -0.058     -0.084    25.3020 0.0000e+00
     -0.059     -0.002     6.7174     80.602     38.701  38.945539     1.5727      7.432   173.6745 1.0094e+03     4.7375     -0.059     -0.085    25.3055 0.0000e+00
     -0.060     -0.004     6.6951     80.074     38.689  38.933834     1.5816      7.430   173.6160 1.0778e+03     4.8149     -0.058     -0.084    25.3071 0.0000e+00
     -0.061     -0.004     6.6734     79.470     38.675  38.919530     1.5831      7.427   173.7752 1.1349e+03     4.8027     -0.060     -0.087    25.3076 0.0000e+00
     -0.064     -0.003     6.6551     78.925     38.655  38.899504     1.5746      7.424   173.9655 1.1615e+03     4.7266     -0.063     -0.092    25.3081 0.0000e+00
     -0.066     -0.002     6.6276     78.488     38.638  38.882078     1.5530      7.423   174.0245 1.1433e+03     4.6800     -0.065     -0.094    25.3095 0.0000e+00
     -0.066     -0.001     6.5805     78.128     38.656  38.899205     1.5216      7.420   173.8865 1.1544e+03     4.7177     -0.065     -0.094    25.3104 0.0000e+00
     -0.065      0.000     6.5260     77.826     38.674  38.916212     1.4861      7.419   173.7586 1.2407e+03     4.8065     -0.064     -0.091    25.3104 0.0000e+00
     -0.063      0.001     6.4798     77.613     38.657  38.897332     1.4647      7.419   173.8547 1.2402e+03     4.8307     -0.062     -0.089    25.3099 0.0000e+00
     -0.063      0.001     6.4463     77.565     38.625  38.861302     1.4542      7.417   174.0162 1.1690e+03     4.7720     -0.061     -0.089    25.3094 0.0000e+00
     -0.063      0.000     6.4170     77.690     38.629  38.861317     1.4260      7.415   174.0772 1.1870e+03     4.7118     -0.062     -0.089    25.3092 0.0000e+00
     -0.064 1.8861e-08     6.3918     77.886     38.668  38.897507     1.4067      7.413   174.0759 1.2196e+03     4.7171     -0.063     -0.091    25.3083 0.0000e+00
     -0.064 2.0747e-07     6.3713     78.046     38.689  38.918115     1.4127      7.411   174.0862 1.2190e+03     4.7683     -0.064     -0.092    25.3061 0.0000e+00
     -0.064 2.5178e-07     6.3666     78.119     38.689  38.920112     1.4155      7.408   174.1159 1.2599e+03     4.7838     -0.063     -0.091    25.3013 0.0000e+00
     -0.064 5.5455e-07     6.3826     78.105     38.689  38.921657     1.4321      7.406   174.1770 1.2952e+03     4.7343     -0.063     -0.091    25.2943 0.0000e+00
     -0.063      0.000     6.4022     78.030     38.703  38.936798     1.4715      7.405   174.2227 1.2909e+03     4.6813     -0.062     -0.090    25.2898 0.0000e+00
     -0.063      0.000     6.4167     77.880     38.740  38.976268     1.5086      7.404   174.1520 1.3551e+03     4.7241     -0.062     -0.090    25.2894 0.0000e+00
     -0.064      0.001     6.4227     77.610     38.778  39.018129     1.5318      7.403   174.0102 1.4617e+03     4.8073     -0.063     -0.092    25.2909 0.0000e+00
     -0.065      0.003     6.4194     77.194     38.816  39.062194     1.5187      7.403   173.8850 1.4821e+03     4.7995     -0.064     -0.093    25.2936 0.0000e+00
     -0.065      0.006     6.4138     76.616     38.875  39.128304     1.4752      7.403   173.8430 1.4019e+03     4.7327     -0.063     -0.092    25.2961 0.0000e+00
     -0.064      0.010     6.4031     75.891     38.921  39.182875     1.4390      7.402   173.9319 1.4247e+03     4.6822     -0.063     -0.091    25.2982 0.0000e+00
     -0.060      0.012     6.3804     75.036     38.944  39.214341     1.4300      7.399   174.0136 1.5774e+03     4.7019     -0.060     -0.087    25.3026 0.0000e+00
     -0.054      0.012     6.3467     74.065     38.976  39.254928     1.4338      7.396   174.0564 1.4720e+03     4.7652     -0.053     -0.077    25.3100 0.0000e+00
     -0.048      0.008     6.2973     73.027     39.006  39.292869     1.4425      7.391   174.1064 1.1264e+03     4.7648     -0.046     -0.067    25.3184 0.0000e+00
     -0.045      0.001     6.2355     71.983     39.000  39.292335     1.4600      7.385   173.2412 9.8917e+02     4.7310     -0.042     -0.062    25.3296 0.0000e+00
     -0.045     -0.008     6.1647     71.004     38.952  39.248489     1.4620      7.379   169.0154 1.1383e+03     4.7320     -0.043     -0.062    25.3424 0.0000e+00
     -0.048     -0.013     6.0812     70.148     38.845  39.143489     1.4425      7.371   163.0200 1.3686e+03     4.7769     -0.045     -0.066    25.3534 0.0000e+00
     -0.056     -0.009     5.9939     69.474     38.742  39.038147     1.4159      7.360   159.9469 1.3951e+03     4.7960     -0.054     -0.077    25.3626 0.0000e+00
     -0.067      0.006     5.9053     69.217     38.829  39.117065     1.3987      7.348   159.2184 1.1902e+03     4.7241     -0.067     -0.097    25.3697 0.0000e+00
     -0.075      0.025     5.8218     69.702     39.050  39.336145     1.3923      7.338   158.8586 1.1706e+03     4.6593     -0.078     -0.114    25.3741 0.0000e+00
     -0.069      0.040     5.7521     71.166     39.145  39.465933     1.3881      7.333   158.7801 1.2358e+03     4.6614     -0.078     -0.112    25.3808 0.0000e+00
     -0.043      0.049     5.6894     73.688     39.022  39.417174     1.4070      7.330   158.6143 1.1738e+03     4.7150     -0.046     -0.066    25.3805 0.0000e+00
     -0.008      0.050     5.6574     76.886     38.790  39.254401     1.4379      7.329   158.3167 1.1863e+03     4.7602     -0.002     -0.002    25.3653 0.0000e+00
      0.013      0.044     5.6955     79.962     38.654  39.147938     1.4445      7.328   158.0203 1.1864e+03     4.7301      0.020      0.029    25.3439 0.0000e+00
      0.016      0.033     5.8056     82.301     38.711  39.208794     1.4369      7.328   157.6982 1.1409e+03     4.6926      0.018      0.027    25.3737 0.0000e+00
      0.009      0.019     6.0075     83.634     38.865  39.355618     1.4294      7.329   157.4342 1.0956e+03     4.7175      0.007      0.010    25.5056 0.0000e+00
      0.005      0.010     6.2877     83.962     38.978  39.463576     1.4201      7.331   157.3225 1.0738e+03     4.7578      0.001      0.001    25.6198 0.0000e+00
      0.008      0.009     6.5518     83.486     39.005  39.498736     1.4073      7.334   157.2939 1.1036e+03     4.7355      0.006      0.009    25.6439 0.0000e+00
      0.014      0.014     6.7503     82.435     38.952  39.463437     1.3911      7.336   157.3467 1.0766e+03     4.6863      0.014      0.021    25.6408 0.0000e+00
      0.020      0.020     6.8614     81.022     38.894  39.417573     1.3829      7.337   157.5297 1.0356e+03     4.6754      0.020      0.029    25.6253 0.0000e+00
      0.025      0.025     6.8823     79.494     38.861  39.388442     1.3918      7.338   157.8728 1.0776e+03     4.7069      0.023      0.034    25.6084 0.0000e+00
      0.032      0.025     6.8355     78.059     38.838  39.365059     1.4072      7.337   158.2259 1.0870e+03     4.7597      0.030      0.044    25.6204 0.0000e+00
      0.040      0.023     6.7402     76.767     38.862  39.388694     1.4107      7.335   158.4436 1.0163e+03     4.7668      0.039      0.056    25.6545 0.0000e+00
      0.048      0.020     6.6155     75.559     38.892  39.420371     1.4006      7.333   158.6985 1.2256e+03     4.7588      0.047      0.067    25.6719 0.0000e+00
      0.054      0.015     6.4825     74.343     38.900  39.430758     1.3843      7.331   159.0702 1.5013e+03     4.7652      0.054      0.078    25.6734 0.0000e+00
      0.057      0.010     6.3660     73.105     38.916  39.450838     1.3813      7.329   159.3239 1.3168e+03     4.7759      0.056      0.082    25.6730 0.0000e+00
      0.057      0.006     6.2621     71.929     38.934  39.472774     1.4053      7.329   159.5285 1.0754e+03     4.8204      0.056      0.081    25.6717 0.0000e+00
      0.056      0.002     6.1667     70.827     38.962  39.505606     1.4591      7.330   159.7376 1.0357e+03     4.8247      0.055      0.080    25.6737 0.0000e+00
      0.055     -0.001     6.0689     69.790     38.981  39.530511     1.5236      7.330   159.7880 9.8870e+02     4.7938      0.054      0.078    25.6767 0.0000e+00
      0.055     -0.003     5.9616     68.865     38.964  39.520064     1.5601      7.329   159.7925 9.5706e+02     4.7885      0.054      0.078    25.6808 0.0000e+00
      0.055     -0.005     5.8665     68.038     38.945  39.506224     1.5760      7.329   159.7923 1.1722e+03     4.7949      0.055      0.080    25.6854 0.0000e+00
      0.055     -0.008     5.7775     67.267     38.926  39.490112     1.5750      7.330   159.7858 1.4486e+03     4.7678      0.054      0.079    25.6905 0.0000e+00
      0.053     -0.012     5.6886     66.577     38.887  39.452182     1.5229      7.331   159.8864 1.3012e+03     4.7007      0.052      0.075    25.6982 0.0000e+00
      0.048     -0.015     5.6131     65.980     38.866  39.428379     1.4453      7.331   160.0616 1.1433e+03     4.6669      0.048      0.071    25.7079 0.0000e+00
      0.043     -0.015     5.5477     65.434     38.899  39.456146     1.4104      7.331   160.2691 1.2789e+03     4.7009      0.043      0.063    25.7155 0.0000e+00
      0.036     -0.014     5.4823     64.943     38.983  39.534054     1.4084      7.331   160.5035 1.2432e+03     4.7693      0.034      0.049    25.7193 0.0000e+00
      0.030     -0.013     5.4248     64.551     39.060  39.608826     1.3800      7.332   160.6579 1.1554e+03     4.7765      0.027      0.040    25.7217 0.0000e+00
      0.029     -0.012     5.3794     64.309     39.046  39.598668     1.3173      7.332   160.6736 1.2469e+03     4.7202      0.029      0.041    25.7196 0.0000e+00
      0.030     -0.009     5.3347     64.206     38.977  39.538171     1.2743      7.333   160.6077 1.1929e+03     4.7027      0.031      0.046    25.7104 0.0000e+00
      0.029     -0.006     5.2948     64.139     38.942  39.511976     1.2768      7.334   160.6357 1.0347e+03     4.7361      0.030      0.044    25.6998 0.0000e+00
      0.025     -0.004     5.2613     64.009     38.961  39.535810     1.2887      7.335   160.8392 1.0403e+03     4.7487      0.025      0.036    25.6926 0.0000e+00
      0.022     -0.004     5.2408     63.805     38.994  39.572506     1.2933      7.336   161.0896 1.1064e+03     4.7190      0.020      0.030    25.6983 0.0000e+00
      0.021     -0.003     5.2347     63.565     38.994  39.574905     1.2909      7.337   161.2539 1.1631e+03     4.6836      0.019      0.028    25.7154 0.0000e+00
      0.022     -0.002     5.2314     63.316     38.979  39.564823     1.2756      7.338   161.2776 1.2617e+03     4.6966      0.021      0.032    25.7286 0.0000e+00
      0.023      0.001     5.2204     63.071     38.987  39.577524     1.2585      7.339   161.2904 1.3090e+03     4.7741      0.023      0.034    25.7329 0.0000e+00
      0.023      0.003     5.2015     62.811     39.007  39.601566     1.2505      7.340   161.4081 1.1933e+03     4.8345      0.023      0.033    25.7341 0.0000e+00
      0.023      0.003     5.1818     62.534     39.004  39.601671     1.2461      7.340   161.5820 1.0140e+03     4.7777      0.022      0.032    25.7388 0.0000e+00
      0.024      0.004     5.1591     62.255     38.979  39.578802     1.2301      7.341   161.7581 1.0030e+03     4.6681      0.023      0.034    25.7463 0.0000e+00
      0.026      0.007     5.1406     61.964     38.977  39.578916     1.2317      7.342   161.8175 1.1511e+03     4.6703      0.025      0.037    25.7524 0.0000e+00
      0.027      0.009     5.1188     61.670     38.999  39.603042     1.2742      7.342   161.7840 1.1701e+03     4.7703      0.026      0.038    25.7569 0.0000e+00
      0.030      0.010     5.0941     61.409     39.009  39.616671     1.3027      7.343   161.8680 1.0411e+03     4.8187      0.028      0.041    25.7607 0.0000e+00
      0.034      0.010     5.0733     61.219     39.005  39.616785     1.2934      7.344   162.1454 1.0481e+03     4.7770      0.032      0.047    25.7635 0.0000e+00
      0.038      0.010     5.0480     61.069     38.989  39.604425     1.2776      7.345   162.3845 1.0897e+03     4.7108      0.038      0.055    25.7657 0.0000e+00
      0.040      0.011     5.0236     60.886     38.976  39.594153     1.2791      7.346   162.5228 1.0968e+03     4.7004      0.040      0.058    25.7682 0.0000e+00
      0.040      0.013     4.9997     60.671     39.001  39.619517     1.2943      7.347   162.8706 1.1716e+03     4.7888      0.039      0.057    25.7722 0.0000e+00
      0.041      0.013     4.9844     60.491     39.037  39.657250     1.2948      7.347   163.1480 1.1213e+03     4.8233      0.040      0.058    25.7777 0.0000e+00
      0.046      0.011     4.9760     60.431     39.046  39.669619     1.2769      7.347   163.1237 1.2381e+03     4.7416      0.044      0.064    25.7836 0.0000e+00
      0.053      0.008     4.9593     60.511     39.011  39.642156     1.2780      7.347   163.1788 1.5281e+03     4.6895      0.053      0.077    25.7868 0.0000e+00
      0.058      0.005     4.9403     60.663     38.941  39.579047     1.3085      7.348   163.3840 1.3994e+03     4.7050      0.060      0.087    25.7874 0.0000e+00
      0.058      0.001     4.9223     60.739     38.900  39.541201     1.3373      7.349   163.6252 1.1564e+03     4.7590      0.059      0.086    25.7865 0.0000e+00
      0.054     -0.003     4.9168     60.660     38.925  39.565326     1.3424      7.349   163.7722 1.1314e+03     4.7614      0.053      0.077    25.7892 0.0000e+00
      0.049     -0.005     4.9233     60.484     38.976  39.616905     1.3283      7.349   163.7842 1.1289e+03     4.6993      0.047      0.068    25.8031 0.0000e+00
      0.047     -0.005     4.9403     60.297     39.015  39.657144     1.3175      7.350   163.8568 1.5474e+03     4.6916      0.045      0.065    25.8162 0.0000e+00
      0.048     -0.003     4.9496     60.177     39.027  39.671092     1.3281      7.351   164.0485 1.9967e+03     4.7366      0.046      0.067    25.8190 0.0000e+00
      0.049      0.000     4.9395     60.106     39.012  39.658628     1.3564      7.352   164.2954 1.5777e+03     4.7996      0.048      0.070    25.8161 0.0000e+00
      0.050      0.002     4.9241     60.011     38.984  39.633369     1.3606      7.354   164.6047 1.0578e+03     4.8037      0.049      0.072    25.8151 0.0000e+00
      0.050      0.002     4.9046     59.845     38.969  39.619544     1.3287      7.354   164.8629 1.0301e+03     4.7181      0.049      0.071    25.8173 0.0000e+00
      0.050      0.002     4.8962     59.615     38.967  39.618391     1.3118      7.355   164.9219 1.1262e+03     4.6528      0.049      0.071    25.8189 0.0000e+00
      0.051      0.001     4.8927     59.340     38.967  39.619422     1.3228      7.357   164.8889 1.1502e+03     4.6633      0.050      0.073    25.8228 0.0000e+00
      0.051      0.001     4.8859     59.025     38.977  39.632018     1.3450      7.359   164.9798 1.2124e+03     4.7080      0.050      0.073    25.8271 0.0000e+00
      0.051      0.000     4.8720     58.681     38.987  39.643771     1.3649      7.361   165.1608 1.6398e+03     4.7165      0.051      0.074    25.8290 0.0000e+00
      0.051 1.9089e-08     4.8517     58.340     38.976  39.634610     1.3799      7.361   165.1843 1.8754e+03     4.7316      0.050      0.073    25.8304 0.0000e+00
      0.051 2.0998e-07     4.8300     58.035     38.987  39.648180     1.3925      7.361   165.1782 1.3837e+03     4.7536      0.050      0.073    25.8312 0.0000e+00
      0.051 2.4385e-07     4.8038     57.770     39.017  39.680920     1.3845      7.362   165.3451 9.9989e+02     4.7431      0.050      0.073    25.8330 0.0000e+00
      0.051 4.2856e-07     4.7744     57.531     38.984  39.649700     1.3661      7.364   165.5671 1.0799e+03     4.7416      0.049      0.072    25.8359 0.0000e+00
      0.051      0.000     4.7458     57.357     38.738  39.397620     1.3452      7.365   165.7970 1.2282e+03     4.7358      0.050      0.073    25.8385 0.0000e+00
      0.051      0.000     4.7192     57.547     38.296  38.917604     1.3307      7.365   165.9736 1.2712e+03     4.7404      0.050      0.072    25.8412 0.0000e+00
      0.051      0.001     4.7015     59.680     38.031  38.541811     1.3327      7.365   166.0680 1.2186e+03     4.7291      0.050      0.073    25.8446 0.0000e+00
      0.051      0.001     4.6755     65.706     38.063  38.407459     1.3359      7.366   166.1644 1.3204e+03     4.7011      0.050      0.073    25.8476 0.0000e+00
      0.051      0.001     4.6665     74.945     38.173  38.371682     1.3369      7.367   166.2787 1.5096e+03     4.7097      0.050      0.073    25.8509 0.0000e+00
      0.052      0.001     4.6409     84.790     38.250  38.362827     1.3354      7.370   166.4177 1.3953e+03     4.6958      0.051      0.074    25.8488 0.0000e+00
      0.052      0.000     4.7251     93.404     38.297  38.363730     1.3351      7.371   166.5546 1.0738e+03     4.7040      0.051      0.074    25.7074 0.0000e+00
      0.053      0.000     5.2801    100.154     38.338  38.382538     1.3244      7.371   166.7290 1.1489e+03     4.7752      0.052      0.075    25.4235 0.0000e+00
      0.053      0.001     6.1630    104.880     38.362  38.399830     1.3064      7.372   166.9772 1.4671e+03     4.8052      0.053      0.076    25.2216 0.0000e+00
      0.052      0.002     7.0321    107.447     38.345  38.382420     1.2914      7.373   167.1467 1.6246e+03     4.7590      0.051      0.074    25.1264 0.0000e+00
      0.052      0.003     7.7637    107.907     38.324  38.362410     1.2694      7.373   167.2301 1.6132e+03     4.6945      0.050      0.073    25.0697 0.0000e+00
      0.053      0.004     8.3235    106.725     38.313  38.348263     1.2729      7.374   167.3829 1.3151e+03     4.7096      0.052      0.074    25.0454 0.0000e+00
      0.054      0.006     8.7227    104.772     38.307  38.338287     1.3170      7.375   167.5316 1.1050e+03     4.8047      0.054      0.077    25.0396 0.0000e+00
      0.057      0.006     8.9329    102.872     38.338  38.368692     1.3530      7.376   167.5655 1.1509e+03     4.8540      0.055      0.080    25.0429 0.0000e+00
      0.060      0.005     8.9590    101.373     38.365  38.398598     1.3581      7.376   167.6205 1.1836e+03     4.8270      0.058      0.085    25.0450 0.0000e+00
      0.061      0.004     8.8326    100.258     38.343  38.382607     1.3540      7.377   167.7665 1.4805e+03     4.7850      0.061      0.088    25.0404 0.0000e+00
      0.061      0.002     8.6445     99.415     38.325  38.365717     1.3700      7.379   168.2988 1.8548e+03     4.7908      0.061      0.088    25.0336 0.0000e+00
      0.060     -0.003     8.4807     98.789     38.348  38.384766     1.4021      7.380   169.4961 1.5513e+03     4.8294      0.059      0.085    25.0315 0.0000e+00
      0.060     -0.011     8.3582     98.358     38.387  38.422538     1.4252      7.380   175.5312 1.1056e+03     4.8415      0.058      0.084    25.0371 0.0000e+00
      0.061     -0.017     8.2692     98.100     38.398  38.441678     1.4500      7.379   185.8600 1.2008e+03     4.8346      0.061      0.089    25.0478 0.0000e+00
      0.058     -0.021     8.2002     97.991     38.371  38.425827     1.4855      7.378   190.8754 1.4105e+03     4.8821      0.062      0.089    25.0507 0.0000e+00
      0.046     -0.024     8.1497     97.946     38.359  38.421276     1.5130      7.377   190.5712 1.3547e+03     4.9716      0.047      0.068    25.0417 0.0000e+00
      0.032     -0.027     8.1171     97.881     38.384  38.450120     1.5254      7.377   190.0108 1.1829e+03     4.9948      0.026      0.038    25.0345 0.0000e+00
      0.026     -0.029     8.0925     97.808     38.386  38.457291     1.5265      7.379   189.4353 1.1799e+03     4.9576      0.023      0.033    25.0486 0.0000e+00
      0.025     -0.026     8.0839     97.753     38.367  38.444531     1.5428      7.383   188.9469 1.2178e+03     4.8636      0.027      0.040    25.0690 0.0000e+00
      0.020     -0.019     8.0829     97.724     38.342  38.422766     1.5816      7.387   188.6655 1.1463e+03     4.7801      0.021      0.032    25.0759 0.0000e+00
      0.010     -0.011     8.0753     97.699     38.302  38.384512     1.6129      7.389   188.1840 1.0140e+03     4.7679      0.009      0.012    25.0782 0.0000e+00
      0.003     -0.004     8.0674     97.641     38.282  38.362748     1.6297      7.392   184.2438 7.8776e+02     4.7500     -0.001     -0.002    25.0858 0.0000e+00
      0.003      0.005     8.0614     97.566     38.276  38.349991     1.5594      7.396   177.0753 6.2085e+02     4.7012      0.000      0.000    25.0953 0.0000e+00
      0.009      0.015     8.0583     97.505     38.292  38.357163     1.4049      7.397   172.8368 5.9467e+02     4.6558      0.009      0.012    25.1013 0.0000e+00
      0.017      0.024     8.0583     97.440     38.327  38.385993     1.3258      7.397   171.9718 5.7947e+02     4.6788      0.017      0.024    25.1037 0.0000e+00
      0.026      0.030     8.0530     97.380     38.324  38.381287     1.3354      7.395   171.6064 5.3897e+02     4.7403      0.026      0.037    25.1014 0.0000e+00
      0.034      0.035     8.0461     97.384     38.309  38.363707     1.3633      7.393   171.4309 5.0351e+02     4.7504      0.033      0.048    25.0921 0.0000e+00
      0.041      0.036     8.0449     97.445     38.314  38.363811     1.3886      7.391   171.3129 4.7923e+02     4.6993      0.040      0.058    25.0773 0.0000e+00
      0.050      0.035     8.0409     97.500     38.342  38.382536     1.3916      7.390   171.2118 4.4909e+02     4.6338      0.047      0.068    25.0689 0.0000e+00
      0.062      0.033     8.0331     97.551     38.367  38.399716     1.3908      7.389   171.0685 4.3573e+02     4.6427      0.061      0.088    25.0681 0.0000e+00
      0.074      0.028     8.0333     97.625     38.353  38.381151     1.4208      7.389   170.8708 4.4128e+02     4.7381      0.075      0.110    25.0670 0.0000e+00
      0.082      0.022     8.0433     97.688     38.320  38.348441     1.4540      7.391   170.7146 4.4962e+02     4.7630      0.082      0.119    25.0612 0.0000e+00
      0.085      0.015     8.0488     97.719     38.295  38.321508     1.4512      7.392   170.5565 4.5632e+02     4.7039      0.084      0.122    25.0469 0.0000e+00
      0.085      0.009     8.0531     97.728     38.287  38.309328     1.4447      7.393   170.4215 4.5151e+02     4.7068      0.084      0.121    25.0333 0.0000e+00
      0.084      0.006     8.0622     97.710     38.312  38.328081     1.4501      7.395   170.2866 4.3931e+02     4.7635      0.082      0.119    25.0289 0.0000e+00
      0.084      0.007     8.0677     97.689     38.348  38.357870     1.4419      7.397   170.1310 4.3675e+02     4.8092      0.082      0.118    25.0308 0.0000e+00
      0.086      0.011     8.0695     97.710     38.348  38.352210     1.4210      7.399   170.1750 4.3580e+02     4.7815      0.084      0.121    25.0297 0.0000e+00
      0.089      0.017     8.0721     97.791     38.323  38.323093     1.4058      7.399   170.3021 4.3268e+02     4.7016      0.087      0.127    25.0225 0.0000e+00
      0.093      0.023     8.0712     97.911     38.324  38.323093     1.3991      7.398   170.3771 4.3112e+02     4.6636      0.090      0.130    25.0153 0.0000e+00
      0.101      0.025     8.0680     98.005     38.354  38.352210     1.4144      7.397   170.4797 4.1966e+02     4.6979      0.098      0.141    25.0083 0.0000e+00
      0.111      0.025     8.0712     98.019     38.359  38.357863     1.4576      7.396   170.5965 4.0607e+02     4.7737      0.109      0.159    24.9999 0.0000e+00
      0.121      0.023     8.0790     98.009     38.327  38.327983     1.4805      7.397   170.6700 4.0531e+02     4.7946      0.119      0.174    24.9926 0.0000e+00
      0.128      0.018     8.0912     98.014     38.305  38.308218     1.4662      7.399   170.6806 4.0461e+02     4.7455      0.127      0.184    24.9915 0.0000e+00
      0.130      0.012     8.1022     98.005     38.306  38.309269     1.4598      7.400   170.6381 3.9843e+02     4.7268      0.129      0.186    24.9932 0.0000e+00
      0.130      0.007     8.0998     97.984     38.342  38.340684     1.4702      7.402   170.5011 3.9523e+02     4.7732      0.127      0.185    24.9924 0.0000e+00
      0.129      0.004     8.0970     97.962     38.376  38.370762     1.4747      7.405   170.3998 3.9254e+02     4.7941      0.126      0.184    24.9935 0.0000e+00
      0.129      0.004     8.0995     97.948     38.360  38.355649     1.4729      7.406   170.5324 3.9056e+02     4.7403      0.126      0.183    24.9992 0.0000e+00
      0.130      0.004     8.0969     97.978     38.350  38.348331     1.4492      7.407   170.7276 3.9428e+02     4.7373      0.127      0.184    25.0027 0.0000e+00
      0.132      0.004     8.0966     98.043     38.347  38.345741     1.4205      7.409   170.7816 3.9493e+02     4.8270      0.129      0.187    24.9923 0.0000e+00
      0.134      0.004     8.0967     98.110     38.325  38.324332     1.4178      7.411   170.8411 3.9558e+02     4.8341      0.132      0.192    24.9831 0.0000e+00
      0.136      0.004     8.0920     98.169     38.342  38.343302     1.4158      7.413   170.9304 4.0059e+02     4.7890      0.134      0.194    24.9891 0.0000e+00
      0.136      0.004     8.0950     98.228     38.380  38.384742     1.4301      7.416   171.0006 3.9759e+02     4.7939      0.133      0.193    24.9927 0.0000e+00
      0.136      0.003     8.1016     98.263     38.370  38.381181     1.4822      7.418   171.0877 3.9375e+02     4.7913      0.132      0.192    24.9922 0.0000e+00
      0.136      0.003     8.1073     98.227     38.344  38.363718     1.5297      7.420   171.2102 3.9415e+02     4.7919      0.133      0.193    24.9934 0.0000e+00
      0.137      0.002     8.1114     98.119     38.334  38.363988     1.5377      7.420   171.3631 3.9384e+02     4.7672      0.135      0.195    24.9952 0.0000e+00
      0.139      0.002     8.1158     98.006     38.346  38.384451     1.5215      7.420   171.3874 3.9592e+02     4.6970      0.137      0.198    24.9994 0.0000e+00
      0.140      0.001     8.1201     97.946     38.375  38.420780     1.5084      7.421   171.3313 3.9635e+02     4.6600      0.137      0.199    25.0071 0.0000e+00
      0.140      0.000     8.1151     97.903     38.372  38.422508     1.5128      7.421   171.4590 3.9340e+02     4.6963      0.137      0.199    25.0200 0.0000e+00
      0.139 7.4494e-08     8.1021     97.844     38.352  38.405358     1.5247      7.422   171.6420 3.9178e+02     4.7594      0.137      0.198    25.0344 0.0000e+00
      0.138 8.1944e-07     8.0875     97.809     38.350  38.403786     1.5186      7.423   171.6501 3.9171e+02     4.7741      0.136      0.197    25.0454 0.0000e+00
      0.138      0.000     8.0840     97.815     38.352  38.403503     1.5136      7.424   171.6426 3.9145e+02     4.7374      0.135      0.196    25.0538 0.0000e+00
      0.138      0.000     8.0816     97.855     38.355  38.401931     1.5312      7.425   171.7236 3.9046e+02     4.7256      0.135      0.196    25.0597 0.0000e+00
      0.139      0.001     8.0730     97.906     38.343  38.384766     1.5569      7.426   171.7696 3.8867e+02     4.7682      0.136      0.198    25.0642 0.0000e+00
      0.140      0.001     8.0700     97.926     38.348  38.386340     1.5829      7.428   171.7677 3.8737e+02     4.8087      0.137      0.199    25.0657 0.0000e+00
      0.140      0.001     8.0715     97.889     38.380  38.420951     1.5880      7.429   171.7868 3.8569e+02     4.7709      0.137      0.199    25.0621 0.0000e+00
      0.139      0.000     8.0758     97.820     38.375  38.422509     1.5685      7.431   171.8283 3.8389e+02     4.6865      0.137      0.198    25.0563 0.0000e+00
      0.139 4.2827e-07     8.0832     97.758     38.351  38.405187     1.5555      7.432   171.9255 3.8531e+02     4.6762      0.136      0.198    25.0467 0.0000e+00
      0.139      0.000     8.0867     97.720     38.344  38.401897     1.5632      7.433   172.0159 3.8616e+02     4.7488      0.136      0.197    25.0415 0.0000e+00
      0.139      0.000     8.0815     97.665     38.324  38.382722     1.5869      7.434   172.0611 3.8741e+02     4.8475      0.137      0.198    25.0465 0.0000e+00
      0.139      0.001     8.0736     97.590     38.308  38.363725     1.5919      7.435   172.1290 3.9054e+02     4.9139      0.137      0.198    25.0557 0.0000e+00
      0.140      0.001     8.0656     97.559     38.313  38.362566     1.5741      7.437   172.1483 3.9020e+02     4.9360      0.137      0.199    25.0656 0.0000e+00
      0.140      0.001     8.0638     97.594     38.327  38.368703     1.5708      7.439   172.1220 3.8935e+02     4.9443      0.137      0.199    25.0717 0.0000e+00
      0.140      0.001     8.0602     97.644     38.342  38.374458     1.5940      7.440   172.2407 3.9081e+02     4.9115      0.138      0.200    25.0715 0.0000e+00
      0.140      0.001     8.0509     97.682     38.344  38.368679     1.6306      7.441   172.4647 3.9172e+02     4.8120      0.137      0.199    25.0672 0.0000e+00
      0.140      0.000     8.0489     97.710     38.342  38.362277     1.6472      7.442   172.5932 3.8851e+02     4.6980      0.137      0.199    25.0607 0.0000e+00
      0.141      0.000     8.0560     97.741     38.342  38.360509     1.6451      7.444   172.6763 3.8393e+02     4.6608      0.138      0.200    25.0490 0.0000e+00
      0.141     -0.001     8.0628     97.795     38.331  38.347298     1.7293      7.445   172.7808 3.8636e+02     4.7043      0.139      0.201    25.0352 0.0000e+00
      0.141     -0.001     8.0668     97.865     38.316  38.329452     1.8992      7.445   172.9100 3.8958e+02     4.7798      0.138      0.201    25.0255 0.0000e+00
      0.140     -0.001     8.0703     97.947     38.324  38.335107     1.9932      7.445   173.0348 3.8699e+02     4.8214      0.138      0.200    25.0195 0.0000e+00
      0.139     -0.001     8.0714     98.039     38.343  38.352209     2.0002      7.446   173.0850 3.8344e+02     4.7978      0.136      0.198    25.0176 0.0000e+00
      0.138      0.000     8.0773     98.125     38.339  38.345854     2.0753      7.447   173.0866 3.7954e+02     4.8017      0.135      0.196    25.0161 0.0000e+00
      0.138      0.001     8.0836     98.191     38.320  38.321720     2.2448      7.448   173.1404 3.7749e+02     4.8341      0.135      0.196    25.0120 0.0000e+00
      0.139      0.002     8.0906     98.220     38.319  38.314230     2.3517      7.449   173.2197 3.7840e+02     4.8141      0.135      0.196    25.0082 0.0000e+00
      0.140      0.003     8.0992     98.196     38.332  38.318738     2.3684      7.450   173.2710 3.7805e+02     4.7656      0.138      0.200    25.0073 0.0000e+00
      0.142      0.003     8.1069     98.142     38.335  38.312757     2.4059      7.450   173.4163 3.7493e+02     4.7258      0.140      0.203    25.0042 0.0000e+00
      0.143      0.002     8.1141     98.111     38.335  38.305362     2.9047      7.449   173.6854 3.7337e+02     4.8444      0.140      0.204    24.9977 0.0000e+00
      0.143      0.001     8.1183     98.119     38.331  38.292766     3.8379      7.449   173.9430 3.7451e+02     5.1404      0.140      0.203    24.9888 0.0000e+00
      0.143      0.000     8.1181     98.153     38.334  38.287356     4.3417      7.449   174.1225 3.7259e+02     5.3329      0.140      0.204    24.9756 0.0000e+00
      0.143      0.000     8.1122     98.206     38.356  38.303400     4.3273      7.450   174.3070 3.7025e+02     5.3618      0.140      0.203    24.9663 0.0000e+00
      0.143      0.001     8.1112     98.283     38.351  38.296373     3.6635      7.452   174.4525 3.6876e+02     5.1827      0.140      0.203    24.9569 0.0000e+00
      0.143      0.004     8.1144     98.380     38.324  38.265846     2.4345      7.452   174.4200 3.6614e+02     4.8759      0.139      0.202    24.9439 0.0000e+00
      0.143      0.006     8.1192     98.479     38.315  38.251576     1.7687      7.453   174.3441 3.6584e+02     4.7601      0.139      0.202    24.9323 0.0000e+00
      0.145      0.008     8.1242     98.547     38.324  38.250745     1.7050      7.455   174.3942 3.6763e+02     4.7390      0.142      0.206    24.9249 0.0000e+00
      0.148      0.008     8.1313     98.573     38.342  38.255787     1.6734      7.457   174.5103 3.6746e+02     4.7572      0.145      0.211    24.9218 0.0000e+00
      0.152      0.007     8.1401     98.582     38.348  38.249066     1.6355      7.457   174.5435 3.6433e+02     4.8781      0.150      0.217    24.9192 0.0000e+00
      0.155      0.005     8.1502     98.594     38.340  38.232909     1.6211      7.459   174.5372 3.6284e+02     4.9716      0.152      0.221    24.9130 0.0000e+00
      0.155      0.003     8.1591     98.635     38.363  38.250792     1.6413      7.462   174.6067 3.6374e+02     5.0328      0.152      0.221    24.9007 0.0000e+00
      0.154      0.003     8.1615     98.695     38.389  38.274917     1.6546      7.463   174.6954 3.6284e+02     4.9698      0.151      0.218    24.8820 0.0000e+00
      0.153      0.003     8.1665     98.776     38.383  38.270764     1.6486      7.464   174.8354 3.5921e+02     4.7907      0.149      0.216    24.8631 0.0000e+00
      0.154      0.004     8.1660     98.910     38.373  38.264045     1.6445      7.464   174.9217 3.5830e+02     4.7113      0.150      0.217    24.8529 0.0000e+00
      0.156      0.006     8.1721     99.052     38.360  38.257135     1.6465      7.464   174.8791 3.6128e+02     4.7272      0.152      0.221    24.8473 0.0000e+00
      0.159      0.006     8.1779     99.147     38.350  38.250686     1.6645      7.465   174.9218 3.6157e+02     4.7102      0.155      0.226    24.8448 0.0000e+00
      0.162      0.005     8.1808     99.140     38.347  38.249532     1.6875      7.466   175.0938 3.5988e+02     4.6422      0.158      0.231    24.8466 0.0000e+00
      0.163      0.004     8.1952     99.057     38.342  38.243186     1.6909      7.467   175.2389 3.5859e+02     4.6222      0.160      0.233    24.8515 0.0000e+00
      0.163      0.002     8.2053     98.975     38.339  38.237412     1.6806      7.468   175.2996 3.5745e+02     4.6384      0.161      0.232    24.8598 0.0000e+00
      0.162      0.000     8.2161     98.895     38.347  38.243172     1.6721      7.468   175.3116 3.5898e+02     4.6329      0.159      0.230    24.8660 0.0000e+00
      0.162 4.5039e-07     8.2136     98.760     38.356  38.249367     1.6788      7.469   175.2974 3.5947e+02     4.6586      0.158      0.229    24.8678 0.0000e+00
      0.162      0.000     8.2033     98.584     38.359  38.248847     1.6956      7.470   175.3863 3.5683e+02     4.7110      0.159      0.230    24.8662 0.0000e+00
      0.162      0.000     8.1973     98.436     38.350  38.236884     1.6917      7.470   175.6123 3.5621e+02     4.7535      0.159      0.230    24.8618 0.0000e+00
      0.162      0.001     8.1949     98.361     38.350  38.231636     1.6729      7.471   175.7929 3.5670e+02     4.7629      0.159      0.230    24.8574 0.0000e+00
      0.163      0.001     8.1835     98.379     38.371  38.248839     1.6771      7.472   175.9358 3.5618e+02     4.7904      0.160      0.231    24.8547 0.0000e+00
      0.163      0.001     8.1654     98.463     38.380  38.254518     1.7006      7.473   176.1350 3.5758e+02     4.8806      0.160      0.232    24.8514 0.0000e+00
      0.163      0.001     8.1548     98.589     38.363  38.236834     1.7080      7.474   176.2226 3.5853e+02     4.9315      0.159      0.231    24.8461 0.0000e+00
      0.163      0.000     8.1465     98.725     38.350  38.225391     1.6998      7.474   176.2206 3.5679e+02     4.9610      0.160      0.231    24.8398 0.0000e+00
      0.163      0.000     8.1523     98.849     38.366  38.243074     1.7092      7.474   176.2830 3.5524e+02     5.0331      0.160      0.232    24.8346 0.0000e+00
      0.163      0.001     8.1586     98.926     38.383  38.260271     1.7391      7.475   176.3748 3.5328e+02     5.0852      0.159      0.231    24.8300 0.0000e+00
      0.163      0.003     8.1714     98.941     38.366  38.242955     1.7611      7.476   176.5560 3.5198e+02     5.0449      0.160      0.232    24.8281 0.0000e+00
      0.163      0.006     8.1824     98.949     38.350  38.224080     1.7595      7.477   176.7520 3.5354e+02     4.9552      0.160      0.232    24.8307 0.0000e+00
      0.164      0.008     8.1929     98.960     38.350  38.222418     1.7695      7.477   176.7666 3.5500e+02     4.9572      0.160      0.231    24.8340 0.0000e+00
      0.167      0.008     8.2019     98.957     38.352  38.222853     1.8156      7.477   176.7321 3.5388e+02     5.0362      0.162      0.235    24.8354 0.0000e+00
      0.172      0.007     8.1984     98.950     38.357  38.229342     1.8502      7.477   176.8518 3.5183e+02     5.0892      0.169      0.245    24.8338 0.0000e+00
      0.177      0.006     8.2007     98.960     38.363  38.237417     1.9226      7.477   177.0092 3.5042e+02     5.0862      0.175      0.252    24.8311 0.0000e+00
      0.177      0.004     8.2026     98.988     38.381  38.257035     2.7987      7.477   177.0864 3.4818e+02     5.1703      0.175      0.254    24.8278 0.0000e+00
      0.175      0.002     8.2028     99.018     38.395  38.276165     4.4269      7.477   177.1832 3.4598e+02     5.4569      0.172      0.250    24.8245 0.0000e+00
      0.173      0.001     8.2004     99.042     38.387  38.278365     5.3294      7.477   177.2330 3.4606e+02     5.6828      0.168      0.245    24.8265 0.0000e+00
      0.173      0.001     8.2012     99.059     38.381  38.283650     5.4203      7.478   177.2580 3.4596e+02     5.7153      0.169      0.244    24.8309 0.0000e+00
      0.174      0.002     8.2036     99.062     38.371  38.276629     5.4270      7.478   177.4856 3.4469e+02     5.7133      0.171      0.247    24.8317 0.0000e+00
      0.177      0.004     8.2062     99.014     38.366  38.256929     5.5602      7.478   177.8337 3.4516e+02     5.8635      0.174      0.252    24.8354 0.0000e+00
      0.179      0.004     8.2057     98.910     38.369  38.235806     5.8488      7.477   178.1122 3.4658e+02     6.1992      0.176      0.255    24.8510 0.0000e+00
      0.179      0.002     8.2031     98.832     38.368  38.211571     6.0199      7.475   178.2709 3.4616e+02     6.4242      0.176      0.255    24.8731 0.0000e+00
      0.180     -0.001     8.2049     98.874     38.389  38.217691     5.9894      7.475   178.2895 3.4476e+02     6.4322      0.176      0.256    24.8785 0.0000e+00
      0.180     -0.005     8.2042     99.021     38.422  38.246321     5.4297      7.475   178.2515 3.4478e+02     6.0912      0.177      0.256    24.8569 0.0000e+00
      0.179     -0.008     8.1994     99.216     38.417  38.240448     4.4055      7.475   178.2411 3.4548e+02     5.4781      0.175      0.255    24.8196 0.0000e+00
      0.175     -0.009     8.1929     99.429     38.384  38.210138     3.8510      7.475   178.2508 3.4564e+02     5.2018      0.173      0.251    24.7845 0.0000e+00
      0.170     -0.008     8.2015     99.644     38.369  38.197135     3.7688      7.475   178.4546 3.4689e+02     5.2440      0.168      0.242    24.7656 0.0000e+00
      0.165     -0.005     8.2163     99.827     38.381  38.210146     3.2702      7.475   178.8130 3.4662e+02     5.0665      0.160      0.232    24.7630 0.0000e+00
      0.164     -0.003     8.2322     99.928     38.413  38.240549     2.3500      7.475   179.0556 3.4197e+02     4.6606      0.159      0.230    24.7647 0.0000e+00
      0.167     -0.003     8.2505     99.934     38.422  38.247452     1.8566      7.474   179.3236 3.3866e+02     4.4704      0.164      0.237    24.7657 0.0000e+00
      0.171     -0.003     8.2678     99.872     38.407  38.230150     1.8912      7.474   179.5571 3.3836e+02     4.6795      0.169      0.245    24.7717 0.0000e+00
      0.172     -0.004     8.2853     99.805     38.402  38.221717     2.6098      7.473   179.4706 3.3700e+02     6.6761      0.171      0.247    24.7733 0.0000e+00
      0.168     -0.005     8.2943     99.774     38.393  38.208932     3.8943      7.472   179.3097 3.3655e+02    10.2329      0.166      0.241    24.7689 0.0000e+00
      0.163     -0.007     8.2946     99.748     38.394  38.202475     4.5719      7.471   179.2472 3.3690e+02    12.0901      0.159      0.230    24.7673 0.0000e+00
      0.159     -0.007     8.2876     99.718     38.405  38.207086     4.5680      7.469   179.2308 3.3653e+02    12.0518      0.153      0.223    24.7639 0.0000e+00
      0.159     -0.006     8.2806     99.718     38.404  38.201213     3.8894      7.469   179.3698 3.3649e+02    10.2825      0.155      0.225    24.7598 0.0000e+00
      0.159     -0.004     8.2808     99.748     38.399  38.194916     2.6339      7.470   179.5503 3.3628e+02     7.0255      0.158      0.228    24.7552 0.0000e+00
      0.159     -0.002     8.2813     99.784     38.401  38.194404     1.9484      7.472   179.6069 3.3670e+02     5.2265      0.156      0.226    24.7446 0.0000e+00
      0.157     -0.002     8.2774     99.814     38.407  38.195029     1.8684      7.473   179.6239 3.3723e+02     5.0299      0.154      0.224    24.7347 0.0000e+00
      0.157     -0.003     8.2795     99.839     38.422  38.202463     1.8412      7.474   179.7561 3.3683e+02     5.0244      0.154      0.223    24.7286 0.0000e+00
      0.157     -0.004     8.2824     99.874     38.446  38.220819     1.8360      7.474   179.9147 3.3503e+02     5.0573      0.154      0.223    24.7279 0.0000e+00
      0.157     -0.004     8.2861     99.924     38.454  38.226592     1.8390      7.474   179.9071 3.3189e+02     5.0516      0.154      0.224    24.7275 0.0000e+00
      0.155     -0.003     8.2902     99.974     38.437  38.208803     1.8267      7.474   179.7506 3.2961e+02     5.0233      0.153      0.222    24.7184 0.0000e+00
      0.152     -0.002     8.2932    100.005     38.426  38.196113     1.8117      7.475   179.6566 3.2853e+02     4.9889      0.149      0.216    24.7063 0.0000e+00
      0.151     -0.001     8.2971    100.007     38.435  38.200067     1.8908      7.477   179.7164 3.2757e+02     4.9771      0.147      0.213    24.6979 0.0000e+00
      0.152      0.001     8.3020     99.972     38.437  38.193142     2.0600      7.480   179.6996 3.2611e+02     5.0167      0.149      0.216    24.6969 0.0000e+00
      0.153      0.002     8.3069     99.929     38.432  38.175822     2.1673      7.483   179.6261 3.2498e+02     5.0578      0.150      0.218    24.6986 0.0000e+00
      0.155      0.003     8.3092     99.919     38.447  38.181014     2.2233      7.484   179.6007 3.2598e+02     5.0313      0.152      0.221    24.6959 0.0000e+00
      0.157      0.003     8.3118     99.944     38.463  38.192447     2.6957      7.485   179.5651 3.2728e+02     5.0376      0.153      0.223    24.6911 0.0000e+00
      0.157      0.002     8.3090     99.990     38.458  38.187132     3.5677      7.488   179.5403 3.2463e+02     5.1335      0.154      0.223    24.6789 0.0000e+00
      0.157      0.002     8.3068    100.029     38.453  38.180205     4.0601      7.490   179.4725 3.2085e+02     5.2003      0.153      0.223    24.6601 0.0000e+00
      0.157      0.002     8.3086    100.042     38.451  38.172149     4.2625      7.491   179.4346 3.2144e+02     5.2983      0.153      0.222    24.6451 0.0000e+00
      0.157      0.002     8.3117    100.067     38.438  38.153181     5.8993      7.493   179.5977 3.2090e+02     5.5668      0.153      0.223    24.6402 0.0000e+00
      0.158      0.003     8.3158    100.140     38.430  38.141220     8.8855      7.495   179.8093 3.1741e+02     5.9535      0.155      0.225    24.6433 0.0000e+00
      0.160      0.003     8.3210    100.230     38.443  38.154431    10.5049      7.496   179.8425 3.1599e+02     6.1824      0.156      0.227    24.6407 0.0000e+00
      0.161      0.003     8.3217    100.349     38.468  38.186006    10.4801      7.497   179.7410 3.1477e+02     6.1820      0.158      0.228    24.6318 0.0000e+00
      0.161      0.004     8.3227    100.491     38.478  38.205712     8.5035      7.500   179.7007 3.1338e+02     5.6417      0.158      0.229    24.6225 0.0000e+00
      0.161      0.004     8.3334    100.591     38.465  38.202348     4.8419      7.502   179.7853 3.1402e+02     4.6020      0.158      0.229    24.6155 0.0000e+00
      0.162      0.003     8.3390    100.624     38.463  38.208807     2.8628      7.502   179.8168 3.1476e+02     4.0639      0.158      0.229    24.6152 0.0000e+00
      0.164      0.000     8.3464    100.589     38.467  38.220354     2.9514      7.502   179.7378 3.1404e+02     4.1912      0.161      0.233    24.6270 0.0000e+00
      0.166     -0.002     8.3602    100.494     38.458  38.215058     5.8881      7.503   179.6903 3.1196e+02     5.6289      0.165      0.239    24.6416 0.0000e+00
      0.165     -0.004     8.3662    100.383     38.450  38.208235    11.2869      7.504   179.6734 3.1079e+02     8.1931      0.164      0.238    24.6513 0.0000e+00
      0.161     -0.004     8.3672    100.292     38.444  38.201322    14.2197      7.505   179.7052 3.1249e+02     9.5411      0.158      0.228    24.6652 0.0000e+00
      0.157     -0.004     8.3630    100.211     38.439  38.194930    14.4472      7.507   179.8177 3.1352e+02     9.6652      0.153      0.221    24.6764 0.0000e+00
      0.156     -0.003     8.3523    100.138     38.440  38.194401    14.2049      7.508   179.9145 3.1419e+02     9.6591      0.152      0.221    24.6800 0.0000e+00
      0.157     -0.002     8.3415    100.096     38.443  38.194929    11.3310      7.509   180.0142 3.1530e+02     8.4421      0.154      0.223    24.6809 0.0000e+00
      0.158      0.001     8.3354    100.073     38.453  38.201313     6.0416      7.510   180.0770 3.1492e+02     6.0873      0.155      0.224    24.6789 0.0000e+00
      0.159      0.002     8.3293    100.064     38.462  38.208123     3.1698      7.511   180.0724 3.1370e+02     4.7913      0.156      0.226    24.6761 0.0000e+00
      0.159      0.002     8.3218    100.096     38.469  38.213811     3.1672      7.511   180.1307 3.1080e+02     4.8300      0.156      0.226    24.6752 0.0000e+00
      0.160      0.002     8.3196    100.137     38.464  38.206625     6.0263      7.512   180.2648 3.0733e+02     6.3158      0.156      0.227    24.6724 0.0000e+00
      0.161      0.001     8.3197    100.160     38.444  38.184695    11.2972      7.513   180.4029 3.0566e+02     8.8869      0.158      0.228    24.6659 0.0000e+00
      0.161      0.000     8.3166    100.233     38.462  38.202475    14.1454      7.514   180.5103 3.0488e+02    10.1964      0.158      0.228    24.6643 0.0000e+00
      0.160     -0.001     8.3210    100.371     38.488  38.231228    14.1534      7.514   180.5315 3.0274e+02    10.1581      0.157      0.228    24.6631 0.0000e+00
      0.159     -0.001     8.3283    100.511     38.466  38.215068    11.4359      7.515   180.4868 3.0149e+02     8.6981      0.156      0.226    24.6576 0.0000e+00
      0.159     -0.001     8.3255    100.637     38.441  38.197468     6.4158      7.516   180.4001 3.0239e+02     6.0022      0.155      0.225    24.6556 0.0000e+00
      0.159     -0.001     8.3314    100.746     38.445  38.208804     3.6613      7.518   180.3436 3.0344e+02     4.4791      0.156      0.226    24.6561 0.0000e+00
      0.159     -0.001     8.3458    100.775     38.460  38.225231     3.3670      7.520   180.4922 3.0399e+02     4.2539      0.155      0.225    24.6596 0.0000e+00
      0.159     -0.001     8.3564    100.708     38.444  38.205719     2.9580      7.521   180.7340 3.0370e+02     4.3035      0.156      0.226    24.6650 0.0000e+00
      0.159     -0.001     8.3641    100.593     38.404  38.163249     2.2447      7.522   180.8580 3.0350e+02     4.5666      0.156      0.227    24.6756 0.0000e+00
      0.159     -0.001     8.3742    100.453     38.396  38.155920     1.8668      7.524   180.8726 3.0231e+02     4.7708      0.156      0.226    24.6904 0.0000e+00
      0.158     -0.001     8.3774    100.315     38.419  38.180564     1.8266      7.525   180.9108 3.0073e+02     4.7569      0.155      0.225    24.6921 0.0000e+00
      0.158     -0.001     8.3698    100.205     38.444  38.207391     1.7998      7.526   180.9758 2.9913e+02     4.7069      0.155      0.224    24.6826 0.0000e+00
      0.158     -0.001     8.3619    100.133     38.460  38.226464     1.7768      7.527   181.0569 2.9733e+02     4.7122      0.154      0.223    24.6787 0.0000e+00
      0.158     -0.000     8.3483    100.131     38.453  38.220809     1.7559      7.528   181.2027 2.9786e+02     4.7184      0.155      0.224    24.6808 0.0000e+00
      0.158      0.001     8.3357    100.196     38.435  38.202469     1.7470      7.529   181.3617 2.9860e+02     4.7818      0.154      0.223    24.6828 0.0000e+00
      0.158      0.001     8.3267    100.268     38.430  38.195084     1.7435      7.529   181.5164 2.9725e+02     4.7962      0.155      0.224    24.6853 0.0000e+00
      0.158      0.001     8.3184    100.305     38.434  38.194970     1.7474      7.529   181.6106 2.9712e+02     4.7895      0.155      0.224    24.6901 0.0000e+00
      0.159      0.001     8.3166    100.302     38.444  38.201089     1.7524      7.529   181.7262 2.9924e+02     4.9060      0.156      0.226    24.6947 0.0000e+00
      0.159      0.001     8.3259    100.274     38.452  38.205604     1.7621      7.528   181.8815 2.9959e+02     5.0095      0.156      0.227    24.6931 0.0000e+00
      0.159      0.000     8.3332    100.245     38.435  38.186105     1.7816      7.527   182.0262 2.9760e+02     5.0841      0.156      0.226    24.6879 0.0000e+00
      0.159      0.000     8.3371    100.248     38.406  38.155692     1.7962      7.527   182.2714 2.9568e+02     5.0910      0.156      0.227    24.6835 0.0000e+00
      0.158      0.000     8.3370    100.274     38.406  38.155172     1.8067      7.527   182.5225 2.9573e+02     5.0246      0.155      0.225    24.6788 0.0000e+00
      0.158      0.001     8.3347    100.266     38.430  38.179816     1.8168      7.526   182.6533 2.9643e+02     5.0663      0.155      0.225    24.6743 0.0000e+00
      0.159      0.002     8.3323    100.246     38.450  38.199826     1.8353      7.524   182.7346 2.9421e+02     5.1508      0.156      0.226    24.6700 0.0000e+00
      0.159      0.002     8.3310    100.246     38.457  38.206738     1.9210      7.524   182.8171 2.9187e+02     5.2611      0.156      0.227    24.6681 0.0000e+00
      0.160      0.002     8.3386    100.234     38.452  38.199943     2.0630      7.525   182.8765 2.9256e+02     5.4435      0.157      0.228    24.6681 0.0000e+00
      0.161      0.001     8.3349    100.196     38.434  38.181116     2.1373      7.527   182.9365 2.9483e+02     5.5798      0.159      0.229    24.6678 0.0000e+00
      0.162      0.001     8.3319    100.142     38.424  38.169466     2.1538      7.527   182.9404 2.9571e+02     5.6788      0.160      0.231    24.6676 0.0000e+00
      0.162      0.000     8.3346    100.085     38.441  38.185996     2.1863      7.528   182.9244 2.9483e+02     5.6161      0.159      0.231    24.6681 0.0000e+00
      0.161     -0.001     8.3327    100.016     38.447  38.190616     2.2224      7.529   183.0009 2.9371e+02     5.3685      0.158      0.229    24.6678 0.0000e+00
      0.160     -0.002     8.3309     99.976     38.420  38.161862     2.2329      7.531   183.0903 2.9063e+02     5.2135      0.157      0.228    24.6644 0.0000e+00
      0.160     -0.002     8.3247    100.005     38.416  38.155611     2.2474      7.533   183.2313 2.8882e+02     5.2101      0.157      0.227    24.6622 0.0000e+00
      0.160     -0.002     8.3224    100.095     38.442  38.178487     2.4723      7.534   183.4145 2.8958e+02     5.3281      0.156      0.226    24.6623 0.0000e+00
      0.160     -0.001     8.3142    100.232     38.453  38.184625     2.8795      7.535   183.4982 2.8941e+02     5.4784      0.157      0.227    24.6609 0.0000e+00
      0.159      0.000     8.3094    100.345     38.441  38.166369     3.1005      7.535   183.4700 2.9036e+02     5.4905      0.156      0.226    24.6582 0.0000e+00
      0.159      0.000     8.3146    100.385     38.428  38.148118     3.1140      7.535   183.4170 2.9212e+02     5.4050      0.156      0.227    24.6552 0.0000e+00
      0.159      0.000     8.3204    100.374     38.438  38.154313     3.0929      7.536   183.5458 2.9138e+02     5.3675      0.156      0.226    24.6524 0.0000e+00
      0.159      0.001     8.3370    100.342     38.466  38.177804     3.0703      7.537   183.6513 2.8917e+02     5.4132      0.156      0.226    24.6459 0.0000e+00
      0.160      0.001     8.3492    100.316     38.471  38.178314     3.0573      7.539   183.4872 2.8797e+02     5.4443      0.157      0.227    24.6366 0.0000e+00
      0.160      0.001     8.3520    100.304     38.459  38.160479     3.0685      7.539   183.3686 2.8696e+02     5.4021      0.157      0.228    24.6298 0.0000e+00
      0.160      0.001     8.3514    100.299     38.458  38.152517     3.2716      7.541   183.4218 2.8676e+02     5.3821      0.157      0.228    24.6245 0.0000e+00
      0.160      0.001     8.3481    100.294     38.459  38.145496     5.5055      7.543   183.5283 2.8818e+02     5.5441      0.157      0.228    24.6203 0.0000e+00
      0.161      0.001     8.3471    100.301     38.463  38.139039     9.6025      7.544   183.6240 2.8739e+02     5.8573      0.158      0.229    24.6139 0.0000e+00
      0.161      0.001     8.3472    100.337     38.473  38.137886    11.8170      7.544   183.8040 2.8684e+02     6.0256      0.158      0.229    24.6053 0.0000e+00
      0.161      0.001     8.3488    100.413     38.478  38.131532    11.8645      7.543   183.9849 2.8876e+02     5.9744      0.158      0.229    24.5975 0.0000e+00
      0.161      0.001     8.3494    100.511     38.483  38.125656    10.2525      7.543   183.9181 2.8877e+02     5.6135      0.158      0.229    24.5872 0.0000e+00
      0.161      0.000     8.3517    100.589     38.495  38.130286     7.2573      7.544   183.8571 2.8955e+02     5.0442      0.158      0.229    24.5737 0.0000e+00
      0.161 4.2828e-07     8.3565    100.637     38.490  38.124045     5.6212      7.545   183.9351 2.9211e+02     4.7961      0.158      0.229    24.5580 0.0000e+00
      0.162      0.000     8.3653    100.685     38.476  38.113641     5.4112      7.546   184.0008 2.9192e+02     4.7661      0.159      0.230    24.5439 0.0000e+00
      0.162      0.000     8.3778    100.756     38.487  38.131419     4.7257      7.546   184.0494 2.9056e+02     4.5785      0.159      0.230    24.5302 0.0000e+00
      0.161      0.001     8.3862    100.847     38.499  38.148635     3.5096      7.547   184.0928 2.8962e+02     4.3371      0.158      0.229    24.5187 0.0000e+00
      0.161      0.001     8.3893    100.927     38.479  38.131435     2.8586      7.548   184.1807 2.9015e+02     4.2733      0.158      0.229    24.5157 0.0000e+00
      0.162      0.001     8.3917    100.975     38.461  38.113826     2.8046      7.549   184.2525 2.9245e+02     4.3535      0.159      0.230    24.5222 0.0000e+00
      0.163      0.001     8.3958    101.004     38.475  38.126100     2.5992      7.549   184.2722 2.9124e+02     4.5207      0.160      0.232    24.5327 0.0000e+00
      0.163      0.001     8.4036    101.007     38.504  38.152929     2.1986      7.550   184.3331 2.8763e+02     4.7925      0.161      0.233    24.5402 0.0000e+00
      0.163      0.000     8.4107    100.971     38.536  38.184382     1.9801      7.551   184.3859 2.8638e+02     4.9414      0.160      0.232    24.5440 0.0000e+00
      0.163     -0.001     8.4134    100.917     38.541  38.189110     1.9720      7.552   184.3944 2.8688e+02     4.9542      0.160      0.232    24.5433 0.0000e+00
      0.163     -0.001     8.4171    100.856     38.498  38.146635     1.9848      7.553   184.4360 2.8874e+02     4.9818      0.160      0.231    24.5397 0.0000e+00
      0.162     -0.001     8.4187    100.779     38.466  38.115022     2.0509      7.553   184.5443 2.9171e+02     4.8993      0.159      0.231    24.5372 0.0000e+00
      0.161     -0.001     8.4141    100.699     38.475  38.124167     2.1802      7.553   184.6722 2.9441e+02     4.7418      0.158      0.230    24.5377 0.0000e+00
      0.161      0.000     8.4092    100.641     38.482  38.130286     2.2580      7.554   184.6912 2.9551e+02     4.6842      0.158      0.228    24.5383 0.0000e+00
      0.161      0.000     8.4051    100.597     38.480  38.125543     2.2845      7.556   184.6022 2.9495e+02     4.7148      0.158      0.229    24.5382 0.0000e+00
      0.162      0.000     8.3980    100.530     38.489  38.130271     2.3925      7.557   184.5424 2.9350e+02     4.7361      0.159      0.230    24.5384 0.0000e+00
      0.163      0.001     8.3902    100.446     38.487  38.123992     2.5574      7.558   184.5702 2.9288e+02     4.7026      0.160      0.231    24.5385 0.0000e+00
      0.163      0.001     8.3853    100.404     38.478  38.113080     2.6304      7.559   184.6803 2.9175e+02     4.6848      0.160      0.231    24.5379 0.0000e+00
      0.162      0.000     8.3846    100.444     38.492  38.125241     2.6254      7.560   184.7562 2.8958e+02     4.7268      0.159      0.230    24.5340 0.0000e+00
      0.162 1.8472e-08     8.3797    100.550     38.512  38.144115     2.5054      7.562   184.7137 2.8975e+02     4.8340      0.159      0.230    24.5278 0.0000e+00
      0.162 2.0320e-07     8.3711    100.677     38.522  38.150915     2.2684      7.563   184.6824 2.9209e+02     4.9219      0.159      0.230    24.5223 0.0000e+00
      0.162 2.0306e-07     8.3667    100.772     38.518  38.143997     2.1326      7.563   184.7219 2.9498e+02     4.9017      0.160      0.231    24.5196 0.0000e+00
      0.162 1.6807e-08     8.3710    100.822     38.501  38.123920     2.1121      7.564   184.7609 2.9560e+02     4.8970      0.159      0.231    24.5184 0.0000e+00
      0.162 1.3995e-10     8.3813    100.881     38.477  38.098540     2.1129      7.565   184.8089 2.9480e+02     4.9677      0.159      0.231    24.5167 0.0000e+00
      0.163 1.5395e-09     8.3942    100.933     38.471  38.090947     2.1250      7.566   184.8725 2.9689e+02     5.0396      0.160      0.231    24.5133 0.0000e+00
      0.163 1.6934e-08     8.4044    100.912     38.479  38.095557     2.1330      7.567   184.9277 2.9723e+02     5.0484      0.160      0.231    24.5078 0.0000e+00
      0.163 1.8628e-07     8.4053    100.820     38.479  38.090824     2.1185      7.568   184.9602 2.9259e+02     5.0059      0.160      0.232    24.5042 0.0000e+00
      0.163 1.8628e-07     8.4111    100.695     38.491  38.097169     2.0500      7.570   184.9214 2.8944e+02     5.0042      0.161      0.233    24.5029 0.0000e+00
      0.162 1.6967e-08     8.4199    100.597     38.507  38.108811     1.9618      7.571   184.8882 2.8950e+02     5.0273      0.158      0.230    24.5014 0.0000e+00
      0.162 1.9059e-09     8.4171    100.593     38.507  38.104669     1.9175      7.572   184.9889 2.8984e+02     5.0467      0.159      0.228    24.4969 0.0000e+00
      0.163 4.1705e-09     8.4098    100.673     38.514  38.110538     1.8976      7.572   185.1073 2.8945e+02     5.0668      0.160      0.230    24.4901 0.0000e+00
      0.163 4.4349e-08     8.3994    100.780     38.518  38.116318     1.8711      7.573   185.1151 2.8992e+02     5.0315      0.160      0.232    24.4823 0.0000e+00
      0.163 4.8770e-07     8.3885    100.880     38.509  38.111097     1.8723      7.574   185.0829 2.9350e+02     4.9960      0.161      0.233    24.4756 0.0000e+00
      0.163      0.000     8.3903    100.952     38.505  38.110881     1.9123      7.574   185.1480 2.9724e+02     5.0140      0.160      0.232    24.4697 0.0000e+00
      0.163      0.000     8.3996    101.008     38.499  38.113707     1.9292      7.574   185.3863 2.9482e+02     5.0094      0.160      0.231    24.4678 0.0000e+00
      0.162      0.001     8.4081    101.093     38.514  38.145272     1.9189      7.573   185.7271 2.8811e+02     4.9753      0.159      0.230    24.4725 0.0000e+00
      0.162      0.002     8.4167    101.200     38.523  38.175276     1.9049      7.572   185.9995 2.8564e+02     4.9425      0.158      0.229    24.4777 0.0000e+00
      0.163      0.004     8.4223    101.259     38.486  38.159229     1.8835      7.570   186.1848 2.8774e+02     4.9549      0.159      0.230    24.4804 0.0000e+00
      0.164      0.004     8.4233    101.235     38.450  38.141648     1.8768      7.565   186.4193 2.8907e+02     5.0223      0.161      0.233    24.4876 0.0000e+00
      0.166      0.004     8.4265    101.167     38.443  38.153106     1.8746      7.561   186.6831 2.8823e+02     5.0407      0.164      0.237    24.5131 0.0000e+00
      0.168      0.003     8.4338    101.109     38.441  38.170883     1.8476      7.558   186.8787 2.8717e+02     4.9718      0.166      0.240    24.5448 0.0000e+00
      0.169      0.002     8.4355    101.024     38.418  38.166252     1.8094      7.555   186.9781 2.8724e+02     4.9078      0.166      0.241    24.5708 0.0000e+00
      0.168      0.000     8.4289    100.859     38.401  38.160595     1.8035      7.554   187.0243 2.8939e+02     4.9492      0.166      0.240    24.5936 0.0000e+00
      0.167      0.000     8.4166    100.675     38.402  38.165958     1.8263      7.554   187.0073 2.9246e+02     5.0619      0.164      0.238    24.6152 0.0000e+00
      0.167     -0.001     8.4090    100.536     38.403  38.167641     1.8271      7.555   186.9446 2.9472e+02     5.0751      0.164      0.238    24.6440 0.0000e+00
      0.167     -0.001     8.4020    100.430     38.416  38.180948     1.8124      7.556   186.9546 2.9745e+02     5.0066      0.164      0.238    24.6710 0.0000e+00
      0.167      0.000     8.3815    100.299     38.434  38.199937     1.8067      7.558   186.9561 2.9871e+02     4.9861      0.164      0.238    24.6849 0.0000e+00
      0.167      0.000     8.3639    100.127     38.438  38.206859     1.8079      7.560   186.8766 2.9691e+02     4.9975      0.164      0.238    24.6889 0.0000e+00
      0.167      0.000     8.3529     99.985     38.430  38.201189     1.7934      7.561   186.8533 2.9581e+02     5.0072      0.164      0.238    24.6879 0.0000e+00
      0.167      0.001     8.3466     99.933     38.425  38.194854     1.7485      7.562   186.8469 2.9676e+02     4.9667      0.165      0.239    24.6861 0.0000e+00
      0.167      0.001     8.3370     99.955     38.430  38.193711     1.7315      7.563   186.7997 2.9626e+02     4.9521      0.164      0.238    24.6883 0.0000e+00
      0.167      0.001     8.3180     99.994     38.433  38.187366     1.7456      7.564   186.7981 2.9475e+02     5.0013      0.164      0.238    24.6945 0.0000e+00
      0.168      0.001     8.3041    100.025     38.438  38.181585     1.7605      7.566   186.7412 2.9552e+02     4.9813      0.165      0.240    24.6978 0.0000e+00
      0.169      0.000     8.3004    100.054     38.453  38.187247     1.7869      7.568   186.7148 2.9686e+02     4.8810      0.166      0.241    24.6951 0.0000e+00
      0.169 1.8598e-08     8.3061    100.106     38.465  38.192345     1.7994      7.569   186.8225 2.9781e+02     4.7450      0.166      0.241    24.6888 0.0000e+00
      0.169 2.0458e-07     8.3116    100.213     38.456  38.179758     1.8034      7.570   186.8394 2.9992e+02     4.6685      0.166      0.240    24.6761 0.0000e+00
      0.168 2.0150e-07     8.3164    100.338     38.440  38.161969     1.8098      7.572   186.7468 3.0269e+02     4.7083      0.165      0.239    24.6593 0.0000e+00
      0.168 -1.863e-08     8.3204    100.435     38.445  38.167639     1.8103      7.572   186.6491 3.0419e+02     4.8166      0.165      0.239    24.6470 0.0000e+00
      0.168 -4.081e-07     8.3235    100.518     38.461  38.184851     1.8100      7.572   186.6050 3.0410e+02     4.9531      0.165      0.240    24.6395 0.0000e+00
      0.169      0.000     8.3351    100.588     38.455  38.179707     1.8052      7.573   186.5574 3.0436e+02     4.9920      0.166      0.240    24.6339 0.0000e+00
      0.169      0.000     8.3483    100.635     38.443  38.168897     1.8102      7.575   186.4182 3.0449e+02     4.9453      0.166      0.241    24.6319 0.0000e+00
      0.169     -0.001     8.3544    100.664     38.454  38.181067     1.8125      7.578   186.3843 3.0355e+02     4.9011      0.166      0.241    24.6328 0.0000e+00
      0.168     -0.001     8.3611    100.636     38.471  38.199952     1.7918      7.580   186.4914 3.0447e+02     4.8328      0.165      0.240    24.6346 0.0000e+00
      0.167     -0.001     8.3683    100.555     38.475  38.206865     1.7686      7.582   186.5089 3.0759e+02     4.7693      0.164      0.238    24.6362 0.0000e+00
      0.167     -0.001     8.3697    100.500     38.467  38.201195     1.7485      7.584   186.4238 3.0820e+02     4.7475      0.164      0.237    24.6387 0.0000e+00
      0.167     -0.000     8.3745    100.494     38.459  38.194859     1.7317      7.586   186.4091 3.0574e+02     4.7743      0.163      0.237    24.6398 0.0000e+00
      0.167      0.001     8.3727    100.490     38.458  38.193716     1.7233      7.588   186.5035 3.0531e+02     4.7863      0.164      0.237    24.6412 0.0000e+00
      0.168      0.001     8.3605    100.443     38.453  38.187371     1.7218      7.589   186.6190 3.0737e+02     4.7898      0.165      0.239    24.6458 0.0000e+00
      0.168      0.001     8.3555    100.377     38.448  38.181598     1.7129      7.591   186.6863 3.0924e+02     4.8167      0.165      0.239    24.6499 0.0000e+00
      0.168      0.000     8.3561    100.377     38.455  38.187366     1.7157      7.592   186.7152 3.0962e+02     4.8725      0.166      0.240    24.6519 0.0000e+00
      0.168     -0.000     8.3581    100.455     38.465  38.193655     1.7648      7.593   186.7097 3.0864e+02     4.9864      0.165      0.240    24.6506 0.0000e+00
      0.168     -0.001     8.3542    100.545     38.469  38.194176     1.8149      7.594   186.6202 3.0934e+02     5.0320      0.165      0.239    24.6489 0.0000e+00
      0.168     -0.002     8.3443    100.604     38.470  38.193656     1.8222      7.595   186.4941 3.0975e+02     4.9795      0.165      0.239    24.6480 0.0000e+00
      0.168     -0.003     8.3446    100.629     38.462  38.187367     1.7946      7.596   186.5610 3.0807e+02     4.9322      0.164      0.238    24.6459 0.0000e+00
      0.167     -0.003     8.3550    100.627     38.453  38.181597     1.7643      7.597   186.8270 3.0871e+02     4.9728      0.165      0.239    24.6413 0.0000e+00
      0.165     -0.002     8.3643    100.591     38.456  38.187361     1.7643      7.597   186.9567 3.1274e+02     5.0600      0.163      0.235    24.6359 0.0000e+00
      0.163     -0.001     8.3697    100.529     38.461  38.193602     1.7779      7.598   186.9248 3.1436e+02     5.0302      0.160      0.231    24.6334 0.0000e+00
      0.163      0.001     8.3707    100.475     38.462  38.193602     1.7701      7.601   186.9574 3.1437e+02     4.9547      0.159      0.230    24.6353 0.0000e+00
      0.164      0.004     8.3703    100.475     38.455  38.187351     1.7942      7.601   187.1787 3.1659e+02     4.9332      0.160      0.232    24.6420 0.0000e+00
      0.166      0.007     8.3662    100.520     38.449  38.181482     1.8702      7.599   187.4493 3.1782e+02     4.9401      0.163      0.236    24.6468 0.0000e+00
      0.168      0.009     8.3601    100.552     38.454  38.186102     1.9157      7.597   187.5618 3.1930e+02     5.0043      0.165      0.239    24.6466 0.0000e+00
      0.170      0.009     8.3542    100.571     38.447  38.179757     1.9282      7.595   187.5935 3.2069e+02     5.0255      0.168      0.242    24.6441 0.0000e+00
      0.173      0.008     8.3536    100.596     38.436  38.168219     1.8880      7.594   187.6596 3.1776e+02     4.9580      0.170      0.245    24.6448 0.0000e+00
      0.177      0.005     8.3608    100.573     38.441  38.173505     1.7950      7.594   187.7592 3.1288e+02     4.9055      0.174      0.252    24.6473 0.0000e+00
      0.179      0.003     8.3628    100.499     38.448  38.180223     1.7448      7.595   187.8516 3.1216e+02     4.9367      0.178      0.257    24.6453 0.0000e+00
      0.178      0.001     8.3624    100.444     38.453  38.185983     1.7473      7.595   187.8298 3.1398e+02     5.0278      0.175      0.253    24.6456 0.0000e+00
      0.176     -0.001     8.3676    100.434     38.449  38.179684     1.7672      7.596   187.7544 3.1569e+02     5.0165      0.171      0.248    24.6471 0.0000e+00
      0.175     -0.002     8.3667    100.458     38.441  38.167521     1.7851      7.597   187.7997 3.1793e+02     4.9373      0.171      0.247    24.6455 0.0000e+00
      0.175      0.000     8.3558    100.495     38.442  38.165839     1.7980      7.598   187.9477 3.1748e+02     4.9573      0.172      0.249    24.6469 0.0000e+00
      0.175      0.003     8.3516    100.509     38.442  38.159342     1.8146      7.598   188.0812 3.1705e+02     5.0534      0.172      0.250    24.6484 0.0000e+00
      0.175      0.006     8.3517    100.509     38.449  38.152413     1.8353      7.597   188.2088 3.1817e+02     5.1094      0.170      0.247    24.6443 0.0000e+00
      0.176      0.007     8.3550    100.502     38.461  38.145498     1.8576      7.595   188.4587 3.1629e+02     5.0542      0.171      0.248    24.6361 0.0000e+00
      0.180      0.007     8.3606    100.457     38.471  38.139155     1.8675      7.593   188.7787 3.1230e+02     4.9659      0.177      0.257    24.6346 0.0000e+00
      0.185      0.008     8.3614    100.408     38.480  38.139147     1.8807      7.591   189.0670 3.1032e+02     4.9640      0.184      0.267    24.6323 0.0000e+00
      0.186      0.009     8.3628    100.419     38.487  38.145387     1.8999      7.592   189.1919 3.1025e+02     5.0656      0.183      0.266    24.6118 0.0000e+00
      0.185      0.010     8.3701    100.484     38.489  38.151151     1.8997      7.592   188.9978 3.1076e+02     5.2043      0.180      0.261    24.5838 0.0000e+00
      0.186      0.009     8.3681    100.585     38.480  38.145392     1.8865      7.592   188.6988 3.1044e+02     5.2408      0.181      0.263    24.5594 0.0000e+00
      0.191      0.007     8.3624    100.681     38.474  38.139208     1.8825      7.594   188.5876 3.0798e+02     5.2328      0.186      0.270    24.5470 0.0000e+00
      0.196      0.005     8.3653    100.732     38.476  38.139841     2.0172      7.596   188.6006 3.0614e+02     5.7227      0.194      0.281    24.5496 0.0000e+00
      0.199      0.004     8.3685    100.732     38.491  38.153052     3.6575      7.598   188.5974 3.0650e+02    11.2327      0.197      0.284    24.5568 0.0000e+00
      0.197      0.001     8.3784    100.695     38.512  38.172023     6.6748      7.599   188.6358 3.0869e+02    21.3325      0.193      0.279    24.5607 0.0000e+00
      0.193     -0.001     8.3881    100.668     38.519  38.178841     8.3108      7.601   188.8068 3.1096e+02    26.7941      0.189      0.275    24.5591 0.0000e+00
      0.192     -0.002     8.3922    100.680     38.511  38.172028     8.4077      7.601   189.0290 3.1393e+02    26.7806      0.188      0.273    24.5572 0.0000e+00
      0.192     -0.002     8.3929    100.680     38.493  38.153105     7.9628      7.601   189.1713 3.1721e+02    21.6823      0.189      0.273    24.5558 0.0000e+00
      0.193     -0.001     8.3885    100.625     38.484  38.140416     7.1265      7.600   189.2375 3.1606e+02    12.3248      0.189      0.274    24.5506 0.0000e+00
      0.193      0.000     8.3847    100.573     38.493  38.145513     6.6524      7.599   189.3132 3.1323e+02     7.2025      0.190      0.275    24.5506 0.0000e+00
      0.193      0.000     8.3868    100.570     38.499  38.151277     6.4916      7.599   189.3986 3.1250e+02     6.6499      0.189      0.274    24.5560 0.0000e+00
      0.192      0.000     8.3903    100.573     38.493  38.146648     5.3401      7.600   189.4095 3.1217e+02     6.1555      0.188      0.273    24.5542 0.0000e+00
      0.192      0.001     8.3832    100.570     38.496  38.153001     3.2665      7.601   189.3592 3.1104e+02     5.4261      0.187      0.271    24.5470 0.0000e+00
      0.192      0.001     8.3774    100.595     38.502  38.164642     2.1529      7.602   189.3059 3.1044e+02     5.0732      0.188      0.273    24.5413 0.0000e+00
      0.193      0.001     8.3807    100.667     38.492  38.160489     2.0722      7.603   189.1951 3.1142e+02     5.0653      0.190      0.275    24.5403 0.0000e+00
      0.194      0.001     8.3802    100.767     38.492  38.166263     2.0487      7.604   189.0526 3.1087e+02     5.0231      0.191      0.276    24.5434 0.0000e+00
      0.194      0.001     8.3776    100.852     38.491  38.171001     1.9933      7.606   189.0453 3.0942e+02     4.9394      0.191      0.277    24.5486 0.0000e+00
      0.194      0.000     8.3782    100.886     38.470  38.154329     1.9858      7.607   189.1930 3.0949e+02     4.9410      0.190      0.276    24.5558 0.0000e+00
      0.194 4.2828e-07     8.3833    100.870     38.467  38.155058     2.0832      7.607   189.3757 3.0939e+02     5.0421      0.190      0.275    24.5634 0.0000e+00
      0.194      0.000     8.3923    100.827     38.489  38.179815     2.8290      7.607   189.5339 3.1059e+02     5.4786      0.190      0.276    24.5707 0.0000e+00
      0.194      0.000     8.3995    100.786     38.507  38.199844     4.1697      7.607   189.7294 3.1318e+02     6.2225      0.191      0.277    24.5792 0.0000e+00
      0.194      0.001     8.4007    100.749     38.511  38.206862     4.9017      7.607   189.9323 3.1384e+02     6.6233      0.190      0.276    24.5853 0.0000e+00
      0.194      0.001     8.3988    100.692     38.501  38.201210     4.9960      7.606   190.0080 3.1288e+02     6.6696      0.191      0.277    24.5879 0.0000e+00
      0.194      0.001     8.3930    100.605     38.488  38.194978     5.2190      7.606   190.0430 3.1287e+02     6.7138      0.191      0.277    24.5921 0.0000e+00
      0.194      0.001     8.3894    100.539     38.481  38.194978     7.4648      7.607   190.1828 3.1422e+02     7.2611      0.191      0.277    24.5954 0.0000e+00
      0.195      0.001     8.3865    100.520     38.481  38.201208    11.5753      7.608   190.3213 3.1552e+02     8.3334      0.192      0.278    24.5974 0.0000e+00
      0.195      0.002     8.3821    100.490     38.482  38.206868    13.8020      7.608   190.3418 3.1461e+02     8.9187      0.191      0.277    24.6036 0.0000e+00
      0.195      0.002     8.3710    100.420     38.472  38.199954    13.8381      7.608   190.3434 3.1209e+02     8.9065      0.191      0.277    24.6139 0.0000e+00
      0.196      0.002     8.3615    100.340     38.453  38.181079    11.9863      7.609   190.4275 3.1189e+02     8.0493      0.192      0.278    24.6237 0.0000e+00
      0.197      0.001     8.3635    100.290     38.441  38.169021     8.5413      7.609   190.4984 3.1334e+02     6.3763      0.193      0.281    24.6304 0.0000e+00
      0.198      0.000     8.3594    100.265     38.453  38.181080     6.6508      7.608   190.5117 3.1399e+02     5.4852      0.195      0.283    24.6371 0.0000e+00
      0.198     -0.001     8.3526    100.253     38.473  38.199955     6.3820      7.608   190.5890 3.1356e+02     5.4734      0.194      0.282    24.6419 0.0000e+00
      0.197     -0.002     8.3435    100.249     38.480  38.206867     5.2246      7.609   190.5721 3.1265e+02     5.3802      0.194      0.281    24.6415 0.0000e+00
      0.196     -0.003     8.3405    100.234     38.476  38.201197     3.1280      7.609   190.4803 3.1341e+02     5.1435      0.193      0.280    24.6396 0.0000e+00
      0.194     -0.003     8.3394    100.217     38.472  38.194861     1.9806      7.608   190.5109 3.1495e+02     4.9679      0.190      0.275    24.6398 0.0000e+00
      0.194     -0.003     8.3374    100.227     38.472  38.193708     1.8807      7.608   190.5124 3.1699e+02     4.9316      0.190      0.276    24.6394 0.0000e+00
      0.193     -0.002     8.3389    100.264     38.465  38.187259     1.9372      7.608   190.5844 3.1892e+02     5.0464      0.190      0.275    24.6393 0.0000e+00
      0.193      0.000     8.3370    100.287     38.459  38.180342     2.0469      7.607   190.7783 3.1825e+02     5.1943      0.188      0.273    24.6389 0.0000e+00
      0.193      0.002     8.3352    100.287     38.456  38.173529     2.1088      7.607   190.9639 3.1745e+02     5.2165      0.189      0.276    24.6337 0.0000e+00
      0.193      0.002     8.3360    100.290     38.455  38.168338     2.1444      7.607   191.1944 3.1683e+02     5.1787      0.190      0.275    24.6305 0.0000e+00
      0.195      0.002     8.3412    100.308     38.467  38.181019     2.4948      7.607   191.2421 3.1561e+02     5.2156      0.191      0.276    24.6333 0.0000e+00
      0.197      0.001     8.3429    100.327     38.481  38.199950     3.1328      7.607   191.1102 3.1503e+02     5.2872      0.194      0.281    24.6340 0.0000e+00
      0.198      0.000     8.3428    100.337     38.479  38.206867     3.4824      7.607   191.1491 3.1404e+02     5.2923      0.195      0.283    24.6263 0.0000e+00
      0.197     -0.000     8.3441    100.346     38.461  38.201210     3.5340      7.607   191.2823 3.1290e+02     5.2438      0.194      0.282    24.6179 0.0000e+00
      0.195     -0.001     8.3460    100.350     38.441  38.195033     3.6896      7.608   191.3442 3.1390e+02     5.2471      0.191      0.277    24.6189 0.0000e+00
      0.194     -0.002     8.3469    100.333     38.432  38.195657     5.4645      7.609   191.2942 3.1615e+02     5.9131      0.190      0.275    24.6282 0.0000e+00
      0.194     -0.002     8.3451    100.293     38.441  38.208764     8.7382      7.609   191.1945 3.1725e+02     7.1806      0.190      0.276    24.6389 0.0000e+00
      0.195     -0.001     8.3434    100.229     38.457  38.226599    10.5037      7.609   191.1714 3.1704e+02     7.8655      0.191      0.277    24.6561 0.0000e+00
      0.195     -0.001     8.3415    100.135     38.450  38.220934    10.4647      7.609   191.1869 3.1546e+02     7.8403      0.192      0.278    24.6770 0.0000e+00
      0.194     -0.001     8.3378    100.010     38.431  38.203737     8.2749      7.611   191.2095 3.1546e+02     7.0467      0.191      0.276    24.6886 0.0000e+00
      0.194     -0.002     8.3342     99.859     38.435  38.209043     4.2358      7.613   191.2723 3.1861e+02     5.6144      0.191      0.276    24.6926 0.0000e+00
      0.193     -0.002     8.3286     99.705     38.445  38.221631     2.0456      7.615   191.3446 3.2015e+02     4.8362      0.189      0.275    24.6949 0.0000e+00
      0.192     -0.002     8.3207     99.591     38.450  38.229026     1.8683      7.616   191.3955 3.1872e+02     4.7762      0.189      0.274    24.6970 0.0000e+00
      0.192     -0.001     8.3100     99.547     38.454  38.234998     1.9750      7.616   191.3714 3.1739e+02     4.8206      0.188      0.273    24.6991 0.0000e+00
      0.192     -0.000     8.2962     99.538     38.446  38.230381     2.1951      7.617   191.3104 3.1749e+02     4.9287      0.187      0.272    24.7006 0.0000e+00
      0.192     -0.000     8.2823     99.541     38.449  38.236670     2.3157      7.618   191.2605 3.1768e+02     5.0245      0.188      0.273    24.7028 0.0000e+00
      0.193     -0.001     8.2696     99.561     38.459  38.247582     2.3685      7.620   191.1984 3.1681e+02     5.0566      0.189      0.274    24.7069 0.0000e+00
      0.193     -0.001     8.2680     99.573     38.450  38.235412     2.7843      7.621   191.1624 3.1660e+02     5.1464      0.189      0.275    24.7098 0.0000e+00
      0.192     -0.000     8.2680     99.606     38.435  38.216423     3.5224      7.622   191.1684 3.1751e+02     5.2896      0.189      0.274    24.7134 0.0000e+00
      0.191      0.001     8.2651     99.704     38.429  38.208357     3.9095      7.623   191.2721 3.1794e+02     5.3193      0.188      0.273    24.7195 0.0000e+00
      0.191      0.003     8.2694     99.813     38.422  38.201335     3.9025      7.625   191.3835 3.1772e+02     5.3349      0.186      0.271    24.7209 0.0000e+00
      0.191      0.006     8.2700     99.865     38.417  38.194980     3.4051      7.626   191.3962 3.1795e+02     5.3762      0.186      0.270    24.7153 0.0000e+00
      0.193      0.008     8.2707     99.861     38.422  38.194970     2.4486      7.626   191.4256 3.1822e+02     5.3057      0.190      0.274    24.7080 0.0000e+00
      0.197      0.008     8.2822     99.854     38.432  38.201211     1.9090      7.626   191.4814 3.1802e+02     5.1997      0.193      0.280    24.7059 0.0000e+00
      0.201      0.007     8.2935     99.885     38.442  38.206976     1.8576      7.627   191.4681 3.1711e+02     5.1538      0.198      0.287    24.7084 0.0000e+00
      0.203      0.005     8.2976     99.932     38.439  38.201213     1.8767      7.629   191.4369 3.1439e+02     5.1954      0.201      0.291    24.7064 0.0000e+00
      0.203      0.002     8.2967     99.968     38.433  38.194981     1.9156      7.630   191.3628 3.1243e+02     5.2586      0.199      0.289    24.6993 0.0000e+00
      0.202      0.000     8.2947     99.992     38.433  38.195085     1.9291      7.631   191.2602 3.1194e+02     5.2345      0.197      0.287    24.6926 0.0000e+00
      0.201     -0.002     8.3003     99.993     38.443  38.202472     1.9226      7.632   191.2284 3.1142e+02     5.1780      0.197      0.286    24.6869 0.0000e+00
      0.201     -0.002     8.3055     99.966     38.463  38.220832     1.9203      7.634   191.2369 3.1274e+02     5.1551      0.196      0.285    24.6837 0.0000e+00
      0.200     -0.002     8.3076     99.910     38.469  38.226705     1.8843      7.634   191.3625 3.1428e+02     5.1973      0.197      0.285    24.6849 0.0000e+00
      0.199     -0.001     8.3104     99.841     38.450  38.210022     1.8040      7.635   191.6283 3.1571e+02     5.2440      0.196      0.284    24.6854 0.0000e+00
      0.198      0.000     8.3107     99.785     38.446  38.209501     1.7483      7.635   191.7848 3.1779e+02     5.2072      0.194      0.282    24.6819 0.0000e+00
      0.198      0.001     8.3097     99.730     38.454  38.220405     1.7858      7.636   191.7055 3.1821e+02     5.2313      0.194      0.282    24.6783 0.0000e+00
      0.199      0.001     8.3041     99.656     38.449  38.214947     2.2817      7.638   191.6158 3.1867e+02     5.7058      0.195      0.283    24.6789 0.0000e+00
      0.200      0.001     8.2966     99.604     38.443  38.206976     3.1751      7.638   191.6468 3.2007e+02     6.5035      0.196      0.284    24.6824 0.0000e+00
      0.201      0.001     8.2922     99.613     38.425  38.187481     3.6985      7.638   191.6502 3.2092e+02     6.9168      0.197      0.286    24.6862 0.0000e+00
      0.201      0.000     8.2882     99.670     38.407  38.169598     4.2734      7.638   191.5706 3.2043e+02     7.1170      0.198      0.288    24.6905 0.0000e+00
      0.201     -0.001     8.2802     99.762     38.417  38.181126    10.2674      7.639   191.5444 3.1860e+02     9.3334      0.197      0.286    24.6917 0.0000e+00
      0.200     -0.002     8.2744     99.878     38.434  38.199954    21.2561      7.640   191.5920 3.1686e+02    13.4248      0.196      0.284    24.6868 0.0000e+00
      0.199     -0.002     8.2774     99.980     38.439  38.206871    27.2382      7.641   191.6297 3.1587e+02    15.6622      0.196      0.284    24.6836 0.0000e+00
      0.198     -0.002     8.2818    100.052     38.434  38.201315    27.6803      7.642   191.6558 3.1703e+02    15.7874      0.194      0.281    24.6854 0.0000e+00
      0.197     -0.002     8.2889    100.084     38.434  38.196228    26.5685      7.643   191.7363 3.1918e+02    15.1443      0.193      0.280    24.6868 0.0000e+00
      0.197     -0.001     8.3003    100.059     38.452  38.208816    24.4411      7.643   191.8281 3.1958e+02    14.0686      0.194      0.281    24.6902 0.0000e+00
      0.197      0.000     8.3076     99.989     38.471  38.226596    23.2567      7.644   191.8201 3.2050e+02    13.5760      0.193      0.280    24.6952 0.0000e+00
      0.197 -4.266e-07     8.3145     99.930     38.463  38.220823    22.9276      7.645   191.7255 3.2227e+02    13.5596      0.193      0.280    24.6928 0.0000e+00
      0.198     -0.000     8.3192     99.915     38.442  38.202476    20.5198      7.647   191.6300 3.2325e+02    13.3925      0.194      0.281    24.6832 0.0000e+00
      0.198     -0.000     8.3183     99.914     38.435  38.195138    16.1091      7.649   191.6122 3.2365e+02    13.1271      0.194      0.282    24.6756 0.0000e+00
      0.198     -0.001     8.3103     99.896     38.438  38.195554    13.6934      7.649   191.6831 3.2323e+02    13.0156      0.194      0.282    24.6753 0.0000e+00
      0.198     -0.001     8.3029     99.866     38.453  38.207507    13.4599      7.649   191.7981 3.2405e+02    13.0348      0.194      0.282    24.6799 0.0000e+00
      0.197     -0.000     8.3035     99.857     38.459  38.212746    13.1937      7.649   191.8846 3.2636e+02    12.8464      0.193      0.280    24.6830 0.0000e+00
      0.196 -2.189e-08     8.3044     99.897     38.441  38.195440    10.3169      7.650   191.9538 3.2697e+02    10.7381      0.193      0.279    24.6822 0.0000e+00
      0.196 -2.408e-07     8.3030     99.964     38.434  38.188628     5.0360      7.650   192.0330 3.2633e+02     6.9466      0.192      0.278    24.6796 0.0000e+00
      0.197 -6.164e-07     8.2999    100.009     38.439  38.193838     2.1622      7.650   192.0685 3.2711e+02     4.9192      0.193      0.280    24.6751 0.0000e+00
      0.198      0.000     8.2985    100.026     38.442  38.194983     1.9797      7.648   192.1243 3.2847e+02     4.8087      0.194      0.282    24.6720 0.0000e+00
      0.198      0.000     8.3022    100.045     38.450  38.202463     2.7453      7.644   192.2774 3.2893e+02     4.9612      0.195      0.283    24.6737 0.0000e+00
      0.198     -0.001     8.3102    100.089     38.468  38.220822     4.1693      7.641   192.4578 3.3063e+02     5.1575      0.195      0.282    24.6753 0.0000e+00
      0.197     -0.001     8.3134    100.149     38.472  38.226590     4.9305      7.641   192.5840 3.3301e+02     5.2013      0.193      0.280    24.6752 0.0000e+00
      0.196     -0.002     8.3142    100.208     38.451  38.208754     4.9916      7.641   192.6840 3.3247e+02     5.1829      0.193      0.279    24.6729 0.0000e+00
      0.196     -0.002     8.3152    100.238     38.435  38.195544     5.0998      7.639   192.7219 3.3087e+02     5.1752      0.192      0.278    24.6705 0.0000e+00
      0.196     -0.001     8.3192    100.195     38.431  38.193785     5.2814      7.639   192.6110 3.3127e+02     5.0740      0.192      0.278    24.6715 0.0000e+00
      0.196     -0.001     8.3245    100.092     38.422  38.187487     5.3639      7.639   192.5478 3.3256e+02     4.9493      0.192      0.278    24.6742 0.0000e+00
      0.196     -0.002     8.3289     99.978     38.417  38.182853     5.2899      7.639   192.7315 3.3318e+02     4.8969      0.192      0.278    24.6781 0.0000e+00
      0.195     -0.002     8.3335     99.880     38.436  38.201212     4.3949      7.639   193.0259 3.3349e+02     4.8849      0.191      0.277    24.6818 0.0000e+00
      0.195     -0.003     8.3283     99.810     38.453  38.219093     2.7584      7.639   193.1822 3.3514e+02     4.8379      0.191      0.277    24.6856 0.0000e+00
      0.194     -0.004     8.3171     99.773     38.441  38.208690     1.8579      7.638   193.1579 3.3730e+02     4.7733      0.190      0.276    24.6893 0.0000e+00
      0.192     -0.004     8.3074     99.759     38.435  38.202344     1.7630      7.636   193.2485 3.3795e+02     4.7186      0.189      0.274    24.6893 0.0000e+00
      0.190     -0.003     8.2988     99.790     38.442  38.205820     1.7620      7.633   193.5902 3.3805e+02     4.6203      0.187      0.271    24.6894 0.0000e+00
      0.189     -0.002     8.2923     99.876     38.432  38.187263     1.7872      7.629   193.8482 3.3865e+02     4.5417      0.186      0.270    24.6904 0.0000e+00
      0.189      0.000     8.2905     99.963     38.425  38.168323     1.8182      7.628   193.8717 3.3836e+02     4.5540      0.184      0.268    24.6910 0.0000e+00
      0.189      0.003     8.2877    100.006     38.435  38.167171     1.8285      7.628   193.7883 3.3666e+02     4.5305      0.185      0.267    24.6925 0.0000e+00
      0.190      0.005     8.2898    100.008     38.450  38.173318     1.8367      7.630   193.7011 3.3602e+02     4.4614      0.187      0.272    24.6888 0.0000e+00
      0.192      0.005     8.3015    100.004     38.461  38.179177     2.0749      7.630   193.6778 3.3695e+02     4.5388      0.189      0.274    24.6764 0.0000e+00
      0.195      0.005     8.3127    100.025     38.460  38.174552     2.5368      7.631   193.6783 3.3780e+02     4.7828      0.192      0.278    24.6598 0.0000e+00
      0.197      0.004     8.3184    100.081     38.468  38.180841     2.8272      7.632   193.7065 3.3785e+02     4.9867      0.194      0.281    24.6440 0.0000e+00
      0.197      0.003     8.3191    100.172     38.480  38.191763     3.1055      7.635   193.7606 3.3805e+02     5.0907      0.194      0.281    24.6326 0.0000e+00
      0.197      0.002     8.3184    100.298     38.468  38.179698     5.8601      7.636   193.8167 3.4051e+02     5.9374      0.193      0.280    24.6266 0.0000e+00
      0.197      0.001     8.3210    100.413     38.450  38.161863    10.9299      7.635   193.8689 3.4158e+02     7.5389      0.193      0.279    24.6219 0.0000e+00
      0.197      0.001     8.3262    100.446     38.455  38.166495    13.6917      7.634   193.8751 3.3981e+02     8.3996      0.193      0.280    24.6197 0.0000e+00
      0.198      0.001     8.3331    100.408     38.461  38.172259    13.8094      7.634   193.8920 3.4018e+02     8.4536      0.194      0.281    24.6198 0.0000e+00
      0.198      0.001     8.3450    100.366     38.459  38.168098    12.2781      7.634   193.9008 3.4054e+02     7.7130      0.194      0.281    24.6191 0.0000e+00
      0.198      0.001     8.3581    100.345     38.475  38.179636     9.4258      7.635   193.8093 3.3874e+02     6.2431      0.194      0.282    24.6182 0.0000e+00
      0.198      0.001     8.3601    100.347     38.483  38.184838     7.8698      7.636   193.7320 3.3859e+02     5.4714      0.195      0.282    24.6196 0.0000e+00
      0.199      0.000     8.3533    100.376     38.463  38.167528     7.6815      7.638   193.7400 3.3877e+02     5.5223      0.195      0.283    24.6210 0.0000e+00
      0.199      0.000     8.3506    100.404     38.452  38.160718     6.9655      7.641   193.6483 3.3707e+02     6.3114      0.195      0.283    24.6162 0.0000e+00
      0.198      0.001     8.3502    100.423     38.454  38.165965     5.6391      7.643   193.4843 3.3660e+02     7.7029      0.195      0.282    24.6091 0.0000e+00
      0.198      0.001     8.3503    100.470     38.455  38.167525     4.9031      7.645   193.4773 3.3652e+02     8.4439      0.195      0.282    24.6039 0.0000e+00
      0.199      0.001     8.3536    100.530     38.471  38.179573     4.8076      7.647   193.4778 3.3488e+02     8.4385      0.195      0.282    24.6071 0.0000e+00
      0.200      0.001     8.3558    100.557     38.483  38.184717     4.5016      7.648   193.3178 3.3446e+02     7.6038      0.196      0.284    24.6166 0.0000e+00
      0.200      0.001     8.3533    100.565     38.473  38.166260     3.9330      7.649   193.2641 3.3500e+02     6.0033      0.197      0.285    24.6222 0.0000e+00
      0.200      0.001     8.3581    100.566     38.463  38.146768     3.6095      7.651   193.4315 3.3432e+02     5.0733      0.196      0.284    24.6226 0.0000e+00
      0.200      0.001     8.3669    100.561     38.464  38.139394     3.5690      7.652   193.1041 3.3367e+02     4.9677      0.196      0.284    24.6166 0.0000e+00
      0.200      0.000     8.3688    100.575     38.471  38.140539     3.5596      7.654   192.4036 3.3343e+02     4.9314      0.196      0.285    24.6074 0.0000e+00
      0.200 -4.319e-07     8.3708    100.615     38.496  38.160605     3.6210      7.655   192.6194 3.3305e+02     4.8045      0.197      0.286    24.5956 0.0000e+00
      0.200      0.000     8.3742    100.661     38.528  38.191637     3.7543      7.656   193.3891 3.3376e+02     4.6298      0.196      0.285    24.5823 0.0000e+00
      0.200      0.000     8.3735    100.682     38.532  38.198458     3.8232      7.657   193.7084 3.3387e+02     4.4924      0.196      0.285    24.5721 0.0000e+00
      0.200     -0.001     8.3759    100.660     38.507  38.179631     3.7795      7.658   193.7273 3.3169e+02     4.4424      0.196      0.284    24.5635 0.0000e+00
      0.200     -0.002     8.3815    100.648     38.475  38.154372     3.4335      7.659   193.7036 3.2965e+02     4.6051      0.197      0.285    24.5569 0.0000e+00
      0.200     -0.003     8.3854    100.642     38.461  38.146892     2.8277      7.658   193.6805 3.3016e+02     4.8881      0.197      0.285    24.5551 0.0000e+00
      0.199     -0.003     8.3892    100.584     38.461  38.152656     2.4971      7.658   193.7910 3.3371e+02     4.9948      0.195      0.282    24.5594 0.0000e+00
      0.197     -0.002     8.3821    100.500     38.459  38.160617     2.4750      7.658   194.0070 3.3866e+02     4.9383      0.193      0.280    24.5686 0.0000e+00
      0.195     -0.002     8.3794    100.448     38.464  38.179698     2.5595      7.659   194.0563 3.4207e+02     4.8553      0.191      0.278    24.5775 0.0000e+00
      0.195     -0.001     8.3823    100.428     38.464  38.193020     2.7207      7.659   194.0426 3.4373e+02     4.8105      0.192      0.277    24.5854 0.0000e+00
      0.196      0.000     8.3736    100.406     38.455  38.194808     2.8095      7.659   194.1847 3.4606e+02     4.7722      0.193      0.279    24.5921 0.0000e+00
      0.197      0.002     8.3633    100.391     38.454  38.201323     2.8336      7.660   194.3114 3.4937e+02     4.6996      0.193      0.280    24.6025 0.0000e+00
      0.197      0.003     8.3553    100.389     38.456  38.208349     3.0196      7.661   194.1988 3.5153e+02     4.7185      0.193      0.280    24.6239 0.0000e+00
      0.197      0.003     8.3533    100.389     38.459  38.216316     3.3613      7.662   194.1141 3.4993e+02     4.8642      0.193      0.280    24.6433 0.0000e+00
      0.198      0.003     8.3479    100.398     38.467  38.234198     3.5610      7.662   196.8141 3.4592e+02     4.9926      0.195      0.282    24.6573 0.0000e+00
      0.200      0.003     8.3445    100.412     38.455  38.234208     3.5534      7.663   199.8286 3.4421e+02     5.0070      0.196      0.284    24.6684 0.0000e+00
      0.201      0.003     8.3454    100.403     38.429  38.216438     3.2024      7.665   198.2117 3.4512e+02     4.9015      0.197      0.286    24.6711 0.0000e+00
      0.202      0.003     8.3434    100.330     38.419  38.209729     2.5799      7.667   195.8483 3.4539e+02     4.7419      0.198      0.287    24.6753 0.0000e+00
      0.202      0.003     8.3423    100.171     38.424  38.216558     2.2525      7.667   195.0007 3.4551e+02     4.6823      0.198      0.287    24.6904 0.0000e+00
      0.203      0.002     8.3414     99.996     38.439  38.235549     2.2405      7.667   194.6732 3.4824e+02     4.7278      0.199      0.288    24.7092 0.0000e+00
      0.204      0.001     8.3400     99.912     38.446  38.248976     2.2848      7.667   194.9000 3.5279e+02     4.7451      0.200      0.290    24.7198 0.0000e+00
      0.204      0.001     8.3350     99.912     38.441  38.252001     2.7711      7.668   194.9897 3.5789e+02     4.7546      0.200      0.290    24.7228 0.0000e+00
      0.204      0.000     8.3201     99.933     38.455  38.272142     3.6923      7.669   194.9833 3.6323e+02     4.8432      0.200      0.290    24.7221 0.0000e+00
      0.203      0.000     8.2993     99.950     38.480  38.302140     4.2094      7.671   194.9953 3.6520e+02     4.9630      0.199      0.288    24.7261 0.0000e+00
      0.203     -0.001     8.2923     99.966     38.471  38.297426     4.2294      7.672   194.8772 3.6351e+02     5.0760      0.199      0.288    24.7385 0.0000e+00
      0.203     -0.001     8.2929     99.962     38.450  38.278606     3.7430      7.673   194.7589 3.6236e+02     5.6963      0.200      0.290    24.7492 0.0000e+00
      0.203     -0.001     8.2941     99.905     38.434  38.264970     2.8230      7.674   195.0281 3.6023e+02     6.8263      0.199      0.289    24.7563 0.0000e+00
      0.202     -0.002     8.2938     99.800     38.424  38.259474     2.3186      7.676   195.1207 3.5631e+02     7.4661      0.198      0.288    24.7636 0.0000e+00
      0.202     -0.002     8.2945     99.660     38.433  38.275613     2.2798      7.677   194.5015 3.5581e+02     7.5230      0.198      0.287    24.7697 0.0000e+00
      0.201     -0.001     8.2963     99.487     38.420  38.269742     2.2880      7.678   193.7364 3.6067e+02     6.9326      0.197      0.286    24.7707 0.0000e+00
      0.201     -0.001     8.2903     99.337     38.397  38.251952     2.2684      7.680   193.6994 3.6738e+02     5.7254      0.197      0.285    24.7717 0.0000e+00
      0.201      0.000     8.2796     99.261     38.393  38.250902     2.2254      7.682   194.3123 3.7316e+02     5.0190      0.196      0.284    24.7789 0.0000e+00
      0.201 -3.725e-08     8.2680     99.261     38.397  38.257048     2.2589      7.682   194.5220 3.7242e+02     4.9499      0.197      0.286    24.7887 0.0000e+00
      0.201 -4.098e-07     8.2493     99.301     38.401  38.262803     2.8733      7.683   194.3421 3.6204e+02     5.1974      0.197      0.286    24.7995 0.0000e+00
      0.202     -0.000     8.2338     99.340     38.396  38.257033     3.9945      7.684   194.4603 3.5860e+02     5.6890      0.198      0.287    24.8069 0.0000e+00
      0.202     -0.000     8.2280     99.381     38.391  38.250745     4.5956      7.686   194.7459 3.6950e+02     5.9407      0.198      0.287    24.8086 0.0000e+00
      0.202     -0.001     8.2278     99.423     38.390  38.250225     4.6232      7.686   194.8709 3.8195e+02     5.8839      0.198      0.287    24.8110 0.0000e+00
      0.201     -0.001     8.2333     99.473     38.388  38.250754     4.4696      7.686   194.9394 3.8804e+02     5.6853      0.197      0.286    24.8153 0.0000e+00
      0.200     -0.001     8.2355     99.546     38.392  38.257147     4.1786      7.687   195.0573 3.9215e+02     5.4185      0.196      0.284    24.8124 0.0000e+00
      0.200     -0.001     8.2397     99.610     38.396  38.264071     4.0171      7.688   195.0920 3.9476e+02     5.2890      0.195      0.283    24.8101 0.0000e+00
      0.200     -0.000     8.2433     99.630     38.402  38.271007     4.0569      7.690   195.1010 3.8711e+02     5.2802      0.196      0.284    24.8123 0.0000e+00
      0.200      0.000     8.2452     99.601     38.409  38.277561     4.7517      7.690   195.1651 3.8751e+02     5.6879      0.196      0.285    24.8141 0.0000e+00
      0.200      0.001     8.2524     99.533     38.413  38.279858    12.5923      7.691   195.2661 4.0394e+02     6.5975      0.196      0.285    24.8189 0.0000e+00
      0.201      0.001     8.2586     99.471     38.430  38.298782    26.9792      7.693   195.2892 4.0852e+02     7.1916      0.197      0.286    24.8228 0.0000e+00
      0.201      0.001     8.2592     99.441     38.440  38.315998    34.7875      7.695   195.1861 4.0282e+02     7.3029      0.197      0.286    24.8247 0.0000e+00
      0.201      0.001     8.2576     99.409     38.412  38.297652    35.0396      7.695   195.1384 4.1542e+02     7.3285      0.197      0.286    24.8245 0.0000e+00
      0.202      0.000     8.2506     99.358     38.375  38.267342    30.1032      7.696   195.1429 4.3072e+02     7.9111      0.198      0.287    24.8198 0.0000e+00
      0.202 1.8629e-08     8.2437     99.308     38.369  38.266821    20.9705      7.698   195.1546 4.2203e+02     9.0871      0.198      0.287    24.8196 0.0000e+00
      0.201 2.0492e-07     8.2420     99.268     38.391  38.291361    15.9786      7.698   195.1935 4.1692e+02     9.6931      0.197      0.286    24.8330 0.0000e+00
      0.201 2.0520e-07     8.2373     99.243     38.412  38.310236    15.2493      7.699   195.1829 4.3348e+02     9.6028      0.197      0.286    24.8470 0.0000e+00
      0.201 2.2011e-08     8.2309     99.198     38.411  38.304658    11.9868      7.700   195.1987 4.4614e+02     8.4398      0.197      0.286    24.8538 0.0000e+00
      0.201 3.8918e-08     8.2257     99.126     38.398  38.287367     6.0531      7.701   195.2121 4.6759e+02     6.2887      0.197      0.286    24.8621 0.0000e+00
      0.202 4.0962e-07     8.2208     99.076     38.405  38.291530     2.8246      7.701   195.1734 5.2086e+02     5.1477      0.198      0.287    24.8671 0.0000e+00
      0.202      0.000     8.2208     99.062     38.407  38.291530     2.5482      7.701   195.2463 5.7841e+02     5.0292      0.198      0.287    24.8623 0.0000e+00
      0.201      0.000     8.2198     99.067     38.404  38.287368     2.4867      7.701   195.4052 5.8653e+02     4.9241      0.197      0.286    24.8539 0.0000e+00
      0.201      0.001     8.2111     99.074     38.421  38.304670     2.3982      7.700   195.5454 5.3981e+02     4.8675      0.197      0.286    24.8488 0.0000e+00
      0.202      0.001     8.2080     99.063     38.425  38.310358     2.3511      7.700   195.6516 5.0054e+02     4.8910      0.198      0.287    24.8452 0.0000e+00
      0.202      0.001     8.2082     99.060     38.404  38.292675     2.3585      7.699   195.7425 4.8728e+02     4.9698      0.198      0.287    24.8429 0.0000e+00
      0.202      0.000     8.2081     99.092     38.389  38.281240     2.4124      7.698   195.7848 4.7317e+02     4.9318      0.198      0.288    24.8422 0.0000e+00
      0.203     -0.001     8.2108     99.132     38.402  38.299027     2.5041      7.698   195.7326 4.4035e+02     4.7738      0.199      0.289    24.8415 0.0000e+00
      0.203     -0.002     8.2081     99.157     38.416  38.317367     2.5591      7.698   195.7134 4.1036e+02     4.6987      0.199      0.288    24.8435 0.0000e+00
      0.202     -0.003     8.2055     99.161     38.410  38.312629     2.5706      7.698   195.8100 4.0163e+02     4.7406      0.198      0.287    24.8482 0.0000e+00
      0.201     -0.003     8.2094     99.146     38.403  38.305196     2.6593      7.699   195.8685 4.0410e+02     4.8703      0.197      0.286    24.8529 0.0000e+00
      0.199     -0.003     8.2122     99.125     38.389  38.290955     2.8237      7.699   195.8181 4.2221e+02     4.9696      0.196      0.284    24.8594 0.0000e+00
      0.197     -0.002     8.2131     99.092     38.366  38.267352     2.9027      7.699   195.8897 4.8885e+02     4.9508      0.194      0.280    24.8662 0.0000e+00
      0.197      0.000     8.2135     99.041     38.374  38.273640     2.9067      7.699   196.0456 7.1918e+02     4.9158      0.193      0.279    24.8684 0.0000e+00
      0.198      0.002     8.2113     98.990     38.405  38.303524     2.9798      7.700   196.0683 9.4710e+02     4.9221      0.194      0.281    24.8676 0.0000e+00
      0.199      0.003     8.2103     98.945     38.413  38.311386     3.7704      7.701   196.0790 9.9137e+02     5.2322      0.195      0.282    24.8665 0.0000e+00
      0.201      0.003     8.2084     98.912     38.403  38.305248     5.2074      7.701   196.1744 1.0902e+03     5.7958      0.197      0.285    24.8651 0.0000e+00
      0.203      0.002     8.2031     98.901     38.384  38.292775     5.9893      7.700   196.2751 1.2761e+03     6.0661      0.199      0.289    24.8641 0.0000e+00
      0.203      0.001     8.1991     98.876     38.372  38.287496     6.1086      7.700   196.3506 1.2823e+03     6.0748      0.200      0.290    24.8625 0.0000e+00
      0.203     -0.000     8.1957     98.791     38.384  38.304894     6.6573      7.700   196.4848 1.1173e+03     6.0033      0.199      0.289    24.8614 0.0000e+00
      0.202     -0.002     8.1914     98.701     38.389  38.312766     7.6549      7.700   196.6068 1.0907e+03     5.8510      0.198      0.288    24.8648 0.0000e+00
      0.201     -0.002     8.1901     98.666     38.394  38.319215     8.1826      7.701   196.6209 1.1013e+03     5.7363      0.197      0.286    24.8740 0.0000e+00
      0.200     -0.001     8.1898     98.666     38.394  38.319414     8.0866      7.701   196.5695 9.8216e+02     5.6413      0.196      0.285    24.8846 0.0000e+00
      0.200      0.000     8.1784     98.661     38.392  38.315177     6.6599      7.702   196.5018 9.6565e+02     5.3513      0.195      0.283    24.8928 0.0000e+00
      0.200      0.000     8.1676     98.641     38.414  38.331440     4.0585      7.703   196.5771 1.1018e+03     4.9624      0.195      0.283    24.8962 0.0000e+00
      0.201      0.001     8.1667     98.652     38.412  38.325672     2.6513      7.703   196.7919 1.1552e+03     4.8341      0.197      0.286    24.8964 0.0000e+00
      0.202      0.001     8.1672     98.713     38.396  38.308877     2.5210      7.703   196.8610 1.1587e+03     4.8237      0.198      0.288    24.8989 0.0000e+00
      0.202      0.001     8.1682     98.774     38.406  38.318750     2.4835      7.703   196.7246 1.1730e+03     4.7682      0.198      0.287    24.8963 0.0000e+00
      0.201     -0.000     8.1658     98.818     38.406  38.318125     2.4635      7.704   196.6053 1.0189e+03     4.7786      0.197      0.286    24.8851 0.0000e+00
      0.201     -0.002     8.1663     98.868     38.389  38.301330     2.4710      7.704   196.6229 9.1764e+02     4.8133      0.197      0.286    24.8793 0.0000e+00
      0.201     -0.003     8.1742     98.885     38.394  38.306050     2.5076      7.704   196.7653 1.0313e+03     4.8457      0.197      0.286    24.8797 0.0000e+00
      0.200     -0.004     8.1802     98.857     38.400  38.311727     2.8650      7.704   196.8645 1.1524e+03     5.0684      0.197      0.285    24.8793 0.0000e+00
      0.199     -0.004     8.1813     98.843     38.395  38.306517     3.5377      7.704   196.8754 1.1541e+03     5.4566      0.195      0.283    24.8791 0.0000e+00
      0.197     -0.003     8.1878     98.838     38.396  38.306507     3.9242      7.704   196.8978 1.0312e+03     5.6781      0.193      0.280    24.8798 0.0000e+00
      0.195     -0.002     8.1909     98.817     38.403  38.311613     3.9755      7.704   196.9627 8.9349e+02     5.7318      0.192      0.278    24.8793 0.0000e+00
      0.195     -0.001     8.1838     98.809     38.399  38.304790     3.9499      7.705   197.0574 8.5021e+02     5.7303      0.191      0.277    24.8794 0.0000e+00
      0.195      0.000     8.1843     98.841     38.384  38.287474     3.7310      7.706   197.0964 8.7010e+02     5.5575      0.192      0.278    24.8799 0.0000e+00
      0.196      0.001     8.1858     98.899     38.389  38.292619     3.3601      7.706   197.0913 9.3754e+02     5.3165      0.193      0.279    24.8779 0.0000e+00
      0.197      0.002     8.1824     98.952     38.398  38.303530     3.1690      7.705   197.0812 1.0381e+03     5.2410      0.193      0.280    24.8749 0.0000e+00
      0.197      0.003     8.1818     98.999     38.383  38.292493     3.1765      7.705   197.0611 1.0763e+03     5.2603      0.193      0.280    24.8712 0.0000e+00
      0.197      0.003     8.1849     99.011     38.374  38.286090     3.2016      7.706   197.0192 1.0687e+03     5.2072      0.192      0.279    24.8673 0.0000e+00
      0.198      0.003     8.1926     98.983     38.376  38.289570     3.2137      7.707   197.0055 9.9969e+02     5.0774      0.193      0.281    24.8667 0.0000e+00
      0.199      0.002     8.1944     98.955     38.358  38.271114     3.2064      7.707   196.9816 9.1702e+02     4.9885      0.195      0.283    24.8701 0.0000e+00
      0.201      0.002     8.1992     98.901     38.343  38.253317     3.1968      7.707   196.9018 9.6223e+02     4.9872      0.197      0.285    24.8765 0.0000e+00
      0.201      0.001     8.2006     98.820     38.361  38.264751     3.0898      7.707   196.8154 9.9268e+02     4.8569      0.197      0.286    24.8805 0.0000e+00
      0.200      0.000     8.1942     98.760     38.383  38.282435     2.8775      7.708   196.7979 9.8024e+02     4.5742      0.196      0.285    24.8815 0.0000e+00
      0.199 4.0612e-09     8.1950     98.764     38.379  38.276757     2.7605      7.710   196.9479 1.0080e+03     4.4389      0.195      0.283    24.8834 0.0000e+00
      0.199 4.4673e-08     8.1906     98.839     38.364  38.259550     2.7408      7.710   197.1660 9.7695e+02     4.4506      0.195      0.283    24.8784 0.0000e+00
      0.199 4.9140e-07     8.1838     98.943     38.369  38.264750     2.7146      7.711   197.3699 9.1745e+02     4.5445      0.196      0.284    24.8674 0.0000e+00
      0.199      0.000     8.1783     99.011     38.380  38.276185     2.6688      7.712   197.4346 9.1359e+02     4.6866      0.195      0.283    24.8626 0.0000e+00
      0.200      0.000     8.1784     99.024     38.379  38.270889     2.6355      7.713   197.3460 9.1212e+02     4.7345      0.196      0.284    24.8602 0.0000e+00
      0.200      0.001     8.1866     99.014     38.383  38.264171     2.6370      7.712   197.3314 8.7700e+02     4.7128      0.196      0.284    24.8577 0.0000e+00
      0.199      0.002     8.1974     99.015     38.389  38.258406     2.7372      7.712   197.3430 8.7812e+02     4.8003      0.195      0.283    24.8590 0.0000e+00
      0.199      0.004     8.2034     99.023     38.404  38.264611     2.9316      7.711   197.4014 9.3615e+02     5.0073      0.195      0.283    24.8609 0.0000e+00
      0.200      0.006     8.2037     99.020     38.418  38.275723     3.0396      7.711   197.6073 1.0832e+03     5.0627      0.196      0.285    24.8569 0.0000e+00
      0.203      0.006     8.2038     99.053     38.408  38.265849     3.0443      7.711   197.7669 1.2390e+03     4.9576      0.199      0.288    24.8420 0.0000e+00
      0.206      0.006     8.2068     99.163     38.416  38.272138     3.0296      7.711   197.6967 1.2100e+03     4.8978      0.202      0.291    24.8215 0.0000e+00
      0.209      0.005     8.2119     99.317     38.436  38.288300     2.8871      7.711   197.5325 1.1340e+03     4.8871      0.205      0.297    24.8082 0.0000e+00
      0.210      0.003     8.2089     99.460     38.420  38.270895     2.6277      7.711   197.5880 1.0937e+03     4.8621      0.207      0.301    24.8068 0.0000e+00
      0.209      0.001     8.2095     99.556     38.401  38.252058     2.4820      7.712   197.7665 1.1108e+03     4.8010      0.206      0.299    24.8111 0.0000e+00
      0.208     -0.001     8.2207     99.597     38.402  38.250913     2.4481      7.712   197.8837 1.1749e+03     4.7280      0.203      0.295    24.8086 0.0000e+00
      0.207     -0.001     8.2362     99.593     38.413  38.257052     2.4019      7.712   197.9723 1.1308e+03     4.6974      0.202      0.293    24.8010 0.0000e+00
      0.207     -0.001     8.2498     99.556     38.427  38.262807     2.3640      7.713   197.9778 1.0892e+03     4.7382      0.203      0.294    24.7987 0.0000e+00
      0.207      0.000     8.2572     99.508     38.428  38.257039     2.3642      7.714   197.9498 1.0587e+03     4.8111      0.203      0.295    24.8005 0.0000e+00
      0.208      0.001     8.2607     99.487     38.425  38.250750     2.3797      7.714   197.9779 1.1304e+03     4.7935      0.204      0.295    24.7994 0.0000e+00
      0.208      0.001     8.2608     99.506     38.426  38.250230     2.6007      7.714   198.0591 1.2452e+03     4.7650      0.204      0.296    24.7921 0.0000e+00
      0.209      0.000     8.2596     99.566     38.429  38.250750     3.0480      7.715   198.1580 1.1428e+03     4.8754      0.205      0.297    24.7801 0.0000e+00
      0.209     -0.001     8.2553     99.657     38.435  38.257039     3.3104      7.716   198.2273 1.0392e+03     5.0017      0.205      0.297    24.7690 0.0000e+00
      0.208     -0.001     8.2537     99.729     38.437  38.262808     3.3172      7.716   198.2082 1.0363e+03     5.0280      0.204      0.296    24.7669 0.0000e+00
      0.208     -0.002     8.2564     99.783     38.425  38.257043     3.0227      7.716   198.1854 9.9374e+02     4.9198      0.204      0.295    24.7654 0.0000e+00
      0.207     -0.002     8.2605     99.844     38.414  38.250801     2.4790      7.717   198.2961 9.5132e+02     4.7523      0.203      0.294    24.7610 0.0000e+00
      0.206     -0.002     8.2715     99.876     38.413  38.250801     2.1870      7.718   198.4276 1.0446e+03     4.7106      0.202      0.293    24.7605 0.0000e+00
      0.205     -0.002     8.2767     99.868     38.418  38.257051     2.1721      7.718   198.4849 1.2027e+03     4.7578      0.201      0.292    24.7649 0.0000e+00
      0.205     -0.002     8.2764     99.818     38.423  38.262910     2.1816      7.719   198.4725 1.2246e+03     4.8108      0.201      0.292    24.7753 0.0000e+00
      0.205     -0.002     8.2841     99.728     38.415  38.258185     2.1779      7.721   198.4504 1.1724e+03     4.8732      0.201      0.291    24.7843 0.0000e+00
      0.205     -0.003     8.2858     99.648     38.417  38.263385     2.1602      7.722   198.3902 1.1689e+03     4.8976      0.201      0.291    24.7838 0.0000e+00
      0.204     -0.003     8.2850     99.579     38.414  38.262336     2.1592      7.722   198.2603 1.1994e+03     4.9342      0.200      0.290    24.7824 0.0000e+00
      0.203     -0.003     8.2823     99.506     38.397  38.245502     2.1244      7.722   198.2562 1.1997e+03     5.0093      0.199      0.287    24.7857 0.0000e+00
      0.201     -0.002     8.2701     99.478     38.404  38.250217     2.0224      7.722   198.3410 1.1537e+03     5.0202      0.197      0.285    24.7894 0.0000e+00
      0.201     -0.002     8.2637     99.529     38.410  38.255891     1.9491      7.723   198.3388 1.1312e+03     4.9626      0.197      0.286    24.7941 0.0000e+00
      0.201     -0.001     8.2590     99.613     38.405  38.250643     1.9212      7.724   198.3158 1.0816e+03     4.9273      0.197      0.286    24.7982 0.0000e+00
      0.201     -0.000     8.2504     99.663     38.405  38.250217     1.9185      7.725   198.3202 1.0088e+03     4.9357      0.197      0.286    24.7975 0.0000e+00
      0.201 -2.003e-08     8.2471     99.675     38.406  38.250746     1.9491      7.726   198.3063 9.8894e+02     4.8935      0.197      0.286    24.7942 0.0000e+00
      0.201 -2.203e-07     8.2534     99.660     38.411  38.257034     1.9837      7.728   198.3197 9.4931e+02     4.7586      0.197      0.286    24.7927 0.0000e+00
      0.201 -1.861e-07     8.2637     99.642     38.416  38.262792     1.9957      7.729   198.3098 9.4651e+02     4.6709      0.198      0.287    24.7928 0.0000e+00
      0.201 3.9283e-07     8.2664     99.656     38.410  38.256915     1.9862      7.730   198.2738 1.0159e+03     4.7217      0.197      0.286    24.7930 0.0000e+00
      0.200      0.000     8.2675     99.661     38.404  38.249426     1.9770      7.731   198.3146 1.0222e+03     4.8592      0.197      0.285    24.7928 0.0000e+00
      0.200      0.000     8.2664     99.632     38.392  38.235695     1.9595      7.731   198.2861 9.8710e+02     4.9679      0.197      0.285    24.7932 0.0000e+00
      0.200      0.001     8.2611     99.612     38.375  38.217803     1.9400      7.732   198.1875 9.7297e+02     4.9774      0.197      0.285    24.7950 0.0000e+00
      0.201      0.001     8.2658     99.617     38.381  38.223463     1.9331      7.732   198.1548 9.7381e+02     4.9392      0.197      0.286    24.7948 0.0000e+00
      0.202      0.002     8.2673     99.637     38.400  38.240679     1.8922      7.732   198.1491 1.0296e+03     4.9500      0.197      0.286    24.7919 0.0000e+00
      0.203      0.002     8.2629     99.665     38.396  38.235582     1.8198      7.732   198.2050 1.0929e+03     5.0402      0.199      0.288    24.7895 0.0000e+00
      0.203      0.001     8.2611     99.680     38.386  38.225294     1.7826      7.735   198.2277 1.0735e+03     5.0735      0.199      0.289    24.7889 0.0000e+00
      0.203      0.001     8.2623     99.654     38.404  38.243195     1.9175      7.737   198.2517 1.0415e+03     5.0107      0.199      0.289    24.7886 0.0000e+00
      0.203      0.000     8.2645     99.621     38.423  38.261660     3.5833      7.737   198.4091 1.0239e+03     5.1688      0.199      0.289    24.7865 0.0000e+00
      0.203 1.8780e-08     8.2668     99.615     38.420  38.258181     6.6341      7.737   198.4093 9.9868e+02     5.6185      0.199      0.289    24.7850 0.0000e+00
      0.203 2.0659e-07     8.2709     99.609     38.426  38.264584     8.3001      7.737   198.2545 1.0191e+03     5.9388      0.199      0.288    24.7846 0.0000e+00
      0.203 2.0659e-07     8.2663     99.587     38.435  38.275621     8.4465      7.737   198.2595 1.0864e+03     5.9674      0.199      0.288    24.7847 0.0000e+00
      0.203 1.8781e-08     8.2617     99.553     38.420  38.264717     8.3369      7.738   198.2967 1.1214e+03     5.8275      0.199      0.289    24.7842 0.0000e+00
      0.203 1.7098e-09     8.2637     99.518     38.411  38.259667     7.0419      7.738   198.2737 1.0696e+03     5.5111      0.200      0.289    24.7830 0.0000e+00
      0.203 1.8320e-10     8.2631     99.492     38.426  38.278022     4.6900      7.738   198.3264 1.0466e+03     5.1477      0.199      0.289    24.7836 0.0000e+00
      0.203 3.2200e-10     8.2610     99.472     38.441  38.296287     3.4298      7.738   198.4174 1.1076e+03     5.0209      0.199      0.289    24.7858 0.0000e+00
      0.203 3.3881e-09     8.2568     99.451     38.433  38.290140     3.4071      7.740   198.5129 1.1185e+03     5.0708      0.199      0.289    24.7906 0.0000e+00
      0.203 3.7255e-08     8.2524     99.436     38.408  38.267160     4.4162      7.740   198.5349 1.1112e+03     5.4780      0.199      0.289    24.7978 0.0000e+00
      0.203 4.0981e-07     8.2500     99.441     38.413  38.272268     6.3006      7.741   198.5121 1.1256e+03     6.2885      0.200      0.290    24.8023 0.0000e+00
      0.203      0.000     8.2481     99.469     38.427  38.288435     7.3306      7.743   198.5806 1.0641e+03     6.8090      0.199      0.289    24.8058 0.0000e+00
      0.203      0.000     8.2456     99.503     38.407  38.272273     7.3570      7.743   198.6743 1.2824e+03     6.8874      0.200      0.289    24.8100 0.0000e+00
      0.203      0.001     8.2434     99.508     38.399  38.267233     6.4279      7.743   198.6990 1.5709e+03     6.3821      0.199      0.289    24.8111 0.0000e+00
      0.204      0.001     8.2439     99.496     38.420  38.290950     4.6953      7.743   198.7071 1.3193e+03     5.4132      0.200      0.289    24.8109 0.0000e+00
      0.204      0.001     8.2458     99.482     38.430  38.305210     3.7693      7.742   198.7722 1.1178e+03     4.9428      0.200      0.290    24.8137 0.0000e+00
      0.205      0.001     8.2504     99.457     38.433  38.312747     3.7557      7.742   198.7982 1.2198e+03     5.0328      0.200      0.290    24.8182 0.0000e+00
      0.206      0.001     8.2487     99.408     38.436  38.318629     4.2976      7.742   198.7640 1.2304e+03     5.2369      0.202      0.292    24.8239 0.0000e+00
      0.206      0.001     8.2462     99.306     38.429  38.312874     5.2693      7.742   198.7021 1.1818e+03     5.3952      0.202      0.293    24.8274 0.0000e+00
      0.205      0.001     8.2456     99.158     38.423  38.306634     5.7912      7.743   198.6523 1.0758e+03     5.4093      0.201      0.292    24.8312 0.0000e+00
      0.205      0.000     8.2417     99.006     38.422  38.306633     5.9797      7.744   198.6784 9.7426e+02     5.4419      0.201      0.292    24.8391 0.0000e+00
      0.206     -0.001     8.2392     98.876     38.425  38.312865     7.5992      7.744   198.7592 1.2205e+03     5.7557      0.202      0.292    24.8431 0.0000e+00
      0.206     -0.001     8.2302     98.783     38.427  38.318525    10.5400      7.745   198.8543 1.5687e+03     6.2310      0.202      0.292    24.8427 0.0000e+00
      0.205     -0.001     8.2162     98.740     38.418  38.311616    12.1309      7.745   198.7959 1.4602e+03     6.4407      0.202      0.293    24.8419 0.0000e+00
      0.204     -0.003     8.2030     98.764     38.398  38.292788    12.2447      7.745   198.6562 1.1814e+03     6.3441      0.200      0.289    24.8434 0.0000e+00
      0.204     -0.009     8.1912     98.841     38.386  38.281250    12.0824      7.744   198.5426 1.0446e+03     5.9516      0.199      0.288    24.8480 0.0000e+00
      0.204     -0.025     8.1822     98.921     38.402  38.299028    11.7749      7.743   198.3680 1.0214e+03     5.3836      0.199      0.289    24.8536 0.0000e+00
      0.204     -0.050     8.1775     98.993     38.413  38.317378    11.5974      7.742   198.3518 1.0462e+03     5.0788      0.201      0.292    24.8568 0.0000e+00
      0.199     -0.076     8.1792     99.066     38.397  38.312753    11.5439      7.737   198.7771 1.0140e+03     4.9994      0.202      0.291    24.8573 0.0000e+00
      0.177     -0.094     8.1884     99.131     38.377  38.306575    11.3015      7.730   199.3804 1.0634e+03     4.9357      0.183      0.264    24.8568 0.0000e+00
      0.132     -0.100     8.1948     99.181     38.366  38.306166     8.8754      7.722   199.6239 1.0955e+03     4.8887      0.134      0.194    24.8576 0.0000e+00
      0.082     -0.094     8.1985     99.183     38.363  38.307830     4.4405      7.717   199.5699 9.8713e+02     4.8074      0.073      0.105    24.8667 0.0000e+00
      0.049     -0.079     8.2031     99.107     38.381  38.326695     2.0174      7.713   199.5011 1.0115e+03     4.7387      0.036      0.053    24.8836 0.0000e+00
      0.040     -0.057     8.2048     98.980     38.399  38.343887     1.7829      7.712   199.4816 1.1248e+03     4.7411      0.035      0.051    24.9044 0.0000e+00
      0.044     -0.033     8.2079     98.839     38.386  38.325327     1.7226      7.712   199.5056 1.2656e+03     4.7342      0.045      0.064    24.9197 0.0000e+00
      0.048     -0.015     8.2093     98.714     38.364  38.292657     1.6798      7.713   199.4472 1.4199e+03     4.7579      0.049      0.071    24.9232 0.0000e+00
      0.046     -0.008     8.2009     98.587     38.351  38.266143     1.6649      7.714   199.2913 1.3367e+03     4.7881      0.048      0.069    24.9239 0.0000e+00
      0.041     -0.008     8.1899     98.447     38.359  38.258551     1.6581      7.716   199.0833 1.1468e+03     4.7577      0.041      0.059    24.9241 0.0000e+00
      0.035     -0.010     8.1780     98.431     38.380  38.264300     1.6476      7.717   198.9973 1.1105e+03     4.7662      0.033      0.048    24.9169 0.0000e+00
      0.032     -0.011     8.1692     98.592     38.405  38.272173     1.6386      7.718   199.1981 1.1976e+03     4.8571      0.031      0.045    24.9033 0.0000e+00
      0.031     -0.011     8.1663     98.813     38.434  38.290266     1.6401      7.719   199.3606 1.2296e+03     4.9685      0.031      0.045    24.8831 0.0000e+00
      0.030     -0.009     8.1492     99.038     38.437  38.292668     1.6414      7.718   199.4981 1.1845e+03     4.9860      0.029      0.043    24.8641 0.0000e+00
      0.028     -0.004     8.1482     99.252     38.439  38.301216     1.6375      7.716   199.7424 1.1670e+03     4.8630      0.028      0.040    24.8452 0.0000e+00
      0.025      0.004     8.1733     99.425     38.454  38.330167     1.6342      7.714   199.7338 1.1937e+03     4.7105      0.024      0.035    24.8180 0.0000e+00
      0.022      0.010     8.1938     99.566     38.429  38.325455     1.6267      7.714   199.5667 1.1757e+03     4.6802      0.019      0.029    24.8006 0.0000e+00
      0.024      0.013     8.2120     99.661     38.393  38.307732     1.6215      7.714   199.5287 1.1532e+03     4.7356      0.017      0.026    24.8051 0.0000e+00
      0.034      0.017     8.2304     99.625     38.379  38.306273     1.6215      7.713   199.7039 1.1726e+03     4.7315      0.032      0.046    24.8138 0.0000e+00
      0.047      0.021     8.2414     99.419     38.374  38.307843     1.6188      7.712   199.9646 1.1175e+03     4.6646      0.053      0.076    24.8286 0.0000e+00
      0.051      0.023     8.2474     99.141     38.391  38.326719     1.6138      7.712   200.0136 1.1282e+03     4.6103      0.052      0.077    24.8610 0.0000e+00
      0.049      0.018     8.2559     98.932     38.412  38.344130     1.6186      7.711   199.8660 1.2467e+03     4.6216      0.043      0.063    24.8866 0.0000e+00
      0.054      0.005     8.2520     98.780     38.401  38.327984     1.6267      7.711   199.7285 1.3457e+03     4.6641      0.049      0.071    24.8999 0.0000e+00
      0.064     -0.015     8.2309     98.623     38.397  38.321857     1.6119      7.712   199.7273 1.3252e+03     4.6804      0.067      0.098    24.9094 0.0000e+00
      0.067     -0.038     8.2001     98.527     38.408  38.333508     1.5811      7.713   199.8518 1.2038e+03     4.6810      0.070      0.102    24.9141 0.0000e+00
      0.057     -0.062     8.1853     98.527     38.414  38.341943     1.5626      7.714   200.8908 1.1584e+03     4.6723      0.060      0.087    24.9084 0.0000e+00
      0.033     -0.088     8.1792     98.560     38.431  38.360389     1.5635      7.715   202.0506 1.1954e+03     4.7122      0.040      0.058    24.8968 0.0000e+00
     -0.005     -0.111     8.1619     98.605     38.434  38.366174     1.5496      7.715   201.3127 1.3589e+03     4.7871     -0.006     -0.010    24.8935 0.0000e+00
     -0.042     -0.122     8.1515     98.672     38.409  38.348441     1.4951      7.715   200.0571 1.4969e+03     4.7590     -0.046     -0.067    24.8974 0.0000e+00
     -0.074     -0.119     8.1554     98.717     38.390  38.336364     1.4530      7.718   199.6029 1.3915e+03     4.6799     -0.067     -0.097    24.9009 0.0000e+00
     -0.110     -0.104     8.1581     98.686     38.396  38.347068     1.4571      7.722   199.5199 1.2604e+03     4.6834     -0.109     -0.158    24.9001 0.0000e+00
     -0.142     -0.081     8.1597     98.590     38.398  38.350954     1.4611      7.724   200.2584 1.3452e+03     4.7331     -0.148     -0.215    24.9039 0.0000e+00
     -0.159     -0.056     8.1657     98.435     38.365  38.319898     1.4436      7.724   208.1017 1.5337e+03     4.7683     -0.158     -0.229    24.9155 0.0000e+00
     -0.166     -0.032     8.1702     98.245     38.335  38.288866     1.4205      7.724   221.4782 1.6015e+03     4.7673     -0.164     -0.238    24.9256 0.0000e+00
     -0.166     -0.013     8.1659     98.168     38.344  38.293027     1.3985      7.728   226.5663 1.5741e+03     4.7216     -0.166     -0.241    24.9308 0.0000e+00
     -0.161     -0.004     8.1562     98.256     38.364  38.306749     1.4271      7.733   219.9772 1.6029e+03     4.7285     -0.158     -0.229    24.9324 0.0000e+00
     -0.155     -0.007     8.1467     98.443     38.387  38.327856     1.5005      7.736   209.2642 1.6639e+03     4.8160     -0.151     -0.219    24.9357 0.0000e+00
     -0.151     -0.017     8.1206     98.601     38.411  38.357847     1.5362      7.738   204.4138 1.6570e+03     4.8574     -0.146     -0.212    24.9352 0.0000e+00
     -0.155     -0.028     8.1174     98.714     38.395  38.352101     1.5335      7.738   210.3743 1.6598e+03     4.8184     -0.147     -0.213    24.9275 0.0000e+00
     -0.170     -0.036     8.1259     98.865     38.356  38.321850     1.5260      7.738   219.9849 1.7439e+03     4.7886     -0.162     -0.236    24.9183 0.0000e+00
     -0.191     -0.036     8.1483     98.963     38.343  38.309378     1.5289      7.739   219.0892 1.8212e+03     4.8050     -0.189     -0.276    24.9125 0.0000e+00
     -0.209     -0.031     8.1624     98.952     38.369  38.328217     1.5349      7.740   209.1805 1.8477e+03     4.8115     -0.210     -0.303    24.9225 0.0000e+00
     -0.215     -0.022     8.1592     98.909     38.412  38.359251     1.5326      7.741   203.4266 1.8604e+03     4.7991     -0.215     -0.311    24.9401 0.0000e+00
     -0.212     -0.013     8.1789     98.837     38.431  38.367298     1.5268      7.743   202.2615 1.8710e+03     4.7576     -0.209     -0.304    24.9529 0.0000e+00
     -0.207     -0.006     8.1875     98.686     38.429  38.362050     1.5394      7.744   201.6323 1.8758e+03     4.7201     -0.201     -0.291    24.9531 0.0000e+00
     -0.204     -0.003     8.1850     98.626     38.424  38.359251     1.5760      7.746   201.2396 1.8747e+03     4.7552     -0.197     -0.286    24.9415 0.0000e+00
     -0.206     -0.003     8.1814     98.701     38.394  38.333464     1.5869      7.746   201.1268 1.8721e+03     4.7732     -0.201     -0.291    24.9256 0.0000e+00
     -0.212     -0.001     8.1867     98.703     38.367  38.304091     1.5795      7.743   201.3006 1.8699e+03     4.7312     -0.209     -0.302    24.9071 0.0000e+00
     -0.218      0.005     8.1644     98.670     38.393  38.321390     1.5947      7.738   201.5343 1.8669e+03     4.6921     -0.215     -0.312    24.9023 0.0000e+00
     -0.219      0.015     8.1527     98.667     38.429  38.352234     1.6208      7.733   201.5433 1.8585e+03     4.7104     -0.218     -0.316    24.9104 0.0000e+00
     -0.214      0.028     8.1753     98.672     38.429  38.359722     1.6458      7.730   201.4100 1.8434e+03     4.7819     -0.212     -0.309    24.9185 0.0000e+00
     -0.201      0.042     8.1667     98.756     38.400  38.348487     1.6470      7.728   201.6428 1.8125e+03     4.7706     -0.198     -0.288    24.9178 0.0000e+00
     -0.185      0.052     8.1644     98.852     38.377  38.343325     1.6024      7.728   206.0786 1.7555e+03     4.6766     -0.182     -0.263    24.8992 0.0000e+00
     -0.169      0.057     8.1728     98.861     38.381  38.360791     1.5392      7.730   210.6470 1.7124e+03     4.6361     -0.166     -0.241    24.8846 0.0000e+00
     -0.152      0.058     8.1614     98.764     38.381  38.369326     1.5159      7.732   212.2249 1.6924e+03     4.6911     -0.149     -0.217    24.8987 0.0000e+00
     -0.136      0.057     8.1711     98.605     38.392  38.383072     1.5370      7.734   213.4545 1.6384e+03     4.7943     -0.132     -0.191    24.9265 0.0000e+00
     -0.123      0.055     8.1776     98.451     38.408  38.400080     1.5777      7.736   208.3930 1.5480e+03     4.7906     -0.120     -0.174    24.9509 0.0000e+00
     -0.113      0.053     8.1754     98.321     38.391  38.384603     1.6335      7.736   202.5643 1.4889e+03     4.7147     -0.111     -0.161    24.9712 0.0000e+00
     -0.100      0.053     8.1655     98.222     38.389  38.386315     1.6709      7.735   201.6592 1.4867e+03     4.6965     -0.100     -0.145    24.9822 0.0000e+00
     -0.085      0.054     8.1473     98.130     38.417  38.420784     1.6800      7.735   201.3215 1.7154e+03     4.7070     -0.082     -0.119    24.9834 0.0000e+00
     -0.070      0.055     8.1375     98.049     38.409  38.420632     1.6606      7.735   201.1484 2.1069e+03     4.7394     -0.067     -0.098    24.9831 0.0000e+00
     -0.058      0.056     8.1230     98.009     38.367  38.384483     1.6104      7.734   201.0282 2.0839e+03     4.7125     -0.058     -0.084    24.9856 0.0000e+00
     -0.043      0.055     8.1177     98.000     38.347  38.364458     1.5729      7.733   200.9010 1.6097e+03     4.6888     -0.043     -0.061    24.9885 0.0000e+00
     -0.027      0.054     8.1076     97.996     38.353  38.368878     1.5654      7.732   200.8145 1.1605e+03     4.7266     -0.025     -0.036    24.9971 0.0000e+00
     -0.013      0.052     8.0976     97.991     38.362  38.374478     1.5854      7.733   200.7561 9.8817e+02     4.7261     -0.013     -0.018    25.0113 0.0000e+00
      0.001      0.051     8.0939     97.978     38.361  38.368699     1.6244      7.733   200.7112 1.0485e+03     4.7157      0.001      0.001    25.0186 0.0000e+00
      0.012      0.048     8.0941     97.944     38.359  38.362457     1.6369      7.732   200.7023 1.1173e+03     4.6694      0.013      0.019    25.0185 0.0000e+00
      0.023      0.043     8.0946     97.908     38.361  38.362459     1.6204      7.732   200.7347 1.1586e+03     4.6454      0.021      0.031    25.0144 0.0000e+00
      0.035      0.038     8.0945     97.896     38.367  38.368715     1.6158      7.732   200.7590 1.2274e+03     4.6984      0.033      0.048    25.0093 0.0000e+00
      0.046      0.032     8.0955     97.918     38.369  38.374649     1.6311      7.733   200.7375 1.2297e+03     4.7644      0.047      0.068    25.0046 0.0000e+00
      0.055      0.025     8.0923     97.977     38.359  38.370752     1.6470      7.733   200.7332 1.2096e+03     4.7936      0.055      0.081    24.9982 0.0000e+00
      0.060      0.019     8.0893     98.055     38.369  38.385059     1.6421      7.733   200.7935 1.2355e+03     4.7100      0.059      0.086    24.9942 0.0000e+00
      0.061      0.014     8.0879     98.114     38.405  38.420725     1.6222      7.734   200.7774 1.2212e+03     4.6416      0.061      0.088    24.9954 0.0000e+00
      0.061      0.011     8.0890     98.150     38.407  38.421245     1.6055      7.735   200.6248 1.1429e+03     4.7179      0.060      0.087    25.0008 0.0000e+00
      0.062      0.010     8.0923     98.166     38.380  38.391348     1.5903      7.737   200.5830 1.1106e+03     4.8129      0.061      0.089    25.0101 0.0000e+00
      0.065      0.011     8.1001     98.141     38.370  38.376521     1.5875      7.740   200.7022 1.1461e+03     4.7991      0.064      0.092    25.0167 0.0000e+00
      0.069      0.012     8.1044     98.063     38.368  38.368885     1.5883      7.741   200.7755 1.1601e+03     4.7229      0.068      0.098    25.0160 0.0000e+00
      0.074      0.013     8.1076     97.966     38.367  38.362464     1.5919      7.740   200.7811 1.1728e+03     4.7108      0.073      0.105    25.0125 0.0000e+00
      0.078      0.014     8.1104     97.921     38.371  38.362334     1.6221      7.740   200.7702 1.1990e+03     4.7550      0.078      0.112    25.0094 0.0000e+00
      0.081      0.017     8.1095     97.930     38.376  38.367304     1.6462      7.740   200.8160 1.1763e+03     4.7798      0.080      0.116    25.0040 0.0000e+00
      0.083      0.022     8.1041     97.959     38.368  38.359109     1.6427      7.739   201.0764 1.1478e+03     4.7704      0.081      0.117    24.9957 0.0000e+00
      0.087      0.030     8.0932     98.022     38.339  38.326703     1.6282      7.738   201.5092 1.1714e+03     4.7784      0.084      0.122    24.9870 0.0000e+00
      0.093      0.040     8.0910     98.117     38.315  38.292764     1.6287      7.736   201.9188 1.2095e+03     4.8764      0.090      0.130    24.9814 0.0000e+00
      0.105      0.050     8.0943     98.205     38.311  38.266022     1.6502      7.733   202.1575 1.2264e+03     4.9990      0.101      0.145    24.9828 0.0000e+00
      0.122      0.060     8.0938     98.250     38.340  38.257165     1.6634      7.732   202.2450 1.1649e+03     5.0314      0.118      0.171    24.9852 0.0000e+00
      0.142      0.067     8.1007     98.261     38.369  38.249070     1.6554      7.733   202.3745 1.0479e+03     4.9601      0.139      0.201    24.9792 0.0000e+00
      0.162      0.069     8.1112     98.327     38.379  38.231550     1.6357      7.733   202.5187 1.0123e+03     4.8891      0.160      0.232    24.9713 0.0000e+00
      0.182      0.066     8.1232     98.506     38.401  38.235658     1.6337      7.733   202.6117 1.0100e+03     4.9237      0.179      0.260    24.9451 0.0000e+00
      0.198      0.059     8.1372     98.788     38.415  38.235253     1.6480      7.734   202.7247 9.6773e+02     5.0028      0.196      0.284    24.8844 0.0000e+00
      0.213      0.051     8.1413     99.100     38.418  38.226631     1.6423      7.736   202.8525 1.0029e+03     4.9911      0.211      0.305    24.8300 0.0000e+00
      0.224      0.041     8.1506     99.400     38.459  38.258303     1.6646      7.737   202.9521 1.0463e+03     4.9198      0.222      0.320    24.7994 0.0000e+00
      0.232      0.032     8.1688     99.730     38.504  38.300906     1.7422      7.740   202.9827 9.8677e+02     4.8919      0.226      0.329    24.7757 0.0000e+00
      0.239      0.023     8.1972    100.063     38.496  38.297533     1.7984      7.744   203.0501 9.0806e+02     4.8934      0.235      0.341    24.7587 0.0000e+00
      0.244      0.017     8.2284    100.293     38.474  38.280991     1.8199      7.748   203.1653 8.8926e+02     4.9034      0.242      0.350    24.7448 0.0000e+00
      0.247      0.012     8.2514    100.372     38.475  38.291279     1.8270      7.750   203.1705 9.0001e+02     4.9099      0.242      0.351    24.7299 0.0000e+00
      0.248      0.010     8.2808    100.338     38.465  38.295022     1.8190      7.751   203.2854 8.8249e+02     4.9039      0.243      0.353    24.7264 0.0000e+00
      0.249      0.012     8.3110    100.236     38.420  38.262815     1.8053      7.751   203.6080 8.9327e+02     4.8990      0.245      0.355    24.7363 0.0000e+00
      0.249      0.018     8.3311    100.079     38.375  38.219171     1.8025      7.750   203.8015 9.1012e+02     4.9190      0.244      0.354    24.7423 0.0000e+00
      0.251      0.028     8.3339     99.868     38.381  38.211521     1.7775      7.749   203.9042 8.7256e+02     4.9411      0.244      0.354    24.7507 0.0000e+00
      0.258      0.037     8.3267     99.623     38.423  38.233755     1.7106      7.749   203.9895 8.5146e+02     4.9278      0.248      0.360    24.7719 0.0000e+00
      0.273      0.044     8.3143     99.434     38.439  38.234144     1.6775      7.750   203.9718 8.4612e+02     4.9279      0.265      0.385    24.7965 0.0000e+00
      0.291      0.049     8.3003     99.363     38.435  38.216196     1.6933      7.751   204.0347 8.1160e+02     4.9431      0.288      0.419    24.8009 0.0000e+00
      0.306      0.053     8.2874     99.388     38.444  38.207091     1.8352      7.752   204.2336 7.8370e+02     4.8723      0.301      0.437    24.7758 0.0000e+00
      0.318      0.055     8.2677     99.475     38.442  38.187494     2.0862      7.752   204.3976 7.7679e+02     4.6869      0.311      0.451    24.7455 0.0000e+00
      0.329      0.055     8.2526     99.615     38.440  38.169594     2.2141      7.752   204.3841 7.6259e+02     4.5114      0.322      0.468    24.7267 0.0000e+00
      0.342      0.055     8.2506     99.787     38.471  38.181011     2.3248      7.752   204.3273 7.8684e+02     4.5263      0.334      0.484    24.7118 0.0000e+00
      0.357      0.056     8.2580     99.963     38.509  38.198592     3.5158      7.753   204.4000 8.2526e+02     5.2084      0.349      0.506    24.6847 0.0000e+00
      0.373      0.056     8.2687    100.124     38.518  38.191762     5.6773      7.754   204.4887 7.5071e+02     6.4058      0.366      0.530    24.6610 0.0000e+00
      0.389      0.054     8.2831    100.246     38.498  38.161864     6.8373      7.754   204.5391 6.4199e+02     7.0488      0.382      0.555    24.6450 0.0000e+00
      0.404      0.050     8.3032    100.339     38.494  38.154364     6.9364      7.755   204.5795 5.9418e+02     7.0727      0.397      0.576    24.6175 0.0000e+00
      0.416      0.046     8.3221    100.420     38.503  38.164539     7.0669      7.757   204.6327 5.6286e+02     7.0018      0.409      0.594    24.5874 0.0000e+00
      0.426      0.042     8.3406    100.464     38.495  38.157974     8.5147      7.757   204.7524 5.5521e+02     6.6696      0.419      0.607    24.5664 0.0000e+00
      0.433      0.040     8.3517    100.450     38.478  38.138439    11.1922      7.756   204.8221 5.5881e+02     6.0973      0.423      0.614    24.5550 0.0000e+00
      0.441      0.039     8.3589    100.393     38.465  38.118719    12.6400      7.756   204.7870 5.1142e+02     5.7527      0.430      0.625    24.5500 0.0000e+00
      0.452      0.040     8.3668    100.325     38.464  38.109896    12.5193      7.756   204.9292 4.4222e+02     5.6445      0.444      0.643    24.5537 0.0000e+00
      0.463      0.045     8.3700    100.264     38.459  38.095209     9.9247      7.756   205.2513 4.0211e+02     5.5066      0.455      0.659    24.5601 0.0000e+00
      0.474      0.052     8.3693    100.210     38.445  38.068030     5.1893      7.755   205.4132 3.8204e+02     5.3506      0.464      0.674    24.5551 0.0000e+00
      0.485      0.059     8.3647    100.165     38.435  38.035084     2.6135      7.754   205.4235 3.6864e+02     5.2951      0.475      0.690    24.5440 0.0000e+00
      0.500      0.066     8.3604    100.114     38.449  38.014113     2.3766      7.753   205.4618 3.4881e+02     5.2792      0.487      0.706    24.5343 0.0000e+00
      0.520      0.073     8.3570    100.001     38.476  38.004779     2.3166      7.752   205.5319 3.2823e+02     5.2615      0.509      0.737    24.5222 0.0000e+00
      0.544      0.080     8.3550     99.824     38.488  37.985631     2.2552      7.752   205.5832 3.1423e+02     5.3543      0.535      0.776    24.5089 0.0000e+00
      0.566      0.085     8.3549     99.655     38.503  37.972923     2.2426      7.753   205.6524 3.0120e+02     5.4781      0.555      0.805    24.4809 0.0000e+00
      0.586      0.087     8.3615     99.528     38.541  37.977998     2.3135      7.754   205.7656 2.8917e+02     5.5284      0.574      0.832    24.4292 0.0000e+00
      0.608      0.086     8.3612     99.463     38.581  37.983491     2.9788      7.756   205.9190 2.7789e+02     5.6206      0.594      0.862    24.3774 0.0000e+00
      0.632      0.084     8.3477     99.532     38.600  37.975829     4.1939      7.758   206.0450 2.6727e+02     5.7733      0.620      0.900    24.3385 0.0000e+00
      0.655      0.081     8.3384     99.794     38.590  37.948769     4.8622      7.759   205.9985 2.5872e+02     5.8725      0.644      0.935    24.3087 0.0000e+00
      0.675      0.076     8.3344    100.214     38.563  37.910114     4.8922      7.762   205.8728 2.5236e+02     5.9315      0.662      0.960    24.2658 0.0000e+00
      0.694      0.070     8.3345    100.659     38.553  37.889173     4.3564      7.764   205.8156 2.4792e+02     5.7688      0.681      0.987    24.2132 0.0000e+00
      0.712      0.063     8.3430    101.018     38.562  37.885918     3.3449      7.766   205.8236 2.4545e+02     5.3741      0.700      1.016    24.1803 0.0000e+00
      0.727      0.058     8.3681    101.228     38.562  37.870750     2.7907      7.768   205.7966 2.4470e+02     5.1561      0.714      1.036    24.1613 0.0000e+00
      0.738      0.054     8.4117    101.243     38.544  37.832659     2.7417      7.770   205.7474 2.4490e+02     5.1489      0.723      1.050    24.1468 0.0000e+00
      0.749      0.053     8.4539    101.046     38.540  37.806073     2.7517      7.772   205.9178 2.4470e+02     5.1848      0.733      1.065    24.1339 0.0000e+00
      0.762      0.055     8.4879    100.650     38.563  37.803083     2.8620      7.774   206.2220 2.4261e+02     5.2827      0.747      1.082    24.1192 0.0000e+00
      0.777      0.058     8.5104    100.085     38.582  37.796471     3.0686      7.774   206.3281 2.3888e+02     5.4437      0.762      1.106    24.0992 0.0000e+00
      0.792      0.061     8.5160     99.386     38.598  37.789542     3.1937      7.773   206.3403 2.3443e+02     5.5606      0.776      1.127    24.0728 0.0000e+00
      0.808      0.066     8.5044     98.624     38.608  37.782735     3.2422      7.770   206.6268 2.2835e+02     5.6366      0.790      1.146    24.0424 0.0000e+00
      0.827      0.072     8.4744     97.855     38.617  37.777599     3.4803      7.767   207.1261 2.2147e+02     5.8167      0.811      1.178    24.0088 0.0000e+00
      0.844      0.079     8.4325     97.111     38.651  37.790876     3.8760      7.764   207.4722 2.1568e+02     6.0298      0.830      1.203    23.9765 0.0000e+00
      0.861      0.088     8.3754     96.437     38.710  37.816326     4.0814      7.762   207.6278 2.1045e+02     6.0957      0.841      1.220    23.9441 0.0000e+00
      0.883      0.094     8.3126     95.817     38.766  37.831447     4.1818      7.762   207.7175 2.0488e+02     6.1690      0.863      1.252    23.9221 0.0000e+00
      0.913      0.098     8.2502     95.174     38.825  37.846729     5.2400      7.763   207.7817 1.9901e+02     6.9497      0.895      1.298    23.9108 0.0000e+00
      0.944      0.098     8.1878     94.482     38.895  37.874125     7.1967      7.764   207.8022 1.9390e+02     8.2940      0.927      1.344    23.8883 0.0000e+00
      0.973      0.092     8.1384     93.802     38.965  37.908805     8.2552      7.765   207.7929 1.8983e+02     8.9636      0.955      1.386    23.8446 0.0000e+00
      0.999      0.080     8.0977     93.221     39.027  37.948724     8.3168      7.767   207.8410 1.8590e+02     9.0347      0.980      1.422    23.7895 0.0000e+00
      1.019      0.067     8.0529     92.816     39.065  37.976016     8.1506      7.768   207.9540 1.8231e+02     9.6664      1.002      1.452    23.7344 0.0000e+00
      1.031      0.056     7.9999     92.606     39.084  37.984956     7.8603      7.770   208.2132 1.7967e+02    10.7944      1.013      1.470    23.6794 0.0000e+00
      1.036      0.049     7.9470     92.531     39.107  37.993343     7.7362      7.772   208.6516 1.7707e+02    11.3656      1.015      1.472    23.6313 0.0000e+00
      1.043      0.049     7.8984     92.526     39.142  38.013948     7.9820      7.772   209.1250 1.7380e+02    11.3112      1.021      1.479    23.6077 0.0000e+00
      1.055      0.056     7.8641     92.568     39.185  38.043703    10.8812      7.770   209.5483 1.7128e+02    10.8888      1.035      1.501    23.6023 0.0000e+00
      1.070      0.066     7.8504     92.653     39.259  38.099266    16.2229      7.768   209.8982 1.7013e+02    10.1865      1.048      1.520    23.5921 0.0000e+00
      1.087      0.078     7.8495     92.713     39.308  38.114620    19.1424      7.766   210.1718 1.6877e+02     9.7888      1.063      1.542    23.5704 0.0000e+00
      1.111      0.087     7.8526     92.610     39.290  38.038920    19.3813      7.765   210.3619 1.6687e+02     9.7355      1.089      1.580    23.5510 0.0000e+00
      1.138      0.092     7.8567     92.108     39.340  38.008845    19.0025      7.765   210.4759 1.6532e+02     9.6782      1.115      1.619    23.5395 0.0000e+00
      1.164      0.093     7.8684     90.753     39.483  38.068142    14.5871      7.764   210.6034 1.6329e+02     9.3355      1.141      1.655    23.5243 0.0000e+00
      1.191      0.090     7.8833     88.052     39.605  38.121206     6.4959      7.764   210.7847 1.6015e+02     8.7348      1.169      1.695    23.4913 0.0000e+00
      1.214      0.084     7.8904     84.027     39.677  38.142694     2.0805      7.766   210.9482 1.5679e+02     8.3925      1.192      1.729    23.4138 0.0000e+00
      1.234      0.078     7.8788     79.446     39.712  38.137508     1.6853      7.767   211.0313 1.5296e+02     8.3059      1.210      1.755    23.3014 0.0000e+00
      1.251      0.072     7.7987     75.294     39.730  38.121906     1.6677      7.767   211.0154 1.4833e+02     8.0629      1.227      1.779    23.1972 0.0000e+00
      1.266      0.066     7.5818     72.104     39.771  38.144374     1.6918      7.767   211.0144 1.4299e+02     7.7434      1.241      1.800    23.1115 0.0000e+00
      1.283      0.061     7.2183     69.977     39.856  38.218765     1.7111      7.769   211.1048 1.3522e+02     7.6190      1.257      1.823    23.0552 0.0000e+00
      1.300      0.061     6.7936     68.844     40.053  38.386788     1.7094      7.771   211.2478 1.2542e+02     7.6182      1.276      1.850    23.0137 0.0000e+00
      1.315      0.064     6.4311     68.553     40.389  38.652927     1.6549      7.772   211.6246 1.1722e+02     7.5976      1.291      1.873    22.9620 0.0000e+00
      1.326      0.072     6.1588     68.945     40.745  38.898223     1.5590      7.772   212.2186 1.1067e+02     7.5401      1.300      1.886    22.9439 0.0000e+00
      1.340      0.082     5.9772     69.882     41.053  39.067996     1.5163      7.770   212.8385 1.0489e+02     7.5384      1.310      1.900    22.9459 0.0000e+00
      1.360      0.092     5.8877     71.263     41.326  39.182431     1.5376      7.768   213.4403 1.0149e+02     7.6109      1.331      1.930    22.9326 0.0000e+00
      1.390      0.100     5.8744     73.078     41.573  39.266288     1.6335      7.767   213.8160 9.8110e+01     7.8017      1.362      1.975    22.8644 0.0000e+00
      1.424      0.104     5.9267     75.305     41.779  39.320171     1.7854      7.767   213.9395 9.3546e+01     8.1025      1.396      2.025    22.7380 0.0000e+00
      1.457      0.102     6.0281     77.691     41.914  39.326045     1.8593      7.768   213.9880 9.0771e+01     8.2425      1.431      2.076    22.5895 0.0000e+00
      1.485      0.096     6.1697     79.886     42.024  39.337139     1.8773      7.769   214.0587 9.2320e+01     8.2983      1.458      2.116    22.4026 0.0000e+00
      1.505      0.088     6.3469     81.675     42.143  39.390708     1.9707      7.770   214.1913 9.8310e+01     8.6067      1.477      2.142    22.2157 0.0000e+00
      1.522      0.080     6.5717     82.947     42.265  39.465980     2.1064      7.771   214.3005 1.0450e+02     9.0347      1.493      2.165    22.0467 0.0000e+00
      1.539      0.075     6.8137     83.695     42.398  39.549130     2.1610      7.772   214.4324 1.0800e+02     9.2029      1.509      2.189    21.8945 0.0000e+00
      1.557      0.071     7.0258     83.960     42.534  39.634471     2.1568      7.773   214.6683 1.0883e+02     9.2392      1.525      2.212    21.7803 0.0000e+00
      1.577      0.069     7.1957     83.768     42.669  39.736240     2.1798      7.775   215.0022 1.0691e+02     9.8153      1.545      2.242    21.7196 0.0000e+00
      1.597      0.068     7.3117     83.198     42.770  39.827640     2.2233      7.776   215.7154 1.0384e+02    10.8403      1.569      2.275    21.6886 0.0000e+00
      1.614      0.070     7.3819     82.344     42.799  39.851114     2.2416      7.776   216.6671 1.0197e+02    11.3500      1.585      2.299    21.6372 0.0000e+00
      1.627      0.073     7.4150     81.234     42.873  39.893134     2.2350      7.774   217.1303 1.0135e+02    11.3321      1.596      2.315    21.5786 0.0000e+00
      1.641      0.076     7.3994     79.881     42.999  39.954884     2.2514      7.773   217.1007 1.0055e+02    11.2732      1.608      2.333    21.5459 0.0000e+00
      1.661      0.080     7.3437     78.329     42.980  39.836095     2.5813      7.772   217.0832 9.7482e+01    11.1499      1.626      2.359    21.5560 0.0000e+00
      1.687      0.084     7.2673     76.622     42.825  39.535599     3.2026      7.772   217.1771 9.2573e+01    10.9339      1.653      2.398    21.5641 0.0000e+00
      1.713      0.087     7.1748     74.631     42.694  39.240627     3.5366      7.773   217.3753 8.8218e+01    10.7456      1.682      2.439    21.5283 0.0000e+00
      1.737      0.088     7.0604     71.762     42.741  39.125130     3.5567      7.774   217.6724 8.4103e+01    10.6159      1.705      2.473    21.4730 0.0000e+00
      1.758      0.087     6.9370     67.496     43.008  39.217754     3.6381      7.774   217.8440 7.9263e+01    10.3905      1.726      2.502    21.3688 0.0000e+00
      1.778      0.084     6.8115     62.191     43.376  39.408419     3.8211      7.775   217.9019 7.5594e+01    10.1038      1.745      2.530    21.1597 0.0000e+00
      1.797      0.082     6.6855     56.553     43.790  39.653343     4.0306      7.776   218.0275 7.5023e+01    10.0183      1.760      2.554    20.9364 0.0000e+00
      1.817      0.081     6.4818     50.979     44.195  39.894317     5.1885      7.777   218.1589 7.4880e+01    10.3821      1.780      2.583    20.7665 0.0000e+00
      1.840      0.078     6.0982     45.518     44.493  40.037201    17.7461      7.778   218.3718 7.3635e+01    14.5026      1.806      2.619    20.5863 0.0000e+00
      1.863      0.073     5.6147     40.203     44.706  40.111513    40.7889      7.779   218.7940 7.2257e+01    22.1606      1.828      2.650    20.4135 0.0000e+00
      1.884      0.065     5.1088     35.265     44.936  40.221493    53.5637      7.780   219.1343 7.0945e+01    26.6278      1.850      2.683    20.2697 0.0000e+00
      1.902      0.055     4.6175     30.805     45.313  40.478343    56.8552      7.780   219.2168 7.0064e+01    29.3685      1.867      2.709    20.1328 0.0000e+00
      1.912      0.044     4.1394     26.767     45.759  40.805294    80.3194      7.780   219.1901 6.9308e+01    54.1714      1.875      2.720    19.9858 0.0000e+00
      1.919      0.033     3.6506     23.101     45.980  40.937800   123.1296      7.780   219.0690 6.8526e+01    99.5281      1.881      2.729    19.8456 0.0000e+00
      1.925      0.022     3.2062     19.722     45.820  40.747603   146.3702      7.780   219.0436 6.7971e+01   124.1357      1.888      2.739    19.7440 0.0000e+00
      1.931      0.007     2.8074     16.642     45.299  40.282609   147.2162      7.779   219.3132 6.8075e+01   124.7447      1.894      2.747    19.6588 0.0000e+00
      1.934     -0.021     2.4406     14.066     44.659  39.821567   133.0930      7.778   219.5752 6.9071e+01   106.6518      1.898      2.752    19.5799 0.0000e+00
      1.934     -0.070     2.1125     12.274     44.121  39.615792   106.8049      7.776   219.5446 7.0656e+01    72.9965      1.899      2.754    19.5101 0.0000e+00
      1.928     -0.140     1.8059     11.627     43.561  39.508479    92.4209      7.776   219.2871 7.3674e+01    54.5645      1.897      2.752    19.4458 0.0000e+00
      1.903     -0.218     1.5142     12.852     42.944  39.349603    90.9241      7.777   218.8705 8.2534e+01    52.7784      1.881      2.729    19.4202 0.0000e+00
      1.838     -0.290     1.2669     17.043     42.428  39.218458    88.8071      7.777   218.2934 1.0172e+02    51.6749      1.820      2.641    19.5009 0.0000e+00
      1.729     -0.344     1.0859     24.723     42.039  39.129058    66.8239      7.778   217.6434 1.2845e+02    41.3240      1.704      2.471    19.8311 0.0000e+00
      1.597     -0.369     0.9970     35.087     41.720  39.030573    26.5297      7.779   217.1205 1.5806e+02    22.3509      1.563      2.265    20.3582 0.0000e+00
      1.474     -0.363     1.0531     46.577     41.442  38.916389     4.5350      7.778   217.0479 1.8399e+02    11.9259      1.435      2.081    20.8396 0.0000e+00
      1.378     -0.324     1.3915     57.887     41.216  38.827483     2.5147      7.778   217.1961 2.0397e+02    10.9233      1.341      1.945    21.2422 0.0000e+00
      1.308     -0.263     2.0912     68.052     41.045  38.780755     2.2611      7.777   217.1056 2.3105e+02    11.0817      1.278      1.854    21.5683 0.0000e+00
      1.256     -0.194     3.0497     76.224     40.894  38.732321     2.1263      7.777   217.0718 2.6979e+02    11.5529      1.230      1.782    21.7962 0.0000e+00
      1.217     -0.133     4.0850     82.046     40.769  38.686219     2.0497      7.777   217.4755 3.0094e+02    11.8041      1.186      1.720    21.9549 0.0000e+00
      1.194     -0.087     5.0826     85.606     40.691  38.667658     2.0253      7.776   218.1148 3.1517e+02    11.8645      1.166      1.691    22.0951 0.0000e+00
      1.186     -0.056     5.9874     87.246     40.620  38.634884     2.0153      7.775   218.5199 3.3344e+02    12.8979      1.162      1.685    22.2471 0.0000e+00
      1.185     -0.042     6.6908     87.620     40.499  38.543832     2.0033      7.776   218.5882 3.5195e+02    14.9053      1.161      1.684    22.3652 0.0000e+00
      1.185     -0.043     7.1791     87.298     40.358  38.455202     2.0046      7.777   218.5963 3.3855e+02    16.0148      1.163      1.687    22.4449 0.0000e+00
      1.182     -0.055     7.4724     86.555     40.276  38.451752     2.0066      7.778   218.7046 3.0877e+02    15.9973      1.163      1.687    22.5173 0.0000e+00
      1.168     -0.072     7.5818     85.547     40.256  38.502223     1.9778      7.779   218.7791 3.0709e+02    14.8984      1.150      1.669    22.5607 0.0000e+00
      1.140     -0.089     7.5943     84.325     40.286  38.557882     1.9640      7.780   218.7229 3.1984e+02    12.9767      1.122      1.627    22.5676 0.0000e+00
      1.104     -0.104     7.5553     82.950     40.370  38.617092     1.9898      7.782   218.6272 3.2245e+02    11.9937      1.081      1.567    22.6179 0.0000e+00
      1.071     -0.116     7.4672     81.643     40.445  38.646980     2.0058      7.784   218.5679 3.3486e+02    11.9630      1.046      1.518    22.7344 0.0000e+00
      1.046     -0.122     7.3659     80.637     40.427  38.601892     1.9918      7.785   218.5223 3.6208e+02    12.2294      1.026      1.488    22.8405 0.0000e+00
      1.021     -0.124     7.2563     80.006     40.335  38.516106     1.9786      7.786   218.4200 3.8235e+02    12.6865      1.005      1.458    22.8734 0.0000e+00
      0.988     -0.127     7.1348     79.715     40.223  38.434709     1.9873      7.789   218.1920 4.1007e+02    12.9129      0.972      1.410    22.8342 0.0000e+00
      0.949     -0.132     7.0233     79.757     40.053  38.315803     2.0062      7.791   217.9164 4.4922e+02    12.9856      0.929      1.346    22.7643 0.0000e+00
      0.914     -0.138     6.9407     80.144     39.816  38.157258     1.9990      7.793   217.8410 4.7998e+02    13.0532      0.897      1.299    22.7191 0.0000e+00
      0.881     -0.141     6.8881     80.868     39.594  38.040823     1.9660      7.793   217.9683 5.0918e+02    13.2863      0.867      1.259    22.7298 0.0000e+00
      0.843     -0.138     6.8571     81.909     39.429  37.986905     1.9576      7.792   218.0798 5.1956e+02    13.7881      0.828      1.202    22.7684 0.0000e+00
      0.803     -0.133     6.8544     83.247     39.293  37.949682     1.9796      7.791   218.1568 5.3057e+02    14.0995      0.787      1.141    22.8141 0.0000e+00
      0.768     -0.126     6.8770     84.803     39.174  37.908187     1.9911      7.789   218.3825 5.9996e+02    14.0100      0.750      1.089    22.8969 0.0000e+00
      0.738     -0.117     6.9230     86.447     39.076  37.866030     1.9473      7.784   218.6577 6.7175e+02    12.3995      0.724      1.049    23.0294 0.0000e+00
      0.709     -0.110     6.9929     88.037     38.981  37.820776     1.8576      7.782   218.7310 6.5502e+02     9.3837      0.696      1.008    23.1705 0.0000e+00
      0.684     -0.107     7.0932     89.458     38.913  37.805277     1.7973      7.782   218.5796 5.8602e+02     7.7092      0.668      0.969    23.2952 0.0000e+00
      0.664     -0.109     7.2173     90.688     38.940  37.869078     1.7920      7.783   218.3765 5.6457e+02     7.5597      0.653      0.946    23.3911 0.0000e+00
      0.642     -0.117     7.3532     91.733     39.023  37.957695     1.8098      7.785   218.1684 6.6362e+02     7.1656      0.634      0.919    23.4472 0.0000e+00
      0.611     -0.130     7.4863     92.568     39.075  37.988365     1.8216      7.787   217.5258 7.8955e+02     6.3939      0.600      0.871    23.4997 0.0000e+00
      0.574     -0.145     7.5947     93.119     39.103  37.986055     1.8186      7.789   216.6299 8.0942e+02     5.9837      0.564      0.819    23.5763 0.0000e+00
      0.534     -0.157     7.6903     93.318     39.128  37.993172     1.8069      7.791   216.1988 8.0935e+02     5.9627      0.525      0.761    23.6363 0.0000e+00
      0.489     -0.163     7.7786     93.194     39.154  38.010939     1.8049      7.793   216.0118 8.7856e+02     6.3113      0.482      0.699    23.6447 0.0000e+00
      0.441     -0.165     7.8561     92.854     39.160  38.010503     1.8103      7.796   215.7466 9.2368e+02     6.9539      0.432      0.627    23.6098 0.0000e+00
      0.394     -0.160     7.9147     92.440     39.131  37.987886     1.7983      7.797   215.6596 8.9758e+02     7.2760      0.381      0.552    23.5582 0.0000e+00
      0.356     -0.147     7.9321     92.065     39.110  37.991308     1.7923      7.794   215.8198 8.4075e+02     7.3027      0.348      0.504    23.5370 0.0000e+00
      0.321     -0.123     7.9190     91.813     39.080  37.988468     1.8378      7.789   216.1352 8.0686e+02     7.5156      0.318      0.461    23.5402 0.0000e+00
      0.284     -0.093     7.8872     91.729     39.019  37.953578     1.9076      7.784   216.2894 8.2511e+02     7.9367      0.275      0.399    23.5215 0.0000e+00
      0.255     -0.065     7.8500     91.852     38.974  37.950219     1.9366      7.782   215.7909 9.8779e+02     8.0896      0.242      0.349    23.5186 0.0000e+00
      0.245     -0.051     7.8087     92.197     38.925  37.947923     1.9301      7.782   214.9263 1.2111e+03     7.9636      0.235      0.339    23.5638 0.0000e+00
      0.253     -0.054     7.7798     92.711     38.879  37.925890     1.9377      7.783   214.3534 1.1295e+03     7.9174      0.246      0.357    23.6050 0.0000e+00
      0.265     -0.069     7.7713     93.391     38.874  37.937670     2.1287      7.785   214.0266 9.6010e+02     7.8378      0.267      0.387    23.6141 0.0000e+00
      0.257     -0.090     7.7695     94.175     38.877  37.963467     2.4834      7.787   213.4701 9.8796e+02     7.6167      0.266      0.386    23.6744 0.0000e+00
      0.217     -0.113     7.7921     94.899     38.881  37.984010     2.6636      7.788   212.8732 1.1086e+03     7.4300      0.220      0.320    23.7611 0.0000e+00
      0.158     -0.128     7.8310     95.467     38.890  37.995713     2.6428      7.788   212.8312 1.2831e+03     7.2885      0.149      0.216    23.7698 0.0000e+00
      0.108     -0.126     7.8884     95.887     38.867  37.978062     2.4235      7.786   213.2216 1.3270e+03     6.8960      0.098      0.143    23.7819 0.0000e+00
      0.074     -0.107     7.9552     96.178     38.825  37.960967     2.0431      7.784   215.6142 1.2248e+03     6.3045      0.070      0.102    23.8253 0.0000e+00
      0.051     -0.085     8.0156     96.336     38.813  37.979423     1.8467      7.785   224.5524 1.0919e+03     6.0131      0.044      0.065    23.8479 0.0000e+00
      0.044     -0.072     8.0627     96.347     38.835  38.010884     1.8218      7.787   235.6827 1.0118e+03     5.9687      0.038      0.056    23.8470 0.0000e+00
      0.048     -0.072     8.0990     96.271     38.853  38.024096     1.7842      7.788   239.1135 1.0746e+03     5.9723      0.049      0.071    23.8360 0.0000e+00
      0.044     -0.083     8.1179     96.242     38.845  38.012248     1.7578      7.788   237.4685 1.3065e+03     6.0903      0.054      0.078    23.8757 0.0000e+00
      0.016     -0.101     8.1221     96.244     38.830  37.994537     1.7604      7.789   236.4433 1.4537e+03     6.2005      0.025      0.035    23.9369 0.0000e+00
     -0.030     -0.119     8.1233     96.200     38.832  38.000319     1.7579      7.790   236.0097 1.1814e+03     6.2118     -0.035     -0.051    23.9393 0.0000e+00
     -0.072     -0.131     8.1103     96.125     38.828  38.018708     1.7023      7.793   235.4950 9.7355e+02     5.9876     -0.072     -0.103    23.9231 0.0000e+00
     -0.107     -0.130     8.1108     96.044     38.811  38.026538     1.6123      7.796   234.2645 1.1426e+03     5.6078     -0.102     -0.147    23.9241 0.0000e+00
     -0.142     -0.120     8.1161     95.990     38.811  38.031584     1.5767      7.797   229.1340 1.3164e+03     5.4798     -0.142     -0.206    23.9181 0.0000e+00
     -0.172     -0.116     8.1110     95.966     38.859  38.079714     1.5887      7.795   220.4398 1.3877e+03     5.5330     -0.172     -0.248    23.9080 0.0000e+00
     -0.193     -0.135     8.0992     95.916     38.901  38.164274     1.5826      7.791   214.9240 1.3879e+03     5.4996     -0.192     -0.279    23.9478 0.0000e+00
     -0.208     -0.174     8.0828     95.882     38.861  38.229129     1.5523      7.787   216.4754 1.3512e+03     5.4171     -0.202     -0.294    24.0003 0.0000e+00
     -0.232     -0.222     8.0778     95.960     38.782  38.292919     1.5220      7.783   223.5394 1.3267e+03     5.3897     -0.214     -0.312    23.9960 0.0000e+00
     -0.291     -0.266     8.0836     96.075     38.709  38.364661     1.5163      7.779   230.0400 1.2273e+03     5.4422     -0.263     -0.384    23.9699 0.0000e+00
     -0.395     -0.291     8.0725     96.065     38.625  38.398747     1.5086      7.778   232.4369 1.1070e+03     5.4370     -0.382     -0.554    24.0114 0.0000e+00
     -0.514     -0.287     8.0391     95.705     38.540  38.387940     1.4117      7.779   231.5273 1.1156e+03     5.1552     -0.515     -0.745    24.1664 0.0000e+00
     -0.614     -0.257     8.0211     94.772     38.483  38.361010     1.2520      7.780   229.5391 1.1232e+03     4.7002     -0.610     -0.886    24.3637 0.0000e+00
     -0.680     -0.206     8.0057     93.393     38.460  38.327013     1.1675      7.782   229.1328 1.0768e+03     4.4783     -0.686     -0.996    24.5642 0.0000e+00
     -0.704     -0.145     7.9855     91.999     38.480  38.294153     1.1724      7.785   230.2281 1.0554e+03     4.5221     -0.702     -1.019    24.7248 0.0000e+00
     -0.701     -0.090     7.9549     90.962     38.560  38.280915     1.2198      7.788   231.3395 1.0257e+03     4.8204     -0.679     -0.985    24.8154 0.0000e+00
     -0.708     -0.051     7.8666     90.353     38.685  38.293718     1.2903      7.791   231.9879 9.7878e+02     5.3181     -0.690     -1.000    24.8529 0.0000e+00
     -0.727     -0.030     7.7383     89.877     38.753  38.258413     1.3344      7.793   232.8188 9.3006e+02     5.5866     -0.718     -1.042    24.8403 0.0000e+00
     -0.738     -0.022     7.6208     89.118     38.100  37.536619     1.3211      7.793   233.8999 8.8671e+02     5.6759     -0.727     -1.054    24.7742 0.0000e+00
     -0.740     -0.018     7.5494     87.889     31.335  30.835575     1.1714      7.793   234.6493 8.5272e+02     6.2609     -0.725     -1.053    24.6415 0.0000e+00
     -0.741     -0.011     7.5320     86.329     18.036  17.736535     0.9134      7.793   236.2012 8.0525e+02     7.2620     -0.726     -1.054    24.4826 0.0000e+00
     -0.741     -0.004     7.5265     84.682      8.664   8.515471     0.7657      7.793   238.8107 7.2211e+02     7.7719     -0.727     -1.053    24.3439 0.0000e+00
     -0.741     -0.001     7.4838     83.108      5.859   5.756652     0.7332      7.793   240.3900 6.1004e+02     7.7466     -0.726     -1.054    24.2397 0.0000e+00
     -0.741     -0.000     7.3838     81.732      5.062   4.972561     0.5619      7.793   241.0991 4.8291e+02     6.7509     -0.727     -1.053    24.1750 0.0000e+00
     -0.741     -0.000     7.2482     80.708      4.758   4.673602     0.2421      7.793   241.7926 3.5968e+02     4.8534     -0.726     -1.054    24.1414 0.0000e+00
     -0.741     -0.000     7.1098     80.305      4.631   4.549325     0.0800      7.793   242.0634 2.7161e+02     3.8998     -0.726     -1.053    24.1253 0.0000e+00
     -0.741 -9.990e-29     6.9739 -9.990e-29 -9.990e-29 -9.990e-29 -9.990e-29 -9.990e-29 -9.990e-29 2.2889e+02 -9.990e-29     -0.726     -1.053    24.1169 0.0000e+00
     -0.741 -9.990e-29     6.8566 -9.990e-29 -9.990e-29 -9.990e-29 -9.990e-29 -9.990e-29 -9.990e-29 2.0771e+02 -9.990e-29     -0.726     -1.053    24.1120 0.0000e+00
     -0.741 -9.990e-29     6.7627 -9.990e-29 -9.990e-29 -9.990e-29 -9.990e-29 -9.990e-29 -9.990e-29 1.9209e+02 -9.990e-29     -0.726     -1.053    24.1077 0.0000e+00
     -0.741 -9.990e-29     6.7175 -9.990e-29 -9.990e-29 -9.990e-29 -9.990e-29 -9.990e-29 -9.990e-29 1.8576e+02 -9.990e-29     -0.726     -1.053    24.1049 0.0000e+00
