* Sea-Bird SBE19plus  Data File:
* FileName = C:\R\Reservoirs\Data\DataNotYetUploadedToEDI\Raw_CTD\RawDownloads\052724_bvr50_S7809_0008.hex
* Software version 2.8.0.119
* Temperature SN = 7809
* Conductivity SN = 7809
* System UpLoad Time = Jun 04 2024 12:23:57
* <ApplicationData>
* <Seaterm232>
* <SoftwareVersion>2.8.0.119</SoftwareVersion>
* <BuildDate>07-Nov-2018</BuildDate>
* </Seaterm232>
* </ApplicationData>
* <InstrumentState>
* <HardwareData DeviceType='SBE19plus' SerialNumber='01907809'>
*
*    <Manufacturer>Sea-Bird Electronics, Inc.</Manufacturer>
*
*    <FirmwareVersion>3.1.8</FirmwareVersion>
*
*    <FirmwareDate>Mar  9 2016 16:22:29</FirmwareDate>
*
*    <CommandSetVersion>1.4</CommandSetVersion>
*
*    <PCBAssembly PCBSerialNum='120721' AssemblyNum='41054J'/>
*
*    <PCBAssembly PCBSerialNum='120715' AssemblyNum='41967A'/>
*
*    <PCBAssembly PCBSerialNum='116699' AssemblyNum='41606'/>
*
*    <PCBAssembly PCBSerialNum='120719' AssemblyNum='41059D'/>
*
*    <MfgDate>28-Apr-2017</MfgDate>
*
*    <InternalSensors>
*
*       <Sensor id='Main Temperature'>
*
*          <type>temperature0</type>
*
*          <SerialNumber>01907809</SerialNumber>
*
*       </Sensor>
*
*       <Sensor id='Main Conductivity'>
*
*          <type>conductivity-0</type>
*
*          <SerialNumber>01907809</SerialNumber>
*
*       </Sensor>
*
*       <Sensor id='Main Pressure'>
*
*          <type>strain-0</type>
*
*          <SerialNumber>10586018</SerialNumber>
*
*       </Sensor>
*
*    </InternalSensors>
*
*    <ExternalSensors>
*
*       <Sensor id='volt 0'>
*
*          <type>pH</type>
*
*          <SerialNumber>27-0363</SerialNumber>
*
*       </Sensor>
*
*       <Sensor id='volt 1'>
*
*          <type>ORP</type>
*
*          <SerialNumber>27-0363</SerialNumber>
*
*       </Sensor>
*
*       <Sensor id='volt 2'>
*
*          <type>OXY</type>
*
*          <SerialNumber>43-0434</SerialNumber>
*
*       </Sensor>
*
*       <Sensor id='volt 3'>
*
*          <type>PAR</type>
*
*          <SerialNumber>1122</SerialNumber>
*
*       </Sensor>
*
*       <Sensor id='volt 4'>
*
*          <type>ECO AFL/FL</type>
*
*          <SerialNumber>FLNTURT-2496</SerialNumber>
*
*       </Sensor>
*
*       <Sensor id='volt 5'>
*
*          <type>ECO-NTU</type>
*
*          <SerialNumber>FLNTURT-2496</SerialNumber>
*
*       </Sensor>
*
*       <Sensor id='serial'>
*
*          <type>not assigned</type>
*
*          <SerialNumber>not assigned</SerialNumber>
*
*       </Sensor>
*
*    </ExternalSensors>
*
* </HardwareData>
* <StatusData DeviceType='SBE19plus' SerialNumber='01907809'>
*
*    <DateTime>2024-06-04T12:18:54</DateTime>
*
*    <LoggingState>not logging</LoggingState>
*
*    <EventSummary numEvents='0'/>
*
*    <Power>
*
*       <vMain>12.8</vMain>
*
*       <vLith>8.4</vLith>
*
*       <iMain>63.0</iMain>
*
*       <iPump>46.1</iPump>
*
*       <iExt01>20.3</iExt01>
*
*       <iExt2345>36.8</iExt2345>
*
*    </Power>
*
*    <MemorySummary>
*
*       <Bytes>337272</Bytes>
*
*       <Samples>14664</Samples>
*
*       <SamplesFree>2846124</SamplesFree>
*
*       <SampleLength>23</SampleLength>
*
*       <Profiles>11</Profiles>
*
*    </MemorySummary>
*
* </StatusData>
* <ConfigurationData DeviceType='SBE19plus' SerialNumber='01907809'>
*
*    <ProfileMode>
*
*       <ScansToAverage>1</ScansToAverage>
*
*       <MinimumCondFreq>0</MinimumCondFreq>
*
*       <PumpDelay>45</PumpDelay>
*
*       <AutoRun>no</AutoRun>
*
*       <IgnoreSwitch>no</IgnoreSwitch>
*
*    </ProfileMode>
*
*    <Battery>
*
*       <Type>alkaline</Type>
*
*       <CutOff>7.5</CutOff>
*
*    </Battery>
*
*    <DataChannels>
*
*       <ExtVolt0>yes</ExtVolt0>
*
*       <ExtVolt1>yes</ExtVolt1>
*
*       <ExtVolt2>yes</ExtVolt2>
*
*       <ExtVolt3>yes</ExtVolt3>
*
*       <ExtVolt4>yes</ExtVolt4>
*
*       <ExtVolt5>yes</ExtVolt5>
*
*       <SBE38>no</SBE38>
*
*       <WETLABS>no</WETLABS>
*
*       <OPTODE>no</OPTODE>
*
*       <SBE63>no</SBE63>
*
*       <SeaFET>no</SeaFET>
*
*       <GTD>no</GTD>
*
*    </DataChannels>
*
*    <EchoCharacters>yes</EchoCharacters>
*
*    <OutputExecutedTag>yes</OutputExecutedTag>
*
*    <OutputFormat>raw HEX</OutputFormat>
*
* </ConfigurationData>
* <CalibrationCoefficients DeviceType='SBE19plus' SerialNumber='01907809'>
*
*    <Calibration format='TEMP1' id='Main Temperature'>
*
*       <SerialNum>01907809</SerialNum>
*
*       <CalDate>31-Jan-23</CalDate>
*
*       <TA0>1.218232e-03</TA0>
*
*       <TA1>2.815090e-04</TA1>
*
*       <TA2>-1.578887e-06</TA2>
*
*       <TA3>1.972343e-07</TA3>
*
*       <TOFFSET>0.000000e+00</TOFFSET>
*
*    </Calibration>
*
*    <Calibration format='WBCOND0' id='Main Conductivity'>
*
*       <SerialNum>01907809</SerialNum>
*
*       <CalDate>31-Jan-23</CalDate>
*
*       <G>-1.005652e+00</G>
*
*       <H>1.267963e-01</H>
*
*       <I>-1.561708e-04</I>
*
*       <J>2.645944e-05</J>
*
*       <CPCOR>-9.570000e-08</CPCOR>
*
*       <CTCOR>3.250000e-06</CTCOR>
*
*       <CSLOPE>1.000000e+00</CSLOPE>
*
*    </Calibration>
*
*    <Calibration format='STRAIN0' id='Main Pressure'>
*
*       <SerialNum>10586018</SerialNum>
*
*       <CalDate>20-Jan-23</CalDate>
*
*       <PA0>4.416439e-02</PA0>
*
*       <PA1>4.850502e-04</PA1>
*
*       <PA2>-3.090426e-12</PA2>
*
*       <PTCA0>5.254757e+05</PTCA0>
*
*       <PTCA1>1.050255e+01</PTCA1>
*
*       <PTCA2>-2.922435e-01</PTCA2>
*
*       <PTCB0>2.516687e+01</PTCB0>
*
*       <PTCB1>3.750000e-04</PTCB1>
*
*       <PTCB2>0.000000e+00</PTCB2>
*
*       <PTEMPA0>-5.470820e+01</PTEMPA0>
*
*       <PTEMPA1>5.485421e+01</PTEMPA1>
*
*       <PTEMPA2>-3.446578e-01</PTEMPA2>
*
*       <POFFSET>8.500000e-01</POFFSET>
*
*       <PRANGE>1.600000e+02</PRANGE>
*
*    </Calibration>
*
*    <Calibration format='VOLT0' id='Volt 0'>
*
*       <OFFSET>-4.920000e-02</OFFSET>
*
*       <SLOPE>1.248122e+00</SLOPE>
*
*    </Calibration>
*
*    <Calibration format='VOLT0' id='Volt 1'>
*
*       <OFFSET>-4.784000e-02</OFFSET>
*
*       <SLOPE>1.248871e+00</SLOPE>
*
*    </Calibration>
*
*    <Calibration format='VOLT0' id='Volt 2'>
*
*       <OFFSET>-4.864632e-02</OFFSET>
*
*       <SLOPE>1.248714e+00</SLOPE>
*
*    </Calibration>
*
*    <Calibration format='VOLT0' id='Volt 3'>
*
*       <OFFSET>-4.743790e-02</OFFSET>
*
*       <SLOPE>1.248571e+00</SLOPE>
*
*    </Calibration>
*
*    <Calibration format='VOLT0' id='Volt 4'>
*
*       <OFFSET>-4.671263e-02</OFFSET>
*
*       <SLOPE>1.248951e+00</SLOPE>
*
*    </Calibration>
*
*    <Calibration format='VOLT0' id='Volt 5'>
*
*       <OFFSET>-4.871053e-02</OFFSET>
*
*       <SLOPE>1.249136e+00</SLOPE>
*
*    </Calibration>
*
*    <Calibration format='FREQ0' id='external frequency channel'>
*
*       <EXTFREQSF>1.000014e+00</EXTFREQSF>
*
*    </Calibration>
*
* </CalibrationCoefficients>
* <EventCounters DeviceType='SBE19plus' SerialNumber='01907809'>
*
*    <EventSummary numEvents='0'/>
*
* </EventCounters></InstrumentState>
* <Headers>
*
* cast   8 03 Jun 2024 12:16:14 samples 9238 to 10200, avg = 1, stop = mag switch
*
# nquan = 15
# nvalues = 963                         
# units = specified
# name 0 = depFM: Depth [fresh water, m]
# name 1 = dz/dtM: Descent Rate [m/s]
# name 2 = sbeox0Mg/L: Oxygen, SBE 43 [mg/l]
# name 3 = sbeox0PS: Oxygen, SBE 43 [% saturation]
# name 4 = specc: Specific Conductance [uS/cm]
# name 5 = c0uS/cm: Conductivity [uS/cm]
# name 6 = flECO-AFL: Fluorescence, WET Labs ECO-AFL/FL [mg/m^3]
# name 7 = ph: pH
# name 8 = orp: Oxidation Reduction Potential [mV]
# name 9 = par/sat/log: PAR/Logarithmic, Satlantic
# name 10 = turbWETntu0: Turbidity, WET Labs ECO [NTU]
# name 11 = prdM: Pressure, Strain Gauge [db]
# name 12 = prdE: Pressure, Strain Gauge [psi]
# name 13 = tv290C: Temperature [ITS-90, deg C]
# name 14 = flag:  0.000e+00
# span 0 =     -0.660,      2.564       
# span 1 =     -0.373,      0.164       
# span 2 =     3.6634,     9.4412       
# span 3 =     38.875,    108.537       
# span 4 =      1.828,     42.796       
# span 5 =   1.751109,  38.600980       
# span 6 =    -0.2828,    86.3957       
# span 7 =      8.257,      8.515       
# span 8 =    32.7639,   836.6439       
# span 9 = 9.4775e+01, 2.6429e+03       
# span 10 =    -1.5094,   134.7456      
# span 11 =     -0.649,      2.514      
# span 12 =     -0.942,      3.647      
# span 13 =    18.0959,    23.3273      
# span 14 = 0.0000e+00, 0.0000e+00      
# interval = seconds: 0.25
# start_time = Jun 03 2024 12:16:14 [Instrument's time stamp, header]
# bad_flag = -9.990e-29
# <Sensors count="9" >
#   <sensor Channel="1" >
#     <!-- Count, Temperature -->
#     <TemperatureSensor SensorID="58" >
#       <SerialNumber>7809</SerialNumber>
#       <CalibrationDate>31-Jan-23</CalibrationDate>
#       <A0>1.21823180e-003</A0>
#       <A1>2.81508993e-004</A1>
#       <A2>-1.57888696e-006</A2>
#       <A3>1.97234302e-007</A3>
#       <Slope>1.00000000</Slope>
#       <Offset>0.0000</Offset>
#     </TemperatureSensor>
#   </sensor>
#   <sensor Channel="2" >
#     <!-- Frequency 0, Conductivity -->
#     <ConductivitySensor SensorID="3" >
#       <SerialNumber>7809</SerialNumber>
#       <CalibrationDate>31-Jan-23</CalibrationDate>
#       <UseG_J>1</UseG_J>
#       <!-- Cell const and series R are applicable only for wide range sensors. -->
#       <SeriesR>0.0000</SeriesR>
#       <CellConst>2000.0000</CellConst>
#       <ConductivityType>0</ConductivityType>
#       <Coefficients equation="0" >
#         <A>0.00000000e+000</A>
#         <B>0.00000000e+000</B>
#         <C>0.00000000e+000</C>
#         <D>0.00000000e+000</D>
#         <M>0.0</M>
#         <CPcor>-9.57000000e-008</CPcor>
#       </Coefficients>
#       <Coefficients equation="1" >
#         <G>-1.00565232e+000</G>
#         <H>1.26796307e-001</H>
#         <I>-1.56170788e-004</I>
#         <J>2.64594368e-005</J>
#         <CPcor>-9.57000000e-008</CPcor>
#         <CTcor>3.2500e-006</CTcor>
#         <!-- WBOTC not applicable unless ConductivityType = 1. -->
#         <WBOTC>0.00000000e+000</WBOTC>
#       </Coefficients>
#       <Slope>1.00000000</Slope>
#       <Offset>0.00000</Offset>
#     </ConductivitySensor>
#   </sensor>
#   <sensor Channel="3" >
#     <!-- Count, Pressure, Strain Gauge -->
#     <PressureSensor SensorID="46" >
#       <SerialNumber>7809</SerialNumber>
#       <CalibrationDate>20-Jan-23</CalibrationDate>
#       <PA0>4.41643944e-002</PA0>
#       <PA1>4.85050239e-004</PA1>
#       <PA2>-3.09042623e-012</PA2>
#       <PTEMPA0>-5.47081996e+001</PTEMPA0>
#       <PTEMPA1>5.48542136e+001</PTEMPA1>
#       <PTEMPA2>-3.44657813e-001</PTEMPA2>
#       <PTCA0>5.25475731e+005</PTCA0>
#       <PTCA1>1.05025484e+001</PTCA1>
#       <PTCA2>-2.92243463e-001</PTCA2>
#       <PTCB0>2.51668750e+001</PTCB0>
#       <PTCB1>3.75000000e-004</PTCB1>
#       <PTCB2>0.00000000e+000</PTCB2>
#       <Offset>0.000000</Offset>
#     </PressureSensor>
#   </sensor>
#   <sensor Channel="4" >
#     <!-- A/D voltage 0, Oxygen, SBE 43 -->
#     <OxygenSensor SensorID="38" >
#       <SerialNumber>0434</SerialNumber>
#       <CalibrationDate>18-Feb-23</CalibrationDate>
#       <Use2007Equation>1</Use2007Equation>
#       <CalibrationCoefficients equation="0" >
#         <!-- Coefficients for Owens-Millard equation. -->
#         <Boc>0.0000</Boc>
#         <Soc>0.0000e+000</Soc>
#         <offset>0.0000</offset>
#         <Pcor>0.00e+000</Pcor>
#         <Tcor>0.0000</Tcor>
#         <Tau>0.0</Tau>
#       </CalibrationCoefficients>
#       <CalibrationCoefficients equation="1" >
#         <!-- Coefficients for Sea-Bird equation - SBE calibration in 2007 and later. -->
#         <Soc>5.1878e-001</Soc>
#         <offset>-0.5046</offset>
#         <A>-4.2788e-003</A>
#         <B> 1.5372e-004</B>
#         <C>-2.1853e-006</C>
#         <D0> 2.5826e+000</D0>
#         <D1> 1.92634e-004</D1>
#         <D2>-4.64803e-002</D2>
#         <E> 3.6000e-002</E>
#         <Tau20> 0.9900</Tau20>
#         <H1>-3.3000e-002</H1>
#         <H2> 5.0000e+003</H2>
#         <H3> 1.4500e+003</H3>
#       </CalibrationCoefficients>
#     </OxygenSensor>
#   </sensor>
#   <sensor Channel="5" >
#     <!-- A/D voltage 1, PAR/Logarithmic, Satlantic -->
#     <PARLog_SatlanticSensor SensorID="76" >
#       <SerialNumber>1122</SerialNumber>
#       <CalibrationDate>08-Sep-2021</CalibrationDate>
#       <a0>9.6751e-001</a0>
#       <a1>8.0992e-001</a1>
#       <Im>1.3589e+000</Im>
#       <Multiplier>1.0000e+000</Multiplier>
#     </PARLog_SatlanticSensor>
#   </sensor>
#   <sensor Channel="6" >
#     <!-- A/D voltage 2, pH -->
#     <pH_Sensor SensorID="43" >
#       <SerialNumber>0363</SerialNumber>
#       <CalibrationDate>28-Feb-23</CalibrationDate>
#       <Slope>4.7364</Slope>
#       <Offset>2.5433</Offset>
#     </pH_Sensor>
#   </sensor>
#   <sensor Channel="7" >
#     <!-- A/D voltage 3, Oxidation Reduction Potential -->
#     <OxidationReductionPotentialSensor SensorID="41" >
#       <SerialNumber>0363</SerialNumber>
#       <CalibrationDate>28-Feb-23</CalibrationDate>
#       <B>2.499480</B>
#       <M>-0.496195</M>
#       <Offset>0.0</Offset>
#     </OxidationReductionPotentialSensor>
#   </sensor>
#   <sensor Channel="8" >
#     <!-- A/D voltage 4, Fluorometer, WET Labs ECO-AFL/FL -->
#     <FluoroWetlabECO_AFL_FL_Sensor SensorID="20" >
#       <SerialNumber>FLNTURT-2496</SerialNumber>
#       <CalibrationDate>02-Sep-2021</CalibrationDate>
#       <ScaleFactor>4.80000000e+001</ScaleFactor>
#       <!-- Dark output -->
#       <Vblank>0.0550</Vblank>
#     </FluoroWetlabECO_AFL_FL_Sensor>
#   </sensor>
#   <sensor Channel="9" >
#     <!-- A/D voltage 5, Turbidity Meter, WET Labs, ECO-NTU -->
#     <TurbidityMeter SensorID="67" >
#       <SerialNumber>FLNTURT--2496</SerialNumber>
#       <CalibrationDate>02-Sep-2021</CalibrationDate>
#       <ScaleFactor>197.000000</ScaleFactor>
#       <!-- Dark output -->
#       <DarkVoltage>0.070000</DarkVoltage>
#     </TurbidityMeter>
#   </sensor>
# </Sensors>
# datcnv_date = Jun 04 2024 12:36:00, 7.26.7.129 [datcnv_vars = 14]
# datcnv_in = C:\R\Reservoirs\Data\DataNotYetUploadedToEDI\Raw_CTD\RawDownloads\060324_fcr20_S7809008.hex C:\R\Reservoirs\Data\DataNotYetUploadedToEDI\Raw_CTD\RawDownloads\SBE19plusV2_7809_start20230701.xmlcon
# datcnv_skipover = 0
# datcnv_ox_hysteresis_correction = yes
# datcnv_ox_tau_correction = yes
# filter_date = Jun 04 2024 12:36:28, 7.26.7.129
# filter_in = C:\R\Reservoirs\Data\DataNotYetUploadedToEDI\Raw_CTD\RawDownloads\060324_fcr20_S7809008.cnv
# filter_low_pass_tc_A = 0.030
# filter_low_pass_tc_B = 0.150
# filter_low_pass_A_vars = sbeox0Mg/L prdM prdE tv290C
# filter_low_pass_B_vars = depFM dz/dtM sbeox0PS specc c0uS/cm flECO-AFL ph orp par/sat/log turbWETntu0
# alignctd_date = Jun 04 2024 12:36:52, 7.26.7.129
# alignctd_in = C:\R\Reservoirs\Data\DataNotYetUploadedToEDI\Raw_CTD\RawDownloads\060324_fcr20_S7809008.cnv
# alignctd_adv = dz/dtM 1.000, sbeox0PS 1.000, specc 1.000, c0uS/cm 1.000, flECO-AFL 1.000, ph 1.000, orp 1.000, turbWETntu0 1.000                                                                                                   
# file_type = ascii
*END*
     -0.657      0.000     8.0473     93.614      1.828   1.751109    -0.0555      8.396   591.7398 6.1623e+02     3.5116     -0.645     -0.935    22.8949 0.0000e+00
     -0.657     -0.000     8.0483     93.608      1.881   1.801790    -0.0686      8.396   593.2582 6.1031e+02     3.4385     -0.645     -0.935    22.8955 0.0000e+00
     -0.658     -0.001     8.0452     93.583      1.975   1.891747    -0.0851      8.396   594.3436 6.0891e+02     3.4351     -0.645     -0.936    22.8960 0.0000e+00
     -0.658     -0.001     8.0436     93.565      2.037   1.951980    -0.0884      8.396   593.6783 6.0949e+02     3.5395     -0.645     -0.935    22.8967 0.0000e+00
     -0.658     -0.000     8.0462     93.563      2.045   1.959976    -0.0756      8.396   591.5816 6.1495e+02     3.6751     -0.645     -0.936    22.8975 0.0000e+00
     -0.658 -1.847e-08     8.0456     93.574      2.075   1.988431    -0.0707      8.398   589.1247 6.2648e+02     3.7091     -0.646     -0.936    22.8981 0.0000e+00
     -0.658 -2.032e-07     8.0420     93.587      2.132   2.042652    -0.0714      8.398   588.4080 6.3288e+02     3.7119     -0.646     -0.936    22.8988 0.0000e+00
     -0.658 -2.032e-07     8.0404     93.598      2.201   2.108814    -0.0589      8.396   590.4005 6.4463e+02     3.7079     -0.645     -0.936    22.8995 0.0000e+00
     -0.658 -1.878e-08     8.0400     93.623      2.315   2.218306    -0.0449      8.394   592.8252 7.9870e+02     3.5934     -0.645     -0.935    22.8999 0.0000e+00
     -0.658 -5.064e-09     8.0414     93.645      2.456   2.353006    -0.0514      8.394   590.6219 9.4397e+02     3.4539     -0.645     -0.935    22.9003 0.0000e+00
     -0.658 -3.738e-08     8.0431     93.650      2.512   2.407253    -0.0627      8.394   567.3742 7.8432e+02     3.4226     -0.645     -0.935    22.9010 0.0000e+00
     -0.658 -4.095e-07     8.0421     93.639      2.471   2.367445    -0.0492      8.402   492.8527 5.7130e+02     3.0781     -0.645     -0.936    22.9014 0.0000e+00
     -0.658      0.000     8.0457     93.619      2.416   2.315095    -0.0285      8.411   415.5017 5.3019e+02     2.2604     -0.645     -0.935    22.9017 0.0000e+00
     -0.658     -0.000     8.0480     93.599      2.381   2.281046    -0.0213      8.426   349.3528 8.7667e+02     1.7684     -0.645     -0.935    22.9022 0.0000e+00
     -0.658     -0.001     8.0478     93.594      2.371   2.272482    -0.0121      8.451   249.2961 1.5501e+03     1.7411     -0.646     -0.936    22.9026 0.0000e+00
     -0.658     -0.001     8.0473     93.623      2.440   2.338243    -0.0248      8.448   218.2348 1.6966e+03     1.2811     -0.645     -0.936    22.9031 0.0000e+00
     -0.658     -0.001     8.0443     93.649      2.615   2.506057    -0.0672      8.426   232.7722 1.1901e+03     0.3054     -0.646     -0.937    22.9034 0.0000e+00
     -0.658     -0.000     8.0434     93.632      2.770   2.654553    -0.0748      8.442   123.7572 7.6601e+02    -0.2184     -0.646     -0.936    22.9038 0.0000e+00
     -0.659 -1.861e-08     8.0407     93.618      2.793   2.676768    -0.0502      8.465    32.7639 6.5258e+02    -0.2014     -0.646     -0.937    22.9041 0.0000e+00
     -0.659 -2.048e-07     8.0446     93.636      2.763   2.647971    -0.0529      8.421   158.5969 6.4401e+02    -0.1723     -0.646     -0.937    22.9044 0.0000e+00
     -0.659 -2.048e-07     8.0499     93.653      2.803   2.686451    -0.0740      8.342   366.2208 6.3926e+02     0.5095     -0.646     -0.937    22.9052 0.0000e+00
     -0.659 -1.861e-08     8.0446     93.646      2.948   2.825287    -0.0725      8.288   523.6138 6.3884e+02     1.9279     -0.646     -0.937    22.9067 0.0000e+00
     -0.659 -1.691e-09     8.0425     93.637      3.060   2.933027    -0.0602      8.271   648.8572 6.3450e+02     2.7324     -0.646     -0.937    22.9086 0.0000e+00
     -0.659 -1.437e-10     8.0456     93.671      3.039   2.912264    -0.0667      8.294   761.1568 6.1580e+02     2.8237     -0.646     -0.937    22.9100 0.0000e+00
     -0.659 9.7610e-11     8.0477     93.737      2.951   2.827623    -0.1338      8.342   836.6439 5.8967e+02     2.7589     -0.646     -0.937    22.9100 0.0000e+00
     -0.659 1.2263e-09     8.0467     93.778      2.852   2.733128    -0.2398      8.368   722.4251 5.6531e+02     2.6320     -0.646     -0.936    22.9099 0.0000e+00
     -0.659 1.3503e-08     8.0435     93.785      2.772   2.656575    -0.2828      8.338   501.8410 5.6744e+02     2.6216     -0.646     -0.937    22.9097 0.0000e+00
     -0.658 1.4853e-07     8.0467     93.771      2.712   2.598824    -0.2795      8.287   481.7989 8.1379e+02     2.5647     -0.645     -0.936    22.9088 0.0000e+00
     -0.658      0.000     8.0563     93.750      2.653   2.541619    -0.2415      8.269   586.6994 1.4073e+03     1.8082     -0.646     -0.936    22.9072 0.0000e+00
     -0.658      0.000     8.0591     93.717      2.580   2.471669    -0.1385      8.281   629.4768 1.6586e+03     0.5120     -0.646     -0.936    22.9049 0.0000e+00
     -0.658      0.000     8.0597     93.648      2.491   2.386504    -0.0584      8.293   592.4813 1.5791e+03    -0.1959     -0.646     -0.936    22.9020 0.0000e+00
     -0.658      0.002     8.0590     93.581      2.437   2.335380    -0.0393      8.278   471.5869 1.9110e+03    -0.1921     -0.645     -0.935    22.8995 0.0000e+00
     -0.658      0.009     8.0567     93.575      2.727   2.613659     0.0593      8.257   346.1475 1.9965e+03     1.1047     -0.645     -0.936    22.8963 0.0000e+00
     -0.658      0.023     8.0569     93.602      6.456   6.194560     0.2520      8.287   263.6613 1.7717e+03     3.5270     -0.645     -0.935    22.8936 0.0000e+00
     -0.657      0.044     8.0497     93.620     17.089  16.420935     0.3514      8.359   195.9513 1.9389e+03     4.8421     -0.645     -0.936    22.8897 0.0000e+00
     -0.651      0.069     8.0408     93.635     29.972  28.840696     0.3623      8.427   161.5808 2.0241e+03     4.9479     -0.643     -0.933    22.8889 0.0000e+00
     -0.630      0.092     8.0427     93.655     37.383  36.020720     0.4663      8.473   159.2083 2.0559e+03     4.9426     -0.624     -0.904    22.8849 0.0000e+00
     -0.595      0.110     8.0459     93.690     39.227  37.842045     0.6693      8.500   160.7264 2.3455e+03     5.0176     -0.588     -0.851    22.8955 0.0000e+00
     -0.551      0.124     8.0332     93.767     39.336  37.982536     0.7939      8.513   162.5562 2.2720e+03     5.1719     -0.540     -0.783    22.9759 0.0000e+00
     -0.511      0.135     8.0173     93.946     39.301  37.973253     0.8161      8.515   163.6082 2.0185e+03     5.2705     -0.495     -0.718    23.0904 0.0000e+00
     -0.481      0.145     8.0054     94.177     39.238  37.920213     0.8130      8.509   163.5515 2.2688e+03     5.2528     -0.469     -0.681    23.1747 0.0000e+00
     -0.457      0.153     7.9998     94.363     39.177  37.848885     0.8385      8.499   163.4199 2.5770e+03     5.1634     -0.451     -0.654    23.2332 0.0000e+00
     -0.423      0.158     7.9960     94.585     39.160  37.808832     0.9254      8.490   163.8233 2.6429e+03     5.1454     -0.422     -0.613    23.2788 0.0000e+00
     -0.373      0.162     8.0066     94.919     39.189  37.816634     0.9904      8.484   164.3849 2.5329e+03     5.2072     -0.370     -0.537    23.3132 0.0000e+00
     -0.318      0.161     8.0323     95.319     39.202  37.816276     0.9916      8.479   164.9619 1.9593e+03     5.1937     -0.306     -0.443    23.3273 0.0000e+00
     -0.269      0.152     8.0447     95.724     39.199  37.804490     0.9983      8.475   165.6374 1.2804e+03     5.1178     -0.262     -0.380    23.3047 0.0000e+00
     -0.230      0.134     8.0669     96.095     39.201  37.801018     1.0376      8.470   166.4441 1.1799e+03     5.1093     -0.221     -0.321    23.2664 0.0000e+00
     -0.201      0.111     8.1026     96.407     39.178  37.774288     1.0678      8.466   167.2305 1.4924e+03     5.1589     -0.191     -0.276    23.2401 0.0000e+00
     -0.182      0.087     8.1406     96.667     39.143  37.735113     1.0893      8.463   167.9178 1.9469e+03     5.1714     -0.180     -0.260    23.2243 0.0000e+00
     -0.166      0.068     8.1780     96.919     39.123  37.708091     1.1224      8.459   168.9897 2.4005e+03     5.1917     -0.163     -0.236    23.2142 0.0000e+00
     -0.150      0.054     8.2110     97.090     39.128  37.701371     1.1596      8.457   175.2867 2.5876e+03     5.2681     -0.146     -0.210    23.2073 0.0000e+00
     -0.139      0.045     8.2400     97.111     39.160  37.717296     1.1891      8.456   185.2891 2.5251e+03     5.3087     -0.135     -0.195    23.2020 0.0000e+00
     -0.131      0.040     8.2584     97.115     39.166  37.710259     1.2042      8.456   185.4766 2.3081e+03     5.3412     -0.129     -0.186    23.1980 0.0000e+00
     -0.123      0.034     8.2842     97.140     39.145  37.679734     1.2175      8.454   177.2086 1.9647e+03     5.3192     -0.122     -0.177    23.1892 0.0000e+00
     -0.113      0.027     8.3086     97.094     39.138  37.665476     1.2335      8.451   172.9956 1.7352e+03     5.1798     -0.111     -0.159    23.1713 0.0000e+00
     -0.104      0.021     8.3034     96.995     39.143  37.664757     1.2478      8.449   172.9119 1.8172e+03     5.1245     -0.101     -0.147    23.1505 0.0000e+00
     -0.098      0.016     8.3057     96.882     39.153  37.671035     1.2582      8.446   173.0990 1.9254e+03     5.1975     -0.097     -0.140    23.1342 0.0000e+00
     -0.096      0.011     8.3169     96.766     39.162  37.677929     1.2583      8.444   173.3654 1.9042e+03     5.2425     -0.094     -0.135    23.1227 0.0000e+00
     -0.097      0.006     8.3104     96.660     39.168  37.684646     1.2573      8.444   173.8098 1.9057e+03     5.1898     -0.095     -0.138    23.1133 0.0000e+00
     -0.098      0.003     8.3025     96.564     39.171  37.688797     1.2552      8.443   174.1693 1.9394e+03     5.1070     -0.097     -0.141    23.1061 0.0000e+00
     -0.097      0.002     8.2938     96.468     39.146  37.664673     1.2658      8.442   174.4432 1.9098e+03     5.1301     -0.096     -0.138    23.1009 0.0000e+00
     -0.096      0.000     8.2833     96.347     39.128  37.646780     1.3270      8.442   174.7980 1.8630e+03     5.2301     -0.094     -0.136    23.0986 0.0000e+00
     -0.095     -0.002     8.2743     96.121     39.148  37.662825     1.4128      8.443   175.1902 1.8766e+03     5.2567     -0.094     -0.137    23.1000 0.0000e+00
     -0.095     -0.005     8.2655     95.533     39.160  37.668291     1.4459      8.443   175.4861 1.9234e+03     5.1792     -0.092     -0.133    23.1031 0.0000e+00
     -0.095     -0.010     8.2586     94.318     39.147  37.649408     1.4355      8.442   175.7937 2.0147e+03     5.0777     -0.092     -0.133    23.1045 0.0000e+00
     -0.100     -0.014     8.2488     92.590     39.128  37.624868     1.4373      8.441   176.2428 2.0645e+03     5.0888     -0.098     -0.142    23.1027 0.0000e+00
     -0.107     -0.018     8.2382     90.656     39.132  37.625397     1.4175      8.440   176.6138 2.0323e+03     5.1771     -0.105     -0.152    23.0984 0.0000e+00
     -0.112     -0.021     8.2026     88.594     39.166  37.655799     1.3635      8.438   176.8375 1.9330e+03     5.1891     -0.109     -0.159    23.0909 0.0000e+00
     -0.117     -0.022     8.0945     86.406     39.188  37.675174     1.3243      8.436   177.0553 1.8149e+03     5.1308     -0.114     -0.164    23.0806 0.0000e+00
     -0.123     -0.022     7.9324     84.210     39.187  37.669295     1.3095      8.436   177.2677 1.8894e+03     5.0869     -0.120     -0.174    23.0726 0.0000e+00
     -0.130     -0.022     7.7687     82.118     39.174  37.648170     1.3016      8.436   177.5131 2.0604e+03     5.1715     -0.128     -0.186    23.0685 0.0000e+00
     -0.135     -0.020     7.5950     80.292     39.145  37.610099     1.2870      8.436   177.9571 2.0830e+03     5.3336     -0.133     -0.192    23.0668 0.0000e+00
     -0.139     -0.016     7.4002     79.006     39.135  37.589704     1.2748      8.436   178.4202 1.9062e+03     5.4072     -0.136     -0.198    23.0655 0.0000e+00
     -0.144     -0.011     7.2122     78.588     39.147  37.591914     1.2616      8.436   178.5523 1.5690e+03     5.3787     -0.142     -0.206    23.0594 0.0000e+00
     -0.149     -0.008     7.0297     79.172     39.134  37.573354     1.2196      8.436   178.6073 1.4278e+03     5.2960     -0.148     -0.215    23.0477 0.0000e+00
     -0.149     -0.007     6.8667     80.408     39.120  37.555659     1.1745      8.436   178.9141 1.6303e+03     5.2272     -0.147     -0.215    23.0336 0.0000e+00
     -0.145     -0.005     6.7477     81.753     39.137  37.568329     1.1572      8.436   179.3358 1.7852e+03     5.1959     -0.141     -0.204    23.0193 0.0000e+00
     -0.146     -0.002     6.7042     82.883     39.174  37.599629     1.1521      8.436   179.7485 1.6492e+03     5.1907     -0.140     -0.202    23.0073 0.0000e+00
     -0.152      0.002     6.7696     83.639     39.197  37.616816     1.1626      8.436   180.1181 1.3962e+03     5.2319     -0.150     -0.217    22.9992 0.0000e+00
     -0.156      0.005     6.8969     83.827     39.169  37.585761     1.1845      8.437   180.4493 1.1890e+03     5.3181     -0.157     -0.227    22.9944 0.0000e+00
     -0.151      0.006     7.0210     83.361     39.127  37.541420     1.2006      8.438   180.7411 1.0188e+03     5.4131     -0.150     -0.218    22.9902 0.0000e+00
     -0.143      0.008     7.1201     82.408     39.114  37.524873     1.2159      8.438   180.9793 1.0222e+03     5.4256     -0.140     -0.203    22.9849 0.0000e+00
     -0.138      0.013     7.1945     81.312     39.106  37.512598     1.2189      8.438   181.2650 1.2524e+03     5.3663     -0.134     -0.194    22.9784 0.0000e+00
     -0.138      0.017     7.2151     80.340     39.117  37.519907     1.1876      8.437   181.6145 1.5169e+03     5.3452     -0.135     -0.196    22.9724 0.0000e+00
     -0.139      0.020     7.1698     79.507     39.151  37.549778     1.1461      8.437   181.9345 1.7039e+03     5.3745     -0.138     -0.201    22.9680 0.0000e+00
     -0.134      0.020     7.0771     78.713     39.161  37.556493     1.1417      8.437   182.2090 1.7899e+03     5.4134     -0.135     -0.196    22.9626 0.0000e+00
     -0.124      0.020     6.9730     77.929     39.146  37.537642     1.1583      8.437   182.4390 1.7088e+03     5.3716     -0.123     -0.178    22.9565 0.0000e+00
     -0.113      0.019     6.8923     77.302     39.129  37.512202     1.1723      8.437   182.6501 1.5576e+03     5.2114     -0.109     -0.159    22.9529 0.0000e+00
     -0.107      0.016     6.8247     77.029     39.135  37.502713     1.1864      8.437   182.8681 1.4392e+03     5.0817     -0.103     -0.150    22.9494 0.0000e+00
     -0.106      0.011     6.7595     77.087     39.140  37.486340     1.1865      8.438   183.0968 1.3365e+03     5.1010     -0.104     -0.149    22.9458 0.0000e+00
     -0.107      0.006     6.6874     77.238     39.117  37.441119     1.1904      8.438   183.3502 1.2050e+03     5.1717     -0.105     -0.152    22.9418 0.0000e+00
     -0.108      0.002     6.6259     77.314     39.097  37.400094     1.2177      8.439   183.6081 9.5938e+02     5.1510     -0.106     -0.154    22.9318 0.0000e+00
     -0.109      0.000     6.6054     77.294     39.085  37.371005     1.2498      8.439   183.9781 8.8826e+02     5.0896     -0.108     -0.157    22.9117 0.0000e+00
     -0.108      0.001     6.6250     77.253     39.071  37.343207     1.2705      8.437   184.3825 1.0928e+03     5.1128     -0.107     -0.155    22.8823 0.0000e+00
     -0.106      0.006     6.6470     77.391     39.059  37.317787     1.2768      8.435   184.6256 1.0551e+03     5.1917     -0.103     -0.149    22.8511 0.0000e+00
     -0.106      0.011     6.6559     77.838     39.071  37.317455     1.2587      8.434   184.9385 7.6310e+02     5.2924     -0.104     -0.150    22.8222 0.0000e+00
     -0.106      0.016     6.6570     78.471     39.103  37.339165     1.2187      8.433   185.3266 9.0845e+02     5.3743     -0.107     -0.156    22.8004 0.0000e+00
     -0.101      0.019     6.6473     79.075     39.097  37.326456     1.1918      8.432   185.6195 1.5455e+03     5.3618     -0.103     -0.150    22.7837 0.0000e+00
     -0.091      0.019     6.6551     79.571     39.067  37.290683     1.1999      8.433   186.4144 1.9701e+03     5.3462     -0.089     -0.129    22.7656 0.0000e+00
     -0.082      0.018     6.7016     80.045     39.070  37.287354     1.2419      8.434   191.6680 2.0036e+03     5.3911     -0.077     -0.111    22.7503 0.0000e+00
     -0.077      0.016     6.7663     80.580     39.075  37.286201     1.2921      8.435   199.9265 1.9291e+03     5.4605     -0.073     -0.106    22.7383 0.0000e+00
     -0.077      0.013     6.8218     81.105     39.070  37.276736     1.3076      8.437   200.6577 1.8108e+03     5.4674     -0.075     -0.110    22.7285 0.0000e+00
     -0.077      0.010     6.8617     81.433     39.096  37.299808     1.2966      8.439   197.4972 1.5918e+03     5.3724     -0.077     -0.112    22.7211 0.0000e+00
     -0.077      0.006     6.8993     81.411     39.109  37.311344     1.2998      8.440   196.9893 1.4783e+03     5.2689     -0.077     -0.112    22.7130 0.0000e+00
     -0.072      0.005     6.9496     81.054     39.087  37.289311     1.3135      8.440   196.5820 1.5512e+03     5.1714     -0.073     -0.104    22.7050 0.0000e+00
     -0.067      0.006     7.0022     80.531     39.089  37.287221     1.3207      8.440   198.7665 1.4979e+03     5.1159     -0.064     -0.093    22.6983 0.0000e+00
     -0.067      0.009     7.0370     80.077     39.092  37.286077     1.3207      8.441   200.7735 1.3954e+03     5.1447     -0.063     -0.092    22.6959 0.0000e+00
     -0.071      0.011     7.0338     79.792     39.085  37.275477     1.3132      8.442   200.1140 1.5925e+03     5.1432     -0.071     -0.102    22.6971 0.0000e+00
     -0.071      0.011     6.9976     79.494     39.098  37.285955     1.3302      8.442   199.4823 1.9939e+03     5.0979     -0.073     -0.105    22.6956 0.0000e+00
     -0.064      0.011     6.9455     79.027     39.099  37.285849     1.3596      8.443   199.0723 2.1635e+03     5.0760     -0.064     -0.093    22.6907 0.0000e+00
     -0.055      0.012     6.8999     78.440     39.091  37.274199     1.3694      8.443   198.7708 1.9743e+03     5.0831     -0.052     -0.076    22.6840 0.0000e+00
     -0.051      0.013     6.8872     77.918     39.093  37.271996     1.3732      8.442   198.5029 1.6609e+03     5.1146     -0.047     -0.068    22.6789 0.0000e+00
     -0.052      0.011     6.8671     77.626     39.082  37.259211     1.3474      8.441   198.3286 1.4986e+03     5.1502     -0.051     -0.073    22.6775 0.0000e+00
     -0.052      0.008     6.8238     77.487     39.070  37.246511     1.2981      8.440   198.1271 1.5535e+03     5.1719     -0.053     -0.077    22.6768 0.0000e+00
     -0.048      0.007     6.7690     77.369     39.070  37.245357     1.2683      8.440   197.9586 1.6629e+03     5.1374     -0.047     -0.068    22.6718 0.0000e+00
     -0.045      0.008     6.7150     77.315     39.070  37.245252     1.2537      8.440   197.8396 1.7885e+03     5.0753     -0.042     -0.061    22.6646 0.0000e+00
     -0.045      0.008     6.6960     77.386     39.069  37.245242     1.2303      8.439   197.6361 1.8685e+03     5.0355     -0.045     -0.066    22.6622 0.0000e+00
     -0.044      0.007     6.6908     77.529     39.068  37.245241     1.2108      8.439   196.4439 1.8157e+03     5.0669     -0.045     -0.066    22.6620 0.0000e+00
     -0.040      0.004     6.6766     77.666     39.068  37.245241     1.2170      8.439   195.5568 1.7798e+03     5.1817     -0.038     -0.056    22.6597 0.0000e+00
     -0.037      0.001     6.6692     77.809     39.068  37.245241     1.2218      8.439   196.8908 1.8328e+03     5.2267     -0.035     -0.051    22.6587 0.0000e+00
     -0.037     -0.001     6.6781     78.058     39.069  37.245241     1.2350      8.438   197.9462 1.8342e+03     5.2012     -0.035     -0.051    22.6600 0.0000e+00
     -0.039     -0.004     6.6933     78.468     39.070  37.245241     1.2767      8.438   197.8211 1.8144e+03     5.2492     -0.038     -0.054    22.6618 0.0000e+00
     -0.042     -0.006     6.7050     78.929     39.070  37.245242     1.3107      8.438   197.7861 1.8772e+03     5.3628     -0.043     -0.062    22.6627 0.0000e+00
     -0.045     -0.008     6.7128     79.220     39.069  37.245251     1.3290      8.438   197.7815 1.9645e+03     5.4478     -0.046     -0.066    22.6624 0.0000e+00
     -0.047     -0.008     6.7318     79.181     39.067  37.245356     1.3066      8.437   197.7655 2.0669e+03     5.4233     -0.046     -0.067    22.6611 0.0000e+00
     -0.048     -0.008     6.7710     78.761     39.067  37.246510     1.2399      8.436   196.7329 2.1605e+03     5.3742     -0.046     -0.067    22.6594 0.0000e+00
     -0.050     -0.008     6.8196     77.989     39.079  37.259200     1.2049      8.435   194.8462 2.1515e+03     5.4011     -0.048     -0.070    22.6588 0.0000e+00
     -0.052     -0.010     6.8491     76.933     39.092  37.271882     1.2168      8.435   195.5162 2.0823e+03     5.4414     -0.051     -0.074    22.6607 0.0000e+00
     -0.054     -0.013     6.8466     75.684     39.093  37.272943     1.2245      8.436   198.3811 1.9961e+03     5.4166     -0.052     -0.076    22.6635 0.0000e+00
     -0.057     -0.014     6.8094     74.447     39.093  37.272018     1.2318      8.438   199.3724 1.8559e+03     5.3398     -0.053     -0.078    22.6652 0.0000e+00
     -0.062     -0.013     6.7391     73.461     39.081  37.260698     1.2728      8.438   197.8649 1.7215e+03     5.3330     -0.060     -0.087    22.6669 0.0000e+00
     -0.069     -0.013     6.6478     72.802     39.083  37.262986     1.3203      8.437   195.5560 1.6609e+03     5.4028     -0.069     -0.101    22.6667 0.0000e+00
     -0.073     -0.015     6.5327     72.376     39.122  37.299685     1.3398      8.436   194.5999 1.6769e+03     5.4318     -0.074     -0.107    22.6657 0.0000e+00
     -0.072     -0.020     6.4167     72.037     39.145  37.323703     1.3675      8.435   196.3712 1.7652e+03     5.3431     -0.072     -0.103    22.6664 0.0000e+00
     -0.072     -0.025     6.3293     71.708     39.115  37.299572     1.4136      8.435   199.2492 1.7963e+03     5.1832     -0.068     -0.098    22.6662 0.0000e+00
     -0.079     -0.029     6.2766     71.389     39.071  37.261737     1.4313      8.435   200.4027 1.5207e+03     5.1038     -0.074     -0.108    22.6659 0.0000e+00
     -0.092     -0.030     6.2453     71.134     39.053  37.246987     1.4310      8.435   199.1318 9.7881e+02     5.1353     -0.091     -0.132    22.6649 0.0000e+00
     -0.106     -0.026     6.2180     70.979     39.055  37.248132     1.3598      8.435   196.7885 6.3922e+02     5.1884     -0.105     -0.152    22.6657 0.0000e+00
     -0.118     -0.017     6.1889     70.905     39.085  37.275573     1.2122      8.435   195.3868 6.6703e+02     5.2334     -0.118     -0.170    22.6737 0.0000e+00
     -0.123     -0.006     6.1579     70.870     39.137  37.324962     1.1357      8.433   195.1758 8.8546e+02     5.3035     -0.124     -0.180    22.6814 0.0000e+00
     -0.119      0.004     6.1342     70.793     39.147  37.337661     1.1351      8.432   195.2704 1.2081e+03     5.3873     -0.119     -0.172    22.6834 0.0000e+00
     -0.109      0.009     6.1223     70.581     39.106  37.302209     1.1798      8.431   196.7025 1.4606e+03     5.3915     -0.106     -0.154    22.6814 0.0000e+00
     -0.099      0.011     6.1171     70.259     39.076  37.277046     1.2591      8.430   198.8963 1.5021e+03     5.2861     -0.093     -0.135    22.6793 0.0000e+00
     -0.096      0.007     6.1158     69.919     39.084  37.287240     1.2953      8.430   198.6514 1.3407e+03     5.2064     -0.092     -0.132    22.6802 0.0000e+00
     -0.099     -0.001     6.1142     69.574     39.094  37.298560     1.2930      8.431   196.8386 1.0445e+03     5.1791     -0.098     -0.142    22.6822 0.0000e+00
     -0.104     -0.009     6.0938     69.227     39.080  37.287005     1.2560      8.431   196.0786 7.5847e+02     5.1621     -0.103     -0.150    22.6878 0.0000e+00
     -0.105     -0.013     6.0600     68.904     39.065  37.274435     1.1880      8.431   196.0885 6.6954e+02     5.2052     -0.102     -0.148    22.6933 0.0000e+00
     -0.109     -0.011     6.0324     68.703     39.064  37.273499     1.1458      8.432   196.2698 8.9226e+02     5.2217     -0.104     -0.152    22.6958 0.0000e+00
     -0.117     -0.006     6.0014     68.740     39.068  37.275693     1.1289      8.432   196.2911 1.2478e+03     5.1568     -0.114     -0.167    22.6985 0.0000e+00
     -0.122      0.001     5.9712     68.965     39.096  37.300950     1.1252      8.433   196.1738 1.5191e+03     5.1038     -0.122     -0.178    22.7010 0.0000e+00
     -0.121      0.006     5.9406     69.201     39.121  37.325064     1.1756      8.434   196.2293 1.7528e+03     5.1618     -0.120     -0.175    22.7026 0.0000e+00
     -0.113      0.011     5.9165     69.297     39.106  37.313431     1.2727      8.434   196.3590 1.8152e+03     5.3111     -0.111     -0.161    22.7031 0.0000e+00
     -0.104      0.014     5.9227     69.205     39.074  37.287210     1.3253      8.435   196.3659 1.5937e+03     5.3725     -0.101     -0.146    22.7009 0.0000e+00
     -0.099      0.015     5.9489     68.975     39.044  37.261848     1.3209      8.435   196.3128 1.3744e+03     5.3230     -0.095     -0.138    22.6995 0.0000e+00
     -0.097      0.013     5.9743     68.693     39.041  37.260600     1.3356      8.436   196.4048 1.3429e+03     5.2590     -0.095     -0.137    22.6989 0.0000e+00
     -0.097      0.009     5.9838     68.412     39.051  37.272128     1.3951      8.436   196.6182 1.4005e+03     5.2145     -0.096     -0.139    22.7005 0.0000e+00
     -0.096      0.005     5.9732     68.144     39.051  37.274330     1.4494      8.437   196.7419 1.4805e+03     5.1946     -0.095     -0.138    22.7081 0.0000e+00
     -0.093      0.002     5.9492     67.889     39.062  37.287230     1.4591      8.438   196.7815 1.5440e+03     5.1545     -0.091     -0.132    22.7132 0.0000e+00
     -0.092      0.001     5.9236     67.658     39.076  37.301186     1.4544      8.438   196.9250 1.5345e+03     5.1397     -0.088     -0.128    22.7146 0.0000e+00
     -0.093      0.001     5.8985     67.466     39.091  37.316176     1.4761      8.439   197.1872 1.5074e+03     5.1858     -0.090     -0.130    22.7171 0.0000e+00
     -0.095      0.001     5.8758     67.301     39.117  37.341557     1.5044      8.440   197.3701 1.5011e+03     5.2003     -0.094     -0.136    22.7202 0.0000e+00
     -0.095      0.000     5.8528     67.128     39.130  37.354247     1.5138      8.441   197.4159 1.5276e+03     5.1777     -0.094     -0.137    22.7227 0.0000e+00
     -0.094     -0.001     5.8316     66.919     39.117  37.342712     1.4902      8.442   197.4827 1.5541e+03     5.1527     -0.091     -0.134    22.7242 0.0000e+00
     -0.092     -0.001     5.8160     66.672     39.101  37.328991     1.4433      8.442   197.5755 1.5373e+03     5.1366     -0.089     -0.131    22.7249 0.0000e+00
     -0.092      0.000     5.8026     66.422     39.086  37.315251     1.4294      8.442   197.6779 1.5317e+03     5.1536     -0.090     -0.130    22.7255 0.0000e+00
     -0.093      0.001     5.7887     66.224     39.074  37.303505     1.4479      8.442   197.8597 1.5443e+03     5.1530     -0.091     -0.133    22.7263 0.0000e+00
     -0.094      0.001     5.7705     66.060     39.085  37.313880     1.4832      8.442   198.0530 1.5427e+03     5.0957     -0.093     -0.137    22.7271 0.0000e+00
     -0.094      0.001     5.7488     65.885     39.084  37.313784     1.5321      8.442   198.2088 1.5006e+03     5.0747     -0.094     -0.136    22.7279 0.0000e+00
     -0.093      0.002     5.7237     65.679     39.072  37.302340     1.5561      8.442   198.3660 1.4545e+03     5.1384     -0.091     -0.132    22.7285 0.0000e+00
     -0.091      0.004     5.7081     65.444     39.072  37.302425     1.5564      8.442   198.4917 1.4476e+03     5.1836     -0.089     -0.128    22.7286 0.0000e+00
     -0.090      0.005     5.6959     65.189     39.084  37.314812     1.5531      8.442   198.6098 1.4312e+03     5.1421     -0.088     -0.127    22.7290 0.0000e+00
     -0.090      0.005     5.6808     64.908     39.094  37.325196     1.5326      8.443   198.7616 1.4113e+03     5.0812     -0.088     -0.128    22.7294 0.0000e+00
     -0.089      0.004     5.6632     64.600     39.069  37.301071     1.4998      8.444   198.9499 1.4312e+03     5.0618     -0.087     -0.127    22.7300 0.0000e+00
     -0.086      0.003     5.6420     64.267     39.044  37.276938     1.4898      8.444   199.0800 1.4418e+03     5.0787     -0.084     -0.122    22.7308 0.0000e+00
     -0.085      0.002     5.6210     63.923     39.054  37.287215     1.5025      8.445   199.1296 1.3955e+03     5.1151     -0.082     -0.119    22.7313 0.0000e+00
     -0.085      0.000     5.5959     63.585     39.065  37.298428     1.5039      8.445   199.2057 1.3274e+03     5.1601     -0.082     -0.120    22.7314 0.0000e+00
     -0.086     -0.001     5.5700     63.250     39.052  37.285604     1.4903      8.445   199.3120 1.2920e+03     5.2126     -0.084     -0.122    22.7316 0.0000e+00
     -0.087     -0.002     5.5404     63.119     39.030  37.259067     1.4792      8.445   199.4682 1.2889e+03     5.2386     -0.085     -0.124    22.7321 0.0000e+00
     -0.088     -0.002     5.5102     64.287     39.020  37.231391     1.4785      8.445   199.6317 1.2920e+03     5.2685     -0.086     -0.125    22.7330 0.0000e+00
     -0.088     -0.002     5.4806     68.410     39.017  37.204765     1.4652      8.445   199.8266 1.3021e+03     5.3349     -0.086     -0.125    22.7333 0.0000e+00
     -0.088     -0.001     5.4538     75.680     39.021  37.190912     1.4177      8.445   200.0173 1.2978e+03     5.3579     -0.086     -0.125    22.7342 0.0000e+00
     -0.089      0.001     5.4128     84.336     39.031  37.190780     1.3711      8.445   200.1304 1.2663e+03     5.3423     -0.087     -0.126    22.7332 0.0000e+00
     -0.089      0.004     5.4421     92.574     39.052  37.203145     1.3594      8.446   200.3341 1.2537e+03     5.3515     -0.088     -0.128    22.7067 0.0000e+00
     -0.088      0.007     5.7892     99.461     39.070  37.213509     1.3751      8.446   200.5876 1.3337e+03     5.3662     -0.087     -0.126    22.6658 0.0000e+00
     -0.086      0.011     6.4981    104.486     39.053  37.189168     1.3944      8.446   200.7005 1.4727e+03     5.3832     -0.085     -0.123    22.6461 0.0000e+00
     -0.083      0.013     7.3056    107.485     39.038  37.162644     1.3929      8.446   200.7527 1.5660e+03     5.3867     -0.082     -0.118    22.6373 0.0000e+00
     -0.078      0.014     8.0361    108.537     39.041  37.146610     1.3744      8.446   201.0467 1.6158e+03     5.3738     -0.076     -0.111    22.6275 0.0000e+00
     -0.073      0.013     8.6527    107.909     39.033  37.122175     1.3536      8.445   204.2551 1.6268e+03     5.3976     -0.070     -0.102    22.6174 0.0000e+00
     -0.068      0.010     9.0904    106.278     39.038  37.121003     1.3333      8.445   209.5177 1.6394e+03     5.4357     -0.065     -0.095    22.6096 0.0000e+00
     -0.065      0.005     9.3474    104.473     39.048  37.132433     1.3279      8.444   209.4390 1.7232e+03     5.3912     -0.063     -0.092    22.5977 0.0000e+00
     -0.065     -0.001     9.4412    102.950     39.044  37.133461     1.3223      8.444   204.9385 1.8143e+03     5.3028     -0.063     -0.091    22.5658 0.0000e+00
     -0.065     -0.007     9.3685    101.778     39.040  37.133440     1.2986      8.444   202.5964 1.8582e+03     5.3237     -0.062     -0.091    22.5403 0.0000e+00
     -0.068     -0.010     9.1965    100.930     39.038  37.132191     1.2829      8.444   202.2861 1.8276e+03     5.4050     -0.066     -0.096    22.5380 0.0000e+00
     -0.074     -0.010     9.0271    100.354     39.026  37.118358     1.2822      8.444   202.2190 1.6752e+03     5.4312     -0.073     -0.106    22.5418 0.0000e+00
     -0.080     -0.008     8.8960     99.969     39.005  37.093092     1.2819      8.443   202.3879 1.4396e+03     5.4021     -0.079     -0.115    22.5482 0.0000e+00
     -0.083     -0.004     8.7934     99.674     39.001  37.080507     1.2709      8.442   202.6064 1.2524e+03     5.3602     -0.083     -0.120    22.5540 0.0000e+00
     -0.082      0.001     8.7226     99.468     39.026  37.093085     1.2490      8.441   202.6240 1.2060e+03     5.3688     -0.082     -0.119    22.5540 0.0000e+00
     -0.079      0.004     8.6745     99.367     39.061  37.118249     1.2333      8.440   202.6866 1.2994e+03     5.4042     -0.079     -0.113    22.5503 0.0000e+00
     -0.075      0.005     8.6473     99.288     39.074  37.130929     1.2305      8.439   202.8477 1.4693e+03     5.4118     -0.073     -0.106    22.5469 0.0000e+00
     -0.072      0.004     8.6227     99.236     39.054  37.119495     1.2242      8.439   202.8515 1.6121e+03     5.3925     -0.070     -0.101    22.5357 0.0000e+00
     -0.072      0.000     8.6044     99.266     39.033  37.106928     1.1819      8.440   202.8190 1.6539e+03     5.3074     -0.070     -0.102    22.5161 0.0000e+00
     -0.073     -0.005     8.6051     99.336     39.027  37.105899     1.1186      8.440   202.8849 1.5916e+03     5.2024     -0.071     -0.103    22.5021 0.0000e+00
     -0.074     -0.009     8.5959     99.342     39.023  37.107063     1.0908      8.440   202.9598 1.4888e+03     5.1823     -0.073     -0.105    22.5051 0.0000e+00
     -0.078     -0.011     8.5859     99.269     39.032  37.121002     1.0877      8.440   203.0356 1.3417e+03     5.1666     -0.075     -0.110    22.5190 0.0000e+00
     -0.083     -0.012     8.5885     99.181     39.055  37.147537     1.0809      8.439   203.1990 1.1265e+03     5.1492     -0.081     -0.117    22.5285 0.0000e+00
     -0.088     -0.011     8.5990     99.109     39.076  37.174082     1.0758      8.439   203.3867 9.4101e+02     5.2113     -0.087     -0.126    22.5328 0.0000e+00
     -0.091     -0.009     8.5985     99.059     39.082  37.188154     1.0759      8.439   203.4980 8.6556e+02     5.3032     -0.089     -0.129    22.5399 0.0000e+00
     -0.092     -0.007     8.5876     99.034     39.075  37.190783     1.0821      8.439   203.5992 8.8339e+02     5.4060     -0.090     -0.131    22.5463 0.0000e+00
     -0.092     -0.005     8.5794     99.017     39.081  37.205886     1.0997      8.440   203.7502 9.2301e+02     5.3959     -0.091     -0.132    22.5503 0.0000e+00
     -0.092     -0.004     8.5712     99.001     39.112  37.243874     1.1226      8.441   203.8603 9.0020e+02     5.2143     -0.089     -0.130    22.5593 0.0000e+00
     -0.093     -0.003     8.5648     99.003     39.129  37.269369     1.1344      8.441   203.8976 8.2135e+02     5.0888     -0.090     -0.130    22.5709 0.0000e+00
     -0.094     -0.003     8.5612     99.021     39.104  37.260347     1.1424      8.441   203.9426 7.7420e+02     5.1085     -0.092     -0.133    22.5836 0.0000e+00
     -0.096     -0.002     8.5583     99.039     39.089  37.261718     1.1369      8.441   203.9744 8.0337e+02     5.1446     -0.094     -0.138    22.5977 0.0000e+00
     -0.096     -0.002     8.5538     99.042     39.102  37.285964     1.1009      8.441   204.0241 8.7060e+02     5.1153     -0.095     -0.139    22.6058 0.0000e+00
     -0.095     -0.000     8.5531     99.017     39.107  37.299704     1.0731      8.441   204.1994 9.0645e+02     5.0616     -0.094     -0.136    22.6149 0.0000e+00
     -0.095      0.003     8.5521     98.982     39.101  37.300952     1.0761      8.440   204.3734 8.9796e+02     5.0420     -0.093     -0.135    22.6365 0.0000e+00
     -0.095      0.005     8.5492     98.942     39.095  37.301065     1.0783      8.440   204.4937 8.8818e+02     5.0498     -0.094     -0.136    22.6599 0.0000e+00
     -0.095      0.006     8.5496     98.909     39.087  37.301075     1.0746      8.441   204.6209 9.2664e+02     5.0529     -0.095     -0.137    22.6737 0.0000e+00
     -0.092      0.005     8.5424     98.845     39.078  37.301084     1.0732      8.441   204.7070 1.0159e+03     5.0803     -0.091     -0.132    22.6848 0.0000e+00
     -0.088      0.003     8.5404     98.740     39.071  37.301187     1.0700      8.440   204.8472 1.0823e+03     5.1413     -0.085     -0.124    22.6935 0.0000e+00
     -0.086      0.002     8.5339     98.679     39.071  37.302331     1.0689      8.440   205.0244 9.8108e+02     5.1756     -0.083     -0.119    22.6984 0.0000e+00
     -0.087      0.000     8.5303     98.626     39.086  37.314919     1.0759      8.440   205.1284 7.1313e+02     5.2223     -0.084     -0.122    22.7093 0.0000e+00
     -0.090      0.000     8.5272     98.586     39.097  37.326476     1.0883      8.440   205.1586 5.3378e+02     5.2959     -0.089     -0.129    22.7220 0.0000e+00
     -0.092      0.000     8.5067     98.591     39.077  37.315155     1.0853      8.440   205.1314 5.3427e+02     5.3134     -0.092     -0.134    22.7307 0.0000e+00
     -0.092      0.001     8.5087     98.613     39.053  37.304969     1.0739      8.440   205.1437 6.6134e+02     5.3322     -0.091     -0.132    22.7327 0.0000e+00
     -0.090      0.002     8.5025     98.643     39.069  37.330244     1.0922      8.439   205.2216 8.5962e+02     5.3526     -0.087     -0.127    22.7268 0.0000e+00
     -0.086      0.003     8.4973     98.653     39.103  37.366944     1.1308      8.439   205.2990 9.8466e+02     5.2859     -0.084     -0.121    22.7248 0.0000e+00
     -0.085      0.003     8.4987     98.599     39.102  37.367994     1.1413      8.439   205.3907 1.0237e+03     5.2085     -0.083     -0.120    22.7388 0.0000e+00
     -0.086      0.002     8.4954     98.549     39.077  37.342936     1.1280      8.439   205.4699 1.0666e+03     5.1685     -0.084     -0.122    22.7593 0.0000e+00
     -0.087      0.002     8.4981     98.616     39.052  37.317784     1.1276      8.439   205.5690 1.1318e+03     5.2132     -0.085     -0.124    22.7708 0.0000e+00
     -0.087      0.002     8.4995     98.682     39.052  37.317689     1.1449      8.439   205.7280 1.1551e+03     5.3388     -0.086     -0.125    22.7754 0.0000e+00
     -0.087      0.003     8.4948     98.672     39.078  37.341792     1.1545      8.439   205.8435 1.1306e+03     5.4225     -0.086     -0.124    22.7781 0.0000e+00
     -0.086      0.006     8.4801     98.692     39.095  37.355398     1.1439      8.440   205.9330 1.1679e+03     5.4402     -0.085     -0.123    22.7766 0.0000e+00
     -0.084      0.007     8.4960     98.744     39.100  37.355285     1.1490      8.440   206.0355 1.2331e+03     5.3822     -0.083     -0.120    22.7733 0.0000e+00
     -0.080      0.007     8.5055     98.777     39.088  37.340410     1.1830      8.440   206.2227 1.1850e+03     5.3019     -0.079     -0.114    22.7739 0.0000e+00
     -0.077      0.003     8.4953     98.782     39.052  37.302451     1.2141      8.440   206.4757 1.0692e+03     5.2545     -0.076     -0.110    22.7748 0.0000e+00
     -0.075     -0.004     8.5009     98.699     39.031  37.277061     1.2254      8.439   206.5996 1.0135e+03     5.2190     -0.074     -0.107    22.7702 0.0000e+00
     -0.075     -0.014     8.5091     98.605     39.049  37.287225     1.2115      8.439   206.7743 9.9800e+02     5.1797     -0.072     -0.105    22.7623 0.0000e+00
     -0.078     -0.023     8.5104     98.702     39.067  37.298430     1.1623      8.439   208.5873 9.2880e+02     5.1215     -0.075     -0.109    22.7572 0.0000e+00
     -0.088     -0.029     8.5153     98.897     39.057  37.285615     1.1056      8.439   210.6252 7.6202e+02     5.1296     -0.085     -0.123    22.7558 0.0000e+00
     -0.102     -0.030     8.5092     98.978     39.034  37.259184     1.0918      8.439   212.5710 6.0917e+02     5.2102     -0.101     -0.146    22.7502 0.0000e+00
     -0.115     -0.027     8.4887     98.983     39.016  37.232659     1.0949      8.439   214.1319 5.8757e+02     5.2077     -0.115     -0.166    22.7384 0.0000e+00
     -0.123     -0.019     8.5051     99.012     39.016  37.218711     1.0683      8.439   211.5160 5.8503e+02     5.1675     -0.122     -0.177    22.7285 0.0000e+00
     -0.125     -0.009     8.5336     99.048     39.031  37.217436     1.0365      8.440   211.3998 5.4219e+02     5.2358     -0.124     -0.180    22.7266 0.0000e+00
     -0.124      0.001     8.5361     99.082     39.044  37.217218     1.0353      8.440   216.2546 5.4707e+02     5.3509     -0.122     -0.178    22.7240 0.0000e+00
     -0.120      0.009     8.5336     99.112     39.050  37.216056     1.0537      8.441   218.2474 6.1135e+02     5.3976     -0.119     -0.172    22.7105 0.0000e+00
     -0.115      0.014     8.5428     99.128     39.042  37.203366     1.0758      8.443   217.4267 7.3615e+02     5.3562     -0.113     -0.164    22.6910 0.0000e+00
     -0.111      0.016     8.5489     99.182     39.034  37.190686     1.1032      8.443   216.6567 9.6526e+02     5.2952     -0.109     -0.158    22.6692 0.0000e+00
     -0.107      0.015     8.5535     99.275     39.038  37.189647     1.1183      8.443   216.1643 1.1837e+03     5.2747     -0.105     -0.153    22.6523 0.0000e+00
     -0.102      0.013     8.5604     99.346     39.044  37.190801     1.1249      8.444   215.6889 1.1536e+03     5.3129     -0.100     -0.145    22.6444 0.0000e+00
     -0.097      0.010     8.5582     99.380     39.061  37.204636     1.1499      8.445   214.0917 9.1064e+02     5.3469     -0.094     -0.136    22.6398 0.0000e+00
     -0.095      0.008     8.5641     99.411     39.087  37.230006     1.1790      8.445   211.4802 7.4173e+02     5.3112     -0.092     -0.134    22.6344 0.0000e+00
     -0.095      0.006     8.5765     99.471     39.095  37.243736     1.1946      8.445   210.0977 7.7978e+02     5.3242     -0.094     -0.137    22.6271 0.0000e+00
     -0.095      0.004     8.5838     99.554     39.085  37.243746     1.1971      8.445   211.6583 9.5353e+02     5.4358     -0.095     -0.137    22.6213 0.0000e+00
     -0.094      0.002     8.5860     99.630     39.062  37.230140     1.1838      8.446   214.6900 1.1200e+03     5.4315     -0.092     -0.134    22.6167 0.0000e+00
     -0.092      0.001     8.5876     99.672     39.031  37.206150     1.1579      8.447   215.8653 1.2074e+03     5.2721     -0.090     -0.131    22.6157 0.0000e+00
     -0.092      0.000     8.5915     99.689     39.028  37.207504     1.1341      8.447   215.4581 1.2395e+03     5.1482     -0.089     -0.129    22.6254 0.0000e+00
     -0.093     -0.003     8.5973     99.696     39.066  37.246511     1.1369      8.447   215.1008 1.1765e+03     5.1288     -0.091     -0.131    22.6402 0.0000e+00
     -0.094     -0.007     8.6034     99.672     39.111  37.297063     1.1420      8.447   214.9009 9.8999e+02     5.2083     -0.093     -0.134    22.6506 0.0000e+00
     -0.096     -0.010     8.6056     99.597     39.112  37.311105     1.1206      8.448   214.8483 7.6157e+02     5.2894     -0.094     -0.136    22.6573 0.0000e+00
     -0.099     -0.012     8.6047     99.472     39.075  37.289400     1.0954      8.448   214.7230 6.2817e+02     5.2564     -0.096     -0.139    22.6618 0.0000e+00
     -0.103     -0.013     8.6067     99.331     39.066  37.288475     1.0776      8.448   214.4178 7.2079e+02     5.1505     -0.100     -0.146    22.6640 0.0000e+00
     -0.108     -0.013     8.6040     99.223     39.076  37.299927     1.0804      8.448   213.3954 1.0069e+03     5.1015     -0.107     -0.155    22.6709 0.0000e+00
     -0.112     -0.013     8.5940     99.166     39.074  37.300967     1.0964      8.448   211.7393 1.2156e+03     5.1076     -0.110     -0.161    22.6916 0.0000e+00
     -0.114     -0.012     8.5790     99.160     39.067  37.301050     1.0969      8.447   210.7416 1.1916e+03     5.1225     -0.111     -0.162    22.7142 0.0000e+00
     -0.116     -0.010     8.5625     99.184     39.061  37.300945     1.0858      8.446   210.5390 1.0550e+03     5.1450     -0.113     -0.164    22.7230 0.0000e+00
     -0.119     -0.007     8.5540     99.199     39.058  37.299695     1.0787      8.445   210.4934 8.8483e+02     5.1060     -0.117     -0.170    22.7221 0.0000e+00
     -0.122     -0.002     8.5484     99.199     39.048  37.285947     1.1116      8.444   210.4485 7.3111e+02     5.0948     -0.120     -0.174    22.7232 0.0000e+00
     -0.123      0.003     8.5465     99.192     39.031  37.261618     1.1833      8.444   210.4265 6.8522e+02     5.1467     -0.122     -0.176    22.7354 0.0000e+00
     -0.123      0.009     8.5489     99.145     39.040  37.259331     1.2303      8.443   210.4002 7.3334e+02     5.1529     -0.122     -0.177    22.7449 0.0000e+00
     -0.120      0.015     8.5502     99.081     39.050  37.258283     1.2300      8.442   210.3022 9.3199e+02     5.1358     -0.119     -0.172    22.7445 0.0000e+00
     -0.113      0.018     8.5492     99.058     39.048  37.248930     1.2218      8.443   210.2740 1.3157e+03     5.1443     -0.112     -0.162    22.7413 0.0000e+00
     -0.105      0.019     8.5532     99.038     39.078  37.273149     1.2397      8.443   210.3175 1.5660e+03     5.1876     -0.102     -0.148    22.7298 0.0000e+00
     -0.098      0.018     8.5513     99.014     39.105  37.297279     1.2625      8.443   210.3977 1.5589e+03     5.1471     -0.094     -0.136    22.7126 0.0000e+00
     -0.093      0.014     8.5435     99.037     39.092  37.286878     1.2650      8.444   210.5554 1.5256e+03     5.0296     -0.091     -0.132    22.6990 0.0000e+00
     -0.090      0.008     8.5471     99.095     39.075  37.274302     1.2691      8.445   210.6759 1.4644e+03     5.0311     -0.089     -0.130    22.6890 0.0000e+00
     -0.090      0.003     8.5466     99.161     39.068  37.272127     1.2961      8.445   210.5637 1.3062e+03     5.1659     -0.089     -0.129    22.6840 0.0000e+00
     -0.091     -0.001     8.5407     99.225     39.052  37.260591     1.3162      8.445   210.4040 1.1493e+03     5.2587     -0.089     -0.129    22.6823 0.0000e+00
     -0.092     -0.003     8.5448     99.271     39.050  37.261734     1.3209      8.445   210.4655 1.0654e+03     5.1966     -0.090     -0.131    22.6839 0.0000e+00
     -0.094     -0.003     8.5492     99.316     39.074  37.285950     1.3200      8.445   210.5321 1.0680e+03     5.0978     -0.092     -0.134    22.6907 0.0000e+00
     -0.096     -0.002     8.5535     99.342     39.087  37.299575     1.2802      8.445   210.5219 1.1168e+03     5.0888     -0.094     -0.136    22.6964 0.0000e+00
     -0.096     -0.001     8.5605     99.329     39.087  37.299566     1.2232      8.445   210.5137 1.1407e+03     5.1563     -0.094     -0.136    22.7007 0.0000e+00
     -0.095      0.001     8.5615     99.293     39.074  37.285836     1.2037      8.446   210.5195 1.1967e+03     5.2317     -0.093     -0.135    22.7045 0.0000e+00
     -0.093      0.003     8.5663     99.255     39.048  37.260475     1.2034      8.448   210.5920 1.3245e+03     5.2142     -0.091     -0.133    22.7071 0.0000e+00
     -0.093      0.004     8.5694     99.232     39.034  37.246745     1.2117      8.449   210.7016 1.4261e+03     5.1153     -0.091     -0.132    22.7090 0.0000e+00
     -0.092      0.004     8.5670     99.205     39.034  37.246735     1.2451      8.450   210.8117 1.4720e+03     5.0949     -0.091     -0.132    22.7082 0.0000e+00
     -0.091      0.004     8.5643     99.148     39.051  37.260351     1.2741      8.451   210.8907 1.4908e+03     5.1728     -0.089     -0.129    22.7051 0.0000e+00
     -0.089      0.004     8.5599     99.078     39.080  37.284465     1.2789      8.451   210.8826 1.4533e+03     5.2373     -0.088     -0.127    22.7045 0.0000e+00
     -0.088      0.004     8.5588     99.053     39.083  37.284475     1.2944      8.451   210.8860 1.3554e+03     5.2938     -0.086     -0.125    22.7059 0.0000e+00
     -0.086      0.003     8.5576     99.084     39.058  37.260466     1.3289      8.451   211.0190 1.2770e+03     5.3438     -0.085     -0.123    22.7054 0.0000e+00
     -0.086      0.002     8.5529     99.126     39.044  37.247995     1.3553      8.451   211.1132 1.2714e+03     5.3980     -0.085     -0.123    22.7026 0.0000e+00
     -0.086      0.002     8.5448     99.173     39.055  37.260591     1.3724      8.451   211.1648 1.3236e+03     5.4701     -0.085     -0.123    22.6972 0.0000e+00
     -0.086      0.001     8.5428     99.228     39.078  37.285858     1.3695      8.451   211.2119 1.3906e+03     5.4305     -0.085     -0.124    22.6929 0.0000e+00
     -0.086      0.000     8.5488     99.272     39.088  37.299693     1.3362      8.451   211.2527 1.4525e+03     5.2609     -0.085     -0.123    22.6923 0.0000e+00
     -0.085      0.000     8.5511     99.275     39.085  37.300959     1.3027      8.452   211.4004 1.5221e+03     5.1271     -0.083     -0.120    22.6938 0.0000e+00
     -0.085     -0.001     8.5546     99.213     39.083  37.301177     1.2983      8.453   211.4485 1.5601e+03     5.1115     -0.082     -0.119    22.6956 0.0000e+00
     -0.086     -0.001     8.5597     99.129     39.083  37.302333     1.3243      8.453   211.4044 1.4841e+03     5.1064     -0.083     -0.121    22.7009 0.0000e+00
     -0.087     -0.002     8.5623     99.080     39.094  37.314930     1.3592      8.452   211.5556 1.3861e+03     5.0655     -0.086     -0.125    22.7086 0.0000e+00
     -0.088     -0.003     8.5642     99.067     39.102  37.326582     1.3702      8.452   211.8139 1.4023e+03     5.0605     -0.087     -0.126    22.7130 0.0000e+00
     -0.087     -0.005     8.5561     99.063     39.084  37.316312     1.3579      8.452   212.0321 1.4459e+03     5.0802     -0.086     -0.124    22.7164 0.0000e+00
     -0.087     -0.008     8.5458     99.010     39.077  37.317673     1.3602      8.452   212.2156 1.4438e+03     5.1326     -0.085     -0.124    22.7172 0.0000e+00
     -0.088     -0.011     8.5431     98.907     39.092  37.343052     1.3726      8.451   212.2255 1.4390e+03     5.1821     -0.087     -0.126    22.7177 0.0000e+00
     -0.092     -0.014     8.5405     98.856     39.103  37.369365     1.3754      8.451   212.1520 1.4499e+03     5.1312     -0.089     -0.130    22.7234 0.0000e+00
     -0.098     -0.014     8.5412     98.873     39.101  37.382035     1.3773      8.451   212.2727 1.3920e+03     5.0640     -0.095     -0.138    22.7334 0.0000e+00
     -0.105     -0.012     8.5372     98.880     39.082  37.369351     1.3703      8.450   212.4804 1.2040e+03     5.0533     -0.103     -0.150    22.7425 0.0000e+00
     -0.111     -0.008     8.5189     98.803     39.057  37.342931     1.3404      8.450   212.5983 1.0423e+03     5.0704     -0.111     -0.161    22.7549 0.0000e+00
     -0.113     -0.004     8.5123     98.725     39.035  37.316398     1.2914      8.451   212.5803 1.0555e+03     5.0997     -0.112     -0.163    22.7788 0.0000e+00
     -0.110      0.001     8.5117     98.720     39.028  37.302347     1.2516      8.452   212.4345 1.1395e+03     5.0993     -0.107     -0.156    22.8021 0.0000e+00
     -0.105      0.006     8.5159     98.678     39.035  37.299946     1.2417      8.452   212.2983 1.1598e+03     5.0660     -0.102     -0.148    22.8083 0.0000e+00
     -0.103      0.009     8.5076     98.629     39.035  37.287352     1.3057      8.451   212.3102 1.1448e+03     5.0729     -0.100     -0.146    22.8010 0.0000e+00
     -0.103      0.010     8.4936     98.639     39.040  37.276960     1.4337      8.451   212.4922 1.1566e+03     5.1481     -0.102     -0.148    22.7936 0.0000e+00
     -0.101      0.008     8.5070     98.682     39.077  37.301188     1.4996      8.451   212.6920 1.1810e+03     5.1557     -0.100     -0.146    22.7851 0.0000e+00
     -0.097      0.005     8.4996     98.790     39.104  37.326456     1.4946      8.451   212.8328 1.1865e+03     5.0974     -0.094     -0.137    22.7728 0.0000e+00
     -0.093      0.002     8.4944     98.934     39.096  37.328647     1.4897      8.451   212.9903 1.1786e+03     5.0921     -0.090     -0.130    22.7572 0.0000e+00
     -0.092     -0.001     8.5041     99.024     39.082  37.327700     1.4907      8.451   213.1335 1.1672e+03     5.1252     -0.089     -0.129    22.7355 0.0000e+00
     -0.095     -0.003     8.5060     99.067     39.061  37.315027     1.4988      8.449   213.1870 1.1570e+03     5.1911     -0.092     -0.134    22.7176 0.0000e+00
     -0.100     -0.004     8.5167     99.095     39.047  37.302337     1.5034      8.448   213.2070 1.1679e+03     5.2047     -0.098     -0.144    22.7165 0.0000e+00
     -0.102     -0.003     8.5316     99.080     39.051  37.301184     1.4962      8.448   213.2035 1.2050e+03     5.1533     -0.101     -0.147    22.7334 0.0000e+00
     -0.102      0.000     8.5348     99.050     39.058  37.301081     1.4955      8.449   213.1457 1.2434e+03     5.1841     -0.101     -0.146    22.7533 0.0000e+00
     -0.101      0.004     8.5336     99.027     39.065  37.301072     1.5033      8.450   213.1957 1.2811e+03     5.2365     -0.099     -0.143    22.7632 0.0000e+00
     -0.098      0.005     8.5409     99.009     39.070  37.301062     1.5067      8.451   213.2926 1.3126e+03     5.2398     -0.097     -0.140    22.7619 0.0000e+00
     -0.095      0.005     8.5371     99.033     39.072  37.300958     1.5115      8.452   213.2836 1.3439e+03     5.2242     -0.093     -0.135    22.7552 0.0000e+00
     -0.093      0.004     8.5356     99.094     39.072  37.299814     1.5202      8.452   213.3457 1.3980e+03     5.1851     -0.090     -0.131    22.7465 0.0000e+00
     -0.092      0.002     8.5373     99.169     39.058  37.287227     1.5367      8.452   213.5270 1.4535e+03     5.1764     -0.089     -0.130    22.7351 0.0000e+00
     -0.093      0.000     8.5333     99.265     39.046  37.275681     1.5611      8.452   213.5828 1.5104e+03     5.1877     -0.091     -0.132    22.7290 0.0000e+00
     -0.094     -0.001     8.5370     99.373     39.060  37.287114     1.5661      8.453   213.5043 1.5661e+03     5.1497     -0.092     -0.135    22.7272 0.0000e+00
     -0.096     -0.001     8.5434     99.435     39.075  37.298555     1.5639      8.454   213.4386 1.5950e+03     5.0930     -0.094     -0.137    22.7254 0.0000e+00
     -0.096      0.000     8.5491     99.443     39.065  37.287103     1.5840      8.453   213.3896 1.6181e+03     5.1171     -0.094     -0.137    22.7272 0.0000e+00
     -0.095      0.003     8.5566     99.443     39.055  37.275556     1.6095      8.453   213.5145 1.6574e+03     5.2023     -0.093     -0.135    22.7285 0.0000e+00
     -0.094      0.007     8.5697     99.438     39.069  37.285844     1.6230      8.452   213.8309 1.6830e+03     5.2353     -0.092     -0.133    22.7249 0.0000e+00
     -0.093      0.009     8.5762     99.393     39.072  37.284587     1.6221      8.452   213.9455 1.6934e+03     5.2413     -0.091     -0.132    22.7200 0.0000e+00
     -0.091      0.010     8.5743     99.320     39.050  37.260351     1.6071      8.452   213.7816 1.7297e+03     5.2754     -0.090     -0.131    22.7179 0.0000e+00
     -0.086      0.009     8.5745     99.267     39.038  37.246620     1.5991      8.451   213.7417 1.7787e+03     5.3406     -0.085     -0.124    22.7175 0.0000e+00
     -0.080      0.008     8.5770     99.229     39.038  37.245475     1.6166      8.449   213.8067 1.8629e+03     5.4151     -0.076     -0.112    22.7128 0.0000e+00
     -0.078      0.008     8.5740     99.189     39.040  37.246497     1.6533      8.449   213.7933 1.9432e+03     5.3567     -0.074     -0.107    22.7062 0.0000e+00
     -0.080      0.008     8.5654     99.162     39.056  37.258968     1.6930      8.449   213.8381 1.9124e+03     5.2146     -0.078     -0.113    22.7014 0.0000e+00
     -0.081      0.008     8.5622     99.148     39.072  37.269361     1.7143      8.449   214.0048 1.8816e+03     5.1654     -0.082     -0.118    22.6994 0.0000e+00
     -0.078      0.008     8.5603     99.146     39.052  37.245239     1.7193      8.448   214.1741 1.9454e+03     5.1719     -0.078     -0.114    22.6978 0.0000e+00
     -0.073      0.008     8.5556     99.174     39.029  37.221115     1.7026      8.448   214.1644 1.9212e+03     5.1915     -0.071     -0.103    22.6971 0.0000e+00
     -0.068      0.007     8.5535     99.246     39.040  37.231498     1.6538      8.448   214.1449 1.7860e+03     5.1966     -0.066     -0.095    22.6970 0.0000e+00
     -0.067      0.005     8.5542     99.359     39.055  37.243867     1.6118      8.448   214.2830 1.7867e+03     5.1656     -0.064     -0.093    22.6889 0.0000e+00
     -0.067      0.001     8.5544     99.462     39.060  37.243754     1.5949      8.449   214.3714 1.8928e+03     5.1581     -0.065     -0.094    22.6792 0.0000e+00
     -0.068     -0.004     8.5568     99.502     39.051  37.230128     1.5413      8.449   214.4392 1.9176e+03     5.2429     -0.066     -0.096    22.6780 0.0000e+00
     -0.069     -0.007     8.5625     99.512     39.026  37.206013     1.4466      8.449   214.5860 1.9238e+03     5.3708     -0.067     -0.098    22.6794 0.0000e+00
     -0.072     -0.007     8.5741     99.507     39.024  37.206004     1.3905      8.449   214.6837 1.9969e+03     5.4066     -0.071     -0.103    22.6768 0.0000e+00
     -0.076     -0.005     8.5876     99.437     39.047  37.230022     1.3703      8.449   214.7612 2.0456e+03     5.3683     -0.076     -0.109    22.6697 0.0000e+00
     -0.079     -0.001     8.5899     99.342     39.059  37.242598     1.3599      8.449   214.8343 2.0259e+03     5.3519     -0.078     -0.113    22.6608 0.0000e+00
     -0.079      0.003     8.5891     99.280     39.045  37.231157     1.4151      8.448   214.8793 1.9792e+03     5.3785     -0.078     -0.114    22.6614 0.0000e+00
     -0.077      0.007     8.5927     99.240     39.030  37.218599     1.5216      8.448   214.9609 1.9767e+03     5.4178     -0.076     -0.109    22.6665 0.0000e+00
     -0.072      0.009     8.5835     99.217     39.030  37.217664     1.5660      8.448   215.0464 2.0574e+03     5.4169     -0.070     -0.102    22.6673 0.0000e+00
     -0.068      0.009     8.5717     99.208     39.033  37.219858     1.5522      8.448   215.1389 2.0650e+03     5.3669     -0.065     -0.095    22.6695 0.0000e+00
     -0.065      0.008     8.5685     99.220     39.060  37.245125     1.5464      8.448   215.2185 1.9936e+03     5.2571     -0.062     -0.091    22.6729 0.0000e+00
     -0.064      0.005     8.5634     99.278     39.085  37.269352     1.5534      8.448   215.2349 2.0761e+03     5.1487     -0.062     -0.090    22.6739 0.0000e+00
     -0.064      0.000     8.5626     99.366     39.073  37.258971     1.5627      8.448   215.3376 2.1891e+03     5.1501     -0.063     -0.092    22.6722 0.0000e+00
     -0.064     -0.005     8.5621     99.439     39.057  37.246508     1.5582      8.449   215.5135 2.1253e+03     5.1706     -0.062     -0.091    22.6705 0.0000e+00
     -0.065     -0.009     8.5612     99.462     39.050  37.245581     1.5575      8.449   215.5545 2.0761e+03     5.2253     -0.062     -0.091    22.6700 0.0000e+00
     -0.067     -0.011     8.5675     99.469     39.047  37.247766     1.5704      8.449   215.4895 2.0836e+03     5.3673     -0.065     -0.095    22.6715 0.0000e+00
     -0.072     -0.012     8.5758     99.488     39.069  37.272938     1.5725      8.450   215.5015 2.0356e+03     5.4538     -0.071     -0.103    22.6720 0.0000e+00
     -0.077     -0.011     8.5840     99.473     39.092  37.296126     1.5674      8.450   215.6140 1.9948e+03     5.4506     -0.076     -0.110    22.6758 0.0000e+00
     -0.081     -0.010     8.5823     99.394     39.068  37.274309     1.5333      8.450   215.6441 1.9887e+03     5.3292     -0.080     -0.116    22.6852 0.0000e+00
     -0.084     -0.007     8.5796     99.269     39.056  37.262971     1.4679      8.451   215.6077 1.9966e+03     5.1822     -0.083     -0.120    22.6925 0.0000e+00
     -0.084     -0.004     8.5840     99.148     39.078  37.285950     1.4432      8.451   215.6909 1.9695e+03     5.1756     -0.084     -0.121    22.6966 0.0000e+00
     -0.083     -0.000     8.5825     99.063     39.089  37.298328     1.4597      8.451   215.8751 1.9148e+03     5.2147     -0.082     -0.118    22.6987 0.0000e+00
     -0.083      0.002     8.5757     98.994     39.075  37.285734     1.5005      8.451   216.0290 1.9172e+03     5.1775     -0.081     -0.117    22.6989 0.0000e+00
     -0.082      0.004     8.5626     98.936     39.048  37.260579     1.5625      8.451   216.0881 1.9200e+03     5.1011     -0.082     -0.118    22.6990 0.0000e+00
     -0.081      0.004     8.5505     98.908     39.032  37.248004     1.6010      8.451   216.0739 1.8755e+03     5.1109     -0.080     -0.116    22.7012 0.0000e+00
     -0.080      0.004     8.5441     98.919     39.042  37.260600     1.6162      8.451   216.1154 1.8299e+03     5.1935     -0.078     -0.113    22.7049 0.0000e+00
     -0.078      0.004     8.5383     98.972     39.064  37.285971     1.6220      8.451   216.2458 1.8799e+03     5.2116     -0.077     -0.111    22.7047 0.0000e+00
     -0.078      0.005     8.5322     99.052     39.073  37.300949     1.6294      8.452   216.2743 1.9762e+03     5.1930     -0.076     -0.110    22.7039 0.0000e+00
     -0.078      0.005     8.5291     99.114     39.082  37.314803     1.6472      8.453   216.2009 1.9095e+03     5.2418     -0.077     -0.111    22.7090 0.0000e+00
     -0.077      0.006     8.5291     99.135     39.090  37.326568     1.6627      8.453   216.2189 1.8089e+03     5.3242     -0.076     -0.110    22.7135 0.0000e+00
     -0.075      0.007     8.5329     99.118     39.075  37.316299     1.6743      8.452   216.3199 1.7812e+03     5.4029     -0.073     -0.106    22.7177 0.0000e+00
     -0.072      0.007     8.5405     99.038     39.072  37.317558     1.6630      8.451   216.3903 1.7883e+03     5.3731     -0.071     -0.102    22.7271 0.0000e+00
     -0.069      0.007     8.5456     98.910     39.096  37.341795     1.6263      8.451   216.3812 1.8362e+03     5.2041     -0.068     -0.099    22.7340 0.0000e+00
     -0.067      0.006     8.5455     98.824     39.110  37.355535     1.6049      8.451   216.3817 1.8372e+03     5.1014     -0.065     -0.095    22.7379 0.0000e+00
     -0.065      0.003     8.5442     98.809     39.108  37.356785     1.6122      8.450   216.4832 1.8327e+03     5.1221     -0.064     -0.093    22.7452 0.0000e+00
     -0.065      0.001     8.5379     98.814     39.101  37.356906     1.6143      8.450   216.5752 1.7977e+03     5.1466     -0.063     -0.092    22.7504 0.0000e+00
     -0.066     -0.002     8.5204     98.759     39.091  37.357009     1.5809      8.451   216.6341 1.7296e+03     5.1242     -0.063     -0.091    22.7516 0.0000e+00
     -0.067     -0.004     8.5142     98.693     39.084  37.358049     1.5413      8.452   216.7643 1.7257e+03     5.1256     -0.066     -0.096    22.7513 0.0000e+00
     -0.069     -0.005     8.5127     98.747     39.089  37.369489     1.5271      8.452   216.8595 1.7197e+03     5.1292     -0.068     -0.098    22.7537 0.0000e+00
     -0.070     -0.005     8.5163     98.858     39.085  37.368430     1.5345      8.451   216.8382 1.6771e+03     5.1328     -0.068     -0.099    22.7642 0.0000e+00
     -0.071     -0.004     8.5090     98.933     39.062  37.345252     1.5545      8.450   216.7648 1.6415e+03     5.1696     -0.069     -0.100    22.7766 0.0000e+00
     -0.072     -0.002     8.4914     98.944     39.062  37.343060     1.5616      8.451   216.6604 1.6412e+03     5.1640     -0.071     -0.102    22.7872 0.0000e+00
     -0.073      0.000     8.5015     98.871     39.062  37.341916     1.5531      8.451   216.6947 1.7038e+03     5.1679     -0.072     -0.105    22.7966 0.0000e+00
     -0.073      0.002     8.5128     98.774     39.051  37.331419     1.5770      8.451   216.8358 1.7653e+03     5.2504     -0.072     -0.105    22.8005 0.0000e+00
     -0.072      0.004     8.5195     98.785     39.064  37.343051     1.6341      8.451   216.9042 1.7199e+03     5.3756     -0.070     -0.102    22.7970 0.0000e+00
     -0.069      0.004     8.5227     98.893     39.078  37.355646     1.6694      8.451   217.0049 1.6704e+03     5.4183     -0.068     -0.099    22.7927 0.0000e+00
     -0.067      0.004     8.5158     98.961     39.078  37.356801     1.6706      8.452   217.1074 1.6785e+03     5.3567     -0.066     -0.096    22.7922 0.0000e+00
     -0.066      0.004     8.5000     98.979     39.074  37.357008     1.6572      8.452   217.1964 1.6545e+03     5.3146     -0.065     -0.094    22.7936 0.0000e+00
     -0.066      0.003     8.5012     99.030     39.072  37.358161     1.6407      8.453   217.2207 1.6485e+03     5.2843     -0.065     -0.094    22.7927 0.0000e+00
     -0.066      0.002     8.5192     99.110     39.084  37.370749     1.6297      8.453   217.2295 1.6853e+03     5.2639     -0.066     -0.095    22.7897 0.0000e+00
     -0.065      0.001     8.5237     99.139     39.097  37.382295     1.6235      8.453   217.3884 1.6716e+03     5.2387     -0.064     -0.092    22.7912 0.0000e+00
     -0.064      0.000     8.5198     99.105     39.084  37.370862     1.6153      8.453   217.5069 1.6536e+03     5.1504     -0.062     -0.090    22.7975 0.0000e+00
     -0.064     -0.001     8.5237     99.030     39.069  37.359421     1.6225      8.453   217.5449 1.6829e+03     5.1534     -0.063     -0.091    22.8033 0.0000e+00
     -0.065     -0.001     8.5350     98.898     39.079  37.370871     1.6607      8.454   217.5899 1.6340e+03     5.3086     -0.064     -0.092    22.8030 0.0000e+00
     -0.065     -0.002     8.5373     98.718     39.089  37.382398     1.6944      8.455   217.6209 1.5399e+03     5.4207     -0.064     -0.093    22.7997 0.0000e+00
     -0.066     -0.002     8.5327     98.564     39.079  37.371892     1.6880      8.455   217.6609 1.5286e+03     5.4163     -0.065     -0.094    22.8024 0.0000e+00
     -0.067     -0.001     8.5265     98.481     39.081  37.370748     1.6509      8.455   217.7295 1.5846e+03     5.2894     -0.067     -0.096    22.8074 0.0000e+00
     -0.067      0.000     8.5153     98.446     39.082  37.368556     1.6194      8.455   217.7610 1.6640e+03     5.1507     -0.066     -0.097    22.8098 0.0000e+00
     -0.066      0.001     8.4963     98.481     39.062  37.345388     1.6158      8.455   217.7838 1.7280e+03     5.1735     -0.065     -0.095    22.8110 0.0000e+00
     -0.065      0.001     8.4804     98.571     39.065  37.344434     1.6157      8.456   217.8337 1.7190e+03     5.2235     -0.064     -0.093    22.8114 0.0000e+00
     -0.065      0.001     8.4775     98.632     39.080  37.357021     1.6179      8.457   217.9336 1.7037e+03     5.2428     -0.064     -0.092    22.8076 0.0000e+00
     -0.065      0.001     8.4726     98.642     39.092  37.370656     1.6421      8.457   218.1312 1.7464e+03     5.3051     -0.064     -0.093    22.8022 0.0000e+00
     -0.065      0.000     8.4761     98.645     39.100  37.382401     1.6669      8.457   218.2446 1.7738e+03     5.3616     -0.064     -0.092    22.7984 0.0000e+00
     -0.065      0.000     8.4901     98.692     39.089  37.372119     1.6767      8.457   218.1868 1.7631e+03     5.4137     -0.064     -0.093    22.7914 0.0000e+00
     -0.065      0.000     8.4951     98.724     39.093  37.373254     1.6608      8.458   218.1206 1.6943e+03     5.4223     -0.064     -0.093    22.7867 0.0000e+00
     -0.065      0.001     8.4948     98.659     39.118  37.396119     1.6239      8.458   218.1319 1.6358e+03     5.3628     -0.064     -0.093    22.7920 0.0000e+00
     -0.065      0.002     8.4902     98.599     39.114  37.394756     1.6059      8.457   218.2379 1.6578e+03     5.3089     -0.064     -0.093    22.7997 0.0000e+00
     -0.064      0.003     8.4961     98.653     39.072  37.356780     1.6170      8.457   218.3688 1.6845e+03     5.3515     -0.063     -0.092    22.8003 0.0000e+00
     -0.063      0.004     8.5065     98.782     39.036  37.317677     1.6423      8.458   218.3381 1.7022e+03     5.4343     -0.062     -0.090    22.7944 0.0000e+00
     -0.062      0.004     8.4948     98.929     39.031  37.302689     1.6627      8.458   218.2974 1.7233e+03     5.4216     -0.061     -0.089    22.7918 0.0000e+00
     -0.061      0.004     8.4837     99.033     39.039  37.302453     1.6722      8.458   218.3928 1.7301e+03     5.4023     -0.060     -0.087    22.7968 0.0000e+00
     -0.060      0.003     8.4916     99.031     39.055  37.314810     1.6736      8.458   218.4583 1.7166e+03     5.4068     -0.059     -0.084    22.8031 0.0000e+00
     -0.058      0.002     8.5042     99.001     39.068  37.325182     1.6635      8.459   218.4880 1.6576e+03     5.3392     -0.057     -0.082    22.7964 0.0000e+00
     -0.058      0.001     8.5218     99.057     39.046  37.300953     1.6657      8.459   218.5799 1.6230e+03     5.2333     -0.057     -0.082    22.7780 0.0000e+00
     -0.058     -0.001     8.5357     99.067     39.029  37.275676     1.6919      8.459   218.7080 1.6569e+03     5.1520     -0.057     -0.083    22.7681 0.0000e+00
     -0.059     -0.002     8.5342     98.937     39.039  37.273370     1.7228      8.459   218.8333 1.6694e+03     5.1410     -0.058     -0.084    22.7666 0.0000e+00
     -0.060     -0.002     8.5217     98.800     39.051  37.273049     1.7398      8.459   218.8898 1.6833e+03     5.1693     -0.058     -0.084    22.7648 0.0000e+00
     -0.061     -0.001     8.5372     98.785     39.057  37.271774     1.7549      8.459   218.7897 1.7126e+03     5.1864     -0.060     -0.086    22.7626 0.0000e+00
     -0.061      0.000     8.5439     98.854     39.048  37.257939     1.7813      8.459   218.7413 1.7012e+03     5.1771     -0.061     -0.088    22.7517 0.0000e+00
     -0.061      0.002     8.5280     98.883     39.030  37.232671     1.7835      8.459   218.9068 1.6601e+03     5.1248     -0.060     -0.087    22.7323 0.0000e+00
     -0.060      0.003     8.5156     98.925     39.028  37.220076     1.7737      8.459   219.0696 1.6427e+03     5.1358     -0.060     -0.086    22.7165 0.0000e+00
     -0.059      0.003     8.5142     99.020     39.052  37.232540     1.7875      8.459   219.0752 1.7050e+03     5.2067     -0.058     -0.084    22.7092 0.0000e+00
     -0.057      0.003     8.5317     99.106     39.083  37.256455     1.8009      8.458   219.0605 1.7542e+03     5.2307     -0.056     -0.081    22.7054 0.0000e+00
     -0.056      0.002     8.5285     99.146     39.084  37.255405     1.7942      8.458   219.0636 1.7317e+03     5.2209     -0.055     -0.079    22.6935 0.0000e+00
     -0.056      0.001     8.5346     99.157     39.048  37.219839     1.7812      8.458   219.1130 1.7286e+03     5.1913     -0.055     -0.079    22.6763 0.0000e+00
     -0.056     -0.001     8.5485     99.197     39.037  37.207148     1.7942      8.459   219.2280 1.7612e+03     5.1801     -0.055     -0.079    22.6621 0.0000e+00
     -0.057     -0.001     8.5574     99.282     39.062  37.228871     1.8346      8.459   219.2494 1.7549e+03     5.1873     -0.055     -0.080    22.6552 0.0000e+00
     -0.058     -0.001     8.5616     99.407     39.064  37.228662     1.8612      8.458   219.2853 1.7182e+03     5.1760     -0.057     -0.083    22.6551 0.0000e+00
     -0.059      0.000     8.5582     99.512     39.040  37.204623     1.8579      8.458   219.4042 1.7301e+03     5.1463     -0.059     -0.085    22.6545 0.0000e+00
     -0.059      0.002     8.5640     99.568     39.028  37.192036     1.8283      8.459   219.3964 1.7707e+03     5.1363     -0.058     -0.084    22.6518 0.0000e+00
     -0.058      0.004     8.5700     99.629     39.042  37.203375     1.7948      8.459   219.2771 1.7807e+03     5.1908     -0.057     -0.083    22.6483 0.0000e+00
     -0.056      0.004     8.5843     99.718     39.056  37.214810     1.7942      8.459   219.2525 1.7653e+03     5.2255     -0.056     -0.081    22.6455 0.0000e+00
     -0.053      0.003     8.5958     99.801     39.044  37.203389     1.8041      8.459   219.3570 1.7629e+03     5.1799     -0.052     -0.076    22.6442 0.0000e+00
     -0.052      0.000     8.5969     99.852     39.032  37.192185     1.7980      8.459   219.4225 1.7796e+03     5.1165     -0.050     -0.072    22.6427 0.0000e+00
     -0.052     -0.005     8.6022     99.875     39.047  37.206258     1.7790      8.459   219.4411 1.8185e+03     5.1087     -0.050     -0.073    22.6404 0.0000e+00
     -0.053     -0.012     8.6123     99.881     39.084  37.246638     1.7574      8.459   219.5816 1.8565e+03     5.1539     -0.052     -0.076    22.6377 0.0000e+00
     -0.056     -0.020     8.6200     99.886     39.124  37.299696     1.7529      8.459   219.7454 1.8575e+03     5.1844     -0.054     -0.078    22.6372 0.0000e+00
     -0.061     -0.027     8.6243     99.900     39.142  37.340165     1.7324      8.458   219.7859 1.9252e+03     5.1708     -0.058     -0.084    22.6379 0.0000e+00
     -0.071     -0.032     8.6259     99.905     39.128  37.355252     1.5927      8.457   219.8141 2.0246e+03     5.1260     -0.070     -0.100    22.6361 0.0000e+00
     -0.083     -0.035     8.6255     99.830     39.103  37.355249     1.3708      8.457   219.9149 2.0430e+03     5.1201     -0.082     -0.118    22.6399 0.0000e+00
     -0.094     -0.035     8.6227     99.651     39.074  37.340156     1.2638      8.457   219.9721 2.0630e+03     5.1681     -0.093     -0.134    22.6577 0.0000e+00
     -0.104     -0.030     8.6184     99.437     39.031  37.299692     1.2725      8.456   219.9891 2.0826e+03     5.1934     -0.103     -0.149    22.6904 0.0000e+00
     -0.112     -0.022     8.6153     99.227     38.990  37.246728     1.3010      8.454   220.1203 2.1591e+03     5.1534     -0.110     -0.159    22.7319 0.0000e+00
     -0.118     -0.013     8.6048     99.007     38.974  37.207392     1.3428      8.454   220.2680 2.2904e+03     5.0935     -0.117     -0.170    22.7649 0.0000e+00
     -0.119     -0.004     8.5830     98.800     38.997  37.204774     1.3694      8.454   220.3124 2.2924e+03     5.1194     -0.119     -0.173    22.7810 0.0000e+00
     -0.117      0.003     8.5623     98.655     39.025  37.215034     1.3812      8.454   220.3126 2.2202e+03     5.1929     -0.114     -0.166    22.7843 0.0000e+00
     -0.113      0.008     8.5500     98.613     39.024  37.204516     1.4694      8.454   220.2704 2.1877e+03     5.2305     -0.111     -0.161    22.7643 0.0000e+00
     -0.110      0.010     8.5352     98.691     39.031  37.204496     1.6203      8.455   220.2324 2.1892e+03     5.2667     -0.108     -0.156    22.7275 0.0000e+00
     -0.106      0.010     8.5212     98.827     39.050  37.214785     1.7069      8.455   220.2833 2.1798e+03     5.3232     -0.103     -0.149    22.6939 0.0000e+00
     -0.102      0.009     8.5119     98.975     39.045  37.202000     1.7339      8.455   220.3700 2.1214e+03     5.3675     -0.100     -0.145    22.6706 0.0000e+00
     -0.100      0.007     8.5072     99.126     39.027  37.176811     1.7563      8.455   220.4203 2.0912e+03     5.3240     -0.098     -0.142    22.6629 0.0000e+00
     -0.100      0.006     8.5189     99.255     39.021  37.164036     1.7776      8.455   220.4613 2.1186e+03     5.1726     -0.097     -0.141    22.6555 0.0000e+00
     -0.100      0.005     8.5342     99.355     39.039  37.174430     1.7835      8.456   220.4352 2.1399e+03     5.0400     -0.098     -0.142    22.6438 0.0000e+00
     -0.099      0.005     8.5472     99.435     39.046  37.175575     1.7854      8.456   220.2772 2.1652e+03     5.0528     -0.097     -0.140    22.6343 0.0000e+00
     -0.097      0.005     8.5642     99.502     39.051  37.177862     1.8006      8.456   220.1859 2.2170e+03     5.1227     -0.095     -0.137    22.6247 0.0000e+00
     -0.095      0.005     8.5761     99.544     39.074  37.202080     1.8336      8.457   220.3634 2.2313e+03     5.2021     -0.093     -0.134    22.6152 0.0000e+00
     -0.093      0.005     8.5863     99.542     39.083  37.214579     1.8769      8.457   220.5309 2.1763e+03     5.3298     -0.091     -0.132    22.6062 0.0000e+00
     -0.092      0.004     8.5939     99.520     39.064  37.202089     1.8915      8.457   220.4902 2.1016e+03     5.3678     -0.091     -0.132    22.5982 0.0000e+00
     -0.091      0.003     8.6008     99.511     39.034  37.177973     1.8935      8.457   220.4728 2.0666e+03     5.3544     -0.090     -0.130    22.5931 0.0000e+00
     -0.090      0.002     8.6055     99.511     39.032  37.176820     1.8933      8.457   220.4925 2.0716e+03     5.3724     -0.089     -0.129    22.5966 0.0000e+00
     -0.090      0.000     8.6024     99.508     39.046  37.188150     1.8726      8.458   220.5560 2.0733e+03     5.3805     -0.089     -0.129    22.6044 0.0000e+00
     -0.090      0.000     8.5981     99.523     39.050  37.188045     1.8514      8.458   220.6385 2.0752e+03     5.3847     -0.087     -0.127    22.6128 0.0000e+00
     -0.091     -0.001     8.5961     99.559     39.040  37.175543     1.8358      8.459   220.6295 2.0746e+03     5.3545     -0.088     -0.128    22.6198 0.0000e+00
     -0.092     -0.001     8.5977     99.580     39.028  37.163901     1.8170      8.461   220.6198 2.0778e+03     5.2887     -0.090     -0.131    22.6199 0.0000e+00
     -0.092     -0.001     8.5962     99.575     39.037  37.174191     1.7995      8.461   220.6934 2.0903e+03     5.1699     -0.091     -0.133    22.6164 0.0000e+00
     -0.092      0.000     8.5976     99.547     39.032  37.173046     1.7826      8.460   220.8314 2.0502e+03     5.0799     -0.090     -0.131    22.6122 0.0000e+00
     -0.092      0.002     8.6047     99.522     39.004  37.150066     1.7711      8.460   220.9119 1.9952e+03     5.0882     -0.089     -0.130    22.6051 0.0000e+00
     -0.091      0.004     8.6055     99.532     39.005  37.150170     1.7934      8.461   220.8922 2.0228e+03     5.1673     -0.090     -0.131    22.6045 0.0000e+00
     -0.090      0.005     8.6050     99.550     39.036  37.174304     1.8434      8.461   220.9373 2.0768e+03     5.3190     -0.089     -0.130    22.6085 0.0000e+00
     -0.089      0.006     8.6017     99.568     39.055  37.188035     1.8684      8.461   221.0273 2.0884e+03     5.4196     -0.088     -0.128    22.6116 0.0000e+00
     -0.087      0.006     8.5954     99.610     39.057  37.189284     1.8542      8.460   221.0337 2.0678e+03     5.4272     -0.086     -0.124    22.6205 0.0000e+00
     -0.084      0.006     8.5988     99.647     39.056  37.189397     1.8214      8.460   221.0997 2.0294e+03     5.4110     -0.082     -0.118    22.6202 0.0000e+00
     -0.082      0.006     8.6028     99.660     39.055  37.189407     1.7961      8.460   221.3097 2.0022e+03     5.3947     -0.080     -0.116    22.6082 0.0000e+00
     -0.082      0.005     8.6025     99.675     39.055  37.189408     1.7982      8.459   221.5074 1.9844e+03     5.4008     -0.080     -0.117    22.6034 0.0000e+00
     -0.082      0.004     8.6085     99.686     39.059  37.189410     1.7980      8.459   221.5110 1.9457e+03     5.3823     -0.080     -0.116    22.6033 0.0000e+00
     -0.081      0.003     8.6124     99.630     39.062  37.189420     1.7853      8.459   221.3533 1.8712e+03     5.3421     -0.079     -0.115    22.6052 0.0000e+00
     -0.080      0.003     8.6109     99.490     39.062  37.189534     1.7939      8.458   221.2358 1.8066e+03     5.3246     -0.078     -0.113    22.6087 0.0000e+00
     -0.078      0.003     8.6126     99.365     39.062  37.190783     1.8267      8.458   221.2947 1.7961e+03     5.3418     -0.077     -0.111    22.6073 0.0000e+00
     -0.078      0.002     8.6170     99.326     39.068  37.204522     1.8491      8.458   221.3773 1.6492e+03     5.4131     -0.077     -0.111    22.6014 0.0000e+00
     -0.077      0.000     8.6154     99.339     39.078  37.228756     1.8402      8.457   221.3748 1.3977e+03     5.4348     -0.076     -0.110    22.5960 0.0000e+00
     -0.076     -0.003     8.5977     99.369     39.062  37.230001     1.7694      8.455   221.5220 1.4262e+03     5.2964     -0.075     -0.108    22.5971 0.0000e+00
     -0.076     -0.007     8.5842     99.413     39.037  37.219597     1.6666      8.454   221.6948 1.6710e+03     5.1408     -0.073     -0.106    22.5969 0.0000e+00
     -0.078     -0.009     8.5823     99.464     39.042  37.229885     1.6294      8.453   221.6564 1.8480e+03     5.1588     -0.074     -0.108    22.6032 0.0000e+00
     -0.082     -0.009     8.5806     99.505     39.042  37.227493     1.6282      8.453   221.6603 1.9159e+03     5.2417     -0.080     -0.117    22.6268 0.0000e+00
     -0.087     -0.008     8.5788     99.528     39.012  37.190672     1.5771      8.453   221.8279 1.8715e+03     5.2204     -0.087     -0.126    22.6523 0.0000e+00
     -0.092     -0.005     8.5796     99.504     38.996  37.165395     1.4944      8.453   221.9630 1.7612e+03     5.1740     -0.091     -0.133    22.6704 0.0000e+00
     -0.092      0.000     8.5840     99.414     39.018  37.175676     1.4520      8.453   221.9161 1.6812e+03     5.1935     -0.092     -0.133    22.6780 0.0000e+00
     -0.090      0.005     8.5874     99.305     39.041  37.188057     1.4558      8.453   221.7774 1.6927e+03     5.2170     -0.088     -0.127    22.6738 0.0000e+00
     -0.086      0.009     8.5927     99.233     39.046  37.188162     1.4985      8.453   221.7486 1.7382e+03     5.2191     -0.084     -0.122    22.6616 0.0000e+00
     -0.082      0.011     8.5945     99.223     39.037  37.176938     1.5692      8.453   221.8262 1.6960e+03     5.2533     -0.080     -0.116    22.6481 0.0000e+00
     -0.078      0.011     8.5867     99.269     39.040  37.179253     1.6030      8.453   221.9410 1.6335e+03     5.3229     -0.075     -0.110    22.6332 0.0000e+00
     -0.075      0.009     8.5777     99.348     39.077  37.216162     1.6072      8.453   222.0175 1.6973e+03     5.3769     -0.073     -0.107    22.6194 0.0000e+00
     -0.072      0.005     8.5720     99.445     39.099  37.242477     1.6109      8.453   222.0630 1.8158e+03     5.3259     -0.071     -0.102    22.6134 0.0000e+00
     -0.071      0.003     8.5710     99.529     39.093  37.243619     1.6061      8.454   222.0619 1.8471e+03     5.1844     -0.069     -0.100    22.6119 0.0000e+00
     -0.072      0.001     8.5773     99.571     39.074  37.229982     1.6080      8.455   221.9177 1.8559e+03     5.1004     -0.070     -0.102    22.6088 0.0000e+00
     -0.074      0.001     8.5833     99.591     39.045  37.204506     1.6087      8.456   221.8689 1.9526e+03     5.0968     -0.072     -0.105    22.6102 0.0000e+00
     -0.075      0.002     8.5911     99.576     39.033  37.189416     1.5981      8.457   221.9017 2.0407e+03     5.1405     -0.074     -0.107    22.6204 0.0000e+00
     -0.074      0.003     8.5991     99.521     39.025  37.174429     1.5806      8.457   221.7980 2.0605e+03     5.1501     -0.073     -0.106    22.6296 0.0000e+00
     -0.072      0.004     8.5991     99.457     39.009  37.150192     1.5632      8.457   221.7338 2.1433e+03     5.0767     -0.071     -0.103    22.6368 0.0000e+00
     -0.069      0.003     8.6012     99.398     39.015  37.150173     1.5537      8.457   221.8137 2.1883e+03     5.0385     -0.069     -0.098    22.6404 0.0000e+00
     -0.067      0.001     8.6021     99.370     39.041  37.174191     1.5402      8.458   221.9893 2.1053e+03     5.0637     -0.066     -0.096    22.6345 0.0000e+00
     -0.067     -0.001     8.5966     99.410     39.051  37.186766     1.5090      8.458   222.1363 2.0652e+03     5.1417     -0.064     -0.093    22.6231 0.0000e+00
     -0.069     -0.002     8.5935     99.485     39.031  37.175323     1.4600      8.458   222.1278 2.0887e+03     5.1966     -0.066     -0.095    22.6113 0.0000e+00
     -0.072     -0.002     8.5896     99.572     39.010  37.162754     1.4220      8.458   222.0590 2.1613e+03     5.1471     -0.072     -0.104    22.6034 0.0000e+00
     -0.074     -0.001     8.5843     99.660     39.008  37.161717     1.4147      8.458   222.0792 2.2142e+03     5.1242     -0.074     -0.107    22.6012 0.0000e+00
     -0.073      0.001     8.5901     99.692     39.015  37.162778     1.4299      8.458   222.1142 2.2765e+03     5.1930     -0.073     -0.106    22.6047 0.0000e+00
     -0.071      0.002     8.5953     99.663     39.032  37.175575     1.4476      8.459   222.1377 2.3814e+03     5.2619     -0.070     -0.101    22.6165 0.0000e+00
     -0.068      0.002     8.5989     99.613     39.044  37.189523     1.4458      8.460   222.1910 2.3603e+03     5.2389     -0.067     -0.097    22.6315 0.0000e+00
     -0.067      0.001     8.6104     99.568     39.052  37.204518     1.4326      8.460   222.2422 2.2359e+03     5.1545     -0.065     -0.094    22.6321 0.0000e+00
     -0.068     -0.002     8.6145     99.547     39.067  37.229993     1.4050      8.460   222.3264 2.1068e+03     5.0950     -0.066     -0.096    22.6193 0.0000e+00
     -0.069     -0.005     8.6112     99.549     39.070  37.243741     1.3623      8.460   222.3484 2.0388e+03     5.1348     -0.068     -0.099    22.6127 0.0000e+00
     -0.071     -0.007     8.6064     99.575     39.061  37.243856     1.3404      8.460   222.3373 1.9495e+03     5.2259     -0.069     -0.100    22.6162 0.0000e+00
     -0.074     -0.007     8.5992     99.631     39.042  37.231383     1.3319      8.461   222.3642 1.7749e+03     5.2056     -0.072     -0.105    22.6275 0.0000e+00
     -0.077     -0.006     8.5953     99.699     39.024  37.219856     1.3253      8.461   222.4148 1.6345e+03     5.2302     -0.075     -0.109    22.6435 0.0000e+00
     -0.079     -0.004     8.5931     99.750     39.031  37.231393     1.3441      8.461   222.5198 1.5565e+03     5.3871     -0.078     -0.113    22.6590 0.0000e+00
     -0.080     -0.002     8.5926     99.762     39.043  37.243979     1.3766      8.462   222.6008 1.4968e+03     5.4626     -0.079     -0.115    22.6702 0.0000e+00
     -0.079      0.001     8.5977     99.750     39.048  37.245125     1.3936      8.462   222.6201 1.4262e+03     5.4603     -0.078     -0.113    22.6764 0.0000e+00
     -0.078      0.003     8.6030     99.723     39.050  37.245239     1.3748      8.462   222.6676 1.3453e+03     5.4282     -0.076     -0.110    22.6826 0.0000e+00
     -0.076      0.004     8.6076     99.660     39.047  37.245351     1.3329      8.461   222.7449 1.2881e+03     5.3817     -0.074     -0.108    22.6910 0.0000e+00
     -0.075      0.004     8.6071     99.565     39.044  37.246496     1.3192      8.460   222.7801 1.2421e+03     5.4105     -0.073     -0.106    22.6926 0.0000e+00
     -0.073      0.003     8.6065     99.463     39.053  37.259081     1.3337      8.460   222.8343 1.1687e+03     5.4690     -0.071     -0.103    22.6845 0.0000e+00
     -0.072      0.000     8.6068     99.365     39.062  37.270618     1.3341      8.460   222.8844 1.0966e+03     5.4400     -0.070     -0.101    22.6813 0.0000e+00
     -0.073     -0.002     8.5996     99.262     39.047  37.259081     1.3311      8.460   222.8704 1.0376e+03     5.2993     -0.071     -0.103    22.6874 0.0000e+00
     -0.074     -0.003     8.5896     99.168     39.032  37.246506     1.3484      8.461   222.8368 9.8568e+02     5.1684     -0.072     -0.105    22.6935 0.0000e+00
     -0.076     -0.003     8.5795     99.104     39.032  37.245476     1.3688      8.461   222.8219 9.5334e+02     5.1553     -0.074     -0.108    22.6971 0.0000e+00
     -0.078     -0.002     8.5714     99.073     39.036  37.246630     1.3775      8.461   222.8627 9.4542e+02     5.1749     -0.076     -0.110    22.7014 0.0000e+00
     -0.078     -0.001     8.5611     99.063     39.053  37.260456     1.3706      8.460   222.9853 9.6026e+02     5.2002     -0.076     -0.111    22.7061 0.0000e+00
     -0.078      0.000     8.5515     99.055     39.079  37.285732     1.3602      8.460   223.0998 9.7531e+02     5.2901     -0.076     -0.111    22.7077 0.0000e+00
     -0.077 -4.692e-07     8.5467     99.044     39.090  37.298422     1.3686      8.460   223.1285 9.6090e+02     5.3745     -0.075     -0.109    22.7064 0.0000e+00
     -0.076      0.000     8.5444     99.028     39.073  37.286990     1.3885      8.460   223.1609 9.4062e+02     5.4340     -0.074     -0.108    22.7025 0.0000e+00
     -0.076     -0.000     8.5456     99.002     39.056  37.274422     1.4019      8.460   223.1470 9.5745e+02     5.4636     -0.073     -0.107    22.6994 0.0000e+00
     -0.077     -0.001     8.5443     98.950     39.055  37.273374     1.4131      8.460   223.0463 9.9126e+02     5.4247     -0.075     -0.108    22.6988 0.0000e+00
     -0.078     -0.002     8.5437     98.868     39.060  37.274319     1.4246      8.461   223.0617 1.0054e+03     5.3742     -0.076     -0.111    22.7013 0.0000e+00
     -0.078     -0.002     8.5403     98.780     39.076  37.285846     1.4405      8.461   223.2471 1.0144e+03     5.3655     -0.077     -0.111    22.7091 0.0000e+00
     -0.078     -0.003     8.5383     98.717     39.080  37.285836     1.4728      8.461   223.3953 1.0286e+03     5.3878     -0.076     -0.110    22.7149 0.0000e+00
     -0.078     -0.003     8.5343     98.699     39.071  37.274195     1.4903      8.461   223.3911 1.0006e+03     5.3708     -0.077     -0.111    22.7144 0.0000e+00
     -0.079     -0.004     8.5264     98.714     39.070  37.271994     1.4775      8.461   223.3683 9.3743e+02     5.3302     -0.078     -0.112    22.7097 0.0000e+00
     -0.081     -0.004     8.5197     98.763     39.057  37.259217     1.4678      8.463   223.4645 9.1379e+02     5.3409     -0.080     -0.115    22.7039 0.0000e+00
     -0.083     -0.004     8.5129     98.840     39.043  37.246621     1.4803      8.464   223.6077 9.3520e+02     5.3983     -0.081     -0.118    22.6991 0.0000e+00
     -0.084     -0.003     8.5141     98.931     39.043  37.246610     1.5045      8.464   223.6370 9.5851e+02     5.4431     -0.081     -0.118    22.6944 0.0000e+00
     -0.085     -0.002     8.5148     99.028     39.058  37.259081     1.5108      8.464   223.5605 9.5881e+02     5.4045     -0.083     -0.121    22.6928 0.0000e+00
     -0.085     -0.001     8.5192     99.103     39.074  37.270495     1.4984      8.465   223.5424 9.4776e+02     5.3408     -0.084     -0.122    22.6930 0.0000e+00
     -0.085      0.001     8.5270     99.160     39.065  37.257699     1.4884      8.465   223.5907 9.4453e+02     5.3558     -0.083     -0.120    22.6926 0.0000e+00
     -0.084      0.003     8.5336     99.226     39.041  37.231268     1.5063      8.465   223.5414 9.3263e+02     5.4159     -0.083     -0.120    22.6949 0.0000e+00
     -0.083      0.005     8.5438     99.277     39.019  37.204733     1.5483      8.465   223.4633 9.0615e+02     5.4528     -0.082     -0.118    22.6942 0.0000e+00
     -0.082      0.006     8.5519     99.300     39.012  37.190672     1.5632      8.465   223.5063 8.8694e+02     5.4257     -0.081     -0.117    22.6859 0.0000e+00
     -0.080      0.007     8.5551     99.330     39.018  37.188157     1.5529      8.465   223.6308 8.9413e+02     5.3612     -0.079     -0.113    22.6816 0.0000e+00
     -0.077      0.007     8.5628     99.373     39.013  37.174313     1.5562      8.465   223.7653 8.5158e+02     5.3228     -0.076     -0.110    22.6792 0.0000e+00
     -0.075      0.007     8.5705     99.425     38.998  37.150181     1.5701      8.466   223.8416 7.5074e+02     5.2692     -0.074     -0.107    22.6689 0.0000e+00
     -0.073      0.006     8.5706     99.495     39.005  37.150181     1.5718      8.466   223.7792 7.0109e+02     5.1910     -0.072     -0.104    22.6612 0.0000e+00
     -0.072      0.005     8.5757     99.558     39.036  37.174304     1.5599      8.467   223.6995 6.7943e+02     5.1282     -0.071     -0.103    22.6514 0.0000e+00
     -0.071      0.004     8.5823     99.614     39.054  37.188024     1.5586      8.467   223.7378 6.6411e+02     5.1257     -0.070     -0.101    22.6368 0.0000e+00
     -0.070      0.002     8.5868     99.663     39.055  37.189158     1.5733      8.467   223.8115 6.9078e+02     5.1938     -0.068     -0.099    22.6259 0.0000e+00
     -0.070      0.001     8.5971     99.678     39.050  37.188012     1.5796      8.468   223.9023 7.2987e+02     5.2338     -0.068     -0.098    22.6161 0.0000e+00
     -0.070      0.001     8.6027     99.676     39.031  37.174168     1.5761      8.468   223.9753 7.4360e+02     5.2003     -0.068     -0.099    22.6093 0.0000e+00
     -0.070      0.001     8.6075     99.656     39.006  37.148684     1.5815      8.467   224.0057 7.3865e+02     5.1978     -0.069     -0.100    22.6057 0.0000e+00
     -0.070      0.002     8.6147     99.609     38.997  37.133707     1.6027      8.466   224.0114 7.4828e+02     5.3063     -0.069     -0.100    22.6047 0.0000e+00
     -0.070      0.004     8.6127     99.557     38.991  37.119978     1.6244      8.466   224.0439 7.8000e+02     5.4193     -0.069     -0.100    22.6102 0.0000e+00
     -0.069      0.008     8.6116     99.522     38.986  37.109586     1.6276      8.465   224.1413 7.4933e+02     5.4373     -0.068     -0.098    22.6188 0.0000e+00
     -0.068      0.009     8.6108     99.521     39.018  37.134958     1.6167      8.465   224.1560 6.6907e+02     5.3863     -0.068     -0.098    22.6182 0.0000e+00
     -0.063      0.009     8.6076     99.567     39.062  37.172923     1.6095      8.464   224.0502 6.4177e+02     5.3499     -0.063     -0.092    22.6064 0.0000e+00
     -0.058      0.008     8.6045     99.627     39.076  37.187901     1.6148      8.464   223.9810 6.4216e+02     5.3724     -0.056     -0.081    22.5928 0.0000e+00
     -0.054      0.006     8.6024     99.695     39.068  37.189150     1.6232      8.464   224.0079 6.4251e+02     5.4199     -0.052     -0.075    22.5873 0.0000e+00
     -0.054      0.002     8.6015     99.810     39.058  37.188034     1.6193      8.464   224.1163 6.2808e+02     5.4118     -0.052     -0.076    22.5829 0.0000e+00
     -0.057     -0.005     8.6087     99.912     39.038  37.174418     1.6172      8.463   224.2594 6.0172e+02     5.3426     -0.055     -0.081    22.5742 0.0000e+00
     -0.059     -0.013     8.6155     99.929     39.011  37.151440     1.6399      8.462   224.2764 6.0682e+02     5.3015     -0.058     -0.084    22.5754 0.0000e+00
     -0.060     -0.022     8.6142     99.904     39.021  37.164024     1.6685      8.461   224.2351 6.3047e+02     5.3241     -0.059     -0.085    22.5893 0.0000e+00
     -0.064     -0.030     8.6259     99.904     39.056  37.199672     1.6718      8.462   224.2764 6.2037e+02     5.4102     -0.059     -0.085    22.6031 0.0000e+00
     -0.074     -0.036     8.6373     99.922     39.053  37.201741     1.5885      8.463   224.2589 5.8682e+02     5.4557     -0.069     -0.100    22.6084 0.0000e+00
     -0.089     -0.039     8.6355     99.925     39.034  37.189040     1.4436      8.463   224.1959 5.7606e+02     5.4302     -0.087     -0.127    22.6106 0.0000e+00
     -0.105     -0.037     8.6301     99.883     39.015  37.173020     1.3684      8.463   224.2033 5.9301e+02     5.4083     -0.104     -0.150    22.6147 0.0000e+00
     -0.117     -0.028     8.6304     99.806     38.981  37.134950     1.3701      8.463   224.2623 6.2136e+02     5.3966     -0.116     -0.168    22.6176 0.0000e+00
     -0.124     -0.016     8.6322     99.746     38.966  37.109458     1.4139      8.463   224.3071 6.5208e+02     5.3562     -0.123     -0.178    22.6236 0.0000e+00
     -0.126     -0.002     8.6316     99.736     38.986  37.118593     1.4728      8.463   224.2289 6.7962e+02     5.2279     -0.125     -0.181    22.6340 0.0000e+00
     -0.121      0.008     8.6277     99.771     38.995  37.118480     1.4908      8.464   224.0911 6.7937e+02     5.1430     -0.120     -0.174    22.6387 0.0000e+00
     -0.112      0.015     8.6194     99.821     38.993  37.108077     1.4908      8.464   224.1037 6.5286e+02     5.1490     -0.110     -0.159    22.6292 0.0000e+00
     -0.104      0.017     8.6169     99.875     39.013  37.119709     1.5565      8.465   224.2951 6.1308e+02     5.2322     -0.101     -0.146    22.6123 0.0000e+00
     -0.099      0.014     8.6178     99.930     39.030  37.132199     1.6690      8.466   224.4252 5.7277e+02     5.3646     -0.096     -0.141    22.5988 0.0000e+00
     -0.097      0.009     8.6247     99.982     39.031  37.132189     1.7189      8.466   224.3866 5.7130e+02     5.3827     -0.095     -0.137    22.5869 0.0000e+00
     -0.097      0.005     8.6309    100.047     39.018  37.119594     1.7112      8.466   224.3445 5.8762e+02     5.3827     -0.094     -0.138    22.5758 0.0000e+00
     -0.098      0.002     8.6365    100.101     39.005  37.106809     1.6837      8.466   224.3470 5.7157e+02     5.4329     -0.095     -0.139    22.5671 0.0000e+00
     -0.099      0.001     8.6435    100.128     39.003  37.104513     1.6447      8.468   224.3300 5.5322e+02     5.4427     -0.096     -0.139    22.5622 0.0000e+00
     -0.099      0.002     8.6455    100.140     38.991  37.091832     1.6225      8.469   224.3115 5.6524e+02     5.3985     -0.097     -0.142    22.5620 0.0000e+00
     -0.099      0.003     8.6531    100.146     38.982  37.080391     1.6141      8.470   224.3821 5.8198e+02     5.3431     -0.098     -0.142    22.5631 0.0000e+00
     -0.097      0.005     8.6586    100.156     38.999  37.093081     1.6267      8.470   224.4947 5.8255e+02     5.2852     -0.096     -0.139    22.5622 0.0000e+00
     -0.094      0.006     8.6597    100.153     39.026  37.118357     1.6582      8.470   224.5555 5.6509e+02     5.2115     -0.093     -0.134    22.5613 0.0000e+00
     -0.092      0.006     8.6614    100.134     39.038  37.132192     1.6704      8.470   224.9447 5.4556e+02     5.2034     -0.090     -0.130    22.5608 0.0000e+00
     -0.090      0.005     8.6616    100.114     39.036  37.133449     1.6667      8.471   229.6311 5.5406e+02     5.2211     -0.089     -0.129    22.5560 0.0000e+00
     -0.090      0.003     8.6646    100.071     39.032  37.133564     1.6623      8.472   237.7681 5.7880e+02     5.1524     -0.088     -0.128    22.5496 0.0000e+00
     -0.089      0.002     8.6650    100.025     39.029  37.133582     1.6676      8.474   240.9891 6.0707e+02     5.0901     -0.088     -0.127    22.5486 0.0000e+00
     -0.089      0.001     8.6611    100.041     39.025  37.133677     1.6881      8.477   239.6666 6.4439e+02     5.1510     -0.087     -0.126    22.5524 0.0000e+00
     -0.090      0.001     8.6603    100.109     39.022  37.134717     1.6863      8.478   238.3834 6.5509e+02     5.2047     -0.088     -0.128    22.5577 0.0000e+00
     -0.090      0.001     8.6556    100.163     39.031  37.146158     1.6632      8.479   237.3469 6.4558e+02     5.1587     -0.088     -0.128    22.5625 0.0000e+00
     -0.089      0.001     8.6471    100.186     39.028  37.145110     1.6414      8.480   236.4270 6.3928e+02     5.1079     -0.088     -0.127    22.5662 0.0000e+00
     -0.089      0.002     8.6481    100.157     39.003  37.122045     1.6225      8.480   235.7795 6.2843e+02     5.1028     -0.088     -0.127    22.5715 0.0000e+00
     -0.088      0.003     8.6570    100.074     39.001  37.121102     1.6262      8.480   235.3681 6.4226e+02     5.1306     -0.087     -0.126    22.5772 0.0000e+00
     -0.088      0.003     8.6601     99.982     39.014  37.133698     1.6277      8.480   234.8079 6.9160e+02     5.1376     -0.086     -0.125    22.5808 0.0000e+00
     -0.087      0.002     8.6624     99.874     39.027  37.147438     1.6070      8.479   234.2545 7.4859e+02     5.1531     -0.085     -0.123    22.5830 0.0000e+00
     -0.085      0.001     8.6617     99.760     39.039  37.160328     1.5933      8.479   233.8399 7.7234e+02     5.2492     -0.084     -0.121    22.5832 0.0000e+00
     -0.085      0.000     8.6502     99.697     39.040  37.162643     1.5943      8.479   233.4078 7.7786e+02     5.3776     -0.083     -0.120    22.5832 0.0000e+00
     -0.085     -0.002     8.6441     99.672     39.053  37.175440     1.6028      8.479   233.0746 7.7281e+02     5.4414     -0.083     -0.120    22.5841 0.0000e+00
     -0.086     -0.003     8.6350     99.659     39.064  37.188140     1.5637      8.479   232.8225 7.2434e+02     5.4064     -0.085     -0.122    22.5863 0.0000e+00
     -0.088     -0.003     8.6202     99.679     39.064  37.189295     1.4790      8.479   232.5968 6.8620e+02     5.3638     -0.087     -0.127    22.5893 0.0000e+00
     -0.089     -0.002     8.6169     99.721     39.062  37.189409     1.4354      8.477   232.4103 6.6990e+02     5.4045     -0.088     -0.128    22.5903 0.0000e+00
     -0.089     -0.001     8.6158     99.745     39.060  37.189523     1.4368      8.476   232.1173 6.3716e+02     5.4542     -0.088     -0.127    22.5906 0.0000e+00
     -0.089      0.001     8.6124     99.759     39.058  37.190668     1.4701      8.476   231.8067 6.1007e+02     5.4181     -0.088     -0.128    22.5922 0.0000e+00
     -0.088      0.002     8.6143     99.797     39.067  37.203253     1.5219      8.477   231.6657 6.0378e+02     5.3439     -0.087     -0.127    22.5949 0.0000e+00
     -0.088      0.002     8.6197     99.825     39.073  37.214789     1.5558      8.477   231.5315 6.1172e+02     5.3426     -0.086     -0.125    22.5972 0.0000e+00
     -0.087      0.001     8.6216     99.837     39.055  37.203251     1.5635      8.476   231.3884 6.3077e+02     5.4029     -0.086     -0.124    22.5994 0.0000e+00
     -0.086      0.000     8.6184     99.872     39.037  37.190664     1.5486      8.475   231.3117 6.2937e+02     5.3894     -0.084     -0.122    22.6039 0.0000e+00
     -0.086     -0.001     8.6246     99.923     39.032  37.189520     1.5011      8.475   231.2070 6.1347e+02     5.3159     -0.084     -0.122    22.6083 0.0000e+00
     -0.087     -0.001     8.6259     99.968     39.028  37.189426     1.4381      8.475   231.0682 6.0184e+02     5.3000     -0.086     -0.124    22.6155 0.0000e+00
     -0.089     -0.001     8.6225     99.995     39.027  37.189531     1.4279      8.474   230.5805 5.5711e+02     5.3681     -0.087     -0.126    22.6241 0.0000e+00
     -0.089      0.000     8.6259     99.977     39.027  37.190787     1.4526      8.474   229.6121 5.0736e+02     5.4560     -0.088     -0.128    22.6304 0.0000e+00
     -0.089      0.001     8.6300     99.883     39.040  37.204622     1.4621      8.473   228.9096 4.9406e+02     5.4746     -0.088     -0.128    22.6357 0.0000e+00
     -0.088      0.003     8.6337     99.764     39.065  37.229900     1.4514      8.473   229.4001 5.0771e+02     5.4226     -0.086     -0.125    22.6395 0.0000e+00
     -0.087      0.005     8.6355     99.690     39.077  37.242610     1.4225      8.473   230.5531 5.3114e+02     5.3394     -0.086     -0.124    22.6414 0.0000e+00
     -0.085      0.006     8.6371     99.655     39.063  37.231388     1.4212      8.474   230.9768 5.5572e+02     5.3229     -0.085     -0.121    22.6423 0.0000e+00
     -0.084      0.006     8.6259     99.636     39.051  37.221119     1.4767      8.474   230.2210 5.7812e+02     5.3253     -0.082     -0.119    22.6434 0.0000e+00
     -0.082      0.005     8.6121     99.619     39.074  37.245367     1.5443      8.473   228.8147 5.8540e+02     5.2660     -0.080     -0.116    22.6452 0.0000e+00
     -0.080      0.004     8.6066     99.590     39.095  37.270749     1.5639      8.472   227.8248 5.7440e+02     5.2201     -0.079     -0.114    22.6475 0.0000e+00
     -0.080      0.003     8.6042     99.562     39.090  37.274199     1.5477      8.472   227.4583 5.4573e+02     5.1468     -0.078     -0.113    22.6496 0.0000e+00
     -0.080      0.001     8.6020     99.546     39.095  37.287098     1.5322      8.471   228.3413 5.6227e+02     5.1653     -0.078     -0.113    22.6513 0.0000e+00
     -0.080      0.000     8.6014     99.529     39.101  37.299817     1.5175      8.471   230.3279 5.9685e+02     5.3068     -0.079     -0.114    22.6533 0.0000e+00
     -0.080     -0.002     8.5971     99.507     39.096  37.301075     1.5027      8.471   231.2581 5.5928e+02     5.3555     -0.078     -0.113    22.6596 0.0000e+00
     -0.080     -0.003     8.5917     99.482     39.091  37.302324     1.4863      8.471   231.0709 5.1752e+02     5.3103     -0.078     -0.113    22.6718 0.0000e+00
     -0.081     -0.004     8.5899     99.447     39.098  37.314919     1.4691      8.470   230.8169 4.9819e+02     5.2381     -0.079     -0.116    22.6835 0.0000e+00
     -0.083     -0.005     8.5864     99.377     39.103  37.326465     1.4606      8.470   230.5964 4.9596e+02     5.1988     -0.081     -0.118    22.6917 0.0000e+00
     -0.085     -0.006     8.5836     99.282     39.085  37.315031     1.4594      8.469   230.4706 5.1782e+02     5.1778     -0.083     -0.120    22.6986 0.0000e+00
     -0.086     -0.006     8.5800     99.206     39.068  37.303589     1.4455      8.469   230.4136 5.4659e+02     5.1206     -0.084     -0.122    22.7066 0.0000e+00
     -0.087     -0.005     8.5773     99.171     39.076  37.315030     1.4269      8.469   229.7360 5.6245e+02     5.0881     -0.085     -0.124    22.7150 0.0000e+00
     -0.089     -0.004     8.5693     99.177     39.085  37.326463     1.4422      8.469   228.4717 5.3795e+02     5.1265     -0.088     -0.129    22.7227 0.0000e+00
     -0.090     -0.004     8.5580     99.187     39.070  37.314927     1.4807      8.468   227.6887 5.2241e+02     5.2085     -0.089     -0.129    22.7302 0.0000e+00
     -0.090     -0.005     8.5504     99.192     39.055  37.302454     1.5010      8.468   227.4967 5.2729e+02     5.2259     -0.088     -0.127    22.7364 0.0000e+00
     -0.090     -0.006     8.5454     99.201     39.051  37.302568     1.4969      8.468   228.3012 5.3483e+02     5.1658     -0.087     -0.127    22.7417 0.0000e+00
     -0.092     -0.007     8.5477     99.202     39.061  37.316308     1.4805      8.469   229.7578 5.5928e+02     5.1313     -0.090     -0.131    22.7456 0.0000e+00
     -0.096     -0.007     8.5486     99.196     39.081  37.341689     1.4612      8.470   229.6223 5.5925e+02     5.1507     -0.094     -0.137    22.7477 0.0000e+00
     -0.099     -0.006     8.5471     99.181     39.089  37.355637     1.4546      8.470   228.0389 5.3930e+02     5.1945     -0.097     -0.141    22.7505 0.0000e+00
     -0.101     -0.003     8.5485     99.146     39.084  37.358048     1.4591      8.469   227.0459 5.6099e+02     5.1835     -0.099     -0.145    22.7555 0.0000e+00
     -0.102     -0.000     8.5472     99.123     39.088  37.370852     1.4568      8.468   226.9085 5.7328e+02     5.1197     -0.101     -0.147    22.7616 0.0000e+00
     -0.100      0.003     8.5451     99.132     39.093  37.383542     1.4680      8.468   228.0127 5.5654e+02     5.1406     -0.099     -0.144    22.7685 0.0000e+00
     -0.097      0.006     8.5439     99.121     39.088  37.384591     1.4958      8.469   229.9857 5.5678e+02     5.1968     -0.094     -0.138    22.7769 0.0000e+00
     -0.095      0.008     8.5380     99.081     39.086  37.383542     1.5093      8.469   230.8028 5.4475e+02     5.1848     -0.092     -0.134    22.7851 0.0000e+00
     -0.094      0.009     8.5321     99.036     39.075  37.370861     1.4902      8.469   230.6649 5.2967e+02     5.1659     -0.092     -0.134    22.7963 0.0000e+00
     -0.092      0.010     8.5345     98.981     39.064  37.358171     1.4482      8.470   230.4693 5.2818e+02     5.1396     -0.091     -0.133    22.8102 0.0000e+00
     -0.089      0.010     8.5323     98.931     39.064  37.357017     1.4344      8.471   230.2453 5.3783e+02     5.1392     -0.088     -0.127    22.8169 0.0000e+00
     -0.085      0.010     8.5269     98.887     39.063  37.356912     1.4565      8.471   230.1070 5.5572e+02     5.1962     -0.084     -0.121    22.8172 0.0000e+00
     -0.083      0.010     8.5251     98.850     39.061  37.356902     1.4988      8.470   230.0024 5.3994e+02     5.2136     -0.081     -0.118    22.8143 0.0000e+00
     -0.080      0.008     8.5198     98.820     39.061  37.356893     1.5465      8.469   229.9267 5.2092e+02     5.1782     -0.079     -0.115    22.8103 0.0000e+00
     -0.077      0.005     8.5150     98.748     39.062  37.356798     1.5584      8.469   229.8798 5.3423e+02     5.1448     -0.075     -0.109    22.8097 0.0000e+00
     -0.076      0.001     8.5130     98.701     39.063  37.355758     1.5597      8.469   229.8663 5.4028e+02     5.1514     -0.073     -0.106    22.8113 0.0000e+00
     -0.076     -0.002     8.5057     98.724     39.055  37.344316     1.5614      8.470   229.8492 5.2530e+02     5.1558     -0.074     -0.107    22.8131 0.0000e+00
     -0.078     -0.005     8.5096     98.768     39.059  37.345355     1.5377      8.471   229.8442 5.2810e+02     5.1628     -0.076     -0.111    22.8139 0.0000e+00
     -0.081     -0.006     8.4984     98.828     39.085  37.368316     1.5152      8.471   229.8917 5.5661e+02     5.2364     -0.079     -0.115    22.8137 0.0000e+00
     -0.083     -0.006     8.4913     98.857     39.087  37.368117     1.4974      8.471   229.8215 5.6027e+02     5.2940     -0.082     -0.119    22.8105 0.0000e+00
     -0.085     -0.004     8.5015     98.898     39.064  37.342945     1.4885      8.471   229.5982 5.4724e+02     5.3469     -0.084     -0.122    22.8040 0.0000e+00
     -0.087     -0.001     8.4994     98.982     39.044  37.317783     1.5155      8.471   229.5144 5.4269e+02     5.3976     -0.085     -0.123    22.8000 0.0000e+00
     -0.087      0.003     8.5129     99.027     39.048  37.317689     1.5408      8.472   229.5831 5.3311e+02     5.3611     -0.086     -0.125    22.7984 0.0000e+00
     -0.085      0.006     8.5104     99.042     39.073  37.341804     1.5364      8.472   229.5683 5.2725e+02     5.3152     -0.083     -0.122    22.7976 0.0000e+00
     -0.081      0.008     8.5124     99.076     39.086  37.355534     1.5373      8.472   229.5077 5.3067e+02     5.3209     -0.080     -0.116    22.7926 0.0000e+00
     -0.079      0.010     8.5277     99.110     39.083  37.356791     1.5514      8.473   229.4529 5.2903e+02     5.2927     -0.077     -0.112    22.7826 0.0000e+00
     -0.076      0.010     8.5301     99.112     39.079  37.357007     1.5576      8.474   229.3353 5.2648e+02     5.1800     -0.074     -0.107    22.7777 0.0000e+00
     -0.073      0.009     8.5290     99.076     39.078  37.358161     1.5459      8.474   229.2042 5.2928e+02     5.0845     -0.071     -0.104    22.7789 0.0000e+00
     -0.071      0.007     8.5328     99.021     39.089  37.370737     1.5344      8.476   229.1590 5.2869e+02     5.0612     -0.069     -0.101    22.7806 0.0000e+00
     -0.069      0.007     8.5367     98.991     39.099  37.382161     1.5432      8.476   229.2186 5.2543e+02     5.1369     -0.068     -0.099    22.7861 0.0000e+00
     -0.069      0.007     8.5348     98.983     39.080  37.369374     1.5609      8.476   229.3225 5.1834e+02     5.3166     -0.068     -0.098    22.7931 0.0000e+00
     -0.068      0.007     8.5322     98.969     39.048  37.343046     1.5657      8.476   229.2965 5.1437e+02     5.4238     -0.066     -0.096    22.7955 0.0000e+00
     -0.066      0.006     8.5237     98.909     39.023  37.317665     1.5592      8.475   229.2490 5.1994e+02     5.4079     -0.064     -0.092    22.7961 0.0000e+00
     -0.063      0.006     8.5229     98.829     39.028  37.316303     1.6079      8.474   229.3502 5.1926e+02     5.3291     -0.062     -0.089    22.7980 0.0000e+00
     -0.061      0.005     8.5201     98.804     39.045  37.326573     1.7214      8.474   229.4021 5.1020e+02     5.2230     -0.059     -0.086    22.8065 0.0000e+00
     -0.059      0.004     8.5204     98.832     39.039  37.314922     1.7910      8.474   229.3600 5.0595e+02     5.1841     -0.058     -0.084    22.8147 0.0000e+00
     -0.059      0.002     8.5152     98.869     39.032  37.302337     1.7915      8.475   229.3566 5.1022e+02     5.1665     -0.058     -0.084    22.8118 0.0000e+00
     -0.059      0.000     8.5053     98.889     39.038  37.301299     1.7779      8.475   229.4474 5.2568e+02     5.1465     -0.058     -0.085    22.8014 0.0000e+00
     -0.059     -0.002     8.5064     98.923     39.044  37.302359     1.7519      8.474   229.5122 5.4244e+02     5.1809     -0.058     -0.084    22.7928 0.0000e+00
     -0.060     -0.004     8.5102     98.995     39.057  37.315154     1.7097      8.474   229.5376 5.4644e+02     5.2068     -0.058     -0.084    22.7876 0.0000e+00
     -0.061     -0.006     8.5172     99.077     39.066  37.329092     1.6918      8.473   229.6678 5.5819e+02     5.2213     -0.059     -0.086    22.7786 0.0000e+00
     -0.063     -0.007     8.5183     99.146     39.070  37.343984     1.6935      8.473   229.7956 5.7707e+02     5.2192     -0.062     -0.090    22.7679 0.0000e+00
     -0.065     -0.008     8.5210     99.172     39.084  37.368316     1.6635      8.474   229.7923 5.8282e+02     5.2498     -0.063     -0.092    22.7620 0.0000e+00
     -0.068     -0.008     8.5294     99.134     39.075  37.369487     1.6293      8.474   229.8002 5.8682e+02     5.3859     -0.066     -0.095    22.7618 0.0000e+00
     -0.071     -0.007     8.5353     99.068     39.057  37.358159     1.6295      8.473   229.8052 5.8746e+02     5.4639     -0.069     -0.101    22.7685 0.0000e+00
     -0.073     -0.005     8.5393     98.976     39.053  37.358264     1.6321      8.473   229.6809 5.9019e+02     5.4424     -0.071     -0.104    22.7848 0.0000e+00
     -0.074     -0.003     8.5409     98.821     39.066  37.370765     1.6195      8.473   229.5884 6.0384e+02     5.3648     -0.072     -0.105    22.8019 0.0000e+00
     -0.074     -0.001     8.5329     98.672     39.081  37.382399     1.6107      8.474   229.6326 6.1602e+02     5.2092     -0.072     -0.104    22.8132 0.0000e+00
     -0.073      0.001     8.5258     98.602     39.073  37.372014     1.6174      8.475   229.6992 6.1560e+02     5.1321     -0.071     -0.103    22.8206 0.0000e+00
     -0.072      0.002     8.5203     98.574     39.075  37.372110     1.6335      8.477   229.7053 6.1234e+02     5.1491     -0.070     -0.104    22.8259 0.0000e+00
     -0.071      0.002     8.5042     98.635     39.090  37.383554     1.6394      8.477   229.7068 6.2203e+02     5.1071     -0.069     -0.100    22.8260 0.0000e+00
     -0.071      0.002     8.4863     98.748     39.091  37.383469     1.6221      8.476   229.8033 6.2289e+02     5.0691     -0.070     -0.101    22.8210 0.0000e+00
     -0.070      0.001     8.4877     98.768     39.077  37.371083     1.5990      8.476   229.9250 6.0662e+02     5.0998     -0.069     -0.102    22.8173 0.0000e+00
     -0.069      0.000     8.4810     98.800     39.061  37.360708     1.6007      8.476   229.8885 5.9871e+02     5.1368     -0.068     -0.098    22.8149 0.0000e+00
     -0.069     -0.001     8.4844     98.899     39.079  37.384936     1.6172      8.475   229.7917 6.1025e+02     5.1407     -0.067     -0.097    22.8125 0.0000e+00
     -0.070     -0.001     8.5091     98.966     39.099  37.410211     1.6252      8.475   229.7868 6.1556e+02     5.1122     -0.068     -0.099    22.8097 0.0000e+00
     -0.072     -0.001     8.4987     98.948     39.098  37.412509     1.6224      8.475   229.8288 5.9292e+02     5.0993     -0.070     -0.102    22.8087 0.0000e+00
     -0.072      0.000     8.5002     98.871     39.093  37.412718     1.6081      8.476   229.8694 5.7178e+02     5.1217     -0.071     -0.104    22.8167 0.0000e+00
     -0.072      0.002     8.5123     98.833     39.089  37.412745     1.6184      8.477   229.8481 5.7285e+02     5.2129     -0.071     -0.103    22.8294 0.0000e+00
     -0.071      0.005     8.5168     98.852     39.087  37.412841     1.6549      8.477   229.6572 5.7993e+02     5.3136     -0.070     -0.102    22.8349 0.0000e+00
     -0.069      0.007     8.5165     98.902     39.089  37.413881     1.6667      8.477   229.5399 5.7803e+02     5.3151     -0.068     -0.100    22.8386 0.0000e+00
     -0.066      0.007     8.5014     98.955     39.104  37.425322     1.6618      8.478   229.8069 5.6995e+02     5.2990     -0.065     -0.094    22.8460 0.0000e+00
     -0.063      0.007     8.4993     98.978     39.105  37.424264     1.6623      8.478   230.0459 5.6132e+02     5.2892     -0.062     -0.090    22.8527 0.0000e+00
     -0.061      0.006     8.5007     98.977     39.083  37.401086     1.6983      8.478   230.0201 5.6217e+02     5.2311     -0.058     -0.086    22.8544 0.0000e+00
     -0.059      0.004     8.5061     98.970     39.085  37.398893     1.7636      8.477   230.0118 5.7751e+02     5.1431     -0.057     -0.083    22.8520 0.0000e+00
     -0.059      0.001     8.5129     98.968     39.090  37.397740     1.7863      8.477   230.1177 5.8034e+02     5.0795     -0.058     -0.084    22.8494 0.0000e+00
     -0.060     -0.001     8.5146     98.958     39.088  37.387130     1.7724      8.477   229.9240 5.7201e+02     5.0768     -0.059     -0.086    22.8461 0.0000e+00
     -0.061     -0.002     8.5147     98.928     39.107  37.397503     1.7464      8.478   229.3907 5.6985e+02     5.1785     -0.060     -0.087    22.8427 0.0000e+00
     -0.062     -0.003     8.5139     98.909     39.110  37.396244     1.7129      8.479   229.4340 5.6639e+02     5.3526     -0.060     -0.087    22.8389 0.0000e+00
     -0.063     -0.003     8.5158     98.920     39.083  37.371902     1.6917      8.479   229.9307 5.6417e+02     5.4056     -0.062     -0.089    22.8316 0.0000e+00
     -0.063     -0.002     8.5175     98.888     39.063  37.357006     1.6737      8.479   230.1479 5.7254e+02     5.3420     -0.062     -0.090    22.8192 0.0000e+00
     -0.064     -0.001     8.5165     98.850     39.045  37.343056     1.6699      8.479   230.1671 5.8035e+02     5.3007     -0.063     -0.091    22.8062 0.0000e+00
     -0.064     -0.001     8.5119     98.898     39.033  37.330147     1.6868      8.479   230.0775 5.7629e+02     5.2475     -0.063     -0.092    22.8015 0.0000e+00
     -0.064     -0.001     8.5187     98.945     39.038  37.327832     1.6944      8.478   230.0105 5.6951e+02     5.1774     -0.063     -0.091    22.8039 0.0000e+00
     -0.063     -0.002     8.5139     98.950     39.041  37.315047     1.6870      8.478   230.1314 5.6087e+02     5.1361     -0.062     -0.090    22.8113 0.0000e+00
     -0.063     -0.003     8.5009     98.968     39.043  37.302454     1.6811      8.479   230.2493 5.5404e+02     5.1919     -0.062     -0.090    22.8169 0.0000e+00
     -0.064     -0.003     8.5138     99.008     39.050  37.302454     1.6807      8.479   229.8012 5.5930e+02     5.3734     -0.063     -0.091    22.8176 0.0000e+00
     -0.067     -0.002     8.5191     99.087     39.064  37.315039     1.6823      8.480   228.8435 5.7179e+02     5.4854     -0.066     -0.095    22.8097 0.0000e+00
     -0.069      0.001     8.5198     99.182     39.078  37.327709     1.6844      8.480   228.2198 5.8356e+02     5.4541     -0.069     -0.099    22.7837 0.0000e+00
     -0.070      0.006     8.5275     99.228     39.080  37.328747     1.7054      8.479   228.0243 5.8782e+02     5.4043     -0.069     -0.101    22.7597 0.0000e+00
     -0.067      0.011     8.5297     99.231     39.081  37.327584     1.7539      8.478   227.9433 5.8169e+02     5.3962     -0.066     -0.097    22.7538 0.0000e+00
     -0.062      0.015     8.5369     99.207     39.066  37.313646     1.7960      8.478   227.9285 5.7910e+02     5.4241     -0.061     -0.088    22.7557 0.0000e+00
     -0.056      0.017     8.5491     99.170     39.037  37.287121     1.8060      8.479   227.9314 5.7474e+02     5.4004     -0.055     -0.080    22.7557 0.0000e+00
     -0.050      0.015     8.5515     99.158     39.013  37.260702     1.7924      8.480   227.9788 5.5777e+02     5.3149     -0.048     -0.070    22.7543 0.0000e+00
     -0.045      0.010     8.5516     99.146     39.013  37.248023     1.7646      8.479   227.9843 5.4806e+02     5.2100     -0.044     -0.062    22.7502 0.0000e+00
     -0.042      0.002     8.5509     99.089     39.041  37.260714     1.7364      8.479   227.9128 5.4645e+02     5.1224     -0.041     -0.059    22.7498 0.0000e+00
     -0.042     -0.010     8.5431     99.047     39.074  37.287220     1.7341      8.478   227.9735 5.3605e+02     5.1437     -0.040     -0.058    22.7564 0.0000e+00
     -0.044     -0.025     8.5442     99.073     39.099  37.314680     1.7366      8.477   228.2022 5.2129e+02     5.1605     -0.042     -0.061    22.7530 0.0000e+00
     -0.050     -0.037     8.5498     99.142     39.116  37.338914     1.6924      8.474   228.5273 5.2428e+02     5.1543     -0.047     -0.070    22.7329 0.0000e+00
     -0.062     -0.046     8.5447     99.210     39.096  37.326431     1.6241      8.470   228.6350 5.6420e+02     5.2394     -0.058     -0.084    22.7103 0.0000e+00
     -0.082     -0.050     8.5400     99.231     39.054  37.290667     1.6015      8.468   228.3004 6.0965e+02     5.3359     -0.080     -0.114    22.7033 0.0000e+00
     -0.103     -0.048     8.5432     99.201     39.047  37.287225     1.6192      8.467   228.0950 6.0685e+02     5.4333     -0.105     -0.153    22.7114 0.0000e+00
     -0.116     -0.041     8.5476     99.174     39.042  37.284822     1.6127      8.468   228.3030 5.9540e+02     5.4599     -0.116     -0.168    22.7240 0.0000e+00
     -0.124     -0.027     8.5535     99.150     39.019  37.261617     1.5727      8.468   228.4913 6.5022e+02     5.3851     -0.122     -0.176    22.7345 0.0000e+00
     -0.130     -0.008     8.5562     99.092     39.025  37.260463     1.5435      8.468   228.4784 7.3319e+02     5.3480     -0.129     -0.188    22.7369 0.0000e+00
     -0.131      0.009     8.5494     99.032     39.046  37.270855     1.5517      8.468   228.4912 7.7536e+02     5.3875     -0.131     -0.190    22.7392 0.0000e+00
     -0.126      0.020     8.5463     99.014     39.042  37.260350     1.6133      8.467   228.5602 7.5040e+02     5.4523     -0.126     -0.183    22.7453 0.0000e+00
     -0.114      0.026     8.5476     99.051     39.044  37.260350     1.6883      8.466   228.5390 6.7654e+02     5.4487     -0.113     -0.164    22.7456 0.0000e+00
     -0.099      0.026     8.5412     99.136     39.055  37.270847     1.7189      8.466   228.4926 6.2808e+02     5.4125     -0.095     -0.138    22.7360 0.0000e+00
     -0.089      0.022     8.5379     99.216     39.043  37.260359     1.7257      8.467   228.5155 6.2633e+02     5.3899     -0.086     -0.124    22.7188 0.0000e+00
     -0.086      0.015     8.5374     99.239     39.043  37.260453     1.7202      8.469   228.5580 6.3721e+02     5.3127     -0.083     -0.120    22.7103 0.0000e+00
     -0.087      0.005     8.5402     99.199     39.054  37.271989     1.7017      8.471   228.4910 6.3777e+02     5.1958     -0.085     -0.123    22.7110 0.0000e+00
     -0.089     -0.002     8.5495     99.134     39.054  37.272934     1.6854      8.472   228.3070 6.3741e+02     5.1040     -0.088     -0.128    22.7111 0.0000e+00
     -0.091     -0.005     8.5586     99.071     39.056  37.271876     1.6725      8.472   228.1403 6.4213e+02     5.0904     -0.089     -0.129    22.7110 0.0000e+00
     -0.094     -0.003     8.5608     99.036     39.046  37.259196     1.6701      8.472   228.1101 6.4817e+02     5.1339     -0.091     -0.132    22.7114 0.0000e+00
     -0.097      0.004     8.5550     99.032     39.035  37.246516     1.7061      8.473   228.1999 6.6014e+02     5.2209     -0.096     -0.139    22.7132 0.0000e+00
     -0.099      0.012     8.5485     99.055     39.036  37.245466     1.7747      8.473   228.2789 6.6484e+02     5.3555     -0.099     -0.144    22.7163 0.0000e+00
     -0.095      0.019     8.5429     99.124     39.042  37.246506     1.8087      8.473   228.2913 6.7541e+02     5.3958     -0.096     -0.139    22.7124 0.0000e+00
     -0.086      0.023     8.5407     99.223     39.059  37.259084     1.7930      8.473   228.3493 6.7829e+02     5.3659     -0.085     -0.124    22.7033 0.0000e+00
     -0.073      0.023     8.5418     99.312     39.071  37.270629     1.8099      8.473   228.4646 6.4818e+02     5.4047     -0.070     -0.102    22.7036 0.0000e+00
     -0.063      0.020     8.5417     99.385     39.058  37.259196     1.8805      8.473   228.4796 6.3732e+02     5.4547     -0.058     -0.085    22.7037 0.0000e+00
     -0.059      0.013     8.5500     99.400     39.045  37.247754     1.9303      8.473   228.4458 6.4950e+02     5.4242     -0.056     -0.082    22.6947 0.0000e+00
     -0.060      0.006     8.5620     99.333     39.054  37.259196     1.9293      8.474   228.4867 6.4030e+02     5.3427     -0.058     -0.084    22.6881 0.0000e+00
     -0.062      0.001     8.5679     99.258     39.064  37.270628     1.8851      8.475   228.5436 6.3517e+02     5.2900     -0.060     -0.086    22.6891 0.0000e+00
     -0.065      0.000     8.5756     99.228     39.052  37.259083     1.8374      8.475   228.5309 6.6337e+02     5.2303     -0.065     -0.092    22.6923 0.0000e+00
     -0.066      0.002     8.5791     99.227     39.043  37.246505     1.8094      8.474   228.5056 6.7800e+02     5.1672     -0.066     -0.096    22.6930 0.0000e+00
     -0.065      0.006     8.5690     99.238     39.049  37.245457     1.7888      8.473   228.5817 6.4967e+02     5.1422     -0.065     -0.094    22.6957 0.0000e+00
     -0.061      0.008     8.5590     99.238     39.054  37.246395     1.7957      8.473   228.6775 6.2270e+02     5.0986     -0.061     -0.088    22.7004 0.0000e+00
     -0.056      0.009     8.5591     99.238     39.064  37.257836     1.8268      8.473   228.6305 6.0748e+02     5.0839     -0.054     -0.079    22.7008 0.0000e+00
     -0.053      0.009     8.5588     99.289     39.058  37.256890     1.8565      8.474   228.5304 6.0745e+02     5.1358     -0.051     -0.073    22.6965 0.0000e+00
     -0.052      0.008     8.5630     99.374     39.033  37.234960     1.8635      8.474   228.4995 6.2778e+02     5.1446     -0.050     -0.072    22.6861 0.0000e+00
     -0.052      0.005     8.5649     99.444     39.045  37.246507     1.8444      8.474   228.5151 6.3530e+02     5.1566     -0.051     -0.074    22.6762 0.0000e+00
     -0.051      0.001     8.5604     99.489     39.068  37.269589     1.8339      8.475   228.5465 6.3671e+02     5.2471     -0.050     -0.072    22.6813 0.0000e+00
     -0.049     -0.002     8.5647     99.495     39.057  37.260235     1.8445      8.475   228.6207 6.4703e+02     5.3503     -0.048     -0.069    22.6908 0.0000e+00
     -0.049     -0.007     8.5743     99.453     39.055  37.260319     1.8570      8.474   228.7239 6.5959e+02     5.4136     -0.047     -0.068    22.6923 0.0000e+00
     -0.052     -0.010     8.5796     99.394     39.061  37.270605     1.8598      8.474   228.7626 6.8341e+02     5.3976     -0.051     -0.073    22.6908 0.0000e+00
     -0.055     -0.008     8.5844     99.332     39.040  37.257705     1.8706      8.474   228.4862 7.1786e+02     5.3278     -0.054     -0.078    22.6917 0.0000e+00
     -0.061     -0.001     8.5852     99.232     39.010  37.231255     1.8954      8.472   227.9622 7.4143e+02     5.2533     -0.057     -0.083    22.6947 0.0000e+00
     -0.068      0.012     8.5795     99.115     38.992  37.204624     1.9097      8.470   227.3327 8.0223e+02     5.2140     -0.069     -0.099    22.6961 0.0000e+00
     -0.068      0.026     8.5729     99.061     38.995  37.189524     1.9187      8.470   226.4676 8.7531e+02     5.2285     -0.074     -0.106    22.7009 0.0000e+00
     -0.055      0.038     8.5676     99.066     39.000  37.175556     1.9210      8.469   225.8479 8.3919e+02     5.2579     -0.058     -0.083    22.7124 0.0000e+00
     -0.035      0.047     8.5583     99.085     39.000  37.162621     1.9126      8.469   225.6042 7.8499e+02     5.3306     -0.033     -0.048    22.7206 0.0000e+00
     -0.014      0.054     8.5446     99.135     39.005  37.160008     1.9092      8.469   225.4129 7.9719e+02     5.4239     -0.012     -0.018    22.7076 0.0000e+00
      0.001      0.061     8.5467     99.230     38.997  37.143951     1.9132      8.468   225.2565 8.1969e+02     5.4640      0.005      0.006    22.6777 0.0000e+00
      0.009      0.069     8.5536     99.333     38.964  37.095382     1.9444      8.467   225.1757 7.9668e+02     5.4396      0.010      0.015    22.6529 0.0000e+00
      0.016      0.079     8.5561     99.418     38.910  37.016913     1.9869      8.465   225.2103 7.0155e+02     5.3674      0.011      0.016    22.6357 0.0000e+00
      0.035      0.090     8.5607     99.477     38.886  36.956592     2.0024      8.465   225.2450 6.0156e+02     5.3768      0.029      0.042    22.6305 0.0000e+00
      0.065      0.101     8.5717     99.489     38.906  36.937069     2.0157      8.466   225.3373 5.5888e+02     5.4505      0.061      0.089    22.6235 0.0000e+00
      0.103      0.110     8.5857     99.474     38.914  36.907715     2.0644      8.466   225.6379 5.9147e+02     5.4737      0.100      0.145    22.6011 0.0000e+00
      0.139      0.117     8.5971     99.457     38.896  36.855425     2.1248      8.467   226.1262 6.6797e+02     5.4525      0.142      0.204    22.5679 0.0000e+00
      0.168      0.118     8.6135     99.431     38.890  36.812406     2.1466      8.469   226.6804 6.7595e+02     5.3985      0.168      0.243    22.5157 0.0000e+00
      0.190      0.116     8.6216     99.387     38.884  36.768239     2.1449      8.471   227.2631 6.0448e+02     5.4013      0.184      0.266    22.4618 0.0000e+00
      0.215      0.114     8.6265     99.324     38.846  36.702074     2.1874      8.472   227.9234 5.7009e+02     5.4521      0.207      0.300    22.4168 0.0000e+00
      0.248      0.114     8.6335     99.241     38.820  36.646891     2.2779      8.473   228.5549 5.5905e+02     5.4665      0.245      0.356    22.3729 0.0000e+00
      0.279      0.117     8.6388     99.117     38.824  36.608605     2.3232      8.475   229.0475 5.1176e+02     5.4390      0.276      0.401    22.3252 0.0000e+00
      0.309      0.123     8.6447     98.921     38.814  36.556352     2.3110      8.476   229.4054 4.5698e+02     5.3582      0.300      0.435    22.2687 0.0000e+00
      0.339      0.128     8.6447     98.623     38.813  36.522666     2.3382      8.477   229.6993 4.2876e+02     5.3780      0.334      0.484    22.2326 0.0000e+00
      0.370      0.130     8.6429     98.229     38.838  36.518523     2.4022      8.478   229.9336 4.2284e+02     5.5419      0.362      0.526    22.2069 0.0000e+00
      0.404      0.131     8.6432     97.796     38.848  36.506223     2.4277      8.479   230.1734 4.1944e+02     5.6321      0.393      0.570    22.1430 0.0000e+00
      0.444      0.132     8.6384     97.381     38.859  36.500822     2.4214      8.480   230.5341 4.0788e+02     5.6151      0.437      0.633    22.0782 0.0000e+00
      0.481      0.133     8.6184     97.004     38.889  36.516651     2.4179      8.481   230.8536 3.8751e+02     5.5754      0.476      0.690    22.0421 0.0000e+00
      0.511      0.133     8.5871     96.666     38.890  36.507228     2.4187      8.482   231.1101 3.7680e+02     5.5269      0.501      0.726    22.0081 0.0000e+00
      0.539      0.132     8.5524     96.377     38.841  36.450324     2.4137      8.482   231.4856 3.6970e+02     5.4724      0.526      0.762    21.9778 0.0000e+00
      0.574      0.132     8.5187     96.178     38.797  36.399678     2.3999      8.482   231.8657 3.5629e+02     5.3958      0.562      0.815    21.9588 0.0000e+00
      0.611      0.134     8.4881     96.084     38.812  36.402467     2.3849      8.482   232.1782 3.4705e+02     5.3177      0.602      0.874    21.9450 0.0000e+00
      0.645      0.136     8.4610     96.042     38.842  36.420579     2.3568      8.482   232.5100 3.4111e+02     5.3818      0.632      0.917    21.9310 0.0000e+00
      0.678      0.136     8.4361     96.020     38.859  36.428302     2.3260      8.482   232.7804 3.3617e+02     5.5908      0.663      0.961    21.9174 0.0000e+00
      0.715      0.135     8.4194     96.045     38.869  36.432386     2.3287      8.482   232.9522 3.3438e+02     5.6919      0.703      1.019    21.9046 0.0000e+00
      0.752      0.135     8.4166     96.123     38.843  36.406494     2.3400      8.482   233.1254 3.3199e+02     5.6143      0.739      1.072    21.8900 0.0000e+00
      0.784      0.138     8.4164     96.198     38.805  36.369050     2.3803      8.482   233.3254 3.1908e+02     5.5747      0.769      1.116    21.8766 0.0000e+00
      0.814      0.142     8.4146     96.248     38.804  36.360352     2.4655      8.482   233.5624 2.9492e+02     5.6570      0.795      1.154    21.8656 0.0000e+00
      0.849      0.145     8.4169     96.308     38.821  36.364771     2.5131      8.483   233.8400 2.7507e+02     5.7207      0.828      1.201    21.8579 0.0000e+00
      0.891      0.150     8.4273     96.405     38.829  36.359012     2.5233      8.483   234.0153 2.6518e+02     5.6963      0.873      1.267    21.8581 0.0000e+00
      0.933      0.156     8.4343     96.555     38.836  36.354144     2.5306      8.483   234.1339 2.5893e+02     5.6348      0.918      1.331    21.8590 0.0000e+00
      0.972      0.162     8.4380     96.730     38.864  36.369351     2.5425      8.483   234.3276 2.5268e+02     5.6268      0.953      1.383    21.8486 0.0000e+00
      1.010      0.164     8.4465     96.899     38.926  36.415963     2.5590      8.483   234.5503 2.4465e+02     5.7025      0.989      1.435    21.8306 0.0000e+00
      1.053      0.163     8.4558     97.018     39.001  36.473548     2.5637      8.484   234.7614 2.3491e+02     5.7640      1.033      1.498    21.8133 0.0000e+00
      1.099      0.161     8.4738     97.050     39.039  36.494525     2.5738      8.485   234.9012 2.2631e+02     5.8232      1.078      1.564    21.7979 0.0000e+00
      1.143      0.157     8.4918     96.997     39.039  36.479210     2.5907      8.486   234.9496 2.2346e+02     5.9402      1.124      1.630    21.7845 0.0000e+00
      1.183      0.148     8.5095     96.794     39.055  36.478713     2.6017      8.487   235.0027 2.2386e+02     6.0525      1.162      1.685    21.7729 0.0000e+00
      1.218      0.135     8.5257     96.344     39.081  36.488495     2.6152      8.487   235.1126 2.1997e+02     6.1219      1.193      1.731    21.7559 0.0000e+00
      1.254      0.120     8.5290     95.642     39.078  36.470560     2.6205      8.487   235.1603 2.1324e+02     6.1298      1.231      1.785    21.7358 0.0000e+00
      1.285      0.105     8.5307     94.778     39.077  36.452200     2.5902      8.487   234.9776 2.0946e+02     6.1129      1.266      1.836    21.7162 0.0000e+00
      1.307      0.095     8.5202     93.868     39.102  36.456832     2.5317      8.484   234.7960 2.0865e+02     6.0895      1.284      1.861    21.6960 0.0000e+00
      1.325      0.091     8.4837     92.992     39.128  36.463088     2.5046      8.483   234.6851 2.0875e+02     6.0858      1.297      1.882    21.6783 0.0000e+00
      1.342      0.095     8.4215     92.172     39.152  36.464358     2.5202      8.491   234.8412 2.0958e+02     6.1363      1.317      1.912    21.6589 0.0000e+00
      1.360      0.104     8.3453     91.386     39.190  36.472158     2.5541      8.500   235.7369 2.0857e+02     6.1538      1.331      1.931    21.6364 0.0000e+00
      1.385      0.116     8.2666     90.686     39.248  36.493909     2.5982      8.501   236.6533 2.0228e+02     6.1253      1.352      1.961    21.6121 0.0000e+00
      1.422      0.130     8.1916     90.188     39.329  36.536946     2.6126      8.499   236.8873 1.9399e+02     6.0993      1.394      2.021    21.5897 0.0000e+00
      1.465      0.143     8.1261     89.903     39.442  36.611760     2.6111      8.498   236.7595 1.8916e+02     6.1136      1.441      2.090    21.5649 0.0000e+00
      1.503      0.151     8.0603     89.711     39.568  36.700457     2.6390      8.495   236.8282 1.8674e+02     6.2989      1.477      2.143    21.5307 0.0000e+00
      1.538      0.151     7.9997     89.521     39.686  36.784455     2.6660      8.493   237.1157 1.8239e+02     6.5973      1.505      2.182    21.4868 0.0000e+00
      1.581      0.141     7.9620     89.353     39.799  36.865899     2.6645      8.492   237.3975 1.7607e+02     6.7484      1.549      2.246    21.4436 0.0000e+00
      1.626      0.126     7.9478     89.252     39.886  36.923727     2.6533      8.491   237.8260 1.7115e+02     6.7940      1.600      2.320    21.4064 0.0000e+00
      1.660      0.112     7.9407     89.233     39.962  36.975992     2.6308      8.490   238.3383 1.6932e+02     7.0135      1.633      2.368    21.3688 0.0000e+00
      1.682      0.100     7.9261     89.263     40.060  37.053630     2.5923      8.491   238.6016 1.6907e+02     7.3520      1.652      2.395    21.3377 0.0000e+00
      1.697      0.092     7.9145     89.288     40.263  37.227886     2.5618      8.492   238.5141 1.6869e+02     7.5046      1.664      2.414    21.3101 0.0000e+00
      1.711      0.091     7.9093     89.276     40.783  37.686904     2.5375      8.492   238.3990 1.6861e+02     7.5274      1.677      2.432    21.2797 0.0000e+00
      1.729      0.097     7.9123     89.180     41.473  38.288562     2.3896      8.492   238.4137 1.6788e+02     7.8324      1.692      2.454    21.2550 0.0000e+00
      1.757      0.110     7.9199     88.964     41.873  38.600980     2.1302      8.492   238.5203 1.6538e+02     8.4251      1.720      2.495    21.2433 0.0000e+00
      1.792      0.125     7.9236     88.585     41.898  38.545210     1.9892      8.492   238.7428 1.6310e+02     8.7500      1.757      2.548    21.2299 0.0000e+00
      1.828      0.137     7.9288     87.928     41.750  38.312187     1.9659      8.492   238.9523 1.6183e+02     8.7201      1.793      2.600    21.2044 0.0000e+00
      1.864      0.145     7.9274     86.881     41.740  38.194786     1.9658      8.492   239.1602 1.6002e+02     8.6791      1.828      2.651    21.1668 0.0000e+00
      1.902      0.147     7.9188     85.415     41.939  38.267806     2.0308      8.492   239.5355 1.5682e+02     8.8340      1.865      2.704    21.0974 0.0000e+00
      1.943      0.147     7.9045     83.528     42.091  38.306510     2.1436      8.491   239.9626 1.5374e+02     9.1244      1.906      2.766    21.0008 0.0000e+00
      1.983      0.146     7.8686     81.366     42.163  38.281884     2.1974      8.491   240.2801 1.5259e+02     9.2519      1.946      2.823    20.8846 0.0000e+00
      2.018      0.144     7.7946     79.227     42.047  38.096845     2.2060      8.491   240.7066 1.5240e+02     9.2150      1.980      2.871    20.7491 0.0000e+00
      2.053      0.142     7.6856     77.200     41.714  37.718992     2.3897      8.492   241.1624 1.5119e+02     9.3607      2.012      2.918    20.6141 0.0000e+00
      2.088      0.142     7.5306     75.048     41.529  37.457124     2.7287      8.492   241.4031 1.4951e+02     9.7158      2.048      2.970    20.4943 0.0000e+00
      2.123      0.143     7.3374     72.598     41.612  37.405286     2.9089      8.493   241.6374 1.4880e+02     9.9218      2.082      3.020    20.3881 0.0000e+00
      2.159      0.146     7.1532     69.863     41.772  37.409335     2.9364      8.494   242.0169 1.4805e+02     9.9388      2.114      3.068    20.2919 0.0000e+00
      2.198      0.147     6.9938     66.814     41.900  37.378982     3.1954      8.494   242.5500 1.4640e+02     9.9563      2.155      3.127    20.2155 0.0000e+00
      2.236      0.145     6.8198     63.444     41.968  37.291922     3.7094      8.494   243.1785 1.4384e+02    10.0650      2.192      3.180    20.1115 0.0000e+00
      2.275      0.140     6.6142     59.854     41.925  37.117957     4.0584      8.495   243.7651 1.4019e+02    10.1938      2.229      3.234    19.9445 0.0000e+00
      2.315      0.134     6.3899     56.050     41.774  36.861759     4.6931      8.496   244.2225 1.3667e+02    10.3863      2.274      3.299    19.7742 0.0000e+00
      2.347      0.129     6.1346     52.143     41.625  36.605344    11.3257      8.497   244.2343 1.3342e+02    12.3233      2.305      3.343    19.6053 0.0000e+00
      2.373      0.124     5.8399     48.563     41.580  36.428720    23.4939      8.499   243.9084 1.2864e+02    15.9198      2.326      3.375    19.4180 0.0000e+00
      2.401      0.118     5.5297     45.623     41.680  36.375795    30.2496      8.501   243.9818 1.2219e+02    18.1404      2.353      3.414    19.2526 0.0000e+00
      2.432      0.111     5.1956     43.369     41.873  36.409424    32.1250      8.502   244.4334 1.1541e+02    20.9998      2.384      3.458    19.1190 0.0000e+00
      2.464      0.102     4.8244     41.720     42.065  36.454439    46.0449      8.502   244.8087 1.0828e+02    50.0487      2.417      3.506    18.9755 0.0000e+00
      2.494      0.090     4.4999     40.549     42.204  36.475734    71.4592      8.501   245.3366 1.0075e+02   103.1981      2.448      3.551    18.8004 0.0000e+00
      2.519      0.075     4.2406     39.777     42.279  36.476423    85.3032      8.500   246.0837 9.5708e+01   132.1381      2.474      3.588    18.6314 0.0000e+00
      2.534      0.057     4.0450     39.304     42.364  36.526148    86.3957      8.499   246.7005 9.4775e+01   134.7456      2.488      3.608    18.4680 0.0000e+00
      2.543      0.040     3.9100     39.034     42.558  36.696207    84.7268      8.497   247.1164 9.5882e+01   134.0769      2.495      3.619    18.3158 0.0000e+00
      2.548      0.026     3.8084     38.898     42.757  36.882814    65.2080      8.494   247.3256 9.7680e+01   123.5406      2.500      3.625    18.1954 0.0000e+00
      2.551      0.016     3.7477     38.875     42.796  36.942264    29.4175      8.491   247.2506 9.9743e+01   104.2617      2.502      3.629    18.1137 0.0000e+00
      2.553      0.011     3.7060     38.990     42.719  36.907420     9.8809      8.489   246.8991 1.0141e+02    93.6019      2.504      3.632    18.0959 0.0000e+00
      2.555      0.008     3.6832     39.244     42.607  36.842283     7.9307      8.489   246.7742 1.0281e+02    90.8464      2.505      3.634    18.1060 0.0000e+00
      2.556      0.006     3.6697     39.619     42.508  36.789274     5.9292      8.488   246.9447 1.0394e+02    70.7754      2.507      3.635    18.1201 0.0000e+00
      2.558      0.005     3.6634     40.112     42.446  36.774161     2.5439      8.486   246.8106 1.0472e+02    34.0534      2.509      3.637    18.1525 0.0000e+00
      2.559      0.005     3.6712     40.722     42.409  36.786513     0.6988      8.486   246.5290 1.0565e+02    13.9897      2.509      3.639    18.1956 0.0000e+00
      2.561      0.004     3.6940     41.443     42.379  36.811763     0.5248      8.485   246.5519 1.0690e+02    12.0319      2.510      3.641    18.2294 0.0000e+00
      2.561      0.003     3.7255     42.231     42.329  36.825713     0.4321      8.484   246.7429 1.0771e+02    10.3136      2.512      3.643    18.2659 0.0000e+00
      2.562      0.002     3.7693     43.017     42.270  36.828351     0.3015      8.482   246.7731 1.0778e+02     7.4591      2.512      3.644    18.3110 0.0000e+00
      2.562      0.001     3.8222     43.810     42.251  36.843731     0.2363      8.481   246.6592 1.0821e+02     5.9056      2.512      3.644    18.3640 0.0000e+00
      2.562      0.001     3.8856     44.625     42.287  36.884813     0.2180      8.481   246.5706 1.0920e+02     5.6716      2.513      3.645    18.4246 0.0000e+00
      2.562      0.000     3.9593     45.421     42.339  36.944358     0.1963      8.481   246.5623 1.0979e+02     5.4155      2.513      3.644    18.4929 0.0000e+00
      2.562 4.2845e-07     4.0239     46.154     42.351  36.992610     0.1823      8.480   246.6451 1.1006e+02     5.0985      2.512      3.644    18.5715 0.0000e+00
      2.562      0.000     4.0939     46.812     42.324  37.024098     0.1902      8.478   246.7105 1.1044e+02     4.9468      2.513      3.644    18.6103 0.0000e+00
      2.562      0.000     4.1731     47.449     42.311  37.071336     0.1920      8.476   246.6648 1.1041e+02     4.9130      2.513      3.644    18.6041 0.0000e+00
      2.562      0.001     4.2483     48.159     42.304  37.119652     0.1703      8.475   246.6091 1.0977e+02     4.7930      2.513      3.644    18.6120 0.0000e+00
      2.563      0.001     4.3129     48.949     42.311  37.164172     0.1618      8.473   246.6392 1.0929e+02     4.5888      2.513      3.645    18.6614 0.0000e+00
      2.563      0.001     4.3667     49.742     42.359  37.228946     0.1722      8.472   246.6848 1.0938e+02     4.4596      2.514      3.646    18.7353 0.0000e+00
      2.563      0.001     4.4148     50.482     42.367  37.268307     0.1787      8.471   246.6441 1.0953e+02     4.4611      2.513      3.645    18.8039 0.0000e+00
      2.563      0.001     4.4744     51.161     42.293  37.259400     0.1662      8.470   246.6634 1.0959e+02     4.4360      2.514      3.646    18.8742 0.0000e+00
      2.563      0.000     4.5473     51.813     42.216  37.248239     0.1377      8.469   246.9182 1.1022e+02     4.2233      2.513      3.645    18.9264 0.0000e+00
      2.563      0.000     4.6217     52.460     42.179  37.260342     0.1256      8.468   247.2292 1.1164e+02     3.9390      2.514      3.646    18.9326 0.0000e+00
      2.564     -0.001     4.6883     53.128     42.152  37.278877     0.1615      8.467   247.4127 1.1338e+02     3.9714      2.514      3.647    18.9632 0.0000e+00
      2.564     -0.004     4.7411     53.847     42.049  37.218591     0.4796      8.467   247.4171 1.1512e+02     5.7423      2.514      3.647    19.0464 0.0000e+00
      2.563     -0.009     4.7939     54.542     41.927  37.102556     3.9057      8.467   247.3680 1.1626e+02    24.9744      2.514      3.647    19.1202 0.0000e+00
      2.561     -0.015     4.8499     55.092     41.941  37.081531    10.1832      8.466   247.4206 1.1655e+02    60.2088      2.512      3.644    19.1623 0.0000e+00
      2.557     -0.029     4.9031     55.455     42.035  37.154704    13.6239      8.466   247.4506 1.1589e+02    79.4383      2.509      3.638    19.2144 0.0000e+00
      2.551     -0.058     4.9669     55.584     42.140  37.289274    14.0956      8.465   247.4730 1.1405e+02    80.8380      2.502      3.628    19.2746 0.0000e+00
      2.543     -0.104     5.0387     55.462     42.172  37.439552    15.7036      8.464   247.5185 1.1325e+02    76.6887      2.493      3.617    19.2587 0.0000e+00
      2.529     -0.159     5.0959     55.260     42.027  37.512412    18.5668      8.463   247.5711 1.1741e+02    68.7231      2.488      3.608    19.1838 0.0000e+00
      2.491     -0.216     5.1329     55.277     41.820  37.535944    20.0830      8.464   247.5927 1.2780e+02    64.2196      2.460      3.568    19.1741 0.0000e+00
      2.414     -0.268     5.1441     55.843     41.626  37.533993    19.8451      8.464   247.4352 1.4179e+02    62.7166      2.376      3.447    19.2069 0.0000e+00
      2.314     -0.306     5.1129     57.282     41.396  37.489052    15.7231      8.464   247.2161 1.5659e+02    50.4144      2.266      3.286    19.3359 0.0000e+00
      2.216     -0.323     5.0537     59.747     41.159  37.436967     8.1388      8.464   247.0951 1.7273e+02    27.8932      2.171      3.148    19.6305 0.0000e+00
      2.126     -0.319     5.0181     63.054     40.990  37.412102     3.9924      8.464   247.1766 1.9011e+02    15.6278      2.084      3.022    19.9001 0.0000e+00
      2.041     -0.296     5.0406     66.940     40.870  37.378960     3.5854      8.464   247.4267 2.0162e+02    14.4991      1.993      2.891    20.0802 0.0000e+00
      1.971     -0.265     5.1433     71.185     40.719  37.290166     3.4671      8.465   247.5375 2.0821e+02    14.8613      1.926      2.795    20.2696 0.0000e+00
      1.916     -0.234     5.3526     75.347     40.584  37.226924     3.3440      8.465   247.5702 2.2307e+02    15.7703      1.884      2.732    20.4906 0.0000e+00
      1.861     -0.209     5.6429     78.961     40.523  37.248937     3.2787      8.465   247.6503 2.4236e+02    16.2671      1.824      2.646    20.6592 0.0000e+00
      1.808     -0.198     5.9819     81.810     40.507  37.302607     3.2692      8.465   247.6460 2.4949e+02    16.3249      1.766      2.562    20.7377 0.0000e+00
      1.768     -0.202     6.3758     83.899     40.541  37.368313     3.2717      8.466   247.6039 2.4701e+02    16.4006      1.731      2.511    20.7768 0.0000e+00
      1.733     -0.214     6.7563     85.406     40.581  37.408894     3.4412      8.468   247.4854 2.5377e+02    16.8068      1.705      2.473    20.8446 0.0000e+00
      1.684     -0.229     7.0677     86.462     40.592  37.412544     3.7795      8.469   247.3311 2.7215e+02    17.4108      1.663      2.412    20.9616 0.0000e+00
      1.613     -0.245     7.3103     87.105     40.591  37.412429     3.9572      8.470   247.2873 2.9027e+02    17.6570      1.582      2.296    21.0566 0.0000e+00
      1.536     -0.259     7.4809     87.421     40.569  37.407507     3.9175      8.473   247.2999 3.1531e+02    17.3920      1.502      2.178    21.0961 0.0000e+00
      1.463     -0.264     7.6118     87.535     40.485  37.353055     3.5239      8.474   247.2254 3.4668e+02    14.8559      1.437      2.083    21.0923 0.0000e+00
      1.392     -0.258     7.7094     87.535     40.365  37.261728     2.8348      8.474   246.9030 3.6958e+02    10.2895      1.364      1.977    21.0742 0.0000e+00
      1.324     -0.245     7.7637     87.500     40.271  37.191669     2.4689      8.475   246.4991 3.8903e+02     7.8177      1.295      1.878    21.0722 0.0000e+00
      1.268     -0.233     7.7831     87.472     40.198  37.140545     2.4377      8.477   246.2992 4.1472e+02     7.5488      1.240      1.798    21.0957 0.0000e+00
      1.218     -0.226     7.7870     87.489     40.192  37.151246     2.4656      8.478   246.2936 4.3054e+02     7.3460      1.195      1.733    21.1282 0.0000e+00
      1.166     -0.224     7.7795     87.587     40.227  37.194172     2.5397      8.478   246.4302 4.1654e+02     7.1079      1.147      1.663    21.1526 0.0000e+00
      1.108     -0.226     7.7731     87.759     40.175  37.151950     2.6011      8.479   246.5748 4.0725e+02     7.0277      1.088      1.577    21.1723 0.0000e+00
      1.049     -0.228     7.7669     88.005     40.095  37.084925     2.6338      8.479   246.5797 4.4441e+02     7.0596      1.029      1.493    21.1908 0.0000e+00
      0.989     -0.225     7.7619     88.256     40.081  37.081785     2.6448      8.480   246.4890 5.2591e+02     6.9807      0.973      1.411    21.2141 0.0000e+00
      0.925     -0.220     7.7713     88.431     40.039  37.050539     2.6500      8.482   246.1669 6.1296e+02     6.8591      0.907      1.315    21.2304 0.0000e+00
      0.862     -0.213     7.7833     88.537     39.932  36.960957     2.6636      8.482   245.6112 6.2641e+02     6.8535      0.838      1.217    21.2309 0.0000e+00
      0.813     -0.208     7.8081     88.586     39.830  36.887024     2.6674      8.482   245.1034 5.7253e+02     6.8790      0.793      1.150    21.2371 0.0000e+00
      0.774     -0.205     7.8311     88.604     39.764  36.854635     2.6716      8.484   244.5872 5.6260e+02     6.8260      0.763      1.107    21.2569 0.0000e+00
      0.727     -0.208     7.8437     88.672     39.704  36.823205     2.6810      8.485   244.0164 5.7792e+02     6.7583      0.718      1.042    21.2624 0.0000e+00
      0.670     -0.218     7.8526     88.823     39.618  36.760853     2.6800      8.485   243.6216 5.2976e+02     6.8123      0.655      0.950    21.2668 0.0000e+00
      0.613     -0.228     7.8527     89.053     39.572  36.735303     2.6690      8.484   243.5136 4.8201e+02     6.8985      0.600      0.869    21.2966 0.0000e+00
      0.554     -0.229     7.8436     89.361     39.585  36.768117     2.6220      8.482   243.3130 5.2384e+02     6.7746      0.550      0.798    21.3382 0.0000e+00
      0.484     -0.221     7.8434     89.727     39.580  36.776913     2.5455      8.480   242.4868 7.2529e+02     6.5096      0.477      0.692    21.3731 0.0000e+00
      0.414     -0.215     7.8558     90.112     39.509  36.714772     2.5014      8.480   241.4398 9.2099e+02     6.3257      0.398      0.577    21.3880 0.0000e+00
      0.362     -0.215     7.8720     90.488     39.433  36.651301     2.4967      8.480   240.8072 8.0493e+02     6.2937      0.344      0.500    21.4074 0.0000e+00
      0.331     -0.215     7.8955     90.861     39.406  36.644027     2.4964      8.479   240.5157 5.9395e+02     6.3617      0.326      0.472    21.4402 0.0000e+00
      0.295     -0.210     7.9258     91.237     39.366  36.626854     2.4645      8.477   240.1524 5.7412e+02     6.4989      0.306      0.444    21.4602 0.0000e+00
      0.229     -0.209     7.9620     91.619     39.283  36.570601     2.4023      8.476   239.2543 6.0274e+02     6.6885      0.231      0.335    21.4568 0.0000e+00
      0.149     -0.219     7.9935     91.981     39.215  36.534974     2.3607      8.474   238.0885 6.1538e+02     6.7751      0.135      0.195    21.4590 0.0000e+00
      0.092     -0.239     8.0222     92.294     39.220  36.576842     2.3517      8.470   237.1558 6.4228e+02     6.7609      0.080      0.115    21.4915 0.0000e+00
      0.054     -0.264     8.0502     92.561     39.294  36.696158     2.2282      8.469   236.2378 5.9078e+02     6.5504      0.060      0.087    21.5175 0.0000e+00
      0.003     -0.295     8.0824     92.855     39.359  36.835547     1.9655      8.467   235.3343 5.8214e+02     6.1439      0.016      0.022    21.5372 0.0000e+00
     -0.074     -0.329     8.1092     93.252     39.350  36.929792     1.8054      8.463   236.0398 7.3685e+02     5.9102     -0.070     -0.103    21.5747 0.0000e+00
     -0.168     -0.359     8.1299     93.653     39.263  36.947474     1.7825      8.462   238.0572 9.4902e+02     5.8426     -0.155     -0.225    21.6202 0.0000e+00
     -0.284     -0.373     8.1428     93.824     39.162  36.922577     1.8389      8.463   238.3891 1.1497e+03     5.8381     -0.271     -0.392    21.6765 0.0000e+00
     -0.412     -0.355     8.1475     93.519     39.081  36.882672     1.9620      8.466   238.1598 1.2444e+03     5.8557     -0.416     -0.603    21.7736 0.0000e+00
     -0.519     -0.307     8.1639     92.668     39.032  36.845757     2.0231      8.468   239.5861 1.2387e+03     5.8170     -0.520     -0.754    21.9233 0.0000e+00
     -0.594     -0.242     8.1837     91.520     39.058  36.856964     1.9696      8.471   241.0077 1.2163e+03     5.6434     -0.591     -0.856    22.0636 0.0000e+00
     -0.639     -0.170     8.1944     90.406     39.123  36.891254     1.4325      8.473   241.5814 1.1813e+03     3.8591     -0.639     -0.928    22.1497 0.0000e+00
     -0.657     -0.103     8.1649     89.388     39.141  36.879605     0.4635      8.475   242.3078 1.1364e+03     0.5707     -0.649     -0.942    22.1945 0.0000e+00
     -0.660     -0.053     8.0793     88.357     39.137  36.842980    -0.0572      8.477   243.4230 1.0990e+03    -1.2888     -0.647     -0.938    22.2061 0.0000e+00
     -0.660     -0.021     7.9683     87.358     39.170  36.829099    -0.0855      8.479   244.1388 1.0660e+03    -1.5094     -0.648     -0.940    22.1827 0.0000e+00
     -0.660     -0.005     7.8774     86.646     39.243  36.838611     0.2370      8.480   244.5095 1.0190e+03    -1.2430     -0.648     -0.939    22.1420 0.0000e+00
     -0.660     -0.000     7.8009     86.449     39.304  36.831008     0.8624      8.481   246.8724 9.6111e+02    -0.6639     -0.648     -0.939    22.1074 0.0000e+00
     -0.660 1.1309e-09     7.7147     86.623     39.131  36.610167     1.2087      8.483   252.6609 9.1156e+02    -0.2812     -0.648     -0.940    22.0705 0.0000e+00
     -0.659 1.2440e-08     7.6269     86.678     36.564  34.168357     1.2455      8.485   255.9918 8.8802e+02    -0.2013     -0.647     -0.939    22.0137 0.0000e+00
     -0.659 1.3684e-07     7.5651     86.243     27.050  25.260873     1.2230      8.485   255.0533 8.8386e+02    -0.2102     -0.647     -0.938    21.9352 0.0000e+00
     -0.660 1.3684e-07     7.5653     85.342     14.060  13.124558     0.9119      8.486   261.3603 8.7908e+02     0.1573     -0.647     -0.939    21.8467 0.0000e+00
     -0.660 1.2440e-08     7.6117     84.195      7.028   6.557976     0.3477      8.487   279.8511 8.5330e+02     0.9281     -0.647     -0.939    21.7656 0.0000e+00
     -0.660 1.1309e-09     7.6404     83.031      5.636   5.258981     0.0362      8.488   300.1795 8.0102e+02     1.3553     -0.648     -0.940    21.7065 0.0000e+00
     -0.660 1.0281e-10     7.6021     81.973      5.517   5.147984    -0.0084      8.486   312.8726 7.7123e+02     1.3602     -0.647     -0.939    21.6729 0.0000e+00
     -0.660 9.3465e-12     7.5186     81.038      5.591   5.215944    -0.0338      8.482   322.8481 7.8997e+02     1.2610     -0.648     -0.938    21.6574 0.0000e+00
     -0.660 8.4965e-13     7.4107     80.335      5.567   5.193739    -0.0542      8.478   335.5271 7.5372e+02     1.1121     -0.647     -0.939    21.6513 0.0000e+00
     -0.660 7.7245e-14     7.3034     79.962      5.570   5.196266    -0.0552      8.475   346.5786 6.1940e+02     0.9949     -0.647     -0.939    21.6485 0.0000e+00
     -0.660 7.0220e-15     7.2146     79.857      5.420   5.056436    -0.0537      8.472   351.6744 5.0075e+02     0.9367     -0.647     -0.939    21.6458 0.0000e+00
     -0.660 6.3835e-16     7.1269     79.940      5.181   4.833466    -0.0620      8.468   347.4097 4.3800e+02     1.0579     -0.648     -0.939    21.6435 0.0000e+00
     -0.660 5.8035e-17     7.0598     80.145      5.057   4.717699    -0.0632      8.463   337.8622 4.0119e+02     1.3324     -0.647     -0.939    21.6423 0.0000e+00
     -0.660 5.2760e-18     7.0322     80.350      5.074   4.733691    -0.0690      8.458   332.5139 3.9813e+02     1.4552     -0.647     -0.939    21.6413 0.0000e+00
     -0.660 4.7962e-19     7.0253     80.495      5.321   4.963470    -0.0730      8.454   332.4751 4.1574e+02     1.4497     -0.647     -0.939    21.6404 0.0000e+00
     -0.660 4.3602e-20     7.0326     80.610      5.523   5.151900    -0.0451      8.453   334.2951 4.3136e+02     2.0514     -0.647     -0.939    21.6394 0.0000e+00
     -0.660 3.9638e-21     7.0575     80.710      5.344   4.984702    -0.0064      8.453   337.1399 4.3889e+02     3.2303     -0.647     -0.939    21.6382 0.0000e+00
     -0.660 3.6034e-22     7.0769     80.780      4.920   4.589060     0.0036      8.452   339.2525 4.3018e+02     3.8503     -0.647     -0.939    21.6371 0.0000e+00
     -0.660 3.2759e-23     7.0879     80.830      4.470   4.169338     0.0002      8.451   339.6192 4.2036e+02     3.9120     -0.647     -0.939    21.6358 0.0000e+00
     -0.660 2.9780e-24     7.0975     80.877      4.115   3.837620    -0.0051      8.452   342.2623 4.3002e+02     3.9418     -0.647     -0.939    21.6338 0.0000e+00
     -0.660 2.7073e-25     7.1084     80.914      3.949   3.682421    -0.0106      8.453   348.4090 4.6678e+02     3.9373     -0.647     -0.939    21.6318 0.0000e+00
     -0.660 2.4614e-26     7.1140     80.964      3.885   3.623171    -0.0083      8.452   353.8832 5.2138e+02     3.9264     -0.647     -0.939    21.6295 0.0000e+00
     -0.660 2.2559e-27     7.1177     81.076      3.755   3.501311    -0.0108      8.452   353.6434 5.5344e+02     3.9122     -0.647     -0.939    21.6269 0.0000e+00
     -0.660 4.0681e-28     7.1231     81.152      3.660   3.412643    -0.0151      8.452   351.4461 5.5207e+02     3.9026     -0.647     -0.939    21.6244 0.0000e+00
     -0.660 -9.990e-29     7.1268 -9.990e-29 -9.990e-29 -9.990e-29 -9.990e-29 -9.990e-29 -9.990e-29 5.4247e+02 -9.990e-29     -0.647     -0.939    21.6216 0.0000e+00
     -0.660 -9.990e-29     7.1274 -9.990e-29 -9.990e-29 -9.990e-29 -9.990e-29 -9.990e-29 -9.990e-29 5.3319e+02 -9.990e-29     -0.647     -0.939    21.6191 0.0000e+00
     -0.660 -9.990e-29     7.1405 -9.990e-29 -9.990e-29 -9.990e-29 -9.990e-29 -9.990e-29 -9.990e-29 5.2424e+02 -9.990e-29     -0.647     -0.939    21.6168 0.0000e+00
     -0.660 -9.990e-29     7.1572 -9.990e-29 -9.990e-29 -9.990e-29 -9.990e-29 -9.990e-29 -9.990e-29 5.2037e+02 -9.990e-29     -0.647     -0.938    21.6153 0.0000e+00
