* Sea-Bird SBE19plus  Data File:
* FileName = C:\R\Reservoirs\Data\DataNotYetUploadedToEDI\Raw_CTD\RawDownloads\052724_bvr50_S7809_0007.hex
* Software version 2.8.0.119
* Temperature SN = 7809
* Conductivity SN = 7809
* System UpLoad Time = Jun 04 2024 12:23:30
* <ApplicationData>
* <Seaterm232>
* <SoftwareVersion>2.8.0.119</SoftwareVersion>
* <BuildDate>07-Nov-2018</BuildDate>
* </Seaterm232>
* </ApplicationData>
* <InstrumentState>
* <HardwareData DeviceType='SBE19plus' SerialNumber='01907809'>
*
*    <Manufacturer>Sea-Bird Electronics, Inc.</Manufacturer>
*
*    <FirmwareVersion>3.1.8</FirmwareVersion>
*
*    <FirmwareDate>Mar  9 2016 16:22:29</FirmwareDate>
*
*    <CommandSetVersion>1.4</CommandSetVersion>
*
*    <PCBAssembly PCBSerialNum='120721' AssemblyNum='41054J'/>
*
*    <PCBAssembly PCBSerialNum='120715' AssemblyNum='41967A'/>
*
*    <PCBAssembly PCBSerialNum='116699' AssemblyNum='41606'/>
*
*    <PCBAssembly PCBSerialNum='120719' AssemblyNum='41059D'/>
*
*    <MfgDate>28-Apr-2017</MfgDate>
*
*    <InternalSensors>
*
*       <Sensor id='Main Temperature'>
*
*          <type>temperature0</type>
*
*          <SerialNumber>01907809</SerialNumber>
*
*       </Sensor>
*
*       <Sensor id='Main Conductivity'>
*
*          <type>conductivity-0</type>
*
*          <SerialNumber>01907809</SerialNumber>
*
*       </Sensor>
*
*       <Sensor id='Main Pressure'>
*
*          <type>strain-0</type>
*
*          <SerialNumber>10586018</SerialNumber>
*
*       </Sensor>
*
*    </InternalSensors>
*
*    <ExternalSensors>
*
*       <Sensor id='volt 0'>
*
*          <type>pH</type>
*
*          <SerialNumber>27-0363</SerialNumber>
*
*       </Sensor>
*
*       <Sensor id='volt 1'>
*
*          <type>ORP</type>
*
*          <SerialNumber>27-0363</SerialNumber>
*
*       </Sensor>
*
*       <Sensor id='volt 2'>
*
*          <type>OXY</type>
*
*          <SerialNumber>43-0434</SerialNumber>
*
*       </Sensor>
*
*       <Sensor id='volt 3'>
*
*          <type>PAR</type>
*
*          <SerialNumber>1122</SerialNumber>
*
*       </Sensor>
*
*       <Sensor id='volt 4'>
*
*          <type>ECO AFL/FL</type>
*
*          <SerialNumber>FLNTURT-2496</SerialNumber>
*
*       </Sensor>
*
*       <Sensor id='volt 5'>
*
*          <type>ECO-NTU</type>
*
*          <SerialNumber>FLNTURT-2496</SerialNumber>
*
*       </Sensor>
*
*       <Sensor id='serial'>
*
*          <type>not assigned</type>
*
*          <SerialNumber>not assigned</SerialNumber>
*
*       </Sensor>
*
*    </ExternalSensors>
*
* </HardwareData>
* <StatusData DeviceType='SBE19plus' SerialNumber='01907809'>
*
*    <DateTime>2024-06-04T12:18:54</DateTime>
*
*    <LoggingState>not logging</LoggingState>
*
*    <EventSummary numEvents='0'/>
*
*    <Power>
*
*       <vMain>12.8</vMain>
*
*       <vLith>8.4</vLith>
*
*       <iMain>63.0</iMain>
*
*       <iPump>46.1</iPump>
*
*       <iExt01>20.3</iExt01>
*
*       <iExt2345>36.8</iExt2345>
*
*    </Power>
*
*    <MemorySummary>
*
*       <Bytes>337272</Bytes>
*
*       <Samples>14664</Samples>
*
*       <SamplesFree>2846124</SamplesFree>
*
*       <SampleLength>23</SampleLength>
*
*       <Profiles>11</Profiles>
*
*    </MemorySummary>
*
* </StatusData>
* <ConfigurationData DeviceType='SBE19plus' SerialNumber='01907809'>
*
*    <ProfileMode>
*
*       <ScansToAverage>1</ScansToAverage>
*
*       <MinimumCondFreq>0</MinimumCondFreq>
*
*       <PumpDelay>45</PumpDelay>
*
*       <AutoRun>no</AutoRun>
*
*       <IgnoreSwitch>no</IgnoreSwitch>
*
*    </ProfileMode>
*
*    <Battery>
*
*       <Type>alkaline</Type>
*
*       <CutOff>7.5</CutOff>
*
*    </Battery>
*
*    <DataChannels>
*
*       <ExtVolt0>yes</ExtVolt0>
*
*       <ExtVolt1>yes</ExtVolt1>
*
*       <ExtVolt2>yes</ExtVolt2>
*
*       <ExtVolt3>yes</ExtVolt3>
*
*       <ExtVolt4>yes</ExtVolt4>
*
*       <ExtVolt5>yes</ExtVolt5>
*
*       <SBE38>no</SBE38>
*
*       <WETLABS>no</WETLABS>
*
*       <OPTODE>no</OPTODE>
*
*       <SBE63>no</SBE63>
*
*       <SeaFET>no</SeaFET>
*
*       <GTD>no</GTD>
*
*    </DataChannels>
*
*    <EchoCharacters>yes</EchoCharacters>
*
*    <OutputExecutedTag>yes</OutputExecutedTag>
*
*    <OutputFormat>raw HEX</OutputFormat>
*
* </ConfigurationData>
* <CalibrationCoefficients DeviceType='SBE19plus' SerialNumber='01907809'>
*
*    <Calibration format='TEMP1' id='Main Temperature'>
*
*       <SerialNum>01907809</SerialNum>
*
*       <CalDate>31-Jan-23</CalDate>
*
*       <TA0>1.218232e-03</TA0>
*
*       <TA1>2.815090e-04</TA1>
*
*       <TA2>-1.578887e-06</TA2>
*
*       <TA3>1.972343e-07</TA3>
*
*       <TOFFSET>0.000000e+00</TOFFSET>
*
*    </Calibration>
*
*    <Calibration format='WBCOND0' id='Main Conductivity'>
*
*       <SerialNum>01907809</SerialNum>
*
*       <CalDate>31-Jan-23</CalDate>
*
*       <G>-1.005652e+00</G>
*
*       <H>1.267963e-01</H>
*
*       <I>-1.561708e-04</I>
*
*       <J>2.645944e-05</J>
*
*       <CPCOR>-9.570000e-08</CPCOR>
*
*       <CTCOR>3.250000e-06</CTCOR>
*
*       <CSLOPE>1.000000e+00</CSLOPE>
*
*    </Calibration>
*
*    <Calibration format='STRAIN0' id='Main Pressure'>
*
*       <SerialNum>10586018</SerialNum>
*
*       <CalDate>20-Jan-23</CalDate>
*
*       <PA0>4.416439e-02</PA0>
*
*       <PA1>4.850502e-04</PA1>
*
*       <PA2>-3.090426e-12</PA2>
*
*       <PTCA0>5.254757e+05</PTCA0>
*
*       <PTCA1>1.050255e+01</PTCA1>
*
*       <PTCA2>-2.922435e-01</PTCA2>
*
*       <PTCB0>2.516687e+01</PTCB0>
*
*       <PTCB1>3.750000e-04</PTCB1>
*
*       <PTCB2>0.000000e+00</PTCB2>
*
*       <PTEMPA0>-5.470820e+01</PTEMPA0>
*
*       <PTEMPA1>5.485421e+01</PTEMPA1>
*
*       <PTEMPA2>-3.446578e-01</PTEMPA2>
*
*       <POFFSET>8.500000e-01</POFFSET>
*
*       <PRANGE>1.600000e+02</PRANGE>
*
*    </Calibration>
*
*    <Calibration format='VOLT0' id='Volt 0'>
*
*       <OFFSET>-4.920000e-02</OFFSET>
*
*       <SLOPE>1.248122e+00</SLOPE>
*
*    </Calibration>
*
*    <Calibration format='VOLT0' id='Volt 1'>
*
*       <OFFSET>-4.784000e-02</OFFSET>
*
*       <SLOPE>1.248871e+00</SLOPE>
*
*    </Calibration>
*
*    <Calibration format='VOLT0' id='Volt 2'>
*
*       <OFFSET>-4.864632e-02</OFFSET>
*
*       <SLOPE>1.248714e+00</SLOPE>
*
*    </Calibration>
*
*    <Calibration format='VOLT0' id='Volt 3'>
*
*       <OFFSET>-4.743790e-02</OFFSET>
*
*       <SLOPE>1.248571e+00</SLOPE>
*
*    </Calibration>
*
*    <Calibration format='VOLT0' id='Volt 4'>
*
*       <OFFSET>-4.671263e-02</OFFSET>
*
*       <SLOPE>1.248951e+00</SLOPE>
*
*    </Calibration>
*
*    <Calibration format='VOLT0' id='Volt 5'>
*
*       <OFFSET>-4.871053e-02</OFFSET>
*
*       <SLOPE>1.249136e+00</SLOPE>
*
*    </Calibration>
*
*    <Calibration format='FREQ0' id='external frequency channel'>
*
*       <EXTFREQSF>1.000014e+00</EXTFREQSF>
*
*    </Calibration>
*
* </CalibrationCoefficients>
* <EventCounters DeviceType='SBE19plus' SerialNumber='01907809'>
*
*    <EventSummary numEvents='0'/>
*
* </EventCounters></InstrumentState>
* <Headers>
*
* cast   7 03 Jun 2024 12:08:29 samples 8313 to 9237, avg = 1, stop = mag switch
*
# nquan = 15
# nvalues = 925                         
# units = specified
# name 0 = depFM: Depth [fresh water, m]
# name 1 = dz/dtM: Descent Rate [m/s]
# name 2 = sbeox0Mg/L: Oxygen, SBE 43 [mg/l]
# name 3 = sbeox0PS: Oxygen, SBE 43 [% saturation]
# name 4 = specc: Specific Conductance [uS/cm]
# name 5 = c0uS/cm: Conductivity [uS/cm]
# name 6 = flECO-AFL: Fluorescence, WET Labs ECO-AFL/FL [mg/m^3]
# name 7 = ph: pH
# name 8 = orp: Oxidation Reduction Potential [mV]
# name 9 = par/sat/log: PAR/Logarithmic, Satlantic
# name 10 = turbWETntu0: Turbidity, WET Labs ECO [NTU]
# name 11 = prdM: Pressure, Strain Gauge [db]
# name 12 = prdE: Pressure, Strain Gauge [psi]
# name 13 = tv290C: Temperature [ITS-90, deg C]
# name 14 = flag:  0.000e+00
# span 0 =     -0.668,      2.006       
# span 1 =     -0.424,      0.175       
# span 2 =     3.9636,     9.4444       
# span 3 =     44.974,    109.835       
# span 4 =      0.479,     42.128       
# span 5 =   0.511136,  40.001346       
# span 6 =    -2.0366,   227.5545       
# span 7 =      1.231,     11.916       
# span 8 = -1235.1903,   552.1717       
# span 9 = 1.8028e+02, 2.5448e+03       
# span 10 =    -7.4224,   132.8277      
# span 11 =     -0.655,      1.968      
# span 12 =     -0.950,      2.854      
# span 13 =    20.6539,    28.3512      
# span 14 = 0.0000e+00, 0.0000e+00      
# interval = seconds: 0.25
# start_time = Jun 03 2024 12:08:29 [Instrument's time stamp, header]
# bad_flag = -9.990e-29
# <Sensors count="9" >
#   <sensor Channel="1" >
#     <!-- Count, Temperature -->
#     <TemperatureSensor SensorID="58" >
#       <SerialNumber>7809</SerialNumber>
#       <CalibrationDate>31-Jan-23</CalibrationDate>
#       <A0>1.21823180e-003</A0>
#       <A1>2.81508993e-004</A1>
#       <A2>-1.57888696e-006</A2>
#       <A3>1.97234302e-007</A3>
#       <Slope>1.00000000</Slope>
#       <Offset>0.0000</Offset>
#     </TemperatureSensor>
#   </sensor>
#   <sensor Channel="2" >
#     <!-- Frequency 0, Conductivity -->
#     <ConductivitySensor SensorID="3" >
#       <SerialNumber>7809</SerialNumber>
#       <CalibrationDate>31-Jan-23</CalibrationDate>
#       <UseG_J>1</UseG_J>
#       <!-- Cell const and series R are applicable only for wide range sensors. -->
#       <SeriesR>0.0000</SeriesR>
#       <CellConst>2000.0000</CellConst>
#       <ConductivityType>0</ConductivityType>
#       <Coefficients equation="0" >
#         <A>0.00000000e+000</A>
#         <B>0.00000000e+000</B>
#         <C>0.00000000e+000</C>
#         <D>0.00000000e+000</D>
#         <M>0.0</M>
#         <CPcor>-9.57000000e-008</CPcor>
#       </Coefficients>
#       <Coefficients equation="1" >
#         <G>-1.00565232e+000</G>
#         <H>1.26796307e-001</H>
#         <I>-1.56170788e-004</I>
#         <J>2.64594368e-005</J>
#         <CPcor>-9.57000000e-008</CPcor>
#         <CTcor>3.2500e-006</CTcor>
#         <!-- WBOTC not applicable unless ConductivityType = 1. -->
#         <WBOTC>0.00000000e+000</WBOTC>
#       </Coefficients>
#       <Slope>1.00000000</Slope>
#       <Offset>0.00000</Offset>
#     </ConductivitySensor>
#   </sensor>
#   <sensor Channel="3" >
#     <!-- Count, Pressure, Strain Gauge -->
#     <PressureSensor SensorID="46" >
#       <SerialNumber>7809</SerialNumber>
#       <CalibrationDate>20-Jan-23</CalibrationDate>
#       <PA0>4.41643944e-002</PA0>
#       <PA1>4.85050239e-004</PA1>
#       <PA2>-3.09042623e-012</PA2>
#       <PTEMPA0>-5.47081996e+001</PTEMPA0>
#       <PTEMPA1>5.48542136e+001</PTEMPA1>
#       <PTEMPA2>-3.44657813e-001</PTEMPA2>
#       <PTCA0>5.25475731e+005</PTCA0>
#       <PTCA1>1.05025484e+001</PTCA1>
#       <PTCA2>-2.92243463e-001</PTCA2>
#       <PTCB0>2.51668750e+001</PTCB0>
#       <PTCB1>3.75000000e-004</PTCB1>
#       <PTCB2>0.00000000e+000</PTCB2>
#       <Offset>0.000000</Offset>
#     </PressureSensor>
#   </sensor>
#   <sensor Channel="4" >
#     <!-- A/D voltage 0, Oxygen, SBE 43 -->
#     <OxygenSensor SensorID="38" >
#       <SerialNumber>0434</SerialNumber>
#       <CalibrationDate>18-Feb-23</CalibrationDate>
#       <Use2007Equation>1</Use2007Equation>
#       <CalibrationCoefficients equation="0" >
#         <!-- Coefficients for Owens-Millard equation. -->
#         <Boc>0.0000</Boc>
#         <Soc>0.0000e+000</Soc>
#         <offset>0.0000</offset>
#         <Pcor>0.00e+000</Pcor>
#         <Tcor>0.0000</Tcor>
#         <Tau>0.0</Tau>
#       </CalibrationCoefficients>
#       <CalibrationCoefficients equation="1" >
#         <!-- Coefficients for Sea-Bird equation - SBE calibration in 2007 and later. -->
#         <Soc>5.1878e-001</Soc>
#         <offset>-0.5046</offset>
#         <A>-4.2788e-003</A>
#         <B> 1.5372e-004</B>
#         <C>-2.1853e-006</C>
#         <D0> 2.5826e+000</D0>
#         <D1> 1.92634e-004</D1>
#         <D2>-4.64803e-002</D2>
#         <E> 3.6000e-002</E>
#         <Tau20> 0.9900</Tau20>
#         <H1>-3.3000e-002</H1>
#         <H2> 5.0000e+003</H2>
#         <H3> 1.4500e+003</H3>
#       </CalibrationCoefficients>
#     </OxygenSensor>
#   </sensor>
#   <sensor Channel="5" >
#     <!-- A/D voltage 1, PAR/Logarithmic, Satlantic -->
#     <PARLog_SatlanticSensor SensorID="76" >
#       <SerialNumber>1122</SerialNumber>
#       <CalibrationDate>08-Sep-2021</CalibrationDate>
#       <a0>9.6751e-001</a0>
#       <a1>8.0992e-001</a1>
#       <Im>1.3589e+000</Im>
#       <Multiplier>1.0000e+000</Multiplier>
#     </PARLog_SatlanticSensor>
#   </sensor>
#   <sensor Channel="6" >
#     <!-- A/D voltage 2, pH -->
#     <pH_Sensor SensorID="43" >
#       <SerialNumber>0363</SerialNumber>
#       <CalibrationDate>28-Feb-23</CalibrationDate>
#       <Slope>4.7364</Slope>
#       <Offset>2.5433</Offset>
#     </pH_Sensor>
#   </sensor>
#   <sensor Channel="7" >
#     <!-- A/D voltage 3, Oxidation Reduction Potential -->
#     <OxidationReductionPotentialSensor SensorID="41" >
#       <SerialNumber>0363</SerialNumber>
#       <CalibrationDate>28-Feb-23</CalibrationDate>
#       <B>2.499480</B>
#       <M>-0.496195</M>
#       <Offset>0.0</Offset>
#     </OxidationReductionPotentialSensor>
#   </sensor>
#   <sensor Channel="8" >
#     <!-- A/D voltage 4, Fluorometer, WET Labs ECO-AFL/FL -->
#     <FluoroWetlabECO_AFL_FL_Sensor SensorID="20" >
#       <SerialNumber>FLNTURT-2496</SerialNumber>
#       <CalibrationDate>02-Sep-2021</CalibrationDate>
#       <ScaleFactor>4.80000000e+001</ScaleFactor>
#       <!-- Dark output -->
#       <Vblank>0.0550</Vblank>
#     </FluoroWetlabECO_AFL_FL_Sensor>
#   </sensor>
#   <sensor Channel="9" >
#     <!-- A/D voltage 5, Turbidity Meter, WET Labs, ECO-NTU -->
#     <TurbidityMeter SensorID="67" >
#       <SerialNumber>FLNTURT--2496</SerialNumber>
#       <CalibrationDate>02-Sep-2021</CalibrationDate>
#       <ScaleFactor>197.000000</ScaleFactor>
#       <!-- Dark output -->
#       <DarkVoltage>0.070000</DarkVoltage>
#     </TurbidityMeter>
#   </sensor>
# </Sensors>
# datcnv_date = Jun 04 2024 12:36:00, 7.26.7.129 [datcnv_vars = 14]
# datcnv_in = C:\R\Reservoirs\Data\DataNotYetUploadedToEDI\Raw_CTD\RawDownloads\060324_fcr10_S7809007.hex C:\R\Reservoirs\Data\DataNotYetUploadedToEDI\Raw_CTD\RawDownloads\SBE19plusV2_7809_start20230701.xmlcon
# datcnv_skipover = 0
# datcnv_ox_hysteresis_correction = yes
# datcnv_ox_tau_correction = yes
# filter_date = Jun 04 2024 12:36:28, 7.26.7.129
# filter_in = C:\R\Reservoirs\Data\DataNotYetUploadedToEDI\Raw_CTD\RawDownloads\060324_fcr10_S7809007.cnv
# filter_low_pass_tc_A = 0.030
# filter_low_pass_tc_B = 0.150
# filter_low_pass_A_vars = sbeox0Mg/L prdM prdE tv290C
# filter_low_pass_B_vars = depFM dz/dtM sbeox0PS specc c0uS/cm flECO-AFL ph orp par/sat/log turbWETntu0
# alignctd_date = Jun 04 2024 12:36:52, 7.26.7.129
# alignctd_in = C:\R\Reservoirs\Data\DataNotYetUploadedToEDI\Raw_CTD\RawDownloads\060324_fcr10_S7809007.cnv
# alignctd_adv = dz/dtM 1.000, sbeox0PS 1.000, specc 1.000, c0uS/cm 1.000, flECO-AFL 1.000, ph 1.000, orp 1.000, turbWETntu0 1.000                                                                                                   
# file_type = ascii
*END*
     -0.666     -0.001     7.2182     92.841      0.516   0.550301    -0.0549      3.257 -1223.8583 2.5448e+03    -0.2703     -0.653     -0.947    28.3417 0.0000e+00
     -0.667     -0.001     7.2193     92.864      0.527   0.561702    -0.0518      4.299 -1235.1903 1.9756e+03    -0.3136     -0.654     -0.948    28.3422 0.0000e+00
     -0.667     -0.001     7.2219     92.867      0.516   0.550177    -0.0495      4.573 -1196.0206 1.4887e+03    -0.2716     -0.655     -0.950    28.3426 0.0000e+00
     -0.667     -0.000     7.2218     92.848      0.504   0.537624    -0.0600      2.532 -1155.3336 1.4637e+03    -0.2741     -0.654     -0.949    28.3428 0.0000e+00
     -0.667 -1.863e-08     7.2217     92.834      0.503   0.536596    -0.0621      1.231 -1148.3200 9.4076e+02    -0.2756     -0.654     -0.948    28.3434 0.0000e+00
     -0.667 -2.049e-07     7.2258     92.836      0.504   0.537747    -0.0584      3.027  -706.1471 3.8971e+02    -0.2563     -0.655     -0.949    28.3442 0.0000e+00
     -0.667 -2.049e-07     7.2255     92.847      0.517   0.551546    -0.0482      5.955   133.5880 3.3190e+02    -0.2458     -0.654     -0.948    28.3447 0.0000e+00
     -0.667 -1.863e-08     7.2228     92.850      0.541   0.576766     0.0693      7.416   425.6990 3.3258e+02     0.0912     -0.654     -0.948    28.3448 0.0000e+00
     -0.668 -1.693e-09     7.2218     92.842      0.552   0.589329     0.2892      7.656   316.4072 3.3643e+02     0.7773     -0.655     -0.950    28.3444 0.0000e+00
     -0.668 -1.539e-10     7.2220     92.826      0.541   0.576767     0.4128      7.829   354.0595 3.4844e+02     1.1504     -0.655     -0.949    28.3434 0.0000e+00
     -0.667 -1.400e-11     7.2239     92.808      0.517   0.551547     0.3982      8.104   426.2316 3.5520e+02     1.1860     -0.654     -0.949    28.3432 0.0000e+00
     -0.667 -1.272e-12     7.2239     92.808      0.504   0.537747     0.2045      8.349   552.1717 3.3248e+02     1.6516     -0.654     -0.949    28.3432 0.0000e+00
     -0.667 -1.157e-13     7.2231     92.821      0.503   0.536596    -0.1148      6.927   506.1001 3.1207e+02     2.5785     -0.654     -0.949    28.3428 0.0000e+00
     -0.668 -1.052e-14     7.2221     92.827      0.504   0.537624    -0.2745      4.102    77.5703 3.1059e+02     3.1025     -0.655     -0.950    28.3429 0.0000e+00
     -0.668 -9.559e-16     7.2197     92.830      0.516   0.550177    -0.2867      2.375  -101.1580 3.1788e+02     3.0670     -0.655     -0.950    28.3428 0.0000e+00
     -0.668 -8.604e-17     7.2198     92.837      0.527   0.561701    -0.2459      1.626  -107.8162 3.4109e+02     2.9009     -0.654     -0.949    28.3422 0.0000e+00
     -0.668 1.5744e-18     7.2222     92.840      0.516   0.550289    -0.1393      2.210  -633.4290 4.1114e+02     2.7674     -0.655     -0.950    28.3419 0.0000e+00
     -0.668 1.0350e-16     7.2219     92.843      0.505   0.538868    -0.0632      4.030 -1051.8279 9.6863e+02     2.6838     -0.655     -0.950    28.3422 0.0000e+00
     -0.668 1.1463e-15     7.2217     92.851      0.516   0.550279    -0.0495      4.441  -629.2757 1.9454e+03     2.5732     -0.654     -0.949    28.3422 0.0000e+00
     -0.668 1.2610e-14     7.2231     92.853      0.527   0.561587    -0.0482      3.550   245.6661 1.9785e+03     2.1472     -0.655     -0.950    28.3426 0.0000e+00
     -0.668 1.3871e-13     7.2228     92.850      0.515   0.548920    -0.0480      4.548   428.3670 1.0432e+03     1.4279     -0.655     -0.950    28.3434 0.0000e+00
     -0.668 1.5258e-12     7.2226     92.842      0.491   0.523794    -0.0640      7.143   125.2515 5.2695e+02     0.9805     -0.654     -0.949    28.3439 0.0000e+00
     -0.668 1.6784e-11     7.2241     92.833      0.479   0.511136    -0.0832      8.603    46.1258 5.5400e+02     0.8713     -0.655     -0.950    28.3440 0.0000e+00
     -0.668 1.8462e-10     7.2237     92.835      0.490   0.522547    -0.0799      9.349  -297.1477 6.0805e+02     0.8929     -0.655     -0.950    28.3442 0.0000e+00
     -0.668 2.0309e-09     7.2236     92.845      0.502   0.535101    -0.0829     10.249  -417.5263 6.1878e+02     1.1056     -0.655     -0.950    28.3449 0.0000e+00
     -0.668 2.2340e-08     7.2228     92.857      0.503   0.536244    -0.1114     10.737  -111.8899 8.3475e+02     1.4275     -0.655     -0.950    28.3453 0.0000e+00
     -0.668 2.4574e-07     7.2214     92.866      0.503   0.536366    -0.1324     11.069  -268.9749 1.0843e+03     1.6420     -0.655     -0.950    28.3454 0.0000e+00
     -0.668      0.000     7.2222     92.866      0.503   0.536582    -0.1452     11.500  -724.0694 1.3466e+03     1.7518     -0.654     -0.949    28.3461 0.0000e+00
     -0.668      0.000     7.2225     92.854      0.505   0.538852    -0.2666     11.765  -915.1923 1.9855e+03     1.8674     -0.655     -0.949    28.3463 0.0000e+00
     -0.668      0.000     7.2239     92.849      0.529   0.563814    -0.4934     11.916  -983.2806 2.4125e+03     1.9468     -0.655     -0.950    28.3468 0.0000e+00
     -0.668      0.004     7.2248     92.867      0.790   0.838393    -0.6230     11.494 -1074.0176 2.3684e+03     1.9941     -0.654     -0.949    28.3458 0.0000e+00
     -0.668      0.015     7.2243     92.877      3.783   3.985435    -0.6530     10.403  -573.0215 2.2575e+03     2.3719     -0.655     -0.949    28.3472 0.0000e+00
     -0.667      0.035     7.2246     92.901     11.524  12.004969    -0.8638      9.580   276.8439 2.2071e+03     6.4117     -0.653     -0.948    28.3449 0.0000e+00
     -0.665      0.064     7.2200     92.983     22.644  23.221013    -1.2731      9.305   401.8810 2.2422e+03    13.8100     -0.655     -0.950    28.3487 0.0000e+00
     -0.654      0.096     7.2277     93.077     33.019  33.410739    -1.5071      9.237   196.5311 2.3010e+03    17.8686     -0.651     -0.945    28.3434 0.0000e+00
     -0.621      0.127     7.2223     93.228     37.996  38.045949    -1.4791      9.227   181.3924 2.3500e+03    17.9433     -0.616     -0.893    28.3512 0.0000e+00
     -0.572      0.153     7.2971     94.199     38.973  38.667896    -0.8524      9.233   180.4666 2.3076e+03    14.2346     -0.562     -0.813    27.8050 0.0000e+00
     -0.520      0.171     7.4604     95.986     39.363  38.772570     0.3030      9.238   181.0364 2.0378e+03     7.3571     -0.510     -0.739    26.5714 0.0000e+00
     -0.470      0.175     7.6136     97.127     39.538  38.740015     0.9207      9.233   182.2584 1.6408e+03     3.5520     -0.460     -0.666    25.6224 0.0000e+00
     -0.423      0.165     7.6706     97.292     39.525  38.591258     0.9574      9.218   182.1640 1.3269e+03     3.2059     -0.413     -0.598    25.0433 0.0000e+00
     -0.380      0.147     7.7925     97.098     39.577  38.560222     0.9549      9.199   181.2714 1.1576e+03     3.2408     -0.373     -0.540    24.5670 0.0000e+00
     -0.342      0.132     8.0919     96.938     40.011  38.935767     0.9905      9.185   180.9307 1.1401e+03     3.3598     -0.331     -0.480    24.2147 0.0000e+00
     -0.314      0.121     8.2135     96.985     40.639  39.514693     1.0635      9.173   181.0559 1.1838e+03     3.5852     -0.303     -0.439    23.9509 0.0000e+00
     -0.296      0.113     8.2262     97.061     40.878  39.721612     1.0964      9.159   181.8385 1.3588e+03     3.7111     -0.294     -0.426    23.7912 0.0000e+00
     -0.273      0.107     8.2211     97.022     40.635  39.470300     1.0884      9.143   183.3376 1.6098e+03     3.7556     -0.272     -0.395    23.6939 0.0000e+00
     -0.240      0.100     8.2005     97.018     40.299  39.141441     1.1338      9.127   185.0714 1.5508e+03     3.8488     -0.235     -0.339    23.6449 0.0000e+00
     -0.207      0.092     8.2247     97.228     40.068  38.918428     1.2281      9.110   186.8848 1.2495e+03     3.8482     -0.200     -0.290    23.6101 0.0000e+00
     -0.180      0.081     8.2398     97.530     39.948  38.804576     1.2800      9.093   188.3134 9.8900e+02     3.7486     -0.173     -0.252    23.5740 0.0000e+00
     -0.161      0.066     8.2362     97.755     39.921  38.780217     1.2789      9.078   189.3521 7.6803e+02     3.7034     -0.156     -0.226    23.5530 0.0000e+00
     -0.149      0.050     8.2218     97.844     39.956  38.814290     1.2895      9.065   190.5825 5.5898e+02     3.7453     -0.145     -0.210    23.5576 0.0000e+00
     -0.142      0.036     8.2499     97.811     40.046  38.899248     1.3333      9.053   192.1760 4.2406e+02     3.8111     -0.139     -0.201    23.5613 0.0000e+00
     -0.139      0.026     8.2797     97.737     40.134  38.982464     1.3589      9.041   193.7350 3.6067e+02     3.8500     -0.136     -0.198    23.5618 0.0000e+00
     -0.135      0.020     8.2987     97.655     40.084  38.932026     1.3497      9.028   194.7191 3.3117e+02     3.7716     -0.133     -0.193    23.5674 0.0000e+00
     -0.130      0.016     8.3077     97.544     39.944  38.797066     1.3212      9.015   195.2983 3.6469e+02     3.6491     -0.127     -0.185    23.5662 0.0000e+00
     -0.125      0.013     8.3005     97.414     39.885  38.746771     1.2898      9.002   196.0056 4.1951e+02     3.7003     -0.121     -0.176    23.5615 0.0000e+00
     -0.120      0.011     8.2944     97.249     39.895  38.768137     1.2861      8.988   196.6461 4.0411e+02     3.8450     -0.118     -0.170    23.5600 0.0000e+00
     -0.119      0.008     8.2888     96.703     39.920  38.801590     1.2935      8.975   196.9343 3.2759e+02     3.8955     -0.117     -0.169    23.5575 0.0000e+00
     -0.119      0.005     8.2804     95.433     39.948  38.833966     1.2622      8.963   197.1670 2.6450e+02     3.8327     -0.117     -0.170    23.5553 0.0000e+00
     -0.118      0.003     8.2645     93.928     39.953  38.842310     1.1904      8.951   197.7398 2.4462e+02     3.7342     -0.115     -0.167    23.5645 0.0000e+00
     -0.118      0.002     8.2563     92.742     39.945  38.839015     1.1496      8.939   198.5253 2.6307e+02     3.7299     -0.114     -0.166    23.5837 0.0000e+00
     -0.118      0.003     8.2347     91.592     39.958  38.857595     1.1598      8.927   199.0918 3.3617e+02     3.7811     -0.115     -0.167    23.5962 0.0000e+00
     -0.118      0.003     8.1001     90.059     39.969  38.876591     1.1642      8.915   199.4273 4.1197e+02     3.7376     -0.116     -0.168    23.6013 0.0000e+00
     -0.117      0.004     7.9432     88.230     39.962  38.878334     1.1607      8.903   199.5705 3.9074e+02     3.6482     -0.115     -0.166    23.6041 0.0000e+00
     -0.114      0.007     7.8642     86.579     39.953  38.878677     1.1759      8.893   199.5321 3.0700e+02     3.6232     -0.112     -0.162    23.6087 0.0000e+00
     -0.112      0.012     7.7797     85.376     39.947  38.880753     1.1988      8.884   199.4796 2.8262e+02     3.6737     -0.110     -0.159    23.6170 0.0000e+00
     -0.111      0.018     7.6462     84.465     39.967  38.903453     1.2206      8.874   199.3665 3.7530e+02     3.7459     -0.109     -0.158    23.6275 0.0000e+00
     -0.108      0.023     7.4694     83.603     40.030  38.962759     1.2484      8.863   199.1107 6.4959e+02     3.7450     -0.107     -0.156    23.6374 0.0000e+00
     -0.100      0.026     7.3165     82.594     40.097  39.026680     1.2855      8.852   198.8814 1.0728e+03     3.6975     -0.100     -0.145    23.6504 0.0000e+00
     -0.089      0.027     7.2243     81.483     40.111  39.041721     1.3108      8.839   199.0029 1.3816e+03     3.6833     -0.087     -0.127    23.6640 0.0000e+00
     -0.079      0.027     7.1518     80.625     40.083  39.017703     1.3218      8.827   199.6335 1.4270e+03     3.7098     -0.076     -0.110    23.6659 0.0000e+00
     -0.071      0.025     7.0872     80.219     40.054  38.990119     1.3678      8.816   200.5699 1.2694e+03     3.7454     -0.068     -0.099    23.6605 0.0000e+00
     -0.066      0.021     7.0044     80.140     40.025  38.962048     1.4430      8.804   201.3761 1.0604e+03     3.7383     -0.064     -0.094    23.6569 0.0000e+00
     -0.064      0.016     6.8918     80.180     39.995  38.932136     1.4820      8.793   201.8966 1.0015e+03     3.6923     -0.064     -0.093    23.6609 0.0000e+00
     -0.062      0.012     6.8119     80.131     39.948  38.882293     1.4900      8.781   202.2168 1.0563e+03     3.6668     -0.061     -0.089    23.6677 0.0000e+00
     -0.058      0.010     6.7853     79.959     39.876  38.803607     1.5061      8.771   202.4088 1.0973e+03     3.7038     -0.057     -0.082    23.6658 0.0000e+00
     -0.054      0.008     6.7836     79.834     39.822  38.742242     1.5111      8.761   202.5834 1.2808e+03     3.7293     -0.053     -0.077    23.6644 0.0000e+00
     -0.053      0.007     6.7945     79.835     39.800  38.711447     1.4911      8.754   203.2089 1.5176e+03     3.7022     -0.051     -0.075    23.6681 0.0000e+00
     -0.053      0.005     6.7935     79.846     39.781  38.685092     1.4900      8.746   210.4018 1.3506e+03     3.7168     -0.053     -0.077    23.6636 0.0000e+00
     -0.053      0.002     6.7714     79.733     39.778  38.677410     1.5137      8.737   220.2904 8.0988e+02     3.7700     -0.053     -0.077    23.6492 0.0000e+00
     -0.050     -0.001     6.7594     79.497     39.787  38.682014     1.5279      8.727   222.4492 3.6115e+02     3.7985     -0.049     -0.072    23.6382 0.0000e+00
     -0.049     -0.005     6.7670     79.364     39.784  38.677288     1.5459      8.714   218.7793 1.9803e+02     3.7881     -0.047     -0.068    23.6267 0.0000e+00
     -0.051     -0.007     6.7734     79.615     39.789  38.683728     1.8557      8.698   211.1945 1.8028e+02     3.8486     -0.050     -0.071    23.6151 0.0000e+00
     -0.056     -0.009     6.7657     80.255     39.796  38.696426     5.4562      8.683   205.5105 1.8370e+02     5.2485     -0.055     -0.079    23.6121 0.0000e+00
     -0.060     -0.010     6.7388     81.076     39.796  38.703913    12.0709      8.669   204.4307 1.9190e+02     7.9041     -0.059     -0.086    23.6060 0.0000e+00
     -0.064     -0.010     6.7157     81.882     39.799  38.710801    15.6886      8.656   203.7315 2.1515e+02     9.3469     -0.064     -0.092    23.5994 0.0000e+00
     -0.066     -0.007     6.7376     82.544     39.804  38.716258    16.0215      8.645   203.4230 2.3747e+02     9.4390     -0.065     -0.094    23.6048 0.0000e+00
     -0.067     -0.004     6.7997     83.049     39.791  38.706432    16.1297      8.635   203.9706 2.4288e+02     9.3931     -0.065     -0.094    23.6147 0.0000e+00
     -0.067     -0.002     6.8723     83.309     39.735  38.655458    17.3046      8.625   209.4926 2.4548e+02     9.3052     -0.068     -0.099    23.6227 0.0000e+00
     -0.066      0.002     6.9460     83.145     39.687  38.607611    19.4825      8.613   218.3073 2.5822e+02     9.1618     -0.066     -0.096    23.6297 0.0000e+00
     -0.065      0.008     7.0005     82.672     39.724  38.635577    20.6390      8.600   220.4649 6.0822e+02     9.0249     -0.061     -0.088    23.6270 0.0000e+00
     -0.066      0.017     7.0430     82.159     40.103  38.993572    20.3178      8.586   214.6725 1.2798e+03     8.8116     -0.064     -0.094    23.6287 0.0000e+00
     -0.067      0.024     7.0764     81.667     40.841  39.699626    15.5074      8.573   206.7776 1.7149e+03     7.4370     -0.069     -0.100    23.6397 0.0000e+00
     -0.059      0.028     7.0562     81.091     41.168  40.001346     6.6812      8.562   202.1857 1.7727e+03     5.0777     -0.061     -0.089    23.6374 0.0000e+00
     -0.043      0.028     7.0058     80.454     40.699  39.532040     1.9005      8.552   201.0547 1.6571e+03     3.8904     -0.042     -0.063    23.6248 0.0000e+00
     -0.027      0.025     6.9639     80.035     40.066  38.911779     1.6330      8.542   200.7592 1.3634e+03     3.9093     -0.023     -0.033    23.6105 0.0000e+00
     -0.019      0.020     6.9290     80.111     39.741  38.594034     3.3063      8.534   200.9357 8.0288e+02     4.4522     -0.015     -0.021    23.5998 0.0000e+00
     -0.020      0.012     6.8842     80.594     39.630  38.482400     6.4431      8.527   201.2958 4.8081e+02     5.4328     -0.019     -0.028    23.5776 0.0000e+00
     -0.024      0.003     6.8219     81.046     39.600  38.450434     8.1566      8.520   201.8447 4.8753e+02     6.0300     -0.024     -0.034    23.5554 0.0000e+00
     -0.026     -0.003     6.7755     81.153     39.612  38.461360     8.1860      8.514   202.5820 3.9442e+02     6.1395     -0.026     -0.037    23.5535 0.0000e+00
     -0.026     -0.006     6.7836     80.872     39.637  38.487588     6.5976      8.509   203.0696 3.0505e+02     5.6635     -0.026     -0.038    23.5508 0.0000e+00
     -0.026     -0.008     6.8446     80.288     39.662  38.513725     3.6425      8.504   203.0078 3.5150e+02     4.6478     -0.025     -0.037    23.5471 0.0000e+00
     -0.026     -0.011     6.8928     79.621     39.672  38.523564     2.0199      8.499   202.6090 5.5624e+02     4.0383     -0.025     -0.037    23.5436 0.0000e+00
     -0.028     -0.013     6.9009     79.132     39.629  38.479634     1.8681      8.495   202.2052 1.0481e+03     3.9983     -0.027     -0.039    23.5400 0.0000e+00
     -0.033     -0.013     6.8761     78.985     39.578  38.426773     1.8244      8.492   202.0835 1.6591e+03     4.3013     -0.032     -0.046    23.5432 0.0000e+00
     -0.041     -0.011     6.8177     79.155     39.608  38.455533     1.7494      8.487   202.5148 1.9024e+03     4.8322     -0.041     -0.060    23.5482 0.0000e+00
     -0.048     -0.008     6.7523     79.403     39.658  38.510083     1.6942      8.482   206.6458 1.8243e+03     5.1231     -0.049     -0.072    23.5491 0.0000e+00
     -0.049     -0.004     6.7063     79.478     39.655  38.515220     1.6723      8.477   213.7428 1.7731e+03     5.1195     -0.050     -0.072    23.5447 0.0000e+00
     -0.046      0.001     6.6944     79.368     39.654  38.517664     1.6760      8.475   216.7389 1.6730e+03     5.0618     -0.045     -0.065    23.5377 0.0000e+00
     -0.041      0.005     6.7177     79.177     39.682  38.539630     1.7556      8.474   215.8558 1.5191e+03     4.6992     -0.039     -0.056    23.5356 0.0000e+00
     -0.039      0.007     6.7486     78.982     39.676  38.526973     1.8857      8.473   214.9381 1.4534e+03     4.0482     -0.037     -0.054    23.5459 0.0000e+00
     -0.039      0.007     6.7504     78.786     39.643  38.491533     1.9514      8.472   214.3333 1.3915e+03     3.7162     -0.039     -0.057    23.5604 0.0000e+00
     -0.039      0.006     6.7374     78.618     39.643  38.491866     1.9508      8.469   213.9645 1.3432e+03     3.6907     -0.039     -0.057    23.5649 0.0000e+00
     -0.036      0.006     6.7191     78.511     39.679  38.531005     1.8856      8.467   213.6622 1.3442e+03     3.6711     -0.036     -0.052    23.5558 0.0000e+00
     -0.034      0.006     6.7047     78.343     39.724  38.584016     1.7621      8.465   213.3448 1.2424e+03     3.6844     -0.034     -0.049    23.5444 0.0000e+00
     -0.032      0.005     6.6896     78.029     39.751  38.625176     1.6815      8.463   212.9665 9.8859e+02     3.6804     -0.032     -0.046    23.5409 0.0000e+00
     -0.030      0.003     6.6687     77.507     39.757  38.647934     1.6596      8.460   212.5299 6.9391e+02     3.6571     -0.029     -0.042    23.5420 0.0000e+00
     -0.030      0.001     6.6687     76.721     39.764  38.668837     1.6393      8.458   212.1946 5.1401e+02     3.7097     -0.028     -0.041    23.5455 0.0000e+00
     -0.031     -0.001     6.6530     75.752     39.771  38.687547     1.6032      8.457   212.1824 5.5797e+02     3.8037     -0.029     -0.043    23.5567 0.0000e+00
     -0.032     -0.003     6.6248     74.699     39.755  38.683804     1.5817      8.457   212.2973 7.9103e+02     3.8037     -0.031     -0.045    23.5782 0.0000e+00
     -0.033     -0.004     6.5826     73.615     39.748  38.687058     1.5780      8.455   212.2073 1.1043e+03     3.6761     -0.032     -0.047    23.6012 0.0000e+00
     -0.034     -0.004     6.5088     72.591     39.780  38.726901     1.6001      8.454   211.0073 1.3736e+03     3.6263     -0.034     -0.049    23.6185 0.0000e+00
     -0.036     -0.003     6.4215     71.665     39.831  38.784808     1.6572      8.453   208.8876 1.5323e+03     3.7486     -0.035     -0.051    23.6328 0.0000e+00
     -0.036     -0.001     6.3306     70.787     39.854  38.816089     1.6864      8.452   209.1211 1.6023e+03     3.8223     -0.036     -0.052    23.6476 0.0000e+00
     -0.036      0.000     6.2337     69.987     39.814  38.787841     1.6778      8.450   211.6796 1.5948e+03     3.7660     -0.036     -0.053    23.6609 0.0000e+00
     -0.036      0.000     6.1426     69.288     39.775  38.760572     1.6871      8.449   212.8912 1.4868e+03     3.6828     -0.035     -0.051    23.6708 0.0000e+00
     -0.035      0.001     6.0693     68.655     39.810  38.803692     1.7240      8.449   212.6707 1.2604e+03     3.6713     -0.034     -0.049    23.6798 0.0000e+00
     -0.035      0.001     5.9891     68.053     39.865  38.864994     1.7572      8.448   212.4552 1.0171e+03     3.7293     -0.033     -0.048    23.6918 0.0000e+00
     -0.035      0.001     5.9197     67.474     39.859  38.867199     1.7645      8.447   212.3513 9.0903e+02     3.7686     -0.034     -0.050    23.7059 0.0000e+00
     -0.035      0.000     5.8613     66.947     39.812  38.830362     1.7459      8.446   212.3605 9.2319e+02     3.7699     -0.034     -0.050    23.7193 0.0000e+00
     -0.035     -0.001     5.8064     66.447     39.772  38.800371     1.7231      8.444   212.3940 9.2685e+02     3.7454     -0.034     -0.049    23.7306 0.0000e+00
     -0.035     -0.001     5.7565     65.956     39.785  38.821886     1.7304      8.443   212.4134 8.9970e+02     3.7457     -0.033     -0.048    23.7398 0.0000e+00
     -0.035     -0.001     5.7029     65.506     39.857  38.900129     1.7589      8.442   212.5943 9.7575e+02     3.7737     -0.034     -0.049    23.7499 0.0000e+00
     -0.036     -0.001     5.6595     65.068     39.937  38.984910     1.7683      8.441   212.8601 1.1697e+03     3.7767     -0.035     -0.051    23.7615 0.0000e+00
     -0.037     -0.001     5.6175     64.608     39.968  39.022003     1.7357      8.439   212.9609 1.3342e+03     3.6792     -0.036     -0.052    23.7730 0.0000e+00
     -0.037     -0.001     5.5714     64.173     39.904  38.967868     1.6893      8.438   212.9527 1.3659e+03     3.5518     -0.036     -0.053    23.7837 0.0000e+00
     -0.036     -0.001     5.5346     63.790     39.828  38.901513     1.6814      8.437   213.0185 1.2857e+03     3.5688     -0.035     -0.051    23.7932 0.0000e+00
     -0.036     -0.001     5.4988     63.433     39.837  38.917782     1.6986      8.436   213.1540 1.2252e+03     3.6107     -0.035     -0.051    23.8024 0.0000e+00
     -0.036     -0.001     5.4556     63.091     39.888  38.974206     1.7141      8.435   213.2147 1.2651e+03     3.6152     -0.034     -0.050    23.8117 0.0000e+00
     -0.037     -0.000     5.4174     62.772     39.921  39.012615     1.7275      8.434   213.2353 1.3408e+03     3.6567     -0.036     -0.053    23.8207 0.0000e+00
     -0.038     -0.000     5.3857     62.497     39.903  39.001432     1.7273      8.432   213.3177 1.3556e+03     3.7025     -0.038     -0.055    23.8312 0.0000e+00
     -0.038     -0.001     5.3544     62.287     39.860  38.965917     1.7367      8.430   213.4367 1.2853e+03     3.7590     -0.037     -0.054    23.8415 0.0000e+00
     -0.037     -0.001     5.3246     62.126     39.850  38.963972     1.7830      8.430   213.5558 1.1843e+03     3.6911     -0.036     -0.052    23.8495 0.0000e+00
     -0.037     -0.001     5.2963     61.971     39.855  38.977920     1.8379      8.429   213.6393 1.1589e+03     3.4956     -0.035     -0.051    23.8571 0.0000e+00
     -0.037     -0.001     5.2713     61.818     39.878  39.007662     1.8593      8.427   213.6713 1.2855e+03     3.4109     -0.035     -0.051    23.8644 0.0000e+00
     -0.038     -0.001     5.2533     61.688     39.935  39.069748     1.8502      8.427   213.7708 1.4847e+03     3.4872     -0.037     -0.054    23.8722 0.0000e+00
     -0.039     -0.000     5.2410     61.595     39.955  39.094016     1.8524      8.426   213.9813 1.5973e+03     3.6662     -0.039     -0.057    23.8826 0.0000e+00
     -0.039      0.001     5.2265     61.543     39.902  39.047251     1.8613      8.425   214.1527 1.5707e+03     3.7650     -0.039     -0.057    23.8936 0.0000e+00
     -0.038      0.002     5.2116     61.533     39.860  39.012005     1.8585      8.425   214.1218 1.4618e+03     3.7257     -0.037     -0.054    23.9031 0.0000e+00
     -0.036      0.003     5.1996     61.540     39.890  39.048624     1.8602      8.424   214.1244 1.3602e+03     3.7037     -0.035     -0.051    23.9112 0.0000e+00
     -0.035      0.004     5.1912     61.539     39.946  39.109254     1.8900      8.423   214.5281 1.3042e+03     3.7367     -0.035     -0.050    23.9162 0.0000e+00
     -0.035      0.004     5.1863     61.558     39.944  39.110503     1.9517      8.421   214.8735 1.2383e+03     3.8187     -0.035     -0.050    23.9210 0.0000e+00
     -0.034      0.003     5.1849     61.621     39.891  39.063726     1.9819      8.420   214.8583 1.1275e+03     3.8405     -0.034     -0.049    23.9302 0.0000e+00
     -0.033      0.002     5.1867     61.706     39.871  39.051366     1.9727      8.419   214.8606 1.0466e+03     3.7619     -0.032     -0.047    23.9404 0.0000e+00
     -0.032      0.001     5.1836     61.772     39.901  39.087985     1.9732      8.418   214.9881 1.0549e+03     3.6880     -0.032     -0.046    23.9474 0.0000e+00
     -0.032      0.001     5.1845     61.822     39.933  39.125739     1.9385      8.417   215.1091 1.1194e+03     3.6305     -0.031     -0.045    23.9512 0.0000e+00
     -0.033      0.000     5.1898     61.903     39.928  39.127089     1.8612      8.416   215.2045 1.2080e+03     3.6130     -0.032     -0.047    23.9560 0.0000e+00
     -0.033     -0.001     5.1978     62.004     39.898  39.104324     1.8122      8.415   215.3676 1.3041e+03     3.5775     -0.033     -0.048    23.9655 0.0000e+00
     -0.033     -0.001     5.2030     62.093     39.890  39.104334     1.7957      8.414   215.5325 1.3923e+03     3.4748     -0.032     -0.047    23.9757 0.0000e+00
     -0.034      0.000     5.2027     62.168     39.905  39.127221     1.8448      8.413   215.6498 1.4591e+03     3.4993     -0.033     -0.048    23.9838 0.0000e+00
     -0.034 -1.846e-08     5.2107     62.244     39.898  39.127223     1.9648      8.412   215.8384 1.4930e+03     3.6685     -0.033     -0.048    23.9910 0.0000e+00
     -0.033 -2.031e-07     5.2196     62.328     39.868  39.104365     2.0401      8.412   215.9200 1.5140e+03     3.7783     -0.032     -0.046    23.9994 0.0000e+00
     -0.033 -2.031e-07     5.2260     62.411     39.862  39.104694     2.0392      8.411   215.8627 1.5428e+03     3.7678     -0.032     -0.047    24.0093 0.0000e+00
     -0.033 -1.846e-08     5.2305     62.476     39.882  39.131210     2.0295      8.410   215.8342 1.5999e+03     3.7471     -0.033     -0.048    24.0190 0.0000e+00
     -0.033 -1.678e-09     5.2358     62.513     39.917  39.171146     2.0466      8.410   215.8337 1.6805e+03     3.7664     -0.033     -0.047    24.0276 0.0000e+00
     -0.034 -1.526e-10     5.2427     62.542     39.948  39.206810     2.0806      8.410   216.0286 1.7157e+03     3.7627     -0.034     -0.049    24.0354 0.0000e+00
     -0.034 -1.389e-11     5.2490     62.607     39.918  39.181663     2.1071      8.408   216.2116 1.6920e+03     3.8050     -0.033     -0.048    24.0439 0.0000e+00
     -0.033 -1.513e-12     5.2543     62.699     39.850  39.120940     2.1171      8.406   216.1531 1.6749e+03     3.8336     -0.032     -0.046    24.0534 0.0000e+00
     -0.033 -2.890e-12     5.2562     62.769     39.830  39.107218     2.1264      8.406   216.1824 1.6908e+03     3.8001     -0.032     -0.046    24.0612 0.0000e+00
     -0.033 -3.054e-11     5.2557     62.818     39.860  39.142682     2.1365      8.406   216.3073 1.7376e+03     3.7758     -0.032     -0.046    24.0663 0.0000e+00
     -0.033 -3.359e-10     5.2610     62.857     39.880  39.168981     2.1388      8.406   216.3732 1.7854e+03     3.7455     -0.033     -0.047    24.0712 0.0000e+00
     -0.034 -3.694e-09     5.2712     62.891     39.877  39.171371     2.1049      8.405   216.4626 1.8020e+03     3.8099     -0.033     -0.048    24.0786 0.0000e+00
     -0.034 -4.064e-08     5.2748     62.925     39.872  39.171584     2.0269      8.405   216.5283 1.8200e+03     3.9048     -0.034     -0.049    24.0877 0.0000e+00
     -0.034 -4.470e-07     5.2783     62.960     39.866  39.171567     1.9685      8.404   216.6510 1.8228e+03     3.9367     -0.034     -0.049    24.0959 0.0000e+00
     -0.033     -0.000     5.2806     63.000     39.860  39.171167     1.9571      8.404   216.8267 1.7975e+03     3.9909     -0.032     -0.046    24.1030 0.0000e+00
     -0.032     -0.000     5.2824     63.027     39.850  39.166760     1.9639      8.404   216.9325 1.7939e+03     4.0125     -0.031     -0.045    24.1095 0.0000e+00
     -0.032     -0.001     5.2850     63.050     39.795  39.118290     1.9834      8.402   216.9845 1.8004e+03     3.9591     -0.032     -0.046    24.1160 0.0000e+00
     -0.033     -0.002     5.2865     63.161     39.508  38.838968     2.0179      8.401   216.9389 1.8018e+03     3.9262     -0.032     -0.046    24.1232 0.0000e+00
     -0.034     -0.002     5.2899     63.393     39.014  38.327838     2.0411      8.402   216.8970 1.8035e+03     3.9566     -0.034     -0.048    24.1303 0.0000e+00
     -0.036     -0.002     5.2926     64.261     38.738  37.951402     2.0553      8.402   216.9075 1.8112e+03     4.0199     -0.035     -0.051    24.1374 0.0000e+00
     -0.036     -0.001     5.2896     67.570     38.806  37.840965     2.0653      8.402   216.9803 1.8308e+03     4.0082     -0.036     -0.053    24.1444 0.0000e+00
     -0.036     -0.000     5.2952     74.349     38.956  37.817209     2.0530      8.403   217.1752 1.8413e+03     3.8491     -0.036     -0.052    24.1521 0.0000e+00
     -0.035      0.001     5.3211     83.038     39.042  37.790827     2.0321      8.404   217.2848 1.8401e+03     3.7013     -0.035     -0.050    24.1562 0.0000e+00
     -0.035      0.001     5.3311     91.558     39.089  37.775655     2.0286      8.403   217.2730 1.8290e+03     3.6898     -0.034     -0.049    24.0268 0.0000e+00
     -0.034      0.000     5.5805     98.822     39.107  37.760592     2.0437      8.403   217.2907 1.8107e+03     3.7438     -0.033     -0.048    23.7373 0.0000e+00
     -0.034      0.000     6.2643    104.367     39.102  37.735566     2.0487      8.403   217.2411 1.8126e+03     3.7397     -0.033     -0.048    23.4988 0.0000e+00
     -0.035      0.000     7.0879    108.058     39.112  37.726862     2.0391      8.403   217.1026 1.8268e+03     3.6742     -0.033     -0.048    23.3709 0.0000e+00
     -0.036      0.001     7.8469    109.835     39.121  37.718789     2.0360      8.403   216.9938 1.8314e+03     3.6693     -0.035     -0.051    23.3025 0.0000e+00
     -0.036      0.002     8.4869    109.790     39.116  37.701374     2.0692      8.403   216.9577 1.8306e+03     3.7486     -0.036     -0.053    23.2693 0.0000e+00
     -0.035      0.002     8.9638    108.533     39.130  37.706653     2.1407      8.403   217.0097 1.8196e+03     3.8479     -0.035     -0.051    23.2474 0.0000e+00
     -0.033      0.002     9.2847    106.925     39.146  37.719144     2.1771      8.402   217.1064 1.8040e+03     3.8449     -0.032     -0.046    23.2242 0.0000e+00
     -0.032      0.001     9.4444    105.512     39.154  37.725490     2.1601      8.401   217.0951 1.8060e+03     3.7464     -0.029     -0.043    23.1993 0.0000e+00
     -0.032      0.000     9.4221    104.458     39.150  37.719915     2.1425      8.399   217.0446 1.8079e+03     3.7509     -0.031     -0.045    23.1836 0.0000e+00
     -0.033     -0.002     9.2840    103.700     39.147  37.715200     2.1472      8.399   217.0985 1.7894e+03     3.8987     -0.033     -0.047    23.1732 0.0000e+00
     -0.034     -0.003     9.1329    103.132     39.166  37.731930     2.1673      8.398   217.1446 1.7670e+03     4.0303     -0.033     -0.048    23.1718 0.0000e+00
     -0.035     -0.003     9.0076    102.680     39.164  37.731835     2.1689      8.397   217.1715 1.7591e+03     4.0452     -0.034     -0.049    23.1714 0.0000e+00
     -0.036     -0.002     8.9222    102.300     39.141  37.714057     2.1502      8.397   217.2522 1.7756e+03     3.9760     -0.035     -0.051    23.1669 0.0000e+00
     -0.036     -0.001     8.8611    101.972     39.129  37.707345     2.1068      8.397   217.2601 1.7996e+03     3.8762     -0.036     -0.052    23.1653 0.0000e+00
     -0.036      0.000     8.8147    101.710     39.133  37.714154     2.0357      8.396   217.2665 1.7941e+03     3.7957     -0.036     -0.052    23.1634 0.0000e+00
     -0.035      0.000     8.7776    101.541     39.153  37.732925     1.9987      8.396   217.5021 1.7855e+03     3.7876     -0.035     -0.050    23.1638 0.0000e+00
     -0.035      0.001     8.7444    101.448     39.168  37.743943     1.9920      8.396   217.6999 1.8102e+03     3.8120     -0.034     -0.049    23.1702 0.0000e+00
     -0.035      0.001     8.7145    101.374     39.147  37.720444     2.0128      8.395   217.6792 1.8324e+03     3.8180     -0.034     -0.049    23.1792 0.0000e+00
     -0.035      0.001     8.6902    101.318     39.134  37.702618     2.0752      8.394   217.6817 1.8472e+03     3.8264     -0.034     -0.049    23.1843 0.0000e+00
     -0.035      0.000     8.6755    101.299     39.158  37.718772     2.1063      8.392   217.7299 1.8507e+03     3.8444     -0.035     -0.051    23.1821 0.0000e+00
     -0.035 1.8306e-08     8.6724    101.279     39.169  37.725377     2.0970      8.391   217.7455 1.8250e+03     3.8308     -0.034     -0.050    23.1768 0.0000e+00
     -0.035 2.0136e-07     8.6658    101.234     39.162  37.719022     2.0873      8.391   217.7842 1.8122e+03     3.7310     -0.034     -0.049    23.1732 0.0000e+00
     -0.035 1.6750e-07     8.6601    101.186     39.147  37.705395     2.0892      8.391   217.8543 1.8135e+03     3.6624     -0.033     -0.048    23.1674 0.0000e+00
     -0.035 -3.912e-07     8.6634    101.166     39.132  37.687523     2.1031      8.390   217.9044 1.8142e+03     3.7524     -0.034     -0.049    23.1544 0.0000e+00
     -0.035      0.000     8.6632    101.180     39.143  37.693288     2.1638      8.389   217.9599 1.8260e+03     3.8621     -0.035     -0.050    23.1484 0.0000e+00
     -0.035      0.000     8.6579    101.210     39.168  37.711642     2.8310      8.389   218.0088 1.8200e+03     3.9983     -0.035     -0.051    23.1523 0.0000e+00
     -0.035     -0.001     8.6517    101.223     39.178  37.719064     4.0618      8.389   217.9801 1.7878e+03     4.2379     -0.034     -0.050    23.1553 0.0000e+00
     -0.035     -0.001     8.6511    101.217     39.175  37.719574     4.7602      8.389   217.9563 1.7739e+03     4.4026     -0.033     -0.048    23.1510 0.0000e+00
     -0.035     -0.001     8.6538    101.220     39.171  37.717804     5.0587      8.389   217.9791 1.7839e+03     4.4863     -0.033     -0.048    23.1417 0.0000e+00
     -0.036     -0.001     8.6597    101.229     39.152  37.697672     7.5287      8.388   217.9117 1.8063e+03     4.5327     -0.035     -0.050    23.1324 0.0000e+00
     -0.036      0.000     8.6612    101.253     39.128  37.666523    12.0270      8.386   217.8293 1.8386e+03     4.4854     -0.036     -0.052    23.1308 0.0000e+00
     -0.036      0.001     8.6575    101.310     39.130  37.658453    14.4691      8.385   217.9294 1.8418e+03     4.3933     -0.037     -0.053    23.1375 0.0000e+00
     -0.035      0.001     8.6585    101.391     39.143  37.663532    14.6672      8.385   218.0903 1.8254e+03     4.3747     -0.036     -0.051    23.1411 0.0000e+00
     -0.034      0.002     8.6589    101.492     39.145  37.664467    14.5305      8.385   218.1389 1.8186e+03     4.4312     -0.034     -0.049    23.1405 0.0000e+00
     -0.033      0.002     8.6613    101.600     39.149  37.669760    12.8911      8.384   218.1733 1.8263e+03     4.4276     -0.032     -0.048    23.1293 0.0000e+00
     -0.033      0.002     8.6706    101.686     39.141  37.664081     9.8761      8.382   218.3336 1.8208e+03     4.3650     -0.033     -0.047    23.1112 0.0000e+00
     -0.033      0.001     8.6786    101.744     39.136  37.659258     8.2064      8.382   218.4431 1.7884e+03     4.2555     -0.033     -0.047    23.1018 0.0000e+00
     -0.033      0.000     8.6875    101.797     39.156  37.674900     7.9261      8.382   218.3783 1.7772e+03     4.1630     -0.032     -0.047    23.1011 0.0000e+00
     -0.033     -0.001     8.6977    101.837     39.145  37.662843     6.5122      8.381   218.3239 1.7901e+03     4.1686     -0.033     -0.047    23.1043 0.0000e+00
     -0.033     -0.001     8.7046    101.806     39.120  37.640385     3.9120      8.380   218.3875 1.8241e+03     4.1186     -0.033     -0.047    23.1090 0.0000e+00
     -0.033     -0.001     8.7082    101.676     39.135  37.657181     2.4723      8.379   218.5452 1.8596e+03     4.0019     -0.032     -0.047    23.1093 0.0000e+00
     -0.034      0.000     8.7137    101.515     39.153  37.675556     2.3306      8.378   218.6823 1.8597e+03     3.9527     -0.034     -0.049    23.1023 0.0000e+00
     -0.034 -1.861e-08     8.7205    101.402     39.151  37.672186     2.2487      8.378   218.7549 1.8465e+03     3.9686     -0.034     -0.049    23.0984 0.0000e+00
     -0.034 -2.047e-07     8.7187    101.331     39.160  37.679892     2.1142      8.377   218.8205 1.8365e+03     4.0227     -0.034     -0.049    23.1026 0.0000e+00
     -0.034 -2.047e-07     8.7040    101.273     39.185  37.705274     2.0439      8.376   218.8731 1.8298e+03     4.0607     -0.033     -0.048    23.1077 0.0000e+00
     -0.034 -1.861e-08     8.6859    101.215     39.201  37.725256     2.0404      8.376   218.8752 1.8291e+03     4.2573     -0.033     -0.047    23.1098 0.0000e+00
     -0.034 -1.692e-09     8.6784    101.175     39.200  37.731132     2.1634      8.376   218.8458 1.8287e+03     6.9114     -0.033     -0.048    23.1064 0.0000e+00
     -0.034 -1.538e-10     8.6736    101.152     39.171  37.712885     2.4155      8.375   218.8619 1.8407e+03    11.8641     -0.033     -0.048    23.1030 0.0000e+00
     -0.034 -1.398e-11     8.6690    101.105     39.144  37.695012     2.5747      8.375   218.8975 1.8654e+03    14.6093     -0.033     -0.048    23.1049 0.0000e+00
     -0.034 -1.271e-12     8.6624    101.046     39.150  37.705405     2.6574      8.374   218.9313 1.8693e+03    14.9277     -0.034     -0.049    23.1108 0.0000e+00
     -0.034 -1.156e-13     8.6562    101.011     39.157  37.711647     3.3658      8.373   219.0127 1.8340e+03    15.7486     -0.033     -0.048    23.1209 0.0000e+00
     -0.034 -1.068e-14     8.6557    100.974     39.153  37.707018     4.6806      8.373   219.1080 1.8062e+03    17.2587     -0.033     -0.048    23.1318 0.0000e+00
     -0.034 -2.865e-15     8.6485    100.937     39.157  37.712890     5.4046      8.373   219.2225 1.8114e+03    18.1218     -0.034     -0.049    23.1453 0.0000e+00
     -0.034 -2.110e-14     8.6391    100.942     39.157  37.719186     5.4939      8.374   219.3648 1.8101e+03    18.2930     -0.034     -0.049    23.1538 0.0000e+00
     -0.034 -2.312e-13     8.6398    100.981     39.151  37.719704     5.6434      8.374   219.3660 1.8036e+03    18.2011     -0.033     -0.048    23.1498 0.0000e+00
     -0.034 -2.543e-12     8.6371    101.006     39.144  37.719174     7.1377      8.373   219.2371 1.8131e+03    16.4987     -0.033     -0.048    23.1455 0.0000e+00
     -0.034 -2.797e-11     8.6304    100.978     39.132  37.712781     9.8863      8.372   219.2687 1.8244e+03    13.4226     -0.033     -0.047    23.1486 0.0000e+00
     -0.034 -3.077e-10     8.6310    100.918     39.119  37.705868    11.4016      8.371   219.4902 1.8224e+03    11.7520     -0.033     -0.048    23.1578 0.0000e+00
     -0.034 -3.384e-09     8.6335    100.878     39.110  37.699054    11.6423      8.371   219.6784 1.8155e+03    11.5351     -0.033     -0.048    23.1674 0.0000e+00
     -0.034 -3.723e-08     8.6370    100.878     39.107  37.693853    12.6223      8.371   219.7378 1.8280e+03    10.5603     -0.033     -0.048    23.1733 0.0000e+00
     -0.034 -4.095e-07     8.6323    100.918     39.125  37.706431    14.3790      8.371   219.7773 1.8488e+03     8.7798     -0.034     -0.049    23.1814 0.0000e+00
     -0.034     -0.000     8.6227    100.949     39.149  37.724219    15.3366      8.372   219.8123 1.8414e+03     7.8380     -0.033     -0.048    23.1905 0.0000e+00
     -0.034     -0.000     8.6200    100.952     39.140  37.718551    15.4036      8.372   219.8168 1.8207e+03     7.8154     -0.033     -0.048    23.1923 0.0000e+00
     -0.034     -0.001     8.6186    100.976     39.113  37.701348    15.1474      8.372   219.8313 1.8284e+03     7.8915     -0.034     -0.049    23.1903 0.0000e+00
     -0.035     -0.001     8.6264    101.045     39.111  37.706605    14.6361      8.371   219.7297 1.8514e+03     7.8700     -0.034     -0.049    23.1821 0.0000e+00
     -0.035     -0.001     8.6320    101.126     39.126  37.718672    14.3227      8.371   219.5354 1.8605e+03     7.7607     -0.034     -0.049    23.1717 0.0000e+00
     -0.035     -0.000     8.6288    101.173     39.136  37.720337    14.0797      8.370   219.4604 1.8528e+03     7.8340     -0.034     -0.050    23.1734 0.0000e+00
     -0.035     -0.000     8.6276    101.195     39.149  37.726721    11.6482      8.370   219.5115 1.8287e+03     8.9606     -0.035     -0.051    23.1915 0.0000e+00
     -0.035     -0.001     8.6317    101.199     39.159  37.732396     7.1629      8.370   219.5507 1.8218e+03    10.9293     -0.035     -0.050    23.2056 0.0000e+00
     -0.035     -0.001     8.6432    101.175     39.151  37.725487     4.7189      8.370   219.5048 1.8417e+03    11.9282     -0.034     -0.049    23.1972 0.0000e+00
     -0.035     -0.001     8.6474    101.115     39.128  37.706649     4.8030      8.370   219.3861 1.8448e+03    11.8494     -0.034     -0.049    23.1843 0.0000e+00
     -0.036     -0.001     8.6505    101.009     39.112  37.694998     8.4462      8.369   219.0624 1.8352e+03    10.6599     -0.035     -0.050    23.1772 0.0000e+00
     -0.037     -0.001     8.6525    100.876     39.132  37.711529    15.1769      8.368   218.7738 1.8393e+03     8.4766     -0.036     -0.053    23.1719 0.0000e+00
     -0.037     -0.000     8.6501    100.758     39.144  37.716149    18.8489      8.368   218.9941 1.8376e+03     7.2789     -0.037     -0.054    23.1714 0.0000e+00
     -0.037      0.000     8.6451    100.677     39.119  37.687402    19.1943      8.368   219.3172 1.8186e+03     7.1439     -0.037     -0.054    23.1780 0.0000e+00
     -0.036      0.001     8.6338    100.624     39.114  37.681218    19.4523      8.367   219.3257 1.7999e+03     6.9809     -0.035     -0.052    23.1858 0.0000e+00
     -0.035      0.001     8.6215    100.584     39.136  37.704830    22.1843      8.367   219.2674 1.7935e+03     6.7768     -0.034     -0.050    23.1822 0.0000e+00
     -0.035      0.000     8.6128    100.548     39.146  37.719082    27.2165      8.368   219.2152 1.8110e+03     6.6572     -0.034     -0.050    23.1688 0.0000e+00
     -0.035     -0.000     8.6078    100.505     39.149  37.726628    29.9744      8.368   219.1246 1.8444e+03     6.6287     -0.035     -0.050    23.1616 0.0000e+00
     -0.036     -0.001     8.6034    100.465     39.151  37.732613    30.3606      8.368   219.1183 1.8647e+03     6.6028     -0.035     -0.051    23.1622 0.0000e+00
     -0.037     -0.001     8.5996    100.448     39.145  37.728003    32.0116      8.367   219.1397 1.8693e+03     6.2759     -0.036     -0.052    23.1658 0.0000e+00
     -0.037     -0.001     8.5959    100.434     39.150  37.734349    35.0374      8.366   219.1249 1.8672e+03     5.7500     -0.036     -0.053    23.1718 0.0000e+00
     -0.037     -0.001     8.5915    100.409     39.157  37.745886    36.6910      8.366   219.1119 1.8546e+03     5.5045     -0.036     -0.052    23.1782 0.0000e+00
     -0.036     -0.002     8.5850    100.386     39.144  37.740588    36.6659      8.365   218.9819 1.8452e+03     5.4944     -0.035     -0.051    23.1836 0.0000e+00
     -0.036     -0.002     8.5853    100.353     39.137  37.733756    34.7165      8.365   218.7574 1.8492e+03     5.5934     -0.035     -0.050    23.1854 0.0000e+00
     -0.038     -0.002     8.5849    100.341     39.142  37.726740    31.1241      8.366   218.5485 1.8576e+03     5.7789     -0.037     -0.054    23.1850 0.0000e+00
     -0.040     -0.001     8.5800    100.407     39.152  37.719196    29.1285      8.367   218.4349 1.8675e+03     5.8926     -0.039     -0.057    23.1901 0.0000e+00
     -0.040     -0.001     8.5774    100.540     39.152  37.705968    28.4326      8.366   218.5033 1.8788e+03     5.8746     -0.040     -0.058    23.2053 0.0000e+00
     -0.040     -0.000     8.5729    100.693     39.145  37.693693    22.4271      8.365   218.6004 1.8560e+03     5.3915     -0.039     -0.057    23.2089 0.0000e+00
     -0.039     -0.000     8.5719    100.850     39.150  37.697683    11.4156      8.365   218.6633 1.8023e+03     4.4916     -0.038     -0.054    23.1887 0.0000e+00
     -0.038     -0.000     8.5832    101.019     39.143  37.690760     5.4084      8.364   218.6618 1.8139e+03     3.9790     -0.036     -0.052    23.1614 0.0000e+00
     -0.038     -0.001     8.5993    101.170     39.125  37.673440     4.8519      8.363   218.4962 1.8554e+03     3.9419     -0.036     -0.053    23.1435 0.0000e+00
     -0.039     -0.001     8.6136    101.268     39.131  37.678630     4.7197      8.363   218.2953 1.8482e+03     4.0084     -0.038     -0.055    23.1398 0.0000e+00
     -0.040     -0.001     8.6261    101.306     39.144  37.690063     4.5595      8.363   218.2109 1.8457e+03     4.0995     -0.040     -0.058    23.1392 0.0000e+00
     -0.040     -0.001     8.6416    101.292     39.139  37.684767     4.4715      8.361   218.2506 1.8352e+03     4.1553     -0.040     -0.059    23.1396 0.0000e+00
     -0.040     -0.000     8.6564    101.259     39.132  37.678049     4.5800      8.360   218.3456 1.7877e+03     4.2050     -0.040     -0.058    23.1400 0.0000e+00
     -0.040      0.001     8.6643    101.210     39.124  37.672284     5.8876      8.360   218.4123 1.7771e+03     4.5984     -0.039     -0.057    23.1377 0.0000e+00
     -0.039      0.001     8.6685    101.120     39.127  37.678525     8.2793      8.360   218.3684 1.8047e+03     5.2908     -0.038     -0.055    23.1366 0.0000e+00
     -0.039      0.001     8.6653    100.997     39.136  37.690063     9.5774      8.359   218.2456 1.8118e+03     5.6078     -0.038     -0.055    23.1359 0.0000e+00
     -0.038      0.000     8.6623    100.863     39.129  37.684880     9.6894      8.358   218.1316 1.8348e+03     5.5623     -0.038     -0.055    23.1361 0.0000e+00
     -0.038      0.000     8.6597    100.753     39.121  37.679316     9.8994      8.357   218.0230 1.8788e+03     5.5602     -0.038     -0.055    23.1390 0.0000e+00
     -0.039      0.001     8.6502    100.687     39.127  37.686247    12.2992      8.357   217.9649 1.8838e+03     5.5136     -0.039     -0.056    23.1427 0.0000e+00
     -0.039      0.002     8.6386    100.642     39.146  37.705226    16.6989      8.357   218.1179 1.8611e+03     5.3063     -0.039     -0.056    23.1477 0.0000e+00
     -0.039      0.002     8.6255    100.616     39.160  37.718427    19.0841      8.357   218.4104 1.8447e+03     5.1383     -0.038     -0.056    23.1509 0.0000e+00
     -0.038      0.002     8.6144    100.629     39.160  37.718946    19.2404      8.357   218.4904 1.8330e+03     5.1218     -0.037     -0.054    23.1521 0.0000e+00
     -0.036      0.001     8.6106    100.691     39.154  37.711504    18.8211      8.356   218.3963 1.8292e+03     5.1063     -0.034     -0.049    23.1540 0.0000e+00
     -0.035      0.001     8.6062    100.771     39.138  37.691902    18.0511      8.356   218.3050 1.8420e+03     5.0543     -0.033     -0.048    23.1539 0.0000e+00
     -0.036      0.001     8.6033    100.814     39.124  37.672295    17.6380      8.355   218.0753 1.8555e+03     5.0045     -0.035     -0.051    23.1540 0.0000e+00
     -0.037      0.001     8.6038    100.830     39.120  37.664796    17.5050      8.355   217.8561 1.8603e+03     4.8805     -0.037     -0.054    23.1543 0.0000e+00
     -0.037      0.001     8.6095    100.841     39.118  37.664682    16.3935      8.355   217.8916 1.8708e+03     4.3750     -0.037     -0.054    23.1535 0.0000e+00
     -0.036      0.001     8.6209    100.815     39.121  37.670912    14.3775      8.355   218.0739 1.8779e+03     3.5715     -0.035     -0.051    23.1494 0.0000e+00
     -0.034      0.002     8.6246    100.745     39.127  37.676674    13.3051      8.354   218.2532 1.8578e+03     3.1592     -0.034     -0.049    23.1384 0.0000e+00
     -0.034      0.002     8.6258    100.690     39.124  37.670897    13.4986      8.353   218.4238 1.8233e+03     3.1131     -0.033     -0.048    23.1314 0.0000e+00
     -0.034      0.001     8.6280    100.679     39.122  37.664514    16.5661      8.353   218.5028 1.8181e+03     2.9453     -0.033     -0.048    23.1366 0.0000e+00
     -0.034      0.000     8.6253    100.703     39.125  37.662945    22.1705      8.353   218.5194 1.8305e+03     2.7363     -0.033     -0.048    23.1437 0.0000e+00
     -0.035      0.000     8.6162    100.778     39.118  37.651920    25.1968      8.353   218.6250 1.8282e+03     2.7044     -0.035     -0.050    23.1426 0.0000e+00
     -0.035     -0.001     8.6117    100.879     39.128  37.658123    25.2325      8.353   218.7472 1.8307e+03     2.9348     -0.034     -0.049    23.1372 0.0000e+00
     -0.034     -0.001     8.6133    100.969     39.149  37.674485    22.5864      8.353   218.7925 1.8329e+03     5.3508     -0.033     -0.048    23.1319 0.0000e+00
     -0.034     -0.001     8.6140    101.047     39.136  37.659378    17.6649      8.352   218.7425 1.8316e+03     9.7814     -0.033     -0.048    23.1257 0.0000e+00
     -0.035      0.000     8.6230    101.117     39.144  37.665818    14.9747      8.352   218.6591 1.8423e+03    12.1999     -0.034     -0.049    23.1201 0.0000e+00
     -0.037      0.001     8.6341    101.176     39.167  37.688901    14.7453      8.353   218.5582 1.8467e+03    12.4584     -0.036     -0.052    23.1159 0.0000e+00
     -0.037      0.002     8.6418    101.211     39.162  37.684654    14.7325      8.353   218.5553 1.8444e+03    12.3942     -0.037     -0.053    23.1116 0.0000e+00
     -0.036      0.002     8.6491    101.196     39.157  37.677928    14.7124      8.353   218.7961 1.8445e+03    11.0815     -0.036     -0.052    23.1071 0.0000e+00
     -0.034      0.002     8.6555    101.118     39.153  37.671023    14.6852      8.352   219.0599 1.8393e+03     8.7139     -0.032     -0.048    23.1058 0.0000e+00
     -0.032      0.002     8.6603    101.036     39.149  37.664622    14.6447      8.351   219.1639 1.8443e+03     7.4740     -0.030     -0.044    23.1082 0.0000e+00
     -0.031      0.001     8.6642    101.019     39.149  37.663989    14.3901      8.350   219.1939 1.8492e+03     7.3280     -0.030     -0.043    23.1091 0.0000e+00
     -0.032      0.000     8.6646    101.059     39.148  37.663363    11.5813      8.350   219.1645 1.8350e+03     6.1295     -0.031     -0.045    23.1062 0.0000e+00
     -0.034     -0.001     8.6560    101.114     39.142  37.657056     6.4192      8.350   219.0655 1.8355e+03     3.8791     -0.033     -0.048    23.1020 0.0000e+00
     -0.034     -0.001     8.6467    101.169     39.137  37.651182     3.6115      8.351   219.0293 1.8530e+03     2.6643     -0.034     -0.049    23.0982 0.0000e+00
     -0.034      0.000     8.6461    101.224     39.143  37.655801     3.3767      8.351   219.0715 1.8563e+03     2.6462     -0.033     -0.048    23.0975 0.0000e+00
     -0.033      0.000     8.6513    101.281     39.138  37.649445     3.6133      8.351   219.0594 1.8530e+03     2.9422     -0.032     -0.047    23.0994 0.0000e+00
     -0.032      0.001     8.6562    101.299     39.128  37.637784     4.0930      8.351   218.9695 1.8332e+03     3.3055     -0.032     -0.046    23.0989 0.0000e+00
     -0.032      0.001     8.6613    101.217     39.132  37.641718     4.3661      8.352   218.5864 1.8040e+03     3.4170     -0.031     -0.045    23.0970 0.0000e+00
     -0.032      0.002     8.6657    101.056     39.124  37.633553     4.5515      8.352   217.6968 1.8046e+03     3.4372     -0.032     -0.046    23.0953 0.0000e+00
     -0.033      0.005     8.6723    100.918     39.095  37.602508     6.2353      8.351   216.7311 1.8173e+03     4.0622     -0.033     -0.047    23.0918 0.0000e+00
     -0.033      0.009     8.6773    100.853     39.082  37.583632     9.3181      8.350   216.1170 1.8122e+03     5.2356     -0.033     -0.047    23.0890 0.0000e+00
     -0.031      0.014     8.6697    100.842     39.101  37.595687    11.0218      8.349   215.9501 1.7770e+03     5.8739     -0.031     -0.045    23.0900 0.0000e+00
     -0.027      0.018     8.6508    100.852     39.131  37.621335    11.3858      8.347   216.0036 1.9919e+03     5.9042     -0.027     -0.039    23.0907 0.0000e+00
     -0.020      0.021     8.6388    100.893     39.147  37.639919    13.9274      8.345   215.8172 2.3570e+03     6.1139     -0.020     -0.029    23.0863 0.0000e+00
     -0.011      0.022     8.6355    101.020     39.132  37.630029    18.6143      8.344   215.5900 2.2386e+03     6.5988     -0.010     -0.014    23.0781 0.0000e+00
     -0.004      0.022     8.6374    101.221     39.067  37.565214    21.1871      8.343   215.6645 1.8297e+03     6.9167     -0.003     -0.004    23.0672 0.0000e+00
     -0.000      0.019     8.6398    101.425     39.005  37.490788    21.3896      8.342   215.8580 1.6586e+03     6.9174     -0.001     -0.001    23.0622 0.0000e+00
      0.005      0.013     8.6385    101.592     39.030  37.491588    21.0454      8.341   215.9514 1.6618e+03     6.7439      0.004      0.006    23.0666 0.0000e+00
      0.010      0.007     8.6490    101.748     39.075  37.511404    17.1589      8.341   215.9334 1.7064e+03     6.0829      0.011      0.016    23.0772 0.0000e+00
      0.012      0.002     8.6686    101.954     39.055  37.476532    10.0462      8.340   215.9848 1.8142e+03     5.0402      0.014      0.020    23.0803 0.0000e+00
      0.010     -0.002     8.6913    102.219     39.038  37.450659     6.2168      8.337   216.0555 1.8662e+03     4.5547      0.011      0.016    23.0556 0.0000e+00
      0.006     -0.005     8.7104    102.487     39.049  37.452375     6.3563      8.336   215.9285 1.8166e+03     4.6533      0.005      0.008    23.0228 0.0000e+00
      0.002     -0.007     8.7259    102.719     39.039  37.433825    11.6748      8.336   215.7398 1.7694e+03     5.8228      0.001      0.001    22.9917 0.0000e+00
     -0.000     -0.007     8.7473    102.944     39.032  37.416718    21.4909      8.336   215.6673 1.7503e+03     8.0371     -0.002     -0.002    22.9694 0.0000e+00
     -0.000     -0.008     8.7732    103.174     39.067  37.435885    26.8374      8.336   215.8256 1.7328e+03     9.2911     -0.000     -0.001    22.9627 0.0000e+00
      0.000     -0.011     8.8005    103.395     39.119  37.475185    27.1132      8.336   216.1914 1.7191e+03     9.3708      0.002      0.002    22.9495 0.0000e+00
     -0.000     -0.015     8.8205    103.640     39.145  37.511147    24.7007      8.334   216.5624 1.7267e+03     8.3853      0.001      0.003    22.9372 0.0000e+00
     -0.005     -0.019     8.8400    103.906     39.160  37.553441    20.1816      8.332   216.8690 1.6783e+03     6.4967     -0.004     -0.005    22.9309 0.0000e+00
     -0.014     -0.023     8.8662    104.096     39.184  37.605866    17.7009      8.332   217.0603 1.5936e+03     5.4932     -0.014     -0.020    22.9066 0.0000e+00
     -0.023     -0.025     8.8867    104.090     39.188  37.637424    17.2534      8.332   217.0678 1.6202e+03     5.4421     -0.024     -0.034    22.8798 0.0000e+00
     -0.031     -0.022     8.9046    103.883     39.146  37.617767    14.6635      8.332   217.0463 1.7463e+03     5.1947     -0.030     -0.044    22.8997 0.0000e+00
     -0.036     -0.016     8.9230    103.560     39.081  37.558589     9.9412      8.332   217.1446 1.8612e+03     4.6544     -0.035     -0.051    22.9447 0.0000e+00
     -0.041     -0.008     8.9382    103.152     39.032  37.493008     7.3566      8.332   217.2244 1.9229e+03     4.3067     -0.040     -0.058    22.9807 0.0000e+00
     -0.043     -0.002     8.9315    102.705     39.032  37.459357     7.1087      8.332   217.3222 1.9236e+03     4.2698     -0.044     -0.063    23.0198 0.0000e+00
     -0.041      0.002     8.9035    102.356     39.077  37.468939     6.9695      8.332   217.4663 1.8530e+03     4.4479     -0.042     -0.061    23.0494 0.0000e+00
     -0.036      0.004     8.8753    102.261     39.107  37.481908     6.7474      8.332   217.5900 1.8148e+03     4.7859     -0.034     -0.049    23.0572 0.0000e+00
     -0.031      0.004     8.8438    102.487     39.107  37.489223     6.6202      8.332   217.6997 1.8473e+03     4.9753     -0.029     -0.042    23.0331 0.0000e+00
     -0.031      0.003     8.8095    102.934     39.100  37.493946     6.5885      8.331   217.7607 1.8380e+03     4.9272     -0.029     -0.043    22.9785 0.0000e+00
     -0.034      0.001     8.7828    103.395     39.079  37.475585     6.5886      8.331   217.8113 1.8101e+03     4.8536     -0.033     -0.048    22.9280 0.0000e+00
     -0.036     -0.001     8.7757    103.721     39.062  37.457579     6.7707      8.330   217.7956 1.8213e+03     4.8376     -0.036     -0.052    22.9046 0.0000e+00
     -0.036     -0.001     8.7951    103.920     39.070  37.466595     7.1010      8.330   217.7429 1.8564e+03     4.8021     -0.036     -0.052    22.9238 0.0000e+00
     -0.035     -0.001     8.8371    104.055     39.058  37.457691     7.2779      8.332   217.7764 1.8654e+03     4.7315     -0.034     -0.049    22.9499 0.0000e+00
     -0.034     -0.001     8.8826    104.101     39.014  37.413383     7.3453      8.334   217.9423 1.8382e+03     4.8026     -0.033     -0.047    22.9445 0.0000e+00
     -0.034     -0.001     8.9111    104.004     38.985  37.375048     8.1074      8.335   218.1993 1.8228e+03     6.2768     -0.033     -0.047    22.9368 0.0000e+00
     -0.035     -0.001     8.9234    103.798     39.005  37.374894     9.5423      8.335   218.3886 1.8188e+03     9.0293     -0.034     -0.049    22.9420 0.0000e+00
     -0.036     -0.001     8.9355    103.582     39.068  37.411502    10.3372      8.335   218.4244 1.8164e+03    10.5161     -0.036     -0.052    22.9495 0.0000e+00
     -0.036     -0.002     8.9432    103.471     39.114  37.436906    10.4187      8.335   218.3747 1.8348e+03    10.4870     -0.037     -0.053    22.9463 0.0000e+00
     -0.036     -0.002     8.9350    103.530     39.110  37.428210    10.6038      8.335   218.3902 1.8555e+03     9.2929     -0.036     -0.053    22.9322 0.0000e+00
     -0.036     -0.002     8.9187    103.758     39.108  37.433253    10.9687      8.335   218.4386 1.8475e+03     7.2828     -0.035     -0.050    22.9086 0.0000e+00
     -0.036     -0.003     8.9018    104.076     39.096  37.434434    11.2016      8.335   218.4432 1.8436e+03     6.3362     -0.035     -0.051    22.8719 0.0000e+00
     -0.037     -0.003     8.8956    104.362     39.027  37.379055    11.3975      8.335   218.4466 1.8598e+03     6.6266     -0.037     -0.053    22.8424 0.0000e+00
     -0.040     -0.002     8.9013    104.535     38.981  37.334785    13.2870      8.336   218.4797 1.8728e+03    10.5546     -0.038     -0.056    22.8377 0.0000e+00
     -0.041     -0.001     8.9213    104.593     39.005  37.343350    16.7688      8.337   218.5859 1.8649e+03    17.8600     -0.041     -0.061    22.8505 0.0000e+00
     -0.041      0.001     8.9496    104.601     39.041  37.355678    18.7123      8.337   218.7841 1.8489e+03    21.8541     -0.042     -0.060    22.8711 0.0000e+00
     -0.040      0.003     8.9738    104.612     39.065  37.356905    19.2168      8.337   219.0688 1.8359e+03    21.9546     -0.039     -0.057    22.8888 0.0000e+00
     -0.037      0.003     8.9887    104.649     39.076  37.358153    22.6850      8.337   219.3608 1.8056e+03    18.4941     -0.037     -0.053    22.8903 0.0000e+00
     -0.035      0.003     8.9940    104.719     39.076  37.370746    29.0101      8.338   219.4753 1.7797e+03    12.0211     -0.035     -0.050    22.8684 0.0000e+00
     -0.035      0.002     8.9996    104.838     39.066  37.382280    32.4630      8.339   219.5074 1.7914e+03     8.5253     -0.034     -0.050    22.8351 0.0000e+00
     -0.035      0.001     9.0043    104.985     39.043  37.370742    32.7806      8.339   219.6628 1.8121e+03     8.3025     -0.034     -0.049    22.8036 0.0000e+00
     -0.036      0.000     9.0123    105.113     39.035  37.358167    32.7917      8.339   219.8052 1.8073e+03     8.4051     -0.035     -0.050    22.7839 0.0000e+00
     -0.037 -1.385e-10     9.0125    105.196     39.045  37.357129    32.4392      8.339   219.9388 1.8102e+03     9.4579     -0.036     -0.052    22.8064 0.0000e+00
     -0.037 -1.524e-09     9.0164    105.204     39.051  37.358170    31.7723      8.339   220.0735 1.8295e+03    11.4670     -0.036     -0.053    22.8480 0.0000e+00
     -0.036 -1.676e-08     9.0295    105.152     39.065  37.370757    31.4040      8.340   220.0574 1.8319e+03    12.6111     -0.035     -0.052    22.8615 0.0000e+00
     -0.036 -1.844e-07     9.0417    105.062     39.077  37.382409    31.3644      8.342   220.0014 1.8224e+03    12.8042     -0.035     -0.051    22.8490 0.0000e+00
     -0.036 -1.844e-07     9.0550    104.958     39.063  37.372140    31.3358      8.342   220.0849 1.8202e+03    13.1535     -0.035     -0.051    22.8294 0.0000e+00
     -0.036 -1.646e-08     9.0547    104.861     39.060  37.373501    31.2665      8.342   220.2934 1.8327e+03    13.6576     -0.035     -0.051    22.8248 0.0000e+00
     -0.036 1.8628e-09     9.0494    104.762     39.083  37.398872    31.2080      8.342   220.4566 1.8416e+03    13.8774     -0.036     -0.052    22.8274 0.0000e+00
     -0.036 3.7117e-08     9.0418    104.675     39.110  37.425085    31.1613      8.343   220.5106 1.8360e+03    13.8983     -0.036     -0.052    22.8244 0.0000e+00
     -0.036 4.0980e-07     9.0303    104.611     39.120  37.436622    30.7524      8.343   220.6011 1.8333e+03    14.3198     -0.035     -0.051    22.8288 0.0000e+00
     -0.036      0.000     9.0223    104.554     39.087  37.411457    30.0010      8.343   220.7766 1.8291e+03    15.1138     -0.036     -0.052    22.8370 0.0000e+00
     -0.036      0.000     9.0118    104.471     39.038  37.374652    29.5833      8.343   220.9985 1.8220e+03    15.5396     -0.036     -0.052    22.8404 0.0000e+00
     -0.036      0.001     9.0044    104.353     39.028  37.372353    29.5568      8.343   221.1330 1.8379e+03    15.5740     -0.036     -0.052    22.8397 0.0000e+00
     -0.036      0.001     8.9993    104.258     39.038  37.383682    29.8471      8.343   221.0259 1.8545e+03    16.0425     -0.036     -0.052    22.8398 0.0000e+00
     -0.036      0.001     8.9935    104.220     39.046  37.384723    30.3878      8.344   220.9086 1.8519e+03    16.9340     -0.035     -0.051    22.8496 0.0000e+00
     -0.035      0.001     8.9856    104.220     39.057  37.384924    30.6838      8.344   221.0051 1.8512e+03    17.4031     -0.035     -0.050    22.8649 0.0000e+00
     -0.034      0.001     8.9695    104.253     39.068  37.386097    30.8128      8.345   221.1601 1.8446e+03    17.3422     -0.034     -0.049    22.8773 0.0000e+00
     -0.034      0.001     8.9606    104.333     39.088  37.398894    32.0312      8.346   221.2337 1.8432e+03    16.3682     -0.034     -0.049    22.8785 0.0000e+00
     -0.034      0.001     8.9602    104.438     39.102  37.412730    34.2870      8.346   221.2929 1.8545e+03    14.6795     -0.034     -0.049    22.8680 0.0000e+00
     -0.034      0.000     8.9630    104.532     39.110  37.426485    35.5236      8.347   221.4461 1.8490e+03    13.8331     -0.034     -0.049    22.8531 0.0000e+00
     -0.034 1.8628e-08     8.9670    104.625     39.112  37.438308    35.6129      8.347   221.6228 1.8343e+03    13.7857     -0.033     -0.048    22.8402 0.0000e+00
     -0.034 2.0490e-07     8.9756    104.720     39.093  37.428781    35.3999      8.347   221.6228 1.8348e+03    13.6623     -0.034     -0.049    22.8319 0.0000e+00
     -0.034 2.0490e-07     8.9875    104.792     39.098  37.438216    32.9817      8.347   221.5319 1.8383e+03    12.7512     -0.034     -0.049    22.8307 0.0000e+00
     -0.034 1.8627e-08     8.9922    104.821     39.145  37.488937    28.5638      8.348   221.5560 1.8236e+03    11.2411     -0.033     -0.048    22.8417 0.0000e+00
     -0.034 1.6934e-09     8.9976    104.776     39.181  37.534408    26.1547      8.348   221.6555 1.7977e+03    10.5030     -0.034     -0.049    22.8562 0.0000e+00
     -0.035 1.5395e-10     9.0054    104.617     39.175  37.543836    25.7602      8.348   221.7030 1.7952e+03    10.3852     -0.034     -0.049    22.8669 0.0000e+00
     -0.035 1.3995e-11     9.0108    104.371     39.152  37.539504    23.7109      8.348   221.7009 1.8145e+03     9.3383     -0.034     -0.049    22.8724 0.0000e+00
     -0.035 1.2725e-12     9.0131    104.085     39.140  37.545508    19.9869      8.348   221.7163 1.8240e+03     7.4438     -0.034     -0.050    22.8765 0.0000e+00
     -0.034 1.1796e-13     9.0096    103.778     39.132  37.553007    17.9544      8.348   221.7162 1.8276e+03     6.4711     -0.034     -0.049    22.8909 0.0000e+00
     -0.034 3.5714e-14     8.9903    103.453     39.134  37.566737    17.6383      8.348   221.6998 1.8340e+03     6.4596     -0.034     -0.049    22.9125 0.0000e+00
     -0.034 2.7815e-13     8.9634    103.118     39.141  37.584618    15.9406      8.349   221.6902 1.8342e+03     6.2451     -0.034     -0.049    22.9353 0.0000e+00
     -0.034 3.0492e-12     8.9348    102.827     39.124  37.578863    12.8334      8.350   221.6859 1.7987e+03     5.7229     -0.034     -0.049    22.9600 0.0000e+00
     -0.034 3.3540e-11     8.9045    102.631     39.097  37.560616    11.1226      8.350   221.7340 1.7563e+03     5.3715     -0.034     -0.049    22.9790 0.0000e+00
     -0.034 3.6894e-10     8.8752    102.527     39.087  37.554376    10.9198      8.350   221.8419 1.7636e+03     5.3107     -0.034     -0.049    22.9916 0.0000e+00
     -0.034 4.0584e-09     8.8420    102.505     39.103  37.566868    10.4317      8.350   221.8716 1.7798e+03     5.0900     -0.034     -0.049    23.0058 0.0000e+00
     -0.034 4.4642e-08     8.8120    102.528     39.129  37.584752     9.5407      8.350   221.8353 1.7620e+03     4.6152     -0.035     -0.050    23.0214 0.0000e+00
     -0.034 4.9106e-07     8.7944    102.517     39.131  37.580227     9.0436      8.350   221.8335 1.7335e+03     4.2842     -0.034     -0.049    23.0328 0.0000e+00
     -0.034      0.000     8.7849    102.453     39.130  37.575603     8.9663      8.350   221.7630 1.6956e+03     4.1623     -0.034     -0.050    23.0379 0.0000e+00
     -0.034      0.000     8.7838    102.375     39.146  37.592294     8.7553      8.350   221.4138 1.6382e+03     4.2344     -0.034     -0.049    23.0333 0.0000e+00
     -0.035      0.001     8.7922    102.318     39.144  37.591669     8.3990      8.350   220.8800 1.6104e+03     4.4381     -0.034     -0.049    23.0211 0.0000e+00
     -0.035      0.002     8.7928    102.290     39.119  37.568056     8.1955      8.350   220.6437 1.6254e+03     4.5075     -0.034     -0.050    23.0102 0.0000e+00
     -0.035      0.004     8.7863    102.273     39.115  37.560616     8.1595      8.351   220.7067 1.6476e+03     4.4245     -0.036     -0.052    23.0061 0.0000e+00
     -0.035      0.005     8.7784    102.263     39.124  37.565147     8.1707      8.352   220.7822 1.6007e+03     4.3570     -0.035     -0.051    23.0088 0.0000e+00
     -0.031      0.004     8.7720    102.275     39.119  37.559384     8.3314      8.351   220.6963 1.2883e+03     4.5805     -0.032     -0.046    23.0132 0.0000e+00
     -0.027      0.003     8.7709    102.332     39.106  37.554391     8.6043      8.350   220.4423 7.6298e+02     5.0088     -0.026     -0.037    23.0148 0.0000e+00
     -0.025      0.002     8.7700    102.450     39.109  37.568242     8.7321      8.351   220.3778 4.4733e+02     5.1621     -0.024     -0.034    23.0081 0.0000e+00
     -0.027      0.000     8.7705    102.590     39.134  37.599967     8.6446      8.351   220.5190 5.2036e+02     5.0685     -0.026     -0.038    22.9989 0.0000e+00
     -0.030     -0.002     8.7711    102.703     39.149  37.620710     7.6721      8.351   220.5158 8.2181e+02     4.8327     -0.030     -0.044    22.9978 0.0000e+00
     -0.032     -0.002     8.7726    102.766     39.153  37.628681     5.8954      8.351   220.3389 1.1558e+03     4.4634     -0.033     -0.047    23.0098 0.0000e+00
     -0.032     -0.001     8.7817    102.738     39.155  37.632899     4.9414      8.350   220.2726 1.3141e+03     4.2920     -0.032     -0.046    23.0268 0.0000e+00
     -0.031      0.000     8.7944    102.602     39.127  37.608255     5.0090      8.350   220.4021 1.1396e+03     4.2299     -0.030     -0.044    23.0347 0.0000e+00
     -0.030      0.001     8.8026    102.396     39.099  37.584539     6.7629      8.350   220.4428 7.5181e+02     4.0882     -0.029     -0.042    23.0425 0.0000e+00
     -0.030      0.001     8.8084    102.186     39.116  37.599972    10.0092      8.350   220.3343 4.7528e+02     4.0131     -0.030     -0.043    23.0501 0.0000e+00
     -0.031      0.000     8.8073    102.035     39.127  37.604483    11.7992      8.350   220.2952 4.0322e+02     4.0053     -0.030     -0.044    23.0497 0.0000e+00
     -0.031 -3.949e-07     8.7931    101.957     39.104  37.575628    12.0672      8.349   220.3138 4.1213e+02     4.0623     -0.030     -0.044    23.0527 0.0000e+00
     -0.031     -0.000     8.7727    101.917     39.100  37.568346    13.0174      8.349   220.3012 4.0720e+02     4.5658     -0.030     -0.043    23.0603 0.0000e+00
     -0.031     -0.000     8.7519    101.922     39.111  37.579892    14.7074      8.349   220.3143 3.5749e+02     5.4819     -0.030     -0.044    23.0610 0.0000e+00
     -0.030     -0.001     8.7400    101.986     39.115  37.588327    15.6209      8.349   220.3008 3.0469e+02     6.0178     -0.029     -0.043    23.0495 0.0000e+00
     -0.030     -0.001     8.7384    102.062     39.129  37.606876    15.6398      8.350   220.2237 2.8865e+02     6.0584     -0.029     -0.043    23.0367 0.0000e+00
     -0.030     -0.002     8.7341    102.078     39.129  37.613816    14.8693      8.350   220.1558 3.1118e+02     5.3910     -0.030     -0.043    23.0337 0.0000e+00
     -0.031     -0.002     8.7332    102.028     39.117  37.608786    13.4040      8.349   220.0829 3.6493e+02     4.0633     -0.030     -0.045    23.0368 0.0000e+00
     -0.033     -0.002     8.7392    101.954     39.112  37.609524    12.5636      8.348   220.0303 4.1653e+02     3.3270     -0.032     -0.047    23.0427 0.0000e+00
     -0.033     -0.002     8.7476    101.834     39.122  37.622744    12.2576      8.348   220.0357 4.3606e+02     3.3207     -0.033     -0.047    23.0504 0.0000e+00
     -0.033     -0.001     8.7486    101.654     39.141  37.641725     9.7789      8.348   220.0630 4.3326e+02     3.3724     -0.032     -0.048    23.0575 0.0000e+00
     -0.033      0.000     8.7391    101.465     39.148  37.648656     5.2405      8.349   220.1022 4.1800e+02     3.3375     -0.033     -0.047    23.0654 0.0000e+00
     -0.033 -2.063e-08     8.7338    101.315     39.142  37.643101     2.7614      8.349   220.1655 3.9808e+02     3.2741     -0.032     -0.047    23.0738 0.0000e+00
     -0.033 -2.269e-07     8.7238    101.221     39.134  37.638014     2.5264      8.348   220.2255 3.9356e+02     3.2555     -0.033     -0.047    23.0791 0.0000e+00
     -0.033 -2.605e-07     8.7053    101.172     39.144  37.650611     2.4911      8.347   220.2262 4.1180e+02     3.2831     -0.032     -0.046    23.0801 0.0000e+00
     -0.033 -4.267e-07     8.6879    101.127     39.159  37.668503     2.3435      8.347   220.2601 4.4696e+02     3.2665     -0.032     -0.046    23.0788 0.0000e+00
     -0.034     -0.000     8.6748    101.075     39.151  37.663978     2.0568      8.347   220.4622 4.8846e+02     3.1574     -0.033     -0.048    23.0799 0.0000e+00
     -0.034     -0.000     8.6657    101.050     39.145  37.659363     1.8878      8.347   220.6047 5.2308e+02     3.0564     -0.033     -0.048    23.0834 0.0000e+00
     -0.033     -0.001     8.6633    101.049     39.160  37.676149     1.8721      8.346   220.5208 5.6313e+02     3.0358     -0.033     -0.047    23.0871 0.0000e+00
     -0.033     -0.001     8.6594    101.044     39.158  37.676574     2.0338      8.345   220.4806 6.1828e+02     3.0792     -0.033     -0.047    23.0914 0.0000e+00
     -0.034     -0.000     8.6517    100.993     39.141  37.664506     2.3376      8.344   220.6351 6.6927e+02     3.0689     -0.033     -0.048    23.0955 0.0000e+00
     -0.034 -1.847e-08     8.6502    100.878     39.130  37.657159     2.4981      8.344   220.7540 7.2150e+02     2.9794     -0.033     -0.048    23.0978 0.0000e+00
     -0.034 -2.032e-07     8.6503    100.728     39.120  37.651201     2.5259      8.344   220.7990 7.7395e+02     2.9535     -0.033     -0.049    23.0993 0.0000e+00
     -0.034 -2.032e-07     8.6511    100.585     39.124  37.655926     2.7404      8.343   220.8352 8.0356e+02     3.2337     -0.034     -0.048    23.1027 0.0000e+00
     -0.034 -1.847e-08     8.6466    100.493     39.119  37.650828     3.1520      8.342   220.7617 8.3067e+02     3.7377     -0.033     -0.047    23.1080 0.0000e+00
     -0.034 -1.680e-09     8.6344    100.451     39.122  37.653021     3.3745      8.343   220.6852 8.7922e+02     3.9916     -0.033     -0.048    23.1135 0.0000e+00
     -0.034 -1.526e-10     8.6203    100.442     39.152  37.682451     3.4085      8.344   220.6846 9.4821e+02     3.9810     -0.033     -0.048    23.1170 0.0000e+00
     -0.034 -1.301e-11     8.6054    100.457     39.158  37.689376     3.6955      8.343   220.6679 1.0230e+03     4.0880     -0.033     -0.048    23.1186 0.0000e+00
     -0.034 8.2571e-12     8.5983    100.491     39.140  37.673311     4.2236      8.343   220.6550 1.0753e+03     4.4319     -0.033     -0.048    23.1182 0.0000e+00
     -0.034 1.0460e-10     8.5956    100.550     39.145  37.678570     4.5175      8.342   220.7867 1.1115e+03     4.7223     -0.034     -0.049    23.1173 0.0000e+00
     -0.034 1.1518e-09     8.5942    100.574     39.156  37.689502     4.5355      8.342   220.9700 1.1604e+03     4.7297     -0.033     -0.048    23.1177 0.0000e+00
     -0.034 1.2670e-08     8.5971    100.542     39.144  37.678581     4.4987      8.343   220.9784 1.2038e+03     4.6242     -0.034     -0.048    23.1185 0.0000e+00
     -0.034 1.3937e-07     8.5970    100.507     39.137  37.673436     4.3307      8.343   220.8886 1.2453e+03     4.5055     -0.033     -0.048    23.1204 0.0000e+00
     -0.034 2.5551e-07     8.6055    100.469     39.153  37.690751     4.0607      8.342   220.8303 1.3301e+03     4.3531     -0.033     -0.047    23.1225 0.0000e+00
     -0.034 1.3937e-07     8.6092    100.439     39.159  37.697574     3.9312      8.342   220.8768 1.4234e+03     4.2842     -0.033     -0.048    23.1227 0.0000e+00
     -0.034 1.2670e-08     8.6014    100.444     39.153  37.692487     3.8962      8.342   221.0193 1.4906e+03     4.2532     -0.034     -0.049    23.1230 0.0000e+00
     -0.034 1.1516e-09     8.6008    100.452     39.149  37.692695     3.5629      8.342   221.0906 1.5436e+03     4.0813     -0.033     -0.048    23.1253 0.0000e+00
     -0.034 1.0193e-10     8.5962    100.421     39.154  37.700099     2.9638      8.342   221.0503 1.5868e+03     3.8110     -0.033     -0.048    23.1279 0.0000e+00
     -0.034 -2.101e-11     8.5914    100.359     39.171  37.718555     2.6455      8.342   220.8763 1.6328e+03     3.6837     -0.033     -0.048    23.1279 0.0000e+00
     -0.034 -3.350e-10     8.5940    100.312     39.178  37.725482     2.6114      8.342   220.6221 1.6772e+03     3.7385     -0.033     -0.048    23.1286 0.0000e+00
     -0.034 -3.694e-09     8.5954    100.290     39.171  37.720393     2.3602      8.342   220.5584 1.7176e+03     3.7557     -0.033     -0.048    23.1334 0.0000e+00
     -0.034 -4.064e-08     8.5917    100.253     39.171  37.720487     1.8883      8.342   220.6218 1.7498e+03     3.6862     -0.033     -0.048    23.1386 0.0000e+00
     -0.034 -4.470e-07     8.5839    100.177     39.176  37.726625     1.6334      8.341   220.7000 1.7666e+03     3.6500     -0.033     -0.048    23.1405 0.0000e+00
     -0.034      0.000     8.5795    100.086     39.179  37.731141     1.6249      8.341   220.9025 1.8048e+03     3.6599     -0.034     -0.049    23.1396 0.0000e+00
     -0.034      0.000     8.5793    100.008     39.156  37.711641     1.6449      8.342   221.0049 1.8437e+03     3.7027     -0.033     -0.048    23.1418 0.0000e+00
     -0.034     -0.001     8.5767     99.964     39.122  37.681228     1.6412      8.342   220.9917 1.8275e+03     3.7581     -0.033     -0.048    23.1446 0.0000e+00
     -0.034     -0.002     8.5689     99.954     39.120  37.680699     1.6222      8.342   221.0868 1.8091e+03     3.7481     -0.033     -0.047    23.1443 0.0000e+00
     -0.035     -0.002     8.5599     99.951     39.143  37.705248     1.6232      8.342   221.1233 1.8119e+03     3.7527     -0.033     -0.048    23.1468 0.0000e+00
     -0.036     -0.002     8.5519     99.956     39.159  37.724227     1.6527      8.342   221.0883 1.8097e+03     3.8144     -0.035     -0.051    23.1507 0.0000e+00
     -0.037     -0.001     8.5473     99.953     39.151  37.719811     1.6877      8.341   221.1801 1.8249e+03     3.8106     -0.036     -0.053    23.1529 0.0000e+00
     -0.037     -0.000     8.5482     99.897     39.144  37.715313     1.6891      8.341   221.2861 1.8457e+03     3.7419     -0.036     -0.053    23.1541 0.0000e+00
     -0.036      0.000     8.5469     99.799     39.162  37.733302     1.6688      8.341   221.2515 1.8474e+03     3.7008     -0.035     -0.051    23.1564 0.0000e+00
     -0.036      0.001     8.5465     99.732     39.177  37.746939     1.6848      8.341   221.1922 1.8385e+03     3.7920     -0.035     -0.051    23.1615 0.0000e+00
     -0.035      0.001     8.5479     99.719     39.183  37.753285     1.7320      8.342   221.1706 1.8333e+03     3.9559     -0.034     -0.050    23.1676 0.0000e+00
     -0.035      0.001     8.5423     99.739     39.174  37.746575     1.7568      8.342   221.1627 1.8383e+03     4.0089     -0.034     -0.049    23.1705 0.0000e+00
     -0.035      0.001     8.5305     99.794     39.154  37.729279     1.7513      8.342   221.1837 1.8559e+03     3.9548     -0.035     -0.050    23.1702 0.0000e+00
     -0.035      0.001     8.5240     99.863     39.158  37.734529     1.7404      8.342   221.1658 1.8850e+03     3.8826     -0.035     -0.051    23.1692 0.0000e+00
     -0.035      0.001     8.5255     99.938     39.169  37.746595     1.7581      8.342   221.1187 1.8900e+03     3.8870     -0.034     -0.050    23.1695 0.0000e+00
     -0.035      0.001     8.5245    100.021     39.171  37.748259     1.7913      8.342   221.1303 1.8809e+03     3.9394     -0.034     -0.049    23.1714 0.0000e+00
     -0.034      0.001     8.5312    100.082     39.179  37.754643     1.8003      8.342   221.2201 1.8873e+03     3.9361     -0.033     -0.048    23.1743 0.0000e+00
     -0.034      0.001     8.5362    100.122     39.185  37.760325     1.8007      8.342   221.2584 1.8647e+03     3.9155     -0.033     -0.048    23.1786 0.0000e+00
     -0.033      0.000     8.5410    100.147     39.178  37.753513     1.7955      8.342   221.2488 1.8255e+03     3.9287     -0.033     -0.047    23.1795 0.0000e+00
     -0.033 5.5882e-08     8.5515    100.162     39.160  37.735735     1.7800      8.343   221.2756 1.8387e+03     3.9940     -0.033     -0.047    23.1780 0.0000e+00
     -0.034 6.1470e-07     8.5549    100.162     39.159  37.735734     1.7625      8.343   221.2386 1.8783e+03     4.0218     -0.033     -0.048    23.1771 0.0000e+00
     -0.034      0.000     8.5594    100.125     39.176  37.753504     1.7510      8.343   221.1458 1.8694e+03     3.9577     -0.033     -0.048    23.1763 0.0000e+00
     -0.034      0.000     8.5609    100.035     39.180  37.760221     1.7490      8.343   221.0993 1.8391e+03     3.9014     -0.034     -0.049    23.1760 0.0000e+00
     -0.034      0.001     8.5623     99.888     39.170  37.753498     1.7456      8.343   221.1070 1.8384e+03     3.9216     -0.033     -0.048    23.1758 0.0000e+00
     -0.033      0.001     8.5632     99.712     39.149  37.735680     1.7519      8.344   221.1532 1.8413e+03     3.9971     -0.033     -0.048    23.1771 0.0000e+00
     -0.033      0.001     8.5601     99.566     39.148  37.735160     1.7587      8.345   221.1421 1.8352e+03     3.9949     -0.033     -0.048    23.1788 0.0000e+00
     -0.032      0.001     8.5522     99.474     39.160  37.747209     1.7025      8.346   221.0578 1.8528e+03     3.9285     -0.032     -0.046    23.1817 0.0000e+00
     -0.032      0.001     8.5383     99.424     39.167  37.754450     1.6053      8.346   221.0800 1.8743e+03     3.9116     -0.032     -0.046    23.1871 0.0000e+00
     -0.032      0.000     8.5201     99.431     39.171  37.759264     1.5658      8.346   221.1525 1.8496e+03     3.9273     -0.032     -0.046    23.1901 0.0000e+00
     -0.032 1.8600e-08     8.5067     99.492     39.152  37.741963     1.5747      8.346   221.1607 1.8160e+03     3.9813     -0.032     -0.047    23.1899 0.0000e+00
     -0.032 2.0460e-07     8.5004     99.568     39.147  37.735618     1.5877      8.346   221.0923 1.8084e+03     4.0186     -0.032     -0.046    23.1909 0.0000e+00
     -0.032 2.0152e-07     8.4944     99.623     39.161  37.746002     1.6072      8.346   221.0142 1.8178e+03     4.0020     -0.032     -0.046    23.1917 0.0000e+00
     -0.032 -1.860e-08     8.4950     99.659     39.157  37.740602     1.6183      8.347   221.0775 1.8348e+03     3.9863     -0.032     -0.046    23.1928 0.0000e+00
     -0.032 -4.078e-07     8.5013     99.693     39.151  37.733780     1.6218      8.347   221.2560 1.8433e+03     3.9994     -0.031     -0.045    23.1951 0.0000e+00
     -0.032      0.000     8.5098     99.703     39.146  37.726975     1.6249      8.347   221.3652 1.8255e+03     3.9891     -0.031     -0.045    23.1917 0.0000e+00
     -0.032      0.000     8.5149     99.662     39.142  37.721774     1.6136      8.347   221.3649 1.7998e+03     3.9311     -0.031     -0.046    23.1863 0.0000e+00
     -0.032     -0.001     8.5172     99.625     39.155  37.734351     1.6022      8.347   221.3385 1.8096e+03     3.9469     -0.032     -0.046    23.1859 0.0000e+00
     -0.032     -0.001     8.5207     99.634     39.171  37.752129     1.6038      8.346   221.3037 1.8363e+03     3.9746     -0.032     -0.046    23.1856 0.0000e+00
     -0.033     -0.001     8.5246     99.659     39.164  37.746365     1.6073      8.346   221.2887 1.8535e+03     3.9593     -0.032     -0.047    23.1820 0.0000e+00
     -0.033      0.000     8.5187     99.699     39.144  37.728114     1.6119      8.347   221.3290 1.8451e+03     3.9668     -0.032     -0.047    23.1791 0.0000e+00
     -0.033     -0.000     8.5124     99.729     39.136  37.721826     1.6184      8.349   221.4466 1.8334e+03     3.9628     -0.033     -0.048    23.1801 0.0000e+00
     -0.033     -0.001     8.5168     99.729     39.146  37.733799     1.6191      8.349   221.5061 1.8632e+03     3.9787     -0.033     -0.048    23.1833 0.0000e+00
     -0.033     -0.001     8.5163     99.720     39.156  37.745960     1.6284      8.349   221.5322 1.8860e+03     4.0218     -0.032     -0.047    23.1856 0.0000e+00
     -0.033      0.000     8.5210     99.692     39.149  37.741958     1.6720      8.349   221.6763 1.8780e+03     4.0405     -0.032     -0.047    23.1862 0.0000e+00
     -0.033     -0.000     8.5255     99.635     39.154  37.748871     1.7226      8.349   221.7859 1.8655e+03     4.0003     -0.032     -0.047    23.1862 0.0000e+00
     -0.034     -0.000     8.5220     99.579     39.170  37.766095     1.7402      8.349   221.8251 1.8383e+03     3.9456     -0.034     -0.049    23.1899 0.0000e+00
     -0.034     -0.001     8.5221     99.550     39.162  37.759854     1.7361      8.349   221.8064 1.8118e+03     3.9604     -0.033     -0.049    23.1948 0.0000e+00
     -0.033     -0.002     8.5198     99.537     39.138  37.736865     1.7302      8.350   221.7314 1.8214e+03     4.0076     -0.032     -0.047    23.1971 0.0000e+00
     -0.033     -0.002     8.5129     99.527     39.143  37.741962     1.7268      8.350   221.7779 1.8559e+03     4.0379     -0.031     -0.045    23.2006 0.0000e+00
     -0.034     -0.001     8.5069     99.528     39.160  37.758026     1.7200      8.349   221.7672 1.8840e+03     4.0192     -0.033     -0.047    23.2026 0.0000e+00
     -0.037      0.001     8.5044     99.515     39.141  37.740720     1.7066      8.348   221.4296 1.8954e+03     3.9528     -0.037     -0.053    23.2048 0.0000e+00
     -0.038      0.003     8.5045     99.449     39.123  37.723094     1.7148      8.348   221.0519 1.8814e+03     3.9523     -0.038     -0.056    23.2057 0.0000e+00
     -0.036      0.006     8.5025     99.380     39.139  37.735274     1.7522      8.347   220.9864 1.8327e+03     4.0131     -0.035     -0.051    23.2038 0.0000e+00
     -0.032      0.007     8.5028     99.363     39.172  37.761073     1.7682      8.345   221.2392 1.7897e+03     4.0048     -0.031     -0.045    23.2046 0.0000e+00
     -0.028      0.006     8.5051     99.386     39.199  37.781188     1.7501      8.345   221.5279 1.6284e+03     3.9544     -0.028     -0.040    23.2065 0.0000e+00
     -0.025      0.004     8.4958     99.453     39.210  37.788111     1.7334      8.345   221.6371 1.4491e+03     3.9157     -0.025     -0.036    23.2073 0.0000e+00
     -0.024      0.001     8.4884     99.556     39.206  37.781317     1.7492      8.346   221.6995 1.5577e+03     3.9127     -0.022     -0.033    23.2022 0.0000e+00
     -0.026     -0.001     8.4906     99.628     39.187  37.762488     1.7915      8.346   221.7657 1.6438e+03     3.9870     -0.024     -0.035    23.1927 0.0000e+00
     -0.029     -0.002     8.4927     99.634     39.176  37.750828     1.8113      8.344   221.8362 1.5241e+03     4.0290     -0.028     -0.041    23.1850 0.0000e+00
     -0.031     -0.002     8.4988     99.613     39.194  37.767244     1.8056      8.343   221.9490 1.5006e+03     3.9750     -0.031     -0.045    23.1805 0.0000e+00
     -0.031     -0.001     8.5113     99.602     39.198  37.770607     1.7979      8.344   222.0113 1.6586e+03     3.9495     -0.031     -0.046    23.1774 0.0000e+00
     -0.030      0.001     8.5192     99.609     39.154  37.728025     1.8012      8.344   221.9013 1.8071e+03     3.9944     -0.029     -0.043    23.1761 0.0000e+00
     -0.028      0.002     8.5176     99.609     39.123  37.696571     1.8118      8.344   221.7375 1.8155e+03     4.0052     -0.028     -0.040    23.1750 0.0000e+00
     -0.027      0.003     8.5151     99.576     39.136  37.707577     1.8096      8.343   221.6648 1.8126e+03     3.9782     -0.027     -0.039    23.1737 0.0000e+00
     -0.027      0.003     8.5140     99.539     39.165  37.734196     1.8332      8.343   221.6248 1.8875e+03     4.0431     -0.026     -0.038    23.1733 0.0000e+00
     -0.027      0.002     8.5154     99.538     39.196  37.764598     1.8892      8.344   221.6841 1.9315e+03     4.1741     -0.026     -0.038    23.1723 0.0000e+00
     -0.027      0.001     8.5173     99.564     39.190  37.757883     1.9206      8.344   221.8654 1.9148e+03     4.2302     -0.026     -0.038    23.1713 0.0000e+00
     -0.026     -0.000     8.5131     99.583     39.148  37.716458     1.9296      8.345   222.0105 1.9351e+03     4.2102     -0.026     -0.037    23.1695 0.0000e+00
     -0.026     -0.002     8.5087     99.572     39.141  37.707921     1.9400      8.345   222.1476 1.9087e+03     4.1365     -0.025     -0.036    23.1677 0.0000e+00
     -0.026     -0.003     8.5089     99.532     39.153  37.718115     1.9629      8.345   222.3181 1.8296e+03     4.0564     -0.024     -0.035    23.1676 0.0000e+00
     -0.027     -0.003     8.5130     99.495     39.147  37.712801     1.9895      8.346   222.4379 1.8825e+03     4.0276     -0.026     -0.039    23.1674 0.0000e+00
     -0.029     -0.003     8.5150     99.474     39.140  37.707122     2.0038      8.347   222.5635 1.9563e+03     3.9927     -0.029     -0.042    23.1655 0.0000e+00
     -0.031     -0.003     8.5149     99.440     39.145  37.712913     2.0283      8.347   222.6327 1.8793e+03     3.9421     -0.030     -0.044    23.1632 0.0000e+00
     -0.031     -0.002     8.5106     99.417     39.149  37.719373     2.0609      8.347   222.5860 1.7786e+03     3.9284     -0.030     -0.044    23.1616 0.0000e+00
     -0.031     -0.001     8.5057     99.423     39.149  37.721765     2.0817      8.347   222.5146 1.8097e+03     3.9634     -0.030     -0.044    23.1616 0.0000e+00
     -0.031      0.000     8.5071     99.453     39.167  37.741840     2.0883      8.347   222.5444 1.8527e+03     3.9903     -0.030     -0.044    23.1630 0.0000e+00
     -0.031 -5.773e-08     8.5013     99.505     39.194  37.771736     2.0484      8.346   222.6876 1.8186e+03     4.0138     -0.030     -0.044    23.1655 0.0000e+00
     -0.031 -6.350e-07     8.4985     99.555     39.185  37.765969     1.9661      8.346   222.7832 1.8161e+03     4.0429     -0.030     -0.044    23.1681 0.0000e+00
     -0.031     -0.000     8.4995     99.594     39.152  37.735566     1.9089      8.347   222.8405 1.8529e+03     4.0005     -0.030     -0.044    23.1713 0.0000e+00
     -0.030     -0.000     8.5003     99.633     39.135  37.721411     1.9057      8.348   222.9495 1.8657e+03     3.9796     -0.030     -0.043    23.1751 0.0000e+00
     -0.030     -0.001     8.5059     99.705     39.132  37.721731     1.9274      8.348   223.0698 1.8663e+03     4.0290     -0.030     -0.043    23.1802 0.0000e+00
     -0.030     -0.001     8.5091     99.812     39.146  37.739451     1.9394      8.348   223.1756 1.8778e+03     4.0520     -0.029     -0.043    23.1838 0.0000e+00
     -0.031     -0.001     8.5125     99.882     39.149  37.745304     1.9334      8.349   223.2827 1.8571e+03     4.0183     -0.030     -0.045    23.1847 0.0000e+00
     -0.032     -0.001     8.5141     99.877     39.131  37.729051     1.9221      8.349   223.3326 1.8262e+03     3.9283     -0.031     -0.046    23.1874 0.0000e+00
     -0.032     -0.001     8.5181     99.823     39.138  37.733299     1.9189      8.350   223.3486 1.8270e+03     3.9206     -0.032     -0.047    23.1925 0.0000e+00
     -0.032     -0.001     8.5301     99.738     39.143  37.733214     1.9529      8.351   223.3899 1.8564e+03     3.9935     -0.032     -0.046    23.1990 0.0000e+00
     -0.032      0.000     8.5370     99.658     39.142  37.728014     2.0168      8.351   223.4010 1.8692e+03     4.0236     -0.032     -0.046    23.2036 0.0000e+00
     -0.032 -1.863e-08     8.5336     99.608     39.150  37.733873     2.0422      8.351   223.3970 1.8421e+03     4.0457     -0.031     -0.046    23.2043 0.0000e+00
     -0.032 -2.049e-07     8.5306     99.562     39.158  37.740596     2.0268      8.351   223.4279 1.8513e+03     4.0214     -0.031     -0.045    23.2006 0.0000e+00
     -0.032 -2.049e-07     8.5231     99.511     39.166  37.745846     2.0058      8.351   223.4302 1.8475e+03     4.0034     -0.031     -0.046    23.1929 0.0000e+00
     -0.032 -1.863e-08     8.5149     99.454     39.156  37.733883     1.9792      8.350   223.4242 1.8217e+03     3.9989     -0.031     -0.046    23.1878 0.0000e+00
     -0.032 -1.663e-09     8.5141     99.404     39.150  37.722868     1.9469      8.350   223.4425 1.8364e+03     3.8985     -0.032     -0.046    23.1857 0.0000e+00
     -0.032 1.8471e-10     8.5093     99.377     39.173  37.739559     1.9149      8.351   223.4792 1.8516e+03     3.8485     -0.031     -0.046    23.1835 0.0000e+00
     -0.032 3.7113e-09     8.5060     99.378     39.181  37.745319     1.9174      8.352   223.6095 1.9010e+03     3.9406     -0.032     -0.046    23.1821 0.0000e+00
     -0.032 4.0976e-08     8.5007     99.408     39.163  37.729057     1.9601      8.352   223.8135 1.9192e+03     4.0218     -0.032     -0.046    23.1791 0.0000e+00
     -0.032 4.5076e-07     8.4969     99.426     39.166  37.733303     1.9897      8.353   223.9670 1.8919e+03     4.0104     -0.031     -0.046    23.1715 0.0000e+00
     -0.032      0.000     8.4968     99.424     39.165  37.733208     1.9845      8.354   224.0029 1.9135e+03     3.9736     -0.031     -0.045    23.1637 0.0000e+00
     -0.032      0.000     8.4950     99.402     39.157  37.727903     1.9725      8.354   223.9893 1.8914e+03     3.9527     -0.032     -0.046    23.1622 0.0000e+00
     -0.033      0.001     8.5010     99.347     39.160  37.732628     1.9694      8.354   223.9749 1.8173e+03     3.9629     -0.032     -0.047    23.1642 0.0000e+00
     -0.033      0.002     8.5014     99.263     39.153  37.726877     1.9713      8.354   223.9149 1.7747e+03     3.9946     -0.032     -0.047    23.1649 0.0000e+00
     -0.033      0.003     8.5009     99.183     39.149  37.721828     1.9783      8.354   223.8659 1.7946e+03     3.9603     -0.032     -0.047    23.1661 0.0000e+00
     -0.032      0.004     8.4996     99.158     39.164  37.735038     1.9794      8.354   223.8985 1.8428e+03     3.8891     -0.031     -0.046    23.1692 0.0000e+00
     -0.030      0.004     8.4935     99.194     39.191  37.759681     1.9763      8.354   223.9646 1.8692e+03     3.9881     -0.029     -0.043    23.1727 0.0000e+00
     -0.028      0.003     8.4864     99.280     39.198  37.765960     1.9828      8.354   223.9766 1.8957e+03     4.2011     -0.027     -0.039    23.1734 0.0000e+00
     -0.027      0.002     8.4763     99.379     39.178  37.747501     1.9912      8.354   223.8712 1.8657e+03     4.2780     -0.026     -0.037    23.1719 0.0000e+00
     -0.027      0.001     8.4757     99.444     39.156  37.726861     1.9951      8.354   223.8088 1.8415e+03     4.2350     -0.026     -0.038    23.1702 0.0000e+00
     -0.028      0.000     8.4787     99.457     39.136  37.706776     2.0049      8.354   223.9113 1.8636e+03     4.1249     -0.027     -0.039    23.1685 0.0000e+00
     -0.028     -0.001     8.4873     99.405     39.124  37.695021     2.0269      8.354   224.0777 1.8518e+03     4.0394     -0.027     -0.040    23.1687 0.0000e+00
     -0.028     -0.001     8.4979     99.315     39.141  37.711645     2.0447      8.354   224.2720 1.8380e+03     4.0556     -0.028     -0.040    23.1692 0.0000e+00
     -0.028      0.000     8.5028     99.256     39.147  37.717408     2.0529      8.354   224.4539 1.8366e+03     4.0475     -0.028     -0.040    23.1696 0.0000e+00
     -0.028 -1.846e-08     8.5055     99.274     39.129  37.701247     2.0510      8.353   224.5557 1.8333e+03     3.9756     -0.027     -0.040    23.1693 0.0000e+00
     -0.028 -2.031e-07     8.5001     99.347     39.134  37.706609     2.0385      8.352   224.6431 1.8088e+03     3.9027     -0.028     -0.040    23.1676 0.0000e+00
     -0.028 -2.031e-07     8.4901     99.444     39.145  37.718788     2.0353      8.352   224.7364 1.7675e+03     3.9177     -0.027     -0.040    23.1679 0.0000e+00
     -0.028 -1.846e-08     8.4825     99.565     39.150  37.721589     2.0447      8.352   224.7372 1.7403e+03     4.0207     -0.027     -0.039    23.1694 0.0000e+00
     -0.028 -1.678e-09     8.4856     99.699     39.171  37.740473     2.0696      8.352   224.7392 1.8172e+03     4.0555     -0.027     -0.039    23.1692 0.0000e+00
     -0.029 -1.525e-10     8.4930     99.801     39.189  37.756747     2.0950      8.353   224.8472 1.8751e+03     3.9967     -0.028     -0.041    23.1709 0.0000e+00
     -0.029 -1.364e-11     8.5001     99.826     39.159  37.727996     2.0934      8.353   224.9236 1.7850e+03     3.9587     -0.028     -0.041    23.1733 0.0000e+00
     -0.028 1.3051e-12     8.5113     99.782     39.141  37.710114     2.0922      8.352   224.8891 1.7790e+03     3.9721     -0.028     -0.040    23.1703 0.0000e+00
     -0.028 2.8107e-11     8.5247     99.706     39.162  37.730899     2.0976      8.351   224.8601 1.8786e+03     3.9881     -0.027     -0.040    23.1668 0.0000e+00
     -0.029 3.1043e-10     8.5357     99.630     39.155  37.725489     2.0999      8.352   225.0030 1.9428e+03     3.9816     -0.028     -0.041    23.1672 0.0000e+00
     -0.029 3.4148e-09     8.5368     99.586     39.137  37.708161     2.1042      8.352   225.2398 1.9411e+03     3.9607     -0.028     -0.041    23.1678 0.0000e+00
     -0.029 3.7563e-08     8.5319     99.595     39.142  37.711748     2.0905      8.352   225.3144 1.8465e+03     3.9406     -0.028     -0.041    23.1664 0.0000e+00
     -0.029 4.1319e-07     8.5245     99.625     39.136  37.705412     2.0677      8.352   225.3029 1.7705e+03     3.9437     -0.028     -0.041    23.1668 0.0000e+00
     -0.029      0.000     8.5167     99.630     39.126  37.695011     2.0534      8.352   225.2721 1.7721e+03     3.9307     -0.029     -0.041    23.1698 0.0000e+00
     -0.029      0.000     8.5116     99.593     39.145  37.712893     2.0420      8.351   225.2009 1.7822e+03     3.9187     -0.028     -0.040    23.1692 0.0000e+00
     -0.029      0.001     8.5143     99.497     39.163  37.731263     2.0305      8.351   225.2163 1.8110e+03     3.9359     -0.029     -0.041    23.1669 0.0000e+00
     -0.029      0.001     8.5190     99.384     39.157  37.726743     2.0222      8.351   225.1996 1.8426e+03     3.9331     -0.028     -0.041    23.1668 0.0000e+00
     -0.028      0.002     8.5186     99.303     39.152  37.721702     2.0577      8.351   225.1714 1.8688e+03     3.9537     -0.028     -0.040    23.1670 0.0000e+00
     -0.027      0.002     8.5177     99.240     39.164  37.733768     2.1270      8.351   225.2196 1.8822e+03     3.9797     -0.027     -0.039    23.1658 0.0000e+00
     -0.026      0.002     8.5078     99.205     39.174  37.745722     2.1527      8.351   225.1801 1.8372e+03     3.9401     -0.026     -0.037    23.1655 0.0000e+00
     -0.026      0.002     8.4945     99.205     39.165  37.739328     2.1526      8.351   225.1248 1.8572e+03     3.8850     -0.026     -0.037    23.1675 0.0000e+00
     -0.025      0.002     8.4902     99.200     39.142  37.719924     2.2576      8.351   225.1528 1.9442e+03     3.9284     -0.025     -0.036    23.1683 0.0000e+00
     -0.025      0.001     8.4835     99.209     39.122  37.701479     2.4578      8.352   225.0885 1.9039e+03     4.0210     -0.025     -0.036    23.1690 0.0000e+00
     -0.025      0.001     8.4788     99.255     39.131  37.706671     2.5590      8.352   224.9498 1.7917e+03     3.9792     -0.025     -0.036    23.1720 0.0000e+00
     -0.025      0.000     8.4820     99.301     39.149  37.719238     2.5568      8.352   224.9375 1.8637e+03     3.9021     -0.025     -0.036    23.1740 0.0000e+00
     -0.025 1.8781e-08     8.4792     99.326     39.160  37.726518     2.5724      8.353   225.0264 2.0613e+03     3.9769     -0.025     -0.036    23.1774 0.0000e+00
     -0.025 2.0660e-07     8.4778     99.363     39.167  37.731233     2.6065      8.353   225.0789 2.0258e+03     4.1311     -0.024     -0.035    23.1812 0.0000e+00
     -0.025 2.0660e-07     8.4847     99.437     39.149  37.712784     2.6281      8.354   225.0564 1.7881e+03     4.2298     -0.024     -0.035    23.1769 0.0000e+00
     -0.025 1.8781e-08     8.4911     99.548     39.131  37.693815     2.6261      8.354   225.0120 1.6546e+03     4.2479     -0.025     -0.036    23.1681 0.0000e+00
     -0.025 1.7074e-09     8.4920     99.679     39.131  37.692237     2.5312      8.353   224.9717 1.6716e+03     4.2813     -0.025     -0.036    23.1626 0.0000e+00
     -0.026 1.5522e-10     8.4948     99.770     39.136  37.693702     2.3720      8.353   224.9990 1.7029e+03     4.3946     -0.025     -0.037    23.1609 0.0000e+00
     -0.026 1.4109e-11     8.5017     99.805     39.156  37.711527     2.2985      8.354   225.0839 1.7165e+03     4.4910     -0.025     -0.037    23.1609 0.0000e+00
     -0.025 1.2618e-12     8.5108     99.822     39.163  37.717400     2.2926      8.354   225.1383 1.7858e+03     4.4908     -0.025     -0.036    23.1595 0.0000e+00
     -0.025 -1.147e-13     8.5258     99.846     39.147  37.701253     2.2760      8.354   225.1393 1.8771e+03     4.4260     -0.025     -0.036    23.1557 0.0000e+00
     -0.025 -2.534e-12     8.5351     99.883     39.154  37.706654     2.2548      8.354   225.0971 1.8820e+03     4.2881     -0.024     -0.035    23.1517 0.0000e+00
     -0.026 -2.799e-11     8.5356     99.940     39.170  37.719250     2.2608      8.354   225.1438 1.9174e+03     4.1213     -0.025     -0.036    23.1500 0.0000e+00
     -0.026 -3.079e-10     8.5374    100.011     39.179  37.726637     2.2910      8.355   225.2743 2.0250e+03     4.0494     -0.026     -0.038    23.1487 0.0000e+00
     -0.026 -3.387e-09     8.5391    100.076     39.183  37.732505     2.2952      8.355   225.2977 1.9242e+03     4.0335     -0.026     -0.038    23.1484 0.0000e+00
     -0.025 -3.725e-08     8.5421    100.098     39.173  37.726745     2.2615      8.355   225.2552 1.7727e+03     3.9980     -0.025     -0.036    23.1478 0.0000e+00
     -0.025 -4.098e-07     8.5482    100.086     39.163  37.720455     2.2255      8.355   225.2763 1.7876e+03     3.9609     -0.025     -0.036    23.1415 0.0000e+00
     -0.026      0.000     8.5550    100.071     39.161  37.719925     2.2176      8.355   225.2954 1.7653e+03     3.9607     -0.026     -0.037    23.1376 0.0000e+00
     -0.026     -0.000     8.5621    100.052     39.161  37.720331     2.2321      8.355   225.2279 1.7033e+03     3.9611     -0.026     -0.037    23.1427 0.0000e+00
     -0.026     -0.001     8.5621    100.021     39.168  37.725371     2.2599      8.355   225.2345 1.7423e+03     3.8640     -0.026     -0.037    23.1498 0.0000e+00
     -0.026     -0.001     8.5588    100.000     39.163  37.717400     2.2954      8.355   225.3746 1.8470e+03     3.7429     -0.025     -0.036    23.1538 0.0000e+00
     -0.026     -0.001     8.5577     99.990     39.136  37.687409     2.3203      8.356   225.4593 1.8892e+03     3.7273     -0.025     -0.037    23.1553 0.0000e+00
     -0.027     -0.001     8.5568     99.960     39.134  37.680015     2.3445      8.356   225.4852 1.8617e+03     3.7775     -0.026     -0.037    23.1556 0.0000e+00
     -0.028     -0.000     8.5531     99.910     39.151  37.691449     2.4622      8.356   225.5148 1.8113e+03     3.8374     -0.027     -0.038    23.1541 0.0000e+00
     -0.028      0.000     8.5515     99.879     39.164  37.698739     2.6619      8.356   225.4730 1.7709e+03     3.8708     -0.027     -0.039    23.1496 0.0000e+00
     -0.027      0.000     8.5540     99.895     39.170  37.704703     2.7776      8.356   225.4104 1.7860e+03     3.8741     -0.027     -0.038    23.1431 0.0000e+00
     -0.026      0.001     8.5517     99.938     39.161  37.700101     2.8296      8.357   225.4458 1.7497e+03     3.9453     -0.026     -0.038    23.1375 0.0000e+00
     -0.026      0.001     8.5473     99.963     39.165  37.706551     3.2076      8.358   225.4711 1.6718e+03     4.1509     -0.025     -0.037    23.1312 0.0000e+00
     -0.026      0.001     8.5446     99.962     39.176  37.719241     3.8776      8.358   225.4584 1.6796e+03     4.3452     -0.026     -0.037    23.1219 0.0000e+00
     -0.026      0.001     8.5470     99.965     39.182  37.726636     4.2215      8.357   225.4639 1.6752e+03     4.3812     -0.026     -0.037    23.1212 0.0000e+00
     -0.025      0.001     8.5514     99.995     39.187  37.732504     4.2199      8.356   225.4519 1.6652e+03     4.3808     -0.025     -0.036    23.1300 0.0000e+00
     -0.025      0.001     8.5530    100.048     39.182  37.726734     3.9666      8.356   225.4857 1.7528e+03     4.3739     -0.025     -0.036    23.1345 0.0000e+00
     -0.025      0.001     8.5516    100.123     39.179  37.720334     3.5061      8.357   225.6138 1.7832e+03     4.3334     -0.025     -0.036    23.1349 0.0000e+00
     -0.025      0.001     8.5503    100.202     39.182  37.718566     3.2541      8.358   225.7097 1.6877e+03     4.2665     -0.025     -0.036    23.1363 0.0000e+00
     -0.024      0.000     8.5536    100.262     39.172  37.705346     3.2088      8.358   225.6993 1.6352e+03     4.1450     -0.023     -0.034    23.1383 0.0000e+00
     -0.024 2.2012e-08     8.5574    100.308     39.157  37.687397     3.1660      8.358   225.7468 1.7183e+03     4.0946     -0.023     -0.034    23.1385 0.0000e+00
     -0.024 2.4213e-07     8.5655    100.357     39.165  37.691908     2.9538      8.359   225.8535 1.8804e+03     4.1013     -0.024     -0.034    23.1344 0.0000e+00
     -0.024 6.1440e-07     8.5742    100.397     39.171  37.696432     2.5739      8.360   225.8701 1.8486e+03     4.0550     -0.025     -0.036    23.1275 0.0000e+00
     -0.024      0.000     8.5800    100.407     39.151  37.678644     2.3589      8.360   225.8621 1.6650e+03     3.9788     -0.024     -0.035    23.1216 0.0000e+00
     -0.024      0.000     8.5836    100.408     39.136  37.667202     2.3277      8.359   225.8423 1.9178e+03     3.9317     -0.024     -0.034    23.1177 0.0000e+00
     -0.024      0.001     8.5889    100.410     39.153  37.684999     2.3216      8.359   225.8029 2.2261e+03     4.1686     -0.024     -0.035    23.1141 0.0000e+00
     -0.024      0.001     8.5940    100.387     39.171  37.703464     2.3271      8.359   225.8161 2.0515e+03     4.6561     -0.023     -0.034    23.1116 0.0000e+00
     -0.024      0.001     8.5935    100.345     39.166  37.700097     2.3352      8.359   225.9157 1.8874e+03     4.9078     -0.024     -0.034    23.1134 0.0000e+00
     -0.024      0.000     8.5921    100.304     39.171  37.707748     2.3365      8.359   226.0612 1.8302e+03     4.8893     -0.023     -0.034    23.1170 0.0000e+00
     -0.023      0.000     8.5935    100.236     39.191  37.732514     2.3182      8.359   226.1125 1.8132e+03     4.6714     -0.023     -0.033    23.1196 0.0000e+00
     -0.023     -0.001     8.5916    100.155     39.199  37.745725     2.2964      8.359   226.1058 1.9058e+03     4.2889     -0.023     -0.033    23.1205 0.0000e+00
     -0.023     -0.001     8.5854    100.104     39.189  37.740580     2.2895      8.359   226.1515 1.9473e+03     4.0907     -0.023     -0.033    23.1215 0.0000e+00
     -0.024     -0.001     8.5842    100.082     39.178  37.733772     2.2849      8.359   226.2353 1.8296e+03     4.0848     -0.024     -0.034    23.1256 0.0000e+00
     -0.025     -0.001     8.5761    100.063     39.168  37.726865     2.2824      8.360   226.2597 1.7300e+03     4.0473     -0.025     -0.036    23.1325 0.0000e+00
     -0.025      0.000     8.5653    100.016     39.160  37.720528     2.2848      8.360   226.1021 1.8376e+03     3.9784     -0.025     -0.036    23.1411 0.0000e+00
     -0.025      0.001     8.5612     99.944     39.160  37.720613     2.2887      8.359   225.9636 1.9061e+03     3.9684     -0.025     -0.036    23.1471 0.0000e+00
     -0.025      0.001     8.5590     99.893     39.170  37.727893     2.2867      8.359   226.0484 1.8634e+03     3.9952     -0.025     -0.036    23.1503 0.0000e+00
     -0.024      0.001     8.5581     99.883     39.188  37.745088     2.2612      8.358   226.1806 1.9204e+03     3.9949     -0.024     -0.034    23.1549 0.0000e+00
     -0.023      0.000     8.5538     99.923     39.177  37.738157     2.2217      8.358   226.2715 1.9119e+03     3.9644     -0.022     -0.032    23.1586 0.0000e+00
     -0.023     -0.001     8.5451     99.990     39.142  37.707545     2.2088      8.358   226.2880 1.9893e+03     3.9680     -0.022     -0.032    23.1579 0.0000e+00
     -0.024     -0.001     8.5417    100.014     39.126  37.692245     2.2215      8.358   226.2077 2.2042e+03     4.0387     -0.024     -0.034    23.1533 0.0000e+00
     -0.025     -0.001     8.5407     99.993     39.115  37.680074     2.2258      8.358   226.1607 2.0752e+03     4.0334     -0.025     -0.036    23.1517 0.0000e+00
     -0.026     -0.001     8.5426     99.974     39.125  37.687299     2.2605      8.358   226.2353 1.8770e+03     3.9383     -0.026     -0.037    23.1584 0.0000e+00
     -0.026      0.000     8.5518     99.965     39.161  37.716141     2.3325      8.358   226.4213 1.9260e+03     3.8793     -0.026     -0.038    23.1641 0.0000e+00
     -0.025      0.001     8.5531     99.948     39.162  37.711521     2.3734      8.358   226.4321 1.9673e+03     3.9008     -0.026     -0.038    23.1633 0.0000e+00
     -0.024      0.002     8.5496     99.952     39.148  37.694877     2.3968      8.359   226.1072 1.8701e+03     3.9936     -0.024     -0.036    23.1607 0.0000e+00
     -0.024      0.002     8.5483    100.014     39.159  37.705271     2.4481      8.359   225.7631 1.8355e+03     4.0110     -0.023     -0.034    23.1579 0.0000e+00
     -0.024      0.003     8.5500    100.114     39.162  37.710274     2.5110      8.359   225.6264 1.8966e+03     3.9400     -0.024     -0.034    23.1511 0.0000e+00
     -0.024      0.003     8.5493    100.249     39.142  37.691915     2.5410      8.360   225.6585 1.8266e+03     3.9210     -0.023     -0.034    23.1410 0.0000e+00
     -0.023      0.002     8.5473    100.387     39.124  37.673664     2.5538      8.360   225.7205 1.8115e+03     3.9525     -0.023     -0.033    23.1366 0.0000e+00
     -0.022      0.002     8.5555    100.457     39.133  37.679971     2.5907      8.359   225.7749 1.9486e+03     3.9792     -0.022     -0.030    23.1383 0.0000e+00
     -0.020      0.002     8.5622    100.463     39.158  37.704720     2.6217      8.358   225.7996 1.9813e+03     3.9705     -0.020     -0.028    23.1414 0.0000e+00
     -0.020      0.001     8.5736    100.453     39.172  37.719074     2.6119      8.359   225.7620 1.9030e+03     3.9490     -0.020     -0.029    23.1437 0.0000e+00
     -0.020      0.000     8.5904    100.402     39.177  37.726610     2.5890      8.360   225.7497 1.8823e+03     3.9242     -0.020     -0.028    23.1408 0.0000e+00
     -0.021 1.6600e-08     8.5957    100.297     39.179  37.732387     2.5284      8.359   225.7376 1.9053e+03     3.9444     -0.020     -0.029    23.1379 0.0000e+00
     -0.022 1.8260e-07     8.5934    100.193     39.169  37.725479     2.4189      8.357   225.7013 1.8706e+03     4.0224     -0.021     -0.031    23.1380 0.0000e+00
     -0.022 -2.269e-07     8.5943    100.104     39.149  37.706549     2.3472      8.357   225.7412 1.8341e+03     4.0471     -0.021     -0.031    23.1388 0.0000e+00
     -0.022      0.000     8.5908    100.022     39.137  37.693869     2.3277      8.357   225.8760 1.8006e+03     4.0046     -0.022     -0.031    23.1434 0.0000e+00
     -0.021      0.000     8.5768     99.948     39.142  37.699070     2.3751      8.358   226.0400 1.8293e+03     3.9863     -0.020     -0.028    23.1490 0.0000e+00
     -0.020     -0.001     8.5684     99.879     39.148  37.705978     2.4874      8.359   226.0887 1.9594e+03     4.0309     -0.018     -0.026    23.1511 0.0000e+00
     -0.020     -0.002     8.5613     99.842     39.154  37.713934     2.5623      8.358   226.0349 1.9438e+03     4.0652     -0.020     -0.027    23.1514 0.0000e+00
     -0.021     -0.003     8.5535     99.870     39.171  37.731814     2.5647      8.357   225.9910 1.8087e+03     4.0256     -0.021     -0.030    23.1508 0.0000e+00
     -0.022     -0.003     8.5481     99.944     39.172  37.731804     2.5335      8.357   225.9035 1.8048e+03     3.9283     -0.022     -0.032    23.1505 0.0000e+00
     -0.024     -0.002     8.5409    100.004     39.157  37.713819     2.3835      8.357   225.8366 1.8234e+03     3.8793     -0.024     -0.034    23.1525 0.0000e+00
     -0.024     -0.001     8.5356    100.026     39.151  37.704709     2.1331      8.358   225.8708 1.7699e+03     3.9451     -0.025     -0.036    23.1555 0.0000e+00
     -0.024      0.001     8.5380    100.031     39.134  37.685117     2.0107      8.358   225.9735 1.8209e+03     4.0406     -0.025     -0.036    23.1586 0.0000e+00
     -0.023      0.001     8.5475    100.003     39.121  37.667282     1.9947      8.357   226.0455 1.9016e+03     4.0440     -0.023     -0.033    23.1573 0.0000e+00
     -0.022      0.001     8.5542     99.908     39.136  37.679433     2.0053      8.357   226.0521 1.9201e+03     3.9863     -0.021     -0.031    23.1514 0.0000e+00
     -0.022      0.001     8.5552     99.807     39.162  37.705125     2.0650      8.356   226.0540 1.9299e+03     3.9915     -0.021     -0.030    23.1477 0.0000e+00
     -0.022      0.000     8.5564     99.776     39.181  37.724105     2.1090      8.356   226.0686 1.8547e+03     4.0389     -0.021     -0.031    23.1440 0.0000e+00
     -0.022     -0.000     8.5585     99.815     39.175  37.718544     2.1209      8.357   226.1425 1.8414e+03     4.0465     -0.022     -0.031    23.1360 0.0000e+00
     -0.023     -0.000     8.5479     99.919     39.159  37.701347     2.1254      8.357   226.2586 1.9423e+03     3.9814     -0.023     -0.032    23.1316 0.0000e+00
     -0.023     -0.001     8.5350    100.054     39.165  37.706541     2.1381      8.357   226.2677 1.9268e+03     3.9348     -0.022     -0.033    23.1340 0.0000e+00
     -0.023     -0.001     8.5343    100.174     39.179  37.717881     2.1577      8.358   226.2537 1.8132e+03     3.9948     -0.023     -0.032    23.1356 0.0000e+00
     -0.022      0.000     8.5367    100.278     39.174  37.711544     2.1629      8.358   226.3468 1.7662e+03     4.0576     -0.022     -0.032    23.1347 0.0000e+00
     -0.022      0.000     8.5470    100.359     39.157  37.693383     2.1419      8.358   226.3613 1.8412e+03     4.0451     -0.022     -0.031    23.1331 0.0000e+00
     -0.023      0.000     8.5613    100.384     39.152  37.688654     2.1040      8.358   226.2568 1.8814e+03     4.0155     -0.023     -0.033    23.1321 0.0000e+00
     -0.023      0.001     8.5705    100.350     39.180  37.717828     2.0878      8.358   226.2014 1.8542e+03     4.0064     -0.023     -0.034    23.1308 0.0000e+00
     -0.023      0.001     8.5803    100.308     39.190  37.728845     2.1048      8.358   226.2081 1.8397e+03     4.0382     -0.023     -0.033    23.1273 0.0000e+00
     -0.022      0.002     8.5892    100.286     39.153  37.694952     2.1512      8.358   226.1658 1.8242e+03     4.0581     -0.022     -0.032    23.1240 0.0000e+00
     -0.021      0.002     8.5918    100.233     39.144  37.688766     2.2155      8.357   226.1196 1.8761e+03     3.9735     -0.021     -0.030    23.1250 0.0000e+00
     -0.021      0.002     8.5858    100.123     39.172  37.717514     2.2501      8.357   226.1654 1.9268e+03     3.9034     -0.021     -0.030    23.1289 0.0000e+00
     -0.020      0.002     8.5801    100.007     39.178  37.725262     2.2613      8.357   226.2036 1.9184e+03     3.9628     -0.019     -0.029    23.1302 0.0000e+00
     -0.020      0.001     8.5811     99.977     39.169  37.719001     2.2679      8.357   226.2368 1.8722e+03     4.0080     -0.020     -0.028    23.1329 0.0000e+00
     -0.020      0.000     8.5768    100.055     39.154  37.705269     2.2469      8.357   226.3095 1.7882e+03     3.9718     -0.021     -0.030    23.1360 0.0000e+00
     -0.020      0.000     8.5657    100.160     39.137  37.686138     2.2071      8.358   226.2226 1.7705e+03     3.9352     -0.020     -0.029    23.1378 0.0000e+00
     -0.020      0.000     8.5515    100.203     39.134  37.678047     2.1857      8.358   225.8751 1.8183e+03     3.9071     -0.018     -0.027    23.1405 0.0000e+00
     -0.020      0.001     8.5468    100.159     39.131  37.670897     2.1964      8.357   225.1188 1.8509e+03     3.9392     -0.019     -0.027    23.1436 0.0000e+00
     -0.021      0.004     8.5578    100.093     39.128  37.663130     2.2198      8.356   224.0468 1.8318e+03     3.9822     -0.021     -0.031    23.1457 0.0000e+00
     -0.022      0.008     8.5691    100.067     39.120  37.647589     2.2271      8.356   223.3246 1.8176e+03     3.9489     -0.022     -0.032    23.1422 0.0000e+00
     -0.020      0.011     8.5760    100.062     39.093  37.609887     2.2183      8.355   223.0971 1.9339e+03     3.9462     -0.020     -0.029    23.1345 0.0000e+00
     -0.015      0.014     8.5705    100.087     39.086  37.587990     2.2137      8.354   222.9306 1.9917e+03     3.9834     -0.015     -0.022    23.1274 0.0000e+00
     -0.008      0.019     8.5623    100.201     39.087  37.573182     2.2552      8.351   222.6883 1.8689e+03     4.0573     -0.007     -0.010    23.1233 0.0000e+00
     -0.003      0.030     8.5638    100.397     39.025  37.494273     2.3368      8.344   222.4909 1.7714e+03     4.1559     -0.001     -0.003    23.1151 0.0000e+00
     -0.001      0.045     8.5659    100.605     38.955  37.395342     2.3847      8.338   222.3506 1.7925e+03     4.1504      0.000      0.001    23.0986 0.0000e+00
      0.003      0.060     8.5679    100.771     38.931  37.328791     2.4753      8.335   222.1963 1.8603e+03     4.1961     -0.002     -0.003    23.0781 0.0000e+00
      0.019      0.074     8.5818    100.977     38.906  37.260632     3.4488      8.333   222.0888 1.7569e+03     4.9821      0.010      0.015    23.0588 0.0000e+00
      0.052      0.086     8.6037    101.366     38.900  37.205713     5.2332      8.333   222.0825 1.5926e+03     6.3433      0.052      0.077    23.0407 0.0000e+00
      0.086      0.093     8.6310    101.930     38.918  37.172331     6.2062      8.332   222.0348 1.5849e+03     7.0244      0.088      0.128    23.0004 0.0000e+00
      0.112      0.095     8.6543    102.621     38.893  37.110754     6.2166      8.332   221.9413 1.5381e+03     6.9673      0.109      0.158    22.9335 0.0000e+00
      0.133      0.090     8.6717    103.428     38.854  37.032225     5.4084      8.333   221.8989 1.5361e+03     6.5404      0.132      0.192    22.8826 0.0000e+00
      0.152      0.081     8.7183    104.223     38.863  36.984225     3.9332      8.333   221.8672 1.6155e+03     5.8603      0.150      0.217    22.8222 0.0000e+00
      0.169      0.073     8.7836    104.843     38.906  36.974478     3.1284      8.334   221.9014 1.5331e+03     5.5073      0.164      0.238    22.7366 0.0000e+00
      0.189      0.067     8.8453    105.300     38.941  36.977761     3.0522      8.335   222.0548 1.4883e+03     5.4147      0.187      0.270    22.7071 0.0000e+00
      0.208      0.059     8.9271    105.696     38.938  36.960429     3.0287      8.336   222.2591 1.4318e+03     5.2875      0.206      0.299    22.6664 0.0000e+00
      0.224      0.049     9.0203    106.076     38.938  36.955259     2.9355      8.337   222.3921 1.2535e+03     5.2334      0.219      0.317    22.5696 0.0000e+00
      0.236      0.039     9.0826    106.381     38.967  36.978696     2.7911      8.338   222.4588 1.1982e+03     5.2379      0.234      0.339    22.5038 0.0000e+00
      0.244      0.032     9.1251    106.582     38.977  36.989980     2.7315      8.338   222.8076 1.4955e+03     5.2399      0.241      0.350    22.4657 0.0000e+00
      0.246      0.036     9.1597    106.751     38.946  36.964794     2.8465      8.337   223.4260 1.8033e+03     5.2578      0.241      0.350    22.4528 0.0000e+00
      0.247      0.050     9.1959    106.875     38.917  36.927992     4.1571      8.334   223.8274 1.5724e+03     5.5222      0.242      0.351    22.4493 0.0000e+00
      0.251      0.067     9.2274    106.872     38.943  36.925708     6.5753      8.333   223.9606 1.3017e+03     6.0466      0.243      0.352    22.4400 0.0000e+00
      0.267      0.081     9.2378    106.722     38.988  36.937144     7.8981      8.333   223.9190 1.2707e+03     6.3711      0.251      0.364    22.4427 0.0000e+00
      0.305      0.088     9.2518    106.485     39.017  36.939312     7.9162      8.333   223.8401 1.4144e+03     6.3715      0.296      0.429    22.4578 0.0000e+00
      0.350      0.087     9.2673    106.249     39.047  36.951878     6.8277      8.334   223.8670 1.6252e+03     6.1193      0.353      0.512    22.4507 0.0000e+00
      0.378      0.078     9.2757    106.029     39.070  36.962157     4.8406      8.337   223.7270 1.4321e+03     5.7473      0.377      0.547    22.4048 0.0000e+00
      0.388      0.065     9.2686    105.777     39.056  36.936674     3.7747      8.341   223.4382 1.0833e+03     5.5976      0.382      0.554    22.3617 0.0000e+00
      0.391      0.052     9.2498    105.483     39.034  36.897556     3.7200      8.343   223.2146 1.0041e+03     5.6759      0.384      0.556    22.3273 0.0000e+00
      0.394      0.047     9.2327    105.178     39.039  36.869872     3.9380      8.344   222.9162 1.0282e+03     5.9422      0.384      0.557    22.3085 0.0000e+00
      0.404      0.052     9.2175    104.838     39.072  36.855722     4.3291      8.346   222.7565 1.3458e+03     6.3233      0.393      0.569    22.2992 0.0000e+00
      0.420      0.063     9.1996    104.440     39.114  36.853307     4.5461      8.348   222.6596 1.7891e+03     6.4922      0.411      0.595    22.2822 0.0000e+00
      0.441      0.073     9.1735    104.038     39.132  36.840619     4.6048      8.349   222.1753 1.6401e+03     6.5495      0.434      0.628    22.2663 0.0000e+00
      0.462      0.080     9.1566    103.673     39.138  36.829169     4.9641      8.351   221.6333 1.2559e+03     7.0166      0.452      0.656    22.2238 0.0000e+00
      0.486      0.083     9.1410    103.378     39.159  36.841744     5.5859      8.353   221.4408 1.0918e+03     7.8017      0.475      0.690    22.1558 0.0000e+00
      0.511      0.084     9.1122    103.169     39.188  36.865752     5.9059      8.355   221.5675 1.0215e+03     8.1842      0.505      0.733    22.0996 0.0000e+00
      0.530      0.083     9.0836    103.028     39.188  36.865628     5.9368      8.358   221.7035 1.0244e+03     8.1576      0.521      0.756    22.0609 0.0000e+00
      0.548      0.083     9.0544    102.970     39.156  36.840245     6.0088      8.360   221.7942 1.0763e+03     8.1297      0.533      0.774    22.0410 0.0000e+00
      0.569      0.082     9.0279    102.984     39.123  36.812672     6.1283      8.361   221.9758 1.0767e+03     8.1206      0.557      0.809    22.0346 0.0000e+00
      0.591      0.080     9.0130    103.003     39.107  36.786054     6.1826      8.362   222.0926 1.0107e+03     8.0813      0.580      0.842    22.0313 0.0000e+00
      0.612      0.078     8.9993    102.994     39.118  36.772204     6.1656      8.364   222.0006 1.0457e+03     7.9959      0.600      0.870    22.0273 0.0000e+00
      0.634      0.078     8.9921    102.915     39.144  36.772083     6.1397      8.366   221.7242 1.1223e+03     7.9075      0.623      0.902    22.0364 0.0000e+00
      0.654      0.078     8.9957    102.758     39.179  36.784555     6.0777      8.366   221.4183 1.0790e+03     7.6280      0.643      0.932    22.0519 0.0000e+00
      0.670      0.079     8.9985    102.569     39.208  36.796074     5.9815      8.366   221.3124 1.0942e+03     7.1440      0.656      0.951    22.0343 0.0000e+00
      0.686      0.082     9.0074    102.366     39.206  36.784433     5.9170      8.367   221.4768 1.1519e+03     6.8722      0.669      0.971    21.9956 0.0000e+00
      0.707      0.085     9.0070    102.186     39.197  36.770695     5.9144      8.368   221.6859 1.1407e+03     6.8009      0.692      1.003    21.9630 0.0000e+00
      0.734      0.088     8.9940    102.063     39.187  36.756861     6.2242      8.370   221.7759 1.0995e+03     6.7268      0.720      1.045    21.9366 0.0000e+00
      0.759      0.091     8.9826    102.013     39.179  36.744067     6.8171      8.371   221.7905 1.0571e+03     6.6592      0.746      1.082    21.9170 0.0000e+00
      0.783      0.091     8.9648    102.035     39.187  36.742907     7.1396      8.373   221.8626 1.0281e+03     6.6320      0.768      1.113    21.9042 0.0000e+00
      0.805      0.087     8.9488    102.086     39.197  36.742812     7.1440      8.374   222.0447 9.4816e+02     6.6031      0.790      1.146    21.8984 0.0000e+00
      0.827      0.082     8.9388    102.097     39.206  36.742907     7.0033      8.375   222.1858 8.6893e+02     6.5143      0.811      1.176    21.8956 0.0000e+00
      0.848      0.078     8.9347    102.007     39.214  36.744052     6.7786      8.377   222.1924 8.3354e+02     6.4462      0.831      1.207    21.8887 0.0000e+00
      0.867      0.075     8.9402    101.773     39.232  36.756639     6.6658      8.377   222.1242 7.9802e+02     6.4288      0.851      1.235    21.8768 0.0000e+00
      0.886      0.073     8.9495    101.425     39.249  36.768185     6.6378      8.377   222.1347 7.9417e+02     6.4065      0.869      1.261    21.8642 0.0000e+00
      0.902      0.071     8.9539    101.042     39.243  36.756744     6.4406      8.377   222.2346 8.0393e+02     6.4157      0.885      1.284    21.8529 0.0000e+00
      0.919      0.069     8.9495    100.648     39.238  36.745209     6.0884      8.377   222.2127 8.2703e+02     6.5070      0.900      1.305    21.8443 0.0000e+00
      0.938      0.069     8.9292    100.223     39.254  36.755603     5.9079      8.378   222.1282 9.7965e+02     6.6218      0.920      1.335    21.8401 0.0000e+00
      0.958      0.071     8.8950     99.748     39.258  36.755500     5.9224      8.378   222.1592 1.0357e+03     6.6415      0.941      1.365    21.8357 0.0000e+00
      0.974      0.075     8.8630     99.209     39.249  36.743963     6.1137      8.379   222.2440 8.3535e+02     6.5749      0.955      1.385    21.8264 0.0000e+00
      0.990      0.079     8.8312     98.641     39.252  36.743020     6.4478      8.380   222.2922 7.1830e+02     6.5337      0.970      1.407    21.8178 0.0000e+00
      1.009      0.083     8.7949     98.135     39.257  36.744089     6.6165      8.382   222.3979 7.4103e+02     6.5528      0.988      1.434    21.8118 0.0000e+00
      1.032      0.086     8.7549     97.695     39.275  36.756875     6.6475      8.382   222.5759 7.3874e+02     6.6358      1.009      1.464    21.8071 0.0000e+00
      1.059      0.088     8.7078     97.225     39.294  36.770710     6.8395      8.382   222.7238 7.1085e+02     6.7849      1.039      1.506    21.8045 0.0000e+00
      1.086      0.089     8.6539     96.693     39.313  36.784451     8.6718      8.383   222.8958 6.7614e+02     8.0836      1.068      1.547    21.7999 0.0000e+00
      1.107      0.089     8.6099     96.143     39.329  36.796102    11.9968      8.384   223.1065 6.8075e+02    10.5193      1.086      1.576    21.7938 0.0000e+00
      1.126      0.088     8.5777     95.627     39.321  36.784680    13.8077      8.384   223.2923 7.4037e+02    11.8438      1.103      1.601    21.7883 0.0000e+00
      1.147      0.086     8.5378     95.163     39.313  36.773250    14.0543      8.383   223.5078 7.5060e+02    12.0059      1.123      1.629    21.7835 0.0000e+00
      1.171      0.086     8.4895     94.715     39.329  36.784799    15.0444      8.383   223.8184 6.8173e+02    12.3772      1.147      1.665    21.7789 0.0000e+00
      1.194      0.086     8.4406     94.187     39.347  36.797397    16.8232      8.383   224.0372 6.3940e+02    12.9844      1.173      1.700    21.7745 0.0000e+00
      1.214      0.085     8.3949     93.507     39.352  36.798666    17.7667      8.384   224.0878 6.0789e+02    13.3019      1.191      1.727    21.7699 0.0000e+00
      1.236      0.083     8.3564     92.761     39.359  36.800136    17.7217      8.384   224.1722 5.8444e+02    13.2791      1.211      1.756    21.7653 0.0000e+00
      1.260      0.081     8.3206     92.117     39.381  36.815155    16.3951      8.384   224.2835 5.9448e+02    12.5725      1.237      1.794    21.7605 0.0000e+00
      1.281      0.080     8.2794     91.625     39.428  36.853343    13.9458      8.384   224.3145 5.7907e+02    11.1796      1.259      1.827    21.7556 0.0000e+00
      1.297      0.080     8.2174     91.251     39.465  36.881148    12.6028      8.385   224.3754 5.3887e+02    10.3746      1.271      1.845    21.7502 0.0000e+00
      1.314      0.080     8.1446     90.935     39.492  36.897522    12.5498      8.385   224.6750 5.0276e+02    10.3201      1.287      1.867    21.7435 0.0000e+00
      1.335      0.081     8.0892     90.579     39.532  36.924400    13.5045      8.385   225.0986 4.8134e+02    10.7259      1.309      1.898    21.7368 0.0000e+00
      1.359      0.084     8.0485     90.134     39.574  36.952304    15.2975      8.385   225.3669 4.6498e+02    11.5236      1.333      1.934    21.7298 0.0000e+00
      1.381      0.088     8.0177     89.623     39.619  36.981076    16.2846      8.384   225.5103 4.4519e+02    11.9719      1.357      1.967    21.7216 0.0000e+00
      1.402      0.089     7.9963     89.102     39.676  37.018446    16.3174      8.383   225.7143 4.3591e+02    11.8754      1.374      1.993    21.7114 0.0000e+00
      1.426      0.089     7.9682     88.637     39.767  37.086853    15.6698      8.383   226.1128 4.3350e+02    10.6643      1.397      2.027    21.6982 0.0000e+00
      1.452      0.089     7.9300     88.267     39.881  37.173615    14.1803      8.382   226.6278 4.1913e+02     8.4652      1.426      2.068    21.6839 0.0000e+00
      1.473      0.091     7.8864     88.016     39.980  37.242547    12.8987      8.381   227.0370 4.0325e+02     7.2499      1.446      2.097    21.6669 0.0000e+00
      1.493      0.094     7.8406     87.919     40.053  37.285736    12.4846      8.381   227.3608 4.1087e+02     7.1405      1.463      2.123    21.6462 0.0000e+00
      1.516      0.096     7.8024     87.967     40.112  37.315049    12.4105      8.380   227.7035 4.2002e+02     7.0746      1.485      2.154    21.6251 0.0000e+00
      1.542      0.096     7.7727     88.098     40.172  37.343105    11.9197      8.380   227.9975 4.1315e+02     6.9658      1.511      2.192    21.6021 0.0000e+00
      1.570      0.096     7.7532     88.251     40.237  37.371109    11.0365      8.380   228.2489 4.0241e+02     6.8500      1.539      2.233    21.5740 0.0000e+00
      1.598      0.095     7.7497     88.369     40.305  37.399779    10.5709      8.380   228.4196 3.7660e+02     6.8010      1.567      2.273    21.5400 0.0000e+00
      1.623      0.093     7.7617     88.466     40.380  37.435886    10.6839      8.380   228.5131 3.4855e+02     6.8867      1.594      2.311    21.5074 0.0000e+00
      1.644      0.092     7.7790     88.596     40.477  37.490354    12.3372      8.379   228.6902 3.4802e+02     7.4413      1.614      2.340    21.4762 0.0000e+00
      1.662      0.092     7.8017     88.760     40.585  37.550658    15.3624      8.379   228.9258 3.6004e+02     8.4178      1.628      2.362    21.4344 0.0000e+00
      1.683      0.093     7.8187     88.930     40.678  37.593863    17.0147      8.379   229.1248 3.4841e+02     8.9573      1.648      2.390    21.3904 0.0000e+00
      1.709      0.094     7.8293     89.033     40.769  37.631954    17.1172      8.380   229.2901 3.2110e+02     9.0117      1.676      2.430    21.3507 0.0000e+00
      1.737      0.097     7.8493     88.853     40.890  37.693877    16.4272      8.380   229.4611 3.1681e+02     9.2113      1.704      2.473    21.3071 0.0000e+00
      1.763      0.098     7.8714     88.010     41.030  37.771401    15.1148      8.380   229.6445 3.2492e+02     9.5949      1.730      2.508    21.2575 0.0000e+00
      1.788      0.095     7.8959     86.024     41.192  37.871196    14.3740      8.380   229.7870 3.1187e+02     9.8237      1.753      2.542    21.2050 0.0000e+00
      1.812      0.090     7.9207     82.461     41.393  38.012036    14.2030      8.380   229.8931 2.9428e+02     9.9279      1.777      2.577    21.1488 0.0000e+00
      1.836      0.086     7.9253     77.067     41.644  38.205097    13.1223      8.380   230.0663 2.8456e+02    10.0698      1.801      2.611    21.0869 0.0000e+00
      1.857      0.084     7.8777     70.162     41.925  38.428627    11.1377      8.380   230.3330 2.6911e+02    10.1386      1.822      2.642    21.0237 0.0000e+00
      1.875      0.082     7.7221     62.713     42.102  38.557104    10.1164      8.379   230.6228 2.5748e+02    10.1453      1.839      2.668    20.9621 0.0000e+00
      1.893      0.079     7.4241     55.706     42.128  38.552758    10.8196      8.380   230.8171 2.5417e+02    10.5940      1.854      2.689    20.9075 0.0000e+00
      1.914      0.074     6.9429     49.999     42.090  38.502956    19.8228      8.380   230.9608 2.4967e+02    15.8027      1.876      2.720    20.8645 0.0000e+00
      1.937      0.068     6.2889     46.333     42.050  38.462596    36.3750      8.379   231.1561 2.4204e+02    25.3345      1.902      2.759    20.8258 0.0000e+00
      1.955      0.060     5.5993     44.974     42.031  38.445518    45.4040      8.378   231.3715 2.3508e+02    30.5369      1.919      2.784    20.7827 0.0000e+00
      1.969      0.050     4.9510     45.698     42.019  38.423386    46.1688      8.378   231.6725 2.3149e+02    31.1557      1.933      2.802    20.7465 0.0000e+00
      1.979      0.039     4.4122     48.038     42.001  38.385360    45.6468      8.378   232.0417 2.2864e+02    32.9187      1.943      2.817    20.7269 0.0000e+00
      1.986      0.029     4.0768     51.399     41.997  38.366469    39.2176      8.378   232.3941 2.2357e+02    52.0578      1.949      2.826    20.7263 0.0000e+00
      1.991      0.021     3.9636     55.143     42.027  38.385320    27.4276      8.378   232.7501 2.1911e+02    87.1219      1.953      2.833    20.7381 0.0000e+00
      1.995      0.016     4.0448     58.743     42.073  38.422915    21.0003      8.379   233.0765 2.1868e+02   106.2635      1.957      2.838    20.7227 0.0000e+00
      1.999      0.012     4.2754     61.743     42.091  38.440269    20.4579      8.379   233.2431 2.1945e+02   108.5331      1.960      2.843    20.6863 0.0000e+00
      2.001      0.008     4.6016     63.820     42.041  38.404769    20.8365      8.378   233.3017 2.1681e+02   114.8363      1.962      2.846    20.6682 0.0000e+00
      2.003      0.006     4.9522     64.945     41.917  38.310991    21.6418      8.377   233.4416 2.1371e+02   126.2153      1.964      2.849    20.6627 0.0000e+00
      2.003      0.004     5.2905     65.249     41.761  38.194843    22.1295      8.376   233.5577 2.1351e+02   132.4327      1.965      2.850    20.6565 0.0000e+00
      2.004      0.003     5.5731     64.867     41.599  38.079253    22.4799      8.376   233.5868 2.1318e+02   132.8277      1.965      2.850    20.6539 0.0000e+00
      2.004      0.002     5.7564     64.008     41.459  37.992217    25.7537      8.376   233.6214 2.1193e+02   131.1613      1.966      2.851    20.6663 0.0000e+00
      2.005      0.001     5.8488     62.988     41.387  37.967495    31.7409      8.375   233.6315 2.1457e+02   128.0665      1.966      2.851    20.6917 0.0000e+00
      2.005      0.001     5.8695     62.142     41.363  37.970760    35.0028      8.375   233.7096 2.1810e+02   126.4260      1.966      2.852    20.7239 0.0000e+00
      2.005      0.001     5.8255     61.787     41.356  37.968282    35.2138      8.375   233.8772 2.1728e+02   126.1853      1.966      2.851    20.7608 0.0000e+00
      2.005      0.000     5.7305     62.023     41.333  37.937533    34.0837      8.375   234.0232 2.1804e+02   124.5404      1.966      2.852    20.8126 0.0000e+00
      2.005 1.8643e-08     5.6242     62.639     41.320  37.916245    31.9416      8.375   234.0974 2.1946e+02   121.5334      1.966      2.851    20.8719 0.0000e+00
      2.005 2.0507e-07     5.5325     63.362     41.378  37.964702    30.7632      8.375   234.0870 2.1667e+02   119.8884      1.967      2.852    20.9051 0.0000e+00
      2.005 2.0507e-07     5.4955     64.024     41.443  38.015767    30.5394      8.375   233.9838 2.1517e+02   119.6134      1.967      2.853    20.9064 0.0000e+00
      2.005 1.8643e-08     5.5295     64.562     41.466  38.025998    29.1355      8.374   233.8809 2.1561e+02   117.9695      1.966      2.852    20.8865 0.0000e+00
      2.005 1.6948e-09     5.5949     64.957     41.470  38.024930    26.5483      8.374   233.8756 2.1438e+02   114.8715      1.966      2.852    20.8729 0.0000e+00
      2.005 1.5408e-10     5.6647     65.187     41.441  38.002855    25.1175      8.374   233.9201 2.1228e+02   113.1376      1.966      2.851    20.8735 0.0000e+00
      2.005 1.4007e-11     5.7264     65.261     41.370  37.949467    24.9775      8.374   234.0742 2.1148e+02   112.9921      1.966      2.851    20.8606 0.0000e+00
      2.005 1.2734e-12     5.7769     65.307     41.281  37.887087    24.8975      8.374   234.1903 2.1150e+02   112.9758      1.966      2.852    20.8429 0.0000e+00
      2.005 1.1576e-13     5.8133     65.471     41.182  37.819754    24.0751      8.374   234.1190 2.0952e+02   112.8038      1.967      2.852    20.8378 0.0000e+00
      2.005 1.0524e-14     5.8348     65.791     41.102  37.769947    22.5665      8.375   234.0726 2.0827e+02   112.4841      1.966      2.852    20.8440 0.0000e+00
      2.005 9.5670e-16     5.8343     66.275     41.110  37.792555    21.7223      8.375   234.1453 2.0940e+02   112.2876      1.967      2.852    20.8579 0.0000e+00
      2.005 8.6970e-17     5.8295     66.927     41.157  37.839302    21.5006      8.375   234.2245 2.0905e+02   112.2715      1.967      2.853    20.8806 0.0000e+00
      2.005 7.9065e-18     5.8411     67.737     41.152  37.827515    19.9608      8.374   234.1697 2.0765e+02   112.4940      1.967      2.852    20.9142 0.0000e+00
      2.005 7.1875e-19     5.8653     68.634     41.107  37.776942    17.1540      8.374   234.0847 2.0875e+02   112.8945      1.967      2.852    20.9446 0.0000e+00
      2.005 6.5345e-20     5.9064     69.497     41.062  37.735466    15.6285      8.374   234.1434 2.1080e+02   113.0488      1.967      2.852    20.9657 0.0000e+00
      2.006 5.9397e-21     5.9635     70.257     41.022  37.706765    15.4824      8.375   234.2765 2.0954e+02   113.0613      1.967      2.853    20.9710 0.0000e+00
      2.006 5.3723e-22     6.0396     70.933     40.980  37.683765    15.5129      8.375   234.3177 2.0816e+02   113.8313      1.967      2.853    20.9555 0.0000e+00
      2.006 1.8614e-23     6.1269     71.589     40.910  37.647757    15.6389      8.374   234.2972 2.0939e+02   115.2886      1.967      2.853    20.9383 0.0000e+00
      2.006 -3.308e-22     6.2058     72.261     40.800  37.588704    15.7329      8.373   234.4593 2.0992e+02   116.0945      1.967      2.852    20.9393 0.0000e+00
      2.006 -3.688e-21     6.2712     72.936     40.697  37.540920    15.7428      8.373   234.7287 2.1062e+02   116.1972      1.968      2.854    20.9531 0.0000e+00
      2.006 -4.057e-20     6.3271     73.642     40.628  37.514264    15.5743      8.373   234.8874 2.1214e+02   116.5989      1.967      2.853    20.9680 0.0000e+00
      2.006 -4.462e-19     6.3798     74.477     40.608  37.520282    15.2605      8.373   235.0016 2.1232e+02   117.3307      1.967      2.852    20.9994 0.0000e+00
      2.006 -4.909e-18     6.4341     75.473     40.628  37.550261    15.0949      8.373   235.0768 2.1207e+02   117.7691      1.967      2.853    21.0579 0.0000e+00
      2.006 -5.399e-17     6.4857     76.556     40.636  37.559478    15.0871      8.373   235.0224 2.1276e+02   117.9032      1.967      2.852    21.1220 0.0000e+00
      2.006 -5.939e-16     6.5375     77.605     40.652  37.568273    15.1083      8.373   234.9464 2.1294e+02   117.7900      1.967      2.853    21.1705 0.0000e+00
      2.006 -6.533e-15     6.6069     78.493     40.695  37.593136    15.1428      8.373   235.0179 2.1158e+02   117.4591      1.967      2.853    21.1976 0.0000e+00
      2.006 -7.187e-14     6.6975     79.159     40.725  37.606254    15.1716      8.373   235.1124 2.1142e+02   117.3530      1.967      2.853    21.2097 0.0000e+00
      2.006 -7.905e-13     6.7957     79.526     40.728  37.599949    15.1817      8.373   235.1433 2.1226e+02   117.4291      1.967      2.853    21.2134 0.0000e+00
      2.006 -8.696e-12     6.8962     79.518     40.708  37.580334    15.1649      8.373   235.2190 2.1227e+02   117.3886      1.967      2.853    21.2054 0.0000e+00
      2.006 -9.566e-11     6.9777     79.224     40.686  37.559466    15.1024      8.373   235.3398 2.1334e+02   117.0337      1.967      2.853    21.1851 0.0000e+00
      2.006 -1.052e-09     7.0417     78.794     40.666  37.538005    15.0078      8.373   235.4849 2.1448e+02   116.4523      1.968      2.854    21.1621 0.0000e+00
      2.006 -1.157e-08     7.0823     78.364     40.640  37.511209    14.9616      8.373   235.5971 2.1429e+02   116.1664      1.967      2.853    21.1503 0.0000e+00
      2.006 -1.273e-07     7.0751     78.054     40.611  37.489292    14.9601      8.374   235.7506 2.1310e+02   116.1727      1.967      2.853    21.1536 0.0000e+00
      2.006     -0.000     7.0443     77.921     40.571  37.463373    14.9898      8.374   235.8774 2.1154e+02   116.0837      1.967      2.853    21.1560 0.0000e+00
      2.006     -0.000     7.0034     77.981     40.546  37.451672    15.0538      8.374   235.8393 2.1128e+02   115.9104      1.967      2.853    21.1479 0.0000e+00
      2.006     -0.000     6.9610     78.231     40.564  37.474735    15.0762      8.373   235.7199 2.1112e+02   115.7178      1.968      2.854    21.1413 0.0000e+00
      2.006     -0.002     6.9317     78.632     40.574  37.488414    14.9947      8.373   235.3799 2.1126e+02   114.9161      1.968      2.854    21.1479 0.0000e+00
      2.006     -0.011     6.9173     79.096     40.494  37.426702    14.2183      8.373   235.1713 2.1281e+02   107.1732      1.968      2.854    21.1648 0.0000e+00
      2.006     -0.036     6.9203     79.547     40.315  37.299695    12.8043      8.373   235.4340 2.1126e+02    93.0836      1.968      2.854    21.1811 0.0000e+00
      2.005     -0.081     6.9421     79.972     40.148  37.221927    12.0149      8.372   235.5454 2.0515e+02    85.2957      1.967      2.853    21.1892 0.0000e+00
      1.999     -0.142     6.9810     80.415     39.999  37.184525    11.7234      8.371   235.3139 2.0170e+02    82.8321      1.966      2.852    21.1900 0.0000e+00
      1.971     -0.207     7.0246     81.050     39.810  37.101429     9.3628      8.371   235.0439 2.0730e+02    63.1945      1.950      2.828    21.1960 0.0000e+00
      1.901     -0.264     7.0589     82.167     39.671  37.042255     5.0803      8.371   234.7750 2.2535e+02    27.4010      1.879      2.725    21.2347 0.0000e+00
      1.795     -0.300     7.0820     83.909     39.617  37.040250     2.7574      8.372   234.3867 2.4956e+02     7.9444      1.761      2.553    21.3380 0.0000e+00
      1.683     -0.310     7.0964     86.054     39.551  37.013785     2.5519      8.373   233.9622 2.6275e+02     6.5652      1.645      2.387    21.4828 0.0000e+00
      1.586     -0.293     7.1243     88.299     39.480  36.976137     2.5867      8.374   233.6862 2.6706e+02    10.7935      1.547      2.245    21.6056 0.0000e+00
      1.514     -0.260     7.2031     90.503     39.445  36.965808     2.7040      8.376   233.2863 2.7441e+02    18.8629      1.474      2.138    21.6902 0.0000e+00
      1.468     -0.226     7.3584     92.520     39.415  36.952383     2.7882      8.378   232.7406 2.8168e+02    23.3109      1.433      2.078    21.7483 0.0000e+00
      1.438     -0.204     7.5540     94.246     39.395  36.940749     2.8054      8.381   232.2507 2.9188e+02    23.6843      1.412      2.048    21.7898 0.0000e+00
      1.404     -0.194     7.7446     95.663     39.402  36.952059     2.7955      8.383   231.8368 3.0416e+02    23.3101      1.385      2.010    21.8265 0.0000e+00
      1.353     -0.196     7.9405     96.701     39.409  36.962231     2.7436      8.385   231.4366 3.1827e+02    19.7087      1.332      1.932    21.8560 0.0000e+00
      1.288     -0.204     8.1184     97.310     39.377  36.936849     2.6688      8.385   230.8534 3.3694e+02    13.2404      1.261      1.828    21.8730 0.0000e+00
      1.226     -0.211     8.2661     97.566     39.333  36.898984     2.6406      8.386   230.2059 3.5349e+02     9.7662      1.199      1.738    21.8810 0.0000e+00
      1.171     -0.211     8.3934     97.621     39.316  36.885139     2.6353      8.388   229.7155 3.7665e+02     9.4024      1.148      1.666    21.8853 0.0000e+00
      1.121     -0.206     8.4860     97.595     39.329  36.896351     2.5635      8.391   229.3993 4.1270e+02     8.2959      1.099      1.593    21.8907 0.0000e+00
      1.074     -0.201     8.5353     97.538     39.344  36.907649     2.4462      8.393   229.2223 4.7581e+02     6.2937      1.052      1.526    21.8967 0.0000e+00
      1.026     -0.200     8.5515     97.439     39.335  36.894834     2.3902      8.395   229.2090 5.7805e+02     5.2106      1.009      1.464    21.9013 0.0000e+00
      0.974     -0.204     8.5516     97.276     39.311  36.868309     2.3944      8.396   229.2381 6.7568e+02     5.1407      0.957      1.388    21.9052 0.0000e+00
      0.921     -0.211     8.5483     97.079     39.286  36.840744     2.3799      8.398   229.2306 6.9391e+02     4.9701      0.901      1.306    21.9038 0.0000e+00
      0.869     -0.219     8.5446     96.881     39.263  36.815355     2.3399      8.399   229.2910 6.5644e+02     4.6167      0.854      1.238    21.8989 0.0000e+00
      0.814     -0.227     8.5385     96.671     39.265  36.815136     2.3193      8.400   229.1939 6.7502e+02     4.4211      0.802      1.163    21.8941 0.0000e+00
      0.751     -0.232     8.5238     96.410     39.288  36.838094     2.3309      8.402   228.7442 7.1190e+02     4.4150      0.735      1.068    21.8876 0.0000e+00
      0.688     -0.235     8.5053     96.086     39.286  36.839131     2.3634      8.404   228.1566 7.7216e+02     4.4755      0.674      0.977    21.8823 0.0000e+00
      0.627     -0.234     8.4904     95.800     39.271  36.827677     2.3869      8.405   227.5092 9.1453e+02     4.4687      0.617      0.895    21.8776 0.0000e+00
      0.565     -0.229     8.4727     95.642     39.268  36.826523     2.3823      8.407   226.7679 9.1175e+02     4.3668      0.553      0.803    21.8740 0.0000e+00
      0.504     -0.219     8.4523     95.646     39.264  36.825180     2.3744      8.408   225.7317 8.0044e+02     4.3370      0.492      0.714    21.8759 0.0000e+00
      0.449     -0.211     8.4177     95.828     39.247  36.811441     2.3574      8.408   224.2724 8.4800e+02     4.3476      0.439      0.636    21.8813 0.0000e+00
      0.399     -0.204     8.3888     96.110     39.217  36.787319     2.3188      8.409   222.9760 9.0870e+02     4.2905      0.389      0.565    21.8846 0.0000e+00
      0.354     -0.196     8.3757     96.405     39.209  36.787337     2.2827      8.409   222.2759 8.8475e+02     4.1920      0.348      0.504    21.8862 0.0000e+00
      0.308     -0.182     8.3724     96.705     39.226  36.811677     2.2616      8.408   222.0881 9.0176e+02     4.1130      0.306      0.444    21.8888 0.0000e+00
      0.254     -0.162     8.3922     97.044     39.231  36.827812     2.2553      8.406   222.1677 9.4420e+02     4.0876      0.249      0.361    21.8912 0.0000e+00
      0.202     -0.136     8.4196     97.451     39.245  36.855525     2.2237      8.404   222.2066 9.3353e+02     4.1243      0.193      0.280    21.8955 0.0000e+00
      0.164     -0.115     8.4429     97.915     39.262  36.892963     2.1531      8.404   222.0420 9.8860e+02     4.2143      0.154      0.223    21.9063 0.0000e+00
      0.145     -0.112     8.4669     98.410     39.248  36.899783     2.1014      8.404   221.8111 1.2737e+03     4.2542      0.134      0.195    21.9172 0.0000e+00
      0.143     -0.133     8.4927     98.912     39.279  36.938018     2.0734      8.400   221.8247 1.5154e+03     4.1963      0.140      0.202    21.9292 0.0000e+00
      0.141     -0.181     8.5263     99.363     39.357  37.038006     2.0134      8.392   221.6898 1.6364e+03     4.0947      0.150      0.216    21.9464 0.0000e+00
      0.109     -0.250     8.5638     99.819     39.329  37.093521     1.9260      8.386   220.7825 1.8062e+03     4.0163      0.128      0.186    21.9767 0.0000e+00
      0.025     -0.326     8.5992    100.350     39.271  37.165185     1.8817      8.385   219.9750 1.6385e+03     4.0004      0.037      0.054    22.0140 0.0000e+00
     -0.094     -0.391     8.6489    100.834     39.174  37.206679     1.8857      8.386   219.6700 1.4632e+03     4.0387     -0.091     -0.133    22.0099 0.0000e+00
     -0.228     -0.424     8.6849    101.105     38.782  36.960871     2.0163      8.387   219.5034 1.8649e+03     4.6850     -0.218     -0.316    22.0138 0.0000e+00
     -0.365     -0.412     8.6989    101.039     38.553  36.858351     2.3028      8.390   222.5205 2.2158e+03     5.9048     -0.365     -0.530    22.1315 0.0000e+00
     -0.488     -0.359     8.7218    100.522     38.801  37.172876     2.9033      8.393   225.5199 2.1139e+03     6.5247     -0.490     -0.710    22.3169 0.0000e+00
     -0.582     -0.283     8.7399     99.562     38.964  37.337406     8.1293      8.395   220.4070 1.8945e+03     6.2704     -0.581     -0.843    22.4860 0.0000e+00
     -0.639     -0.200     8.7391     98.398     38.958  37.261386    65.5143      8.395   208.3666 1.8049e+03     3.3079     -0.644     -0.933    22.6521 0.0000e+00
     -0.660     -0.124     8.7106     97.316     39.028  37.205429   170.6628      8.397   207.2781 1.7897e+03    -2.0703     -0.653     -0.946    22.8125 0.0000e+00
     -0.663     -0.065     8.6495     96.438     39.124  37.168284   227.5545      8.405   261.0216 1.7112e+03    -4.9901     -0.650     -0.942    22.9265 0.0000e+00
     -0.663     -0.026     8.5533     95.628     38.859  36.812084   227.4490      8.415   338.3256 1.6031e+03    -5.3157     -0.650     -0.943    22.9483 0.0000e+00
     -0.663     -0.007     8.4610     94.555     34.256  32.390873   169.4128      8.410   347.2093 1.5873e+03    -5.9050     -0.649     -0.942    22.8432 0.0000e+00
     -0.663     -0.001     8.3925     92.907     22.577  21.324178    62.2003      8.395   291.1704 1.7405e+03    -6.8885     -0.651     -0.944    22.6602 0.0000e+00
     -0.663     -0.000     8.3488     90.638     11.519  10.872155     3.7091      8.381   220.0184 2.0737e+03    -7.4039     -0.650     -0.943    22.4842 0.0000e+00
     -0.663     -0.000     8.3133     88.100      7.362   6.945871    -1.5914      8.375   174.0263 1.9416e+03    -7.4224     -0.650     -0.942    22.3465 0.0000e+00
     -0.663     -0.001     8.2452     85.663      6.747   6.365153    -2.0366      8.379   169.3240 1.1416e+03    -7.3173     -0.651     -0.944    22.2479 0.0000e+00
     -0.663     -0.001     8.1168     83.511      6.634   6.258314    -1.6822      8.384   183.9844 1.1171e+03    -5.7234     -0.650     -0.942    22.1917 0.0000e+00
     -0.664     -0.001     7.9057     81.819      6.598   6.224320    -0.9265      8.388   202.4366 2.0231e+03    -2.7368     -0.650     -0.943    22.1694 0.0000e+00
     -0.664     -0.001     7.6728     80.740      6.378   6.017505    -0.4987      8.390   220.6076 2.4718e+03    -1.1648     -0.652     -0.946    22.1629 0.0000e+00
     -0.664     -0.001     7.4586     80.281      5.998   5.658380    -0.4549      8.391   243.8270 1.9651e+03    -0.9598     -0.652     -0.945    22.1617 0.0000e+00
     -0.664     -0.001     7.2647     80.356      5.756   5.430061    -0.3481      8.393   266.5343 1.0296e+03     0.2198     -0.651     -0.944    22.1625 0.0000e+00
     -0.664      0.000     7.1105     80.790      5.668   5.347640    -0.1305      8.392   270.2520 5.6708e+02     2.3038     -0.651     -0.944    22.1640 0.0000e+00
     -0.664 -1.863e-08     7.0176     81.318      5.410   5.105308    -0.0121      8.390   272.4298 8.5773e+02     3.3651     -0.651     -0.945    22.1660 0.0000e+00
     -0.664 -2.049e-07     6.9800     81.802      4.999   4.717389    -0.0074      8.389   278.6701 1.2016e+03     3.3846     -0.651     -0.945    22.1678 0.0000e+00
     -0.664 -2.049e-07     6.9898     82.229      4.725   4.458474     0.0260      8.385   260.0938 1.2410e+03     3.3263     -0.651     -0.945    22.1694 0.0000e+00
     -0.664 -1.863e-08     7.0392     82.542      4.711   4.445499     0.0920      8.382   243.0483 1.4032e+03     3.2748     -0.652     -0.945    22.1711 0.0000e+00
     -0.664 -1.707e-09     7.0889     82.691      4.699   4.433806     0.1332      8.387   269.3458 1.3640e+03     3.2745     -0.651     -0.944    22.1726 0.0000e+00
     -0.664 -3.079e-10     7.1285     82.726      4.642   4.380444     0.1414      8.392   294.5553 1.0170e+03     3.2886     -0.651     -0.944    22.1737 0.0000e+00
     -0.664 -9.990e-29     7.1685 -9.990e-29 -9.990e-29 -9.990e-29 -9.990e-29 -9.990e-29 -9.990e-29 8.8047e+02 -9.990e-29     -0.651     -0.945    22.1748 0.0000e+00
     -0.664 -9.990e-29     7.1987 -9.990e-29 -9.990e-29 -9.990e-29 -9.990e-29 -9.990e-29 -9.990e-29 9.8301e+02 -9.990e-29     -0.651     -0.944    22.1759 0.0000e+00
     -0.664 -9.990e-29     7.2080 -9.990e-29 -9.990e-29 -9.990e-29 -9.990e-29 -9.990e-29 -9.990e-29 1.1937e+03 -9.990e-29     -0.651     -0.944    22.1772 0.0000e+00
     -0.664 -9.990e-29     7.2094 -9.990e-29 -9.990e-29 -9.990e-29 -9.990e-29 -9.990e-29 -9.990e-29 1.3068e+03 -9.990e-29     -0.652     -0.945    22.1779 0.0000e+00
