* Sea-Bird SBE19plus  Data File:
* FileName = C:\DATA\060319_fcr50.hex
* Software version 2.8.0.119
* Temperature SN = 7809
* Conductivity SN = 7809
* System UpLoad Time = Jun 06 2019 12:09:01
* <ApplicationData>
* <Seaterm232>
* <SoftwareVersion>2.8.0.119</SoftwareVersion>
* <BuildDate>07-Nov-2018</BuildDate>
* </Seaterm232>
* </ApplicationData>
* <InstrumentState>
* <HardwareData DeviceType='SBE19plus' SerialNumber='01907809'>
*
*    <Manufacturer>Sea-Bird Electronics, Inc.</Manufacturer>
*
*    <FirmwareVersion>3.1.8</FirmwareVersion>
*
*    <FirmwareDate>Mar  9 2016 16:22:29</FirmwareDate>
*
*    <CommandSetVersion>1.4</CommandSetVersion>
*
*    <PCBAssembly PCBSerialNum='120721' AssemblyNum='41054J'/>
*
*    <PCBAssembly PCBSerialNum='120715' AssemblyNum='41967A'/>
*
*    <PCBAssembly PCBSerialNum='116699' AssemblyNum='41606'/>
*
*    <PCBAssembly PCBSerialNum='120719' AssemblyNum='41059D'/>
*
*    <MfgDate>28-Apr-2017</MfgDate>
*
*    <InternalSensors>
*
*       <Sensor id='Main Temperature'>
*
*          <type>temperature0</type>
*
*          <SerialNumber>01907809</SerialNumber>
*
*       </Sensor>
*
*       <Sensor id='Main Conductivity'>
*
*          <type>conductivity-0</type>
*
*          <SerialNumber>01907809</SerialNumber>
*
*       </Sensor>
*
*       <Sensor id='Main Pressure'>
*
*          <type>strain-0</type>
*
*          <SerialNumber>10586018</SerialNumber>
*
*       </Sensor>
*
*    </InternalSensors>
*
*    <ExternalSensors>
*
*       <Sensor id='volt 0'>
*
*          <type>pH</type>
*
*          <SerialNumber>27-0363</SerialNumber>
*
*       </Sensor>
*
*       <Sensor id='volt 1'>
*
*          <type>ORP</type>
*
*          <SerialNumber>27-0363</SerialNumber>
*
*       </Sensor>
*
*       <Sensor id='volt 2'>
*
*          <type>OXY</type>
*
*          <SerialNumber>43-0434</SerialNumber>
*
*       </Sensor>
*
*       <Sensor id='volt 3'>
*
*          <type>PAR</type>
*
*          <SerialNumber>1122</SerialNumber>
*
*       </Sensor>
*
*       <Sensor id='volt 4'>
*
*          <type>ECO AFL/FL</type>
*
*          <SerialNumber>FLNTURT-2496</SerialNumber>
*
*       </Sensor>
*
*       <Sensor id='volt 5'>
*
*          <type>ECO-NTU</type>
*
*          <SerialNumber>FLNTURT-2496</SerialNumber>
*
*       </Sensor>
*
*       <Sensor id='serial'>
*
*          <type>not assigned</type>
*
*          <SerialNumber>not assigned</SerialNumber>
*
*       </Sensor>
*
*    </ExternalSensors>
*
* </HardwareData>
* <StatusData DeviceType='SBE19plus' SerialNumber='01907809'>
*
*    <DateTime>2019-06-06T09:07:17</DateTime>
*
*    <LoggingState>not logging</LoggingState>
*
*    <EventSummary numEvents='0'/>
*
*    <Power>
*
*       <vMain>13.5</vMain>
*
*       <vLith>8.7</vLith>
*
*       <iMain>63.1</iMain>
*
*       <iPump>56.7</iPump>
*
*       <iExt01>18.6</iExt01>
*
*       <iExt2345>34.3</iExt2345>
*
*    </Power>
*
*    <MemorySummary>
*
*       <Bytes>43033</Bytes>
*
*       <Samples>1871</Samples>
*
*       <SamplesFree>2858917</SamplesFree>
*
*       <SampleLength>23</SampleLength>
*
*       <Profiles>2</Profiles>
*
*    </MemorySummary>
*
* </StatusData>
* <ConfigurationData DeviceType='SBE19plus' SerialNumber='01907809'>
*
*    <ProfileMode>
*
*       <ScansToAverage>1</ScansToAverage>
*
*       <MinimumCondFreq>5</MinimumCondFreq>
*
*       <PumpDelay>45</PumpDelay>
*
*       <AutoRun>no</AutoRun>
*
*       <IgnoreSwitch>no</IgnoreSwitch>
*
*    </ProfileMode>
*
*    <Battery>
*
*       <Type>alkaline</Type>
*
*       <CutOff>7.5</CutOff>
*
*    </Battery>
*
*    <DataChannels>
*
*       <ExtVolt0>yes</ExtVolt0>
*
*       <ExtVolt1>yes</ExtVolt1>
*
*       <ExtVolt2>yes</ExtVolt2>
*
*       <ExtVolt3>yes</ExtVolt3>
*
*       <ExtVolt4>yes</ExtVolt4>
*
*       <ExtVolt5>yes</ExtVolt5>
*
*       <SBE38>no</SBE38>
*
*       <WETLABS>no</WETLABS>
*
*       <OPTODE>no</OPTODE>
*
*       <SBE63>no</SBE63>
*
*       <SeaFET>no</SeaFET>
*
*       <GTD>no</GTD>
*
*    </DataChannels>
*
*    <EchoCharacters>yes</EchoCharacters>
*
*    <OutputExecutedTag>yes</OutputExecutedTag>
*
*    <OutputFormat>raw HEX</OutputFormat>
*
* </ConfigurationData>
* <CalibrationCoefficients DeviceType='SBE19plus' SerialNumber='01907809'>
*
*    <Calibration format='TEMP1' id='Main Temperature'>
*
*       <SerialNum>01907809</SerialNum>
*
*       <CalDate>24-Mar-19</CalDate>
*
*       <TA0>1.217923e-03</TA0>
*
*       <TA1>2.816693e-04</TA1>
*
*       <TA2>-1.603333e-06</TA2>
*
*       <TA3>1.984146e-07</TA3>
*
*       <TOFFSET>0.000000e+00</TOFFSET>
*
*    </Calibration>
*
*    <Calibration format='WBCOND0' id='Main Conductivity'>
*
*       <SerialNum>01907809</SerialNum>
*
*       <CalDate>24-Mar-19</CalDate>
*
*       <G>-1.005893e+00</G>
*
*       <H>1.268163e-01</H>
*
*       <I>-1.515604e-04</I>
*
*       <J>2.671373e-05</J>
*
*       <CPCOR>-9.570000e-08</CPCOR>
*
*       <CTCOR>3.250000e-06</CTCOR>
*
*       <CSLOPE>1.000000e+00</CSLOPE>
*
*    </Calibration>
*
*    <Calibration format='STRAIN0' id='Main Pressure'>
*
*       <SerialNum>10586018</SerialNum>
*
*       <CalDate>11-Mar-19</CalDate>
*
*       <PA0>4.565618e-02</PA0>
*
*       <PA1>4.850951e-04</PA1>
*
*       <PA2>-2.883271e-12</PA2>
*
*       <PTCA0>5.252467e+05</PTCA0>
*
*       <PTCA1>1.223042e+01</PTCA1>
*
*       <PTCA2>-3.567450e-01</PTCA2>
*
*       <PTCB0>2.516687e+01</PTCB0>
*
*       <PTCB1>3.750000e-04</PTCB1>
*
*       <PTCB2>0.000000e+00</PTCB2>
*
*       <PTEMPA0>-5.487846e+01</PTEMPA0>
*
*       <PTEMPA1>5.537568e+01</PTEMPA1>
*
*       <PTEMPA2>-5.867271e-01</PTEMPA2>
*
*       <POFFSET>5.000000e-01</POFFSET>
*
*       <PRANGE>1.600000e+02</PRANGE>
*
*    </Calibration>
*
*    <Calibration format='VOLT0' id='Volt 0'>
*
*       <OFFSET>-4.920000e-02</OFFSET>
*
*       <SLOPE>1.248122e+00</SLOPE>
*
*    </Calibration>
*
*    <Calibration format='VOLT0' id='Volt 1'>
*
*       <OFFSET>-4.784000e-02</OFFSET>
*
*       <SLOPE>1.248871e+00</SLOPE>
*
*    </Calibration>
*
*    <Calibration format='VOLT0' id='Volt 2'>
*
*       <OFFSET>-4.864632e-02</OFFSET>
*
*       <SLOPE>1.248714e+00</SLOPE>
*
*    </Calibration>
*
*    <Calibration format='VOLT0' id='Volt 3'>
*
*       <OFFSET>-4.743790e-02</OFFSET>
*
*       <SLOPE>1.248571e+00</SLOPE>
*
*    </Calibration>
*
*    <Calibration format='VOLT0' id='Volt 4'>
*
*       <OFFSET>-4.671263e-02</OFFSET>
*
*       <SLOPE>1.248951e+00</SLOPE>
*
*    </Calibration>
*
*    <Calibration format='VOLT0' id='Volt 5'>
*
*       <OFFSET>-4.871053e-02</OFFSET>
*
*       <SLOPE>1.249136e+00</SLOPE>
*
*    </Calibration>
*
*    <Calibration format='FREQ0' id='external frequency channel'>
*
*       <EXTFREQSF>1.000014e+00</EXTFREQSF>
*
*    </Calibration>
*
* </CalibrationCoefficients>
* <EventCounters DeviceType='SBE19plus' SerialNumber='01907809'>
*
*    <EventSummary numEvents='0'/>
*
* </EventCounters></InstrumentState>
* <Headers>
*
* cast   1 03 Jun 2019 08:17:10 samples 1 to 1003, avg = 1, stop = mag switch
*
# nquan = 18
# nvalues = 801                         
# units = specified
# name 0 = depFM: Depth [fresh water, m]
# name 1 = tv290C: Temperature [ITS-90, deg C]
# name 2 = sbeox0Mg/L: Oxygen, SBE 43 [mg/l]
# name 3 = sbeox0PS: Oxygen, SBE 43 [% saturation]
# name 4 = c0uS/cm: Conductivity [uS/cm]
# name 5 = specc: Specific Conductance [uS/cm]
# name 6 = ph: pH
# name 7 = orp: Oxidation Reduction Potential [mV]
# name 8 = flECO-AFL: Fluorescence, WET Labs ECO-AFL/FL [mg/m^3]
# name 9 = turbWETntu0: Turbidity, WET Labs ECO [NTU]
# name 10 = sal00: Salinity, Practical [PSU]
# name 11 = dz/dtM: Descent Rate [m/s]
# name 12 = prdM: Pressure, Strain Gauge [db]
# name 13 = prdE: Pressure, Strain Gauge [psi]
# name 14 = scan: Scan Count
# name 15 = par/sat/log: PAR/Logarithmic, Satlantic
# name 16 = density00: Density [density, kg/m^3]
# name 17 = flag:  0.000e+00
# span 0 =     -0.601,      9.645       
# span 1 =     8.6022,    23.7159       
# span 2 =    -0.1111,    13.2853       
# span 3 =     -0.958,    147.472       
# span 4 =   0.289417, 1.3269e+03       
# span 5 =      1.570,   1427.508       
# span 6 =      5.447,     12.979       
# span 7 = -1240.7455,  1240.2295       
# span 8 =    -0.6481,     6.8479       
# span 9 =    -4.3922,    51.5709       
# span 10 =     0.0103,     0.7149      
# span 11 =     -0.129,      0.136      
# span 12 =     -0.588,      9.458      
# span 13 =     -0.853,     13.718      
# span 14 =          1,        801      
# span 15 = 1.1855e-01, 1.7208e+03      
# span 16 =   997.3837,   999.9015      
# span 17 = 0.0000e+00, 0.0000e+00      
# interval = seconds: 0.25
# start_time = Jun 03 2019 08:17:10 [Instrument's time stamp, header]
# bad_flag = -9.990e-29
# <Sensors count="9" >
#   <sensor Channel="1" >
#     <!-- Count, Temperature -->
#     <TemperatureSensor SensorID="58" >
#       <SerialNumber>7809</SerialNumber>
#       <CalibrationDate>24-Mar-19</CalibrationDate>
#       <A0>1.21792325e-003</A0>
#       <A1>2.81669265e-004</A1>
#       <A2>-1.60333336e-006</A2>
#       <A3>1.98414625e-007</A3>
#       <Slope>1.00000000</Slope>
#       <Offset>0.0000</Offset>
#     </TemperatureSensor>
#   </sensor>
#   <sensor Channel="2" >
#     <!-- Frequency 0, Conductivity -->
#     <ConductivitySensor SensorID="3" >
#       <SerialNumber>7809</SerialNumber>
#       <CalibrationDate>24-Mar-19</CalibrationDate>
#       <UseG_J>1</UseG_J>
#       <!-- Cell const and series R are applicable only for wide range sensors. -->
#       <SeriesR>0.0000</SeriesR>
#       <CellConst>2000.0000</CellConst>
#       <ConductivityType>0</ConductivityType>
#       <Coefficients equation="0" >
#         <A>0.00000000e+000</A>
#         <B>0.00000000e+000</B>
#         <C>0.00000000e+000</C>
#         <D>0.00000000e+000</D>
#         <M>0.0</M>
#         <CPcor>-9.57000000e-008</CPcor>
#       </Coefficients>
#       <Coefficients equation="1" >
#         <G>-1.00589325e+000</G>
#         <H>1.26816302e-001</H>
#         <I>-1.51560448e-004</I>
#         <J>2.67137274e-005</J>
#         <CPcor>-9.57000000e-008</CPcor>
#         <CTcor>3.2500e-006</CTcor>
#         <!-- WBOTC not applicable unless ConductivityType = 1. -->
#         <WBOTC>0.00000000e+000</WBOTC>
#       </Coefficients>
#       <Slope>1.00000000</Slope>
#       <Offset>0.00000</Offset>
#     </ConductivitySensor>
#   </sensor>
#   <sensor Channel="3" >
#     <!-- Count, Pressure, Strain Gauge -->
#     <PressureSensor SensorID="46" >
#       <SerialNumber>7809</SerialNumber>
#       <CalibrationDate>11-Mar-19</CalibrationDate>
#       <PA0>4.56561833e-002</PA0>
#       <PA1>4.85095118e-004</PA1>
#       <PA2>-2.88327090e-012</PA2>
#       <PTEMPA0>-5.48784562e+001</PTEMPA0>
#       <PTEMPA1>5.53756816e+001</PTEMPA1>
#       <PTEMPA2>-5.86727098e-001</PTEMPA2>
#       <PTCA0>5.25246745e+005</PTCA0>
#       <PTCA1>1.22304214e+001</PTCA1>
#       <PTCA2>-3.56745036e-001</PTCA2>
#       <PTCB0>2.51668750e+001</PTCB0>
#       <PTCB1>3.75000000e-004</PTCB1>
#       <PTCB2>0.00000000e+000</PTCB2>
#       <Offset>0.000000</Offset>
#     </PressureSensor>
#   </sensor>
#   <sensor Channel="4" >
#     <!-- A/D voltage 0, Oxygen, SBE 43 -->
#     <OxygenSensor SensorID="38" >
#       <SerialNumber>0434</SerialNumber>
#       <CalibrationDate>13-Apr-19</CalibrationDate>
#       <Use2007Equation>1</Use2007Equation>
#       <CalibrationCoefficients equation="0" >
#         <!-- Coefficients for Owens-Millard equation. -->
#         <Boc>0.0000</Boc>
#         <Soc>0.0000e+000</Soc>
#         <offset>0.0000</offset>
#         <Pcor>0.00e+000</Pcor>
#         <Tcor>0.0000</Tcor>
#         <Tau>0.0</Tau>
#       </CalibrationCoefficients>
#       <CalibrationCoefficients equation="1" >
#         <!-- Coefficients for Sea-Bird equation - SBE calibration in 2007 and later. -->
#         <Soc>4.2007e-001</Soc>
#         <offset>-0.6109</offset>
#         <A>-4.3656e-003</A>
#         <B> 1.7017e-004</B>
#         <C>-2.5341e-006</C>
#         <D0> 2.5826e+000</D0>
#         <D1> 1.92634e-004</D1>
#         <D2>-4.64803e-002</D2>
#         <E> 3.6000e-002</E>
#         <Tau20> 1.1800</Tau20>
#         <H1>-3.3000e-002</H1>
#         <H2> 5.0000e+003</H2>
#         <H3> 1.4500e+003</H3>
#       </CalibrationCoefficients>
#     </OxygenSensor>
#   </sensor>
#   <sensor Channel="5" >
#     <!-- A/D voltage 1, PAR/Logarithmic, Satlantic -->
#     <PARLog_SatlanticSensor SensorID="76" >
#       <SerialNumber>1122</SerialNumber>
#       <CalibrationDate>08-May-2019</CalibrationDate>
#       <a0>9.7456e-001</a0>
#       <a1>8.1640e-001</a1>
#       <Im>1.3589e+000</Im>
#       <Multiplier>1.0000e+000</Multiplier>
#     </PARLog_SatlanticSensor>
#   </sensor>
#   <sensor Channel="6" >
#     <!-- A/D voltage 2, pH -->
#     <pH_Sensor SensorID="43" >
#       <SerialNumber>0363</SerialNumber>
#       <CalibrationDate>15-Apr-19</CalibrationDate>
#       <Slope>4.5952</Slope>
#       <Offset>2.5370</Offset>
#     </pH_Sensor>
#   </sensor>
#   <sensor Channel="7" >
#     <!-- A/D voltage 3, Oxidation Reduction Potential -->
#     <OxidationReductionPotentialSensor SensorID="41" >
#       <SerialNumber>0363</SerialNumber>
#       <CalibrationDate>15-Apr-19</CalibrationDate>
#       <B>2.499480</B>
#       <M>-0.496195</M>
#       <Offset>0.0</Offset>
#     </OxidationReductionPotentialSensor>
#   </sensor>
#   <sensor Channel="8" >
#     <!-- A/D voltage 4, Fluorometer, WET Labs ECO-AFL/FL -->
#     <FluoroWetlabECO_AFL_FL_Sensor SensorID="20" >
#       <SerialNumber>FLNTURT-2496</SerialNumber>
#       <CalibrationDate>08-May-2019</CalibrationDate>
#       <ScaleFactor>5.00000000e+001</ScaleFactor>
#       <!-- Dark output -->
#       <Vblank>0.0550</Vblank>
#     </FluoroWetlabECO_AFL_FL_Sensor>
#   </sensor>
#   <sensor Channel="9" >
#     <!-- A/D voltage 5, Turbidity Meter, WET Labs, ECO-NTU -->
#     <TurbidityMeter SensorID="67" >
#       <SerialNumber>FLNTURT-2496</SerialNumber>
#       <CalibrationDate>08-May-2019</CalibrationDate>
#       <ScaleFactor>189.000000</ScaleFactor>
#       <!-- Dark output -->
#       <DarkVoltage>0.071000</DarkVoltage>
#     </TurbidityMeter>
#   </sensor>
# </Sensors>
# datcnv_date = Jun 08 2019 09:49:36, 7.26.7.129 [datcnv_vars = 17]
# datcnv_in = C:\DATA\060319_fcr50.hex C:\DATA\SBE19plusV2_7809.xmlcon
# datcnv_skipover = 0
# datcnv_ox_hysteresis_correction = yes
# datcnv_ox_tau_correction = yes
# filter_date = Jun 08 2019 09:49:53, 7.26.7.129
# filter_in = C:\DATA\060319_fcr50.cnv
# filter_low_pass_tc_A = 0.030
# filter_low_pass_tc_B = 0.150
# filter_low_pass_A_vars = tv290C c0uS/cm par/sat/log density00
# filter_low_pass_B_vars = prdM prdE
# alignctd_date = Jun 08 2019 09:50:09, 7.26.7.129
# alignctd_in = C:\DATA\060319_fcr50.cnv
# alignctd_adv = tv290C 0.500, sbeox0Mg/L 3.000, sbeox0PS 3.000                                                                                                                                                                      
# file_type = ascii
*END*
     -0.600    20.7705     8.8743     99.143   1.776946      1.937     12.979 -1020.8327    -0.1178    -0.2826     0.0104 4.2106e-16     -0.588     -0.853          1 1.6820e+03   998.0493 0.0000e+00
     -0.599    20.7727     8.8622     99.013   1.797064      1.968     12.822 -1058.3493    -0.1369    -0.2537     0.0104      0.000     -0.588     -0.853          2 1.6885e+03   998.0489 0.0000e+00
     -0.600    20.7749     8.8625     99.020   1.746108      1.907     12.582 -1092.7994    -0.1598    -0.2393     0.0104     -0.000     -0.588     -0.853          3 1.6963e+03   998.0483 0.0000e+00
     -0.600    20.7771     8.8604     98.997   1.751607      1.906     12.322 -1137.8874    -0.1827     0.6691     0.0104     -0.000     -0.588     -0.853          4 1.6635e+03   998.0480 0.0000e+00
     -0.600    20.7793     8.8772     99.182   1.790220      1.967     11.967 -1204.2890    -0.1979     0.6114     0.0104     -0.000     -0.588     -0.853          5 1.6283e+03   998.0475 0.0000e+00
     -0.600    20.7814     8.8820     99.233   1.816392      1.967     11.521 -1240.7455    -0.2056     0.6547     0.0104     -0.000     -0.588     -0.853          6 1.6650e+03   998.0471 0.0000e+00
     -0.600    20.7839     8.8805     99.219   1.719037      1.906     10.921 -1240.7455    -0.1941     0.6835     0.0104     -0.000     -0.588     -0.853          7 1.6889e+03   998.0466 0.0000e+00
     -0.600    20.7851     8.8770     99.181   1.585955      1.693     10.361 -1240.7455    -0.1827     0.6259     0.0103     -0.000     -0.588     -0.853          8 1.6955e+03   998.0461 0.0000e+00
     -0.598    20.7859     8.8732     99.141   1.715756      1.906      9.812 -1240.7455    -0.1636    -0.5566     0.0104      0.000     -0.588     -0.853          9 1.7208e+03   998.0456 0.0000e+00
     -0.601    20.7875     8.8626     99.024   1.764588      1.906      9.524 -1240.7455    -0.1331    -0.5566     0.0104     -0.000     -0.588     -0.853         10 1.6851e+03   998.0453 0.0000e+00
     -0.600    20.7901     8.8725     99.135   1.791438      1.967      9.204 -1240.7455    -0.1102    -0.4845     0.0104      0.000     -0.588     -0.853         11 1.6522e+03   998.0452 0.0000e+00
     -0.600    20.7932     8.8667     99.072   1.741507      1.906      8.929 -1240.7455    -0.1331    -0.4124     0.0104     -0.000     -0.588     -0.853         12 1.6445e+03   998.0449 0.0000e+00
     -0.600    20.7951     8.8579     98.976   1.826725      1.967      8.744 -1240.7455    -0.2056    -0.3835     0.0104     -0.000     -0.588     -0.853         13 1.6438e+03   998.0443 0.0000e+00
     -0.599    20.7953     8.8758     99.177   1.744553      1.966      8.574 -1240.7455    -0.2017    -0.2393     0.0104      0.000     -0.588     -0.852         14 1.4799e+03   998.0436 0.0000e+00
     -0.599    20.7938     8.8705     99.119   1.755018      1.814      8.511 -1240.7455    -0.1865    -0.3258     0.0104      0.000     -0.588     -0.852         15 7.1701e+02   998.0432 0.0000e+00
     -0.600    20.7926     8.8848     99.282   1.902456      2.210      8.448 -1240.7455    -0.1979    -0.3979     0.0104      0.000     -0.588     -0.853         16 6.9027e+02   998.0432 0.0000e+00
     -0.601    20.7937     8.8820     99.254   1.679407      1.693      8.443 -1240.7455    -0.2819    -1.1766     0.0103     -0.000     -0.588     -0.853         17 1.4609e+03   998.0435 0.0000e+00
     -0.600    20.7948     8.8898     99.346   1.943849      2.240      8.433 -1240.7455    -0.3124    -1.1766     0.0104      0.000     -0.588     -0.853         18 1.6611e+03   998.0437 0.0000e+00
     -0.599    20.7956     8.8777     99.215   1.928367      2.027      8.415 -1240.7455    -0.3276    -1.0901     0.0104     -0.000     -0.588     -0.852         19 1.5695e+03   998.0436 0.0000e+00
     -0.599    20.7962     8.8669     99.095   1.757838      1.966      8.386 -1240.7455    -0.3047    -1.1334     0.0104      0.000     -0.588     -0.852         20 1.6818e+03   998.0433 0.0000e+00
     -0.599    20.7966     8.8749     99.183   1.771479      1.906      8.380 -1240.7455    -0.6481    -4.2624     0.0104      0.000     -0.588     -0.852         21 1.4554e+03   998.0431 0.0000e+00
     -0.600    20.7976     8.8626     99.048   1.526803      1.692      8.390 -1240.7455    -0.5947    -4.1615     0.0103     -0.000     -0.588     -0.853         22 5.8328e+02   998.0429 0.0000e+00
     -0.600    20.7987     8.8646     99.074   1.529827      1.632      8.384 -1240.7455    -0.6214    -4.2048     0.0103     -0.000     -0.588     -0.853         23 4.1388e+02   998.0428 0.0000e+00
     -0.600    20.7993     8.8679     99.114   1.708549      1.905      8.389 -1240.7455    -0.6404    -4.3922     0.0104      0.000     -0.588     -0.853         24 4.9290e+02   998.0427 0.0000e+00
     -0.599    20.8000     8.8643     99.076   1.836893      1.966      8.393 -1240.7455    -0.6366    -1.9841     0.0104      0.000     -0.588     -0.852         25 3.9533e+02   998.0425 0.0000e+00
     -0.599    20.8013     8.8599     99.030   1.813860      2.027      8.397 -1240.7455    -0.1102    -0.5566     0.0104 1.0577e-12     -0.588     -0.852         26 4.1153e+02   998.0423 0.0000e+00
     -0.598    20.8031     8.8636     99.074   1.530128      1.631      8.400 -1240.7455    -0.1331    -0.5277     0.0103      0.000     -0.588     -0.852         27 3.3222e+02   998.0421 0.0000e+00
     -0.600    20.8054     8.8810     99.269   1.746237      1.905      8.398 -1240.7455    -0.1178    -0.5998     0.0104      0.000     -0.588     -0.852         28 2.9569e+02   998.0419 0.0000e+00
     -0.600    20.8077     8.8652     99.094   1.929504      2.149      8.398 -1240.7455    -0.1445    -0.5710     0.0104      0.000     -0.588     -0.852         29 3.2638e+02   998.0415 0.0000e+00
     -0.599    20.8083     8.8753     99.206   1.804980      1.905      8.394 -1240.7455    -0.1369    -0.6287     0.0104      0.000     -0.587     -0.851         30 6.5107e+02   998.0410 0.0000e+00
     -0.598    20.8081     8.8640     99.082   1.842037      2.088      8.393 -1240.7455    -0.1216    -0.5421     0.0104      0.001     -0.587     -0.851         31 1.0253e+03   998.0406 0.0000e+00
     -0.599    20.8087     8.8784     99.244   1.735467      1.814      8.390 -1240.7455    -0.1254    -0.4412     0.0104      0.000     -0.587     -0.852         32 1.0454e+03   998.0404 0.0000e+00
     -0.600    20.8106     8.8382     99.159   1.819269      2.057      8.388 -1240.7455    -0.1369    -0.5854     0.0104      0.000     -0.587     -0.852         33 1.0444e+03   998.0404 0.0000e+00
     -0.599    20.8118     8.7011     99.214   1.796915      1.905      8.389 -1240.7455    -0.1102    -0.4845     0.0104      0.000     -0.587     -0.851         34 9.5942e+02   998.0403 0.0000e+00
     -0.599    20.8137     8.5701     99.084   1.763286      1.966      8.393 -1240.7455    -0.1026    -0.3979     0.0104      0.000     -0.587     -0.851         35 4.8412e+02   998.0399 0.0000e+00
     -0.599    20.8142     8.5016     98.975   1.831535      1.966      8.394 -1240.7455    -0.1445    -0.4845     0.0104      0.000     -0.587     -0.852         36 2.6068e+02   998.0396 0.0000e+00
     -0.599    20.8170     8.4681     99.047   1.623229      1.813      8.397 -1240.7455    -0.1369    -0.5421     0.0104      0.000     -0.587     -0.852         37 2.7086e+02   998.0391 0.0000e+00
     -0.599    20.8152     8.4351     98.974   1.815433      1.905      8.394 -1240.7455    -0.1293    -0.3691     0.0104     -0.000     -0.587     -0.852         38 2.5784e+02   998.0392 0.0000e+00
     -0.599    20.8197     8.4200     98.964   1.681090      1.966      8.395 -1240.7455    -0.1407    -0.5854     0.0104     -0.000     -0.587     -0.852         39 2.7221e+02   998.0383 0.0000e+00
     -0.598    20.8129     8.4133     99.031   1.612916      1.570      8.378 -1240.7455    -0.1445    -0.5421     0.0103      0.000     -0.587     -0.852         40 2.8077e+02   998.0390 0.0000e+00
     -0.600    20.8252     8.4165     99.183   1.515690      1.905      8.155 -1240.7455    -0.1369    -0.4556     0.0104      0.000     -0.588     -0.852         41 2.9532e+02   998.0377 0.0000e+00
     -0.599    20.8073     8.4061     99.162   1.979588      1.813      8.279 -1240.7455    -0.1903    -1.1766     0.0104     -0.000     -0.588     -0.851         42 2.9504e+02   998.0399 0.0000e+00
     -0.599    21.0366     8.4170     99.351   1.065184      1.692      5.447 -1240.7455    -0.2056    -1.1478     0.0103     -0.000     -0.583     -0.844         43 3.0316e+02   998.0360 0.0000e+00
     -0.584    21.7399     8.4218     99.571   2.328227      1.692      5.918  -191.7589    -0.2056    -1.1622     0.0103      0.004     -0.563     -0.817         44 3.2027e+02   998.0419 0.0000e+00
     -0.538    22.3560     8.4488     99.928   0.289417      1.685      7.435  1240.2295    -0.1865    -1.1334     0.0104      0.019     -0.526     -0.763         45 3.3403e+02   997.9892 0.0000e+00
     -0.490    22.7276     8.4863    100.244 555.950211    558.180      8.300    77.2547    -0.1979    -1.1766     0.2706      0.042     -0.482     -0.699         46 3.5163e+02   998.0497 0.0000e+00
     -0.448    22.9960     8.5119    100.571 1.2961e+03   1427.508      9.300    83.5390    -0.0682     5.7593     0.7149      0.070     -0.440     -0.639         47 3.5528e+02   998.2080 0.0000e+00
     -0.410    23.1594     8.5387    100.935 1.2483e+03   1273.414      9.928    94.1769    -0.0377     5.8602     0.6345      0.097     -0.404     -0.587         48 3.7785e+02   998.0982 0.0000e+00
     -0.378    23.2831     8.5744    101.258 1.1452e+03   1205.652     10.287    90.8833    -0.0606     5.8026     0.5994      0.121     -0.377     -0.546         49 3.5552e+02   997.9888 0.0000e+00
     -0.366    23.3900     8.6084    101.552 1.1459e+03   1191.574     10.382    88.6876    -0.0720     5.8170     0.5921      0.133     -0.357     -0.518         50 3.9608e+02   997.9492 0.0000e+00
     -0.349    23.4831     8.6339    101.776 975.865913   1003.806     10.489   103.5276     0.7062     4.5048     0.4954      0.134     -0.332     -0.481         51 5.1304e+02   997.8493 0.0000e+00
     -0.297    23.5433     8.6535    101.902 765.237354    804.229     10.713    97.8112     0.7252     4.5625     0.3938      0.133     -0.290     -0.420         52 4.3398e+02   997.7394 0.0000e+00
     -0.241    23.5746     8.6654    101.923 599.956108    595.378     10.865   100.6505     0.7100     4.5192     0.2891      0.131     -0.241     -0.349         53 4.0821e+02   997.6514 0.0000e+00
     -0.199    23.5787     8.6570    101.879 523.235311    566.508     10.963    95.1990     0.6909     4.3173     0.2748      0.133     -0.200     -0.290         54 4.4053e+02   997.6069 0.0000e+00
     -0.170    23.5789     8.6464    101.859 580.360377    557.366     11.019    95.1990     1.1792    51.4844     0.2702      0.136     -0.172     -0.249         55 4.3064e+02   997.6218 0.0000e+00
     -0.156    23.5546     8.7063    102.614 1.0603e+03   1118.437     11.014    96.8269     1.2021    51.4412     0.5543      0.136     -0.155     -0.224         56 4.4020e+02   997.8106 0.0000e+00
     -0.149    23.5301     8.7554    103.209 1.1805e+03   1221.784     11.014   102.8841     1.2097    51.4988     0.6077      0.131     -0.138     -0.201         57 4.3798e+02   997.8583 0.0000e+00
     -0.116    23.5259     8.7292    102.938 951.609079    959.546     11.032   103.1869     1.2021    51.5709     0.4727      0.128     -0.112     -0.164         58 4.4893e+02   997.7732 0.0000e+00
     -0.081    23.4882     8.5998    101.456 1.1641e+03   1206.753     11.002   110.3419     1.2746     1.3180     0.5999      0.121     -0.087     -0.127         59 4.4608e+02   997.8646 0.0000e+00
     -0.073    23.4311     8.4589     99.801 1.3269e+03   1375.294     10.975   111.7805     1.2593     1.4766     0.6875      0.102     -0.072     -0.105         60 4.4747e+02   997.9316 0.0000e+00
     -0.064    23.3909     8.2948     97.839 1.2610e+03   1289.733     10.952   113.6355     1.2364     1.3613     0.6429      0.085     -0.063     -0.091         61 4.5067e+02   997.9144 0.0000e+00
     -0.054    23.3730     8.1457     96.071 1.2527e+03   1302.391     10.918   113.5598     1.2860     1.3469     0.6495      0.074     -0.059     -0.085         62 4.4957e+02   997.9257 0.0000e+00
     -0.063    23.3924     8.0066     94.434 1.2623e+03   1295.010     10.897   114.7334     1.2555     1.3613     0.6457      0.062     -0.063     -0.090         63 4.4957e+02   997.9394 0.0000e+00
     -0.074    23.4448     7.8766     92.892 1.0143e+03   1072.467     10.875   117.9891     1.2479     1.3469     0.5306      0.047     -0.069     -0.098         64 4.5131e+02   997.8440 0.0000e+00
     -0.070    23.4957     7.7924     91.893 543.983114    535.964     10.851   120.2605     1.2479     1.3757     0.2596      0.032     -0.064     -0.092         65 4.5432e+02   997.6530 0.0000e+00
     -0.047    23.5214     7.7482     91.364 356.735316    379.206     10.830   121.8505     1.2669     1.3901     0.1829      0.020     -0.051     -0.074         66 4.6866e+02   997.5679 0.0000e+00
     -0.039    23.5415     7.7166     90.995 387.816278    390.705     10.801   126.3556     1.2479     1.3036     0.1884      0.014     -0.048     -0.069         67 4.6423e+02   997.5677 0.0000e+00
     -0.064    23.5693     7.6738     90.482 382.917387    403.800     10.791   128.0970     1.2440     1.3324     0.1948      0.008     -0.058     -0.085         68 4.5380e+02   997.5592 0.0000e+00
     -0.074    23.5884     7.6215     89.861 316.093957    319.798     10.771   131.4663     1.2479     1.2603     0.1542      0.000     -0.063     -0.092         69 4.6944e+02   997.5291 0.0000e+00
     -0.052    23.5892     7.5478     88.995 254.482110    263.895     10.732   131.5420     1.2517     1.4334     0.1275      0.002     -0.056     -0.080         70 4.8009e+02   997.4992 0.0000e+00
     -0.049    23.5853     7.4443     87.780 282.378211    287.095     10.711   130.1034     1.2669     1.3757     0.1385      0.007     -0.049     -0.070         71 4.8130e+02   997.5051 0.0000e+00
     -0.046    23.5853     7.3358     86.506 299.860026    314.099     10.683   131.3149     1.2708     1.3036     0.1514      0.009     -0.045     -0.066         72 4.8751e+02   997.5113 0.0000e+00
     -0.043    23.5848     7.2441     85.431 238.058440    241.974     10.645   132.7156     1.2440     1.3324     0.1171      0.007     -0.043     -0.062         73 4.9391e+02   997.4894 0.0000e+00
     -0.042    23.5803     7.1803     84.680 204.365867    209.034     10.604   136.2742     1.2708     1.3180     0.1016      0.004     -0.042     -0.060         74 4.9840e+02   997.4769 0.0000e+00
     -0.041    23.5747     7.1914     84.812 211.854561    221.064     10.570   137.8263     1.2364     1.3613     0.1072      0.008     -0.040     -0.058         75 5.0770e+02   997.4798 0.0000e+00
     -0.039    23.5744     7.2754     85.807 217.035613    218.619     10.540   138.6970     1.2479     1.3036     0.1061      0.014     -0.039     -0.056         76 5.1327e+02   997.4828 0.0000e+00
     -0.038    23.5734     7.4021     87.301 223.032501    235.905     10.512   137.1827     1.2593     1.4045     0.1142      0.013     -0.037     -0.054         77 5.1438e+02   997.4864 0.0000e+00
     -0.037    23.5695     7.5536     89.086 204.642985    204.096     10.489   144.3378     1.2097     1.2748     0.0992      0.007     -0.036     -0.053         78 5.1697e+02   997.4797 0.0000e+00
     -0.037    23.5680     7.7247     91.101 213.734365    225.059     10.464   145.1706     1.3165     1.3613     0.1091      0.006     -0.036     -0.053         79 5.1360e+02   997.4833 0.0000e+00
     -0.037    23.5699     7.8624     92.722 216.370208    219.481     10.438   142.9749     1.3356     1.3180     0.1065      0.005     -0.036     -0.053         80 5.1013e+02   997.4853 0.0000e+00
     -0.037    23.5731     7.9495     93.748 204.257042    212.529     10.414   144.6028     1.3051     1.2892     0.1032      0.004     -0.036     -0.052         81 5.0955e+02   997.4811 0.0000e+00
     -0.036    23.5767     8.0038     94.387 206.720128    210.607     10.400   143.2020     1.3318     1.3036     0.1023      0.003     -0.036     -0.052         82 5.0572e+02   997.4815 0.0000e+00
     -0.036    23.5801     8.0255     94.641 205.862916    214.158     10.382   144.0349     1.3814     1.3180     0.1040      0.002     -0.036     -0.052         83 5.0379e+02   997.4805 0.0000e+00
     -0.036    23.5824     8.0225     94.604 204.248508    207.882     10.364   149.2971     1.4043     1.4045     0.1010      0.001     -0.035     -0.051         84 5.0511e+02   997.4791 0.0000e+00
     -0.034    23.5840     8.0104     94.462 205.322887    213.519     10.348   148.4263     1.3966     1.3324     0.1037      0.001     -0.034     -0.049         85 5.0522e+02   997.4786 0.0000e+00
     -0.034    23.5858     7.9784     94.083 198.610684    202.730     10.332   151.6063     1.3966     1.3036     0.0986      0.002     -0.033     -0.048         86 5.0932e+02   997.4756 0.0000e+00
     -0.034    23.5865     7.9600     93.864 195.094610    201.652     10.316   152.7042     1.3165     1.2892     0.0981      0.002     -0.033     -0.047         87 5.1020e+02   997.4738 0.0000e+00
     -0.033    23.5855     7.9623     93.888 198.076450    203.295     10.301   151.6442     1.3394     1.3613     0.0989      0.002     -0.032     -0.046         88 5.1331e+02   997.4745 0.0000e+00
     -0.032    23.5843     7.9650     93.914 190.688988    196.979     10.287   155.0514     1.3356     1.3613     0.0959      0.002     -0.031     -0.045         89 5.1730e+02   997.4717 0.0000e+00
     -0.031    23.5833     7.9557     93.779 188.759048    192.900     10.273   154.1428     1.3318     1.4622     0.0940      0.003     -0.030     -0.044         90 5.2541e+02   997.4712 0.0000e+00
     -0.030    23.5827     7.9307     93.469 188.861521    196.119     10.261   152.7799     1.3966     1.4622     0.0955      0.003     -0.030     -0.043         91 5.2256e+02   997.4715 0.0000e+00
     -0.029    23.5823     7.8857     92.933 183.874385    187.293     10.247   153.4992     1.3852     1.4045     0.0914      0.003     -0.029     -0.042         92 5.3424e+02   997.4700 0.0000e+00
     -0.029    23.5815     7.8321     92.297 183.322361    190.451     10.235   154.0292     1.3814     1.3613     0.0929      0.003     -0.029     -0.041         93 5.2329e+02   997.4699 0.0000e+00
     -0.028    23.5810     7.7568     91.407 181.040373    184.721     10.220   155.9599     1.3738     1.3324     0.0902      0.003     -0.029     -0.041         94 5.4767e+02   997.4692 0.0000e+00
     -0.029    23.5807     7.6571     90.237 176.178408    182.814     10.210   155.0514     1.3814     1.4334     0.0893      0.002     -0.029     -0.041         95 5.7696e+02   997.4677 0.0000e+00
     -0.028    23.5806     7.5403     88.853 175.823762    179.227     10.199   157.5121     1.3890     1.4045     0.0876      0.002     -0.028     -0.039         96 7.8509e+02   997.4676 0.0000e+00
     -0.026    23.5799     7.4129     87.347 177.901076    184.843     10.189   159.4428     1.3890     1.3613     0.0903      0.002     -0.024     -0.034         97 1.2822e+03   997.4685 0.0000e+00
     -0.018    23.5796     7.2944     85.938 176.159620    179.691     10.182   159.1778     1.3814     1.3469     0.0879      0.004     -0.017     -0.024         98 1.6580e+03   997.4679 0.0000e+00
     -0.008    23.5740     7.1724     84.493 169.516907    176.164     10.170   161.1842     1.3814     1.6497     0.0862      0.009     -0.008     -0.012         99 1.7006e+03   997.4657 0.0000e+00
     -0.000    23.5606     7.0593     83.149 165.135731    167.979     10.162   161.1842     1.3890     1.4910     0.0824      0.014     -0.002     -0.004        100 1.5444e+03   997.4642 0.0000e+00
     -0.001    23.5515     6.9522     81.872 169.948943    176.589     10.156   160.5785     1.3890     1.6352     0.0864      0.016     -0.001     -0.001        101 1.4812e+03   997.4673 0.0000e+00
     -0.001    23.5474     6.8612     80.792 173.041749    176.873     10.156   158.9128     1.4081     1.5776     0.0865      0.018     -0.001     -0.001        102 1.3946e+03   997.4718 0.0000e+00
     -0.000    23.5446     6.7740     79.770 171.278942    177.541     10.153   161.4871     1.4462     1.6785     0.0869      0.017     -0.000     -0.000        103 1.2861e+03   997.4733 0.0000e+00
      0.000    23.5416     6.6930     78.816 178.408335    182.132     10.148   160.5028     1.4539     1.5631     0.0890      0.015     -0.000     -0.000        104 1.3162e+03   997.4769 0.0000e+00
     -0.001    23.5387     6.6149     77.886 177.596582    185.386     10.140   160.6164     1.4539     1.5920     0.0905      0.011     -0.001     -0.001        105 1.3686e+03   997.4773 0.0000e+00
     -0.002    23.5376     6.5461     77.054 195.868309    197.219     10.135   160.8435     1.4539     1.4622     0.0960      0.006     -0.003     -0.005        106 1.3108e+03   997.4847 0.0000e+00
     -0.008    23.5345     6.4808     76.269 223.633089    236.312     10.129   162.1307     1.4119     1.4334     0.1144     -0.000     -0.006     -0.010        107 1.2709e+03   997.4955 0.0000e+00
     -0.009    23.5285     6.4327     75.693 212.901218    214.140     10.120   164.4021     1.4462     1.4045     0.1040     -0.004     -0.008     -0.011        108 1.2533e+03   997.4919 0.0000e+00
     -0.007    23.5215     6.3768     75.016 204.632491    214.967     10.115   166.4085     1.4424     1.4045     0.1043     -0.004     -0.007     -0.009        109 1.1566e+03   997.4896 0.0000e+00
     -0.005    23.5134     6.3359     74.519 202.951766    205.478     10.109   165.0835     1.4386     1.3613     0.0999     -0.004     -0.005     -0.007        110 1.1582e+03   997.4904 0.0000e+00
     -0.004    23.5056     6.2929     74.001 207.911978    216.854     10.105   166.9764     1.4577     1.3613     0.1052     -0.003     -0.004     -0.006        111 1.0862e+03   997.4940 0.0000e+00
     -0.003    23.4971     6.2478     73.450 214.357656    219.153     10.097   166.6735     1.4119     1.3469     0.1063     -0.002     -0.003     -0.004        112 1.0132e+03   997.4984 0.0000e+00
     -0.000    23.4918     6.2005     72.876 197.411119    205.722     10.086   164.8942     1.4310     1.3324     0.1000      0.001     -0.001     -0.001        113 1.0670e+03   997.4941 0.0000e+00
      0.001    23.4938     6.1634     72.423 221.742489    223.379     10.076   167.9985     1.4539     1.3469     0.1083      0.003     -0.003     -0.003        114 9.5282e+02   997.5051 0.0000e+00
     -0.010    23.4894     6.1211     71.910 274.258856    289.250     10.077   167.8850     1.4043     1.3901     0.1395      0.002     -0.008     -0.012        115 9.6502e+02   997.5258 0.0000e+00
     -0.017    23.4753     6.0808     71.425 264.443311    268.552     10.079   166.6735     1.4081     1.2748     0.1297     -0.002     -0.013     -0.019        116 9.3872e+02   997.5216 0.0000e+00
     -0.012    23.4641     6.0449     70.993 243.581234    253.447     10.065   166.4842     1.4157     1.2748     0.1225     -0.004     -0.012     -0.019        117 7.9180e+02   997.5150 0.0000e+00
     -0.011    23.4569     6.0061     70.528 239.945158    245.897     10.045   168.2635     1.4653     1.4045     0.1189     -0.006     -0.010     -0.015        118 9.0423e+02   997.5170 0.0000e+00
     -0.009    23.4449     5.9748     70.152 237.228523    245.490     10.024   170.6864     1.4272     1.4622     0.1187     -0.006     -0.009     -0.013        119 8.5871e+02   997.5187 0.0000e+00
     -0.008    23.4324     5.9500     69.854 238.520384    245.872     10.006   172.0114     1.4462     1.4622     0.1189     -0.005     -0.007     -0.010        120 7.9606e+02   997.5209 0.0000e+00
     -0.005    23.4220     5.9193     69.488 231.275247    238.835      9.993   170.7243     1.4462     1.3901     0.1156     -0.002     -0.004     -0.007        121 8.7579e+02   997.5212 0.0000e+00
     -0.001    23.4075     5.9064     69.332 234.304752    241.138      9.983   172.9200     1.4462     1.3757     0.1167      0.002     -0.002     -0.004        122 8.2554e+02   997.5254 0.0000e+00
     -0.002    23.3928     5.8901     69.136 244.508038    253.303      9.966   172.3521     1.4577     1.3180     0.1224      0.006     -0.002     -0.002        123 8.4942e+02   997.5317 0.0000e+00
     -0.001    23.3798     5.8806     69.019 247.251655    254.809      9.959   171.5950     1.4310     1.2459     0.1231      0.008     -0.001     -0.001        124 8.5724e+02   997.5362 0.0000e+00
     -0.001    23.3678     5.8722     68.915 253.912792    262.320      9.951   171.2543     1.4310     1.3036     0.1267      0.006     -0.001     -0.001        125 8.0663e+02   997.5423 0.0000e+00
     -0.000    23.3575     5.8676     68.855 259.399486    268.664      9.944   171.6328     1.4233     1.2459     0.1297      0.005     -0.000     -0.000        126 9.4386e+02   997.5476 0.0000e+00
      0.001    23.3488     5.8685     68.861 261.780673    269.547      9.934   172.5035     1.4462     1.2603     0.1301      0.005      0.001      0.001        127 9.8492e+02   997.5514 0.0000e+00
      0.001    23.3415     5.8711     68.886 271.026490    281.256      9.931   174.2071     1.4424     1.4045     0.1357      0.004      0.001      0.002        128 8.8847e+02   997.5573 0.0000e+00
      0.001    23.3350     5.8732     68.905 274.897463    283.498      9.924   175.6078     1.4119     1.2892     0.1368      0.002      0.001      0.002        129 9.5615e+02   997.5609 0.0000e+00
      0.002    23.3294     5.8727     68.894 276.387219    286.434      9.918   175.9864     1.4653     1.3757     0.1382      0.002      0.002      0.003        130 1.0215e+03   997.5633 0.0000e+00
      0.002    23.3245     5.8770     68.938 280.986569    290.008      9.911   175.8350     1.4310     1.3180     0.1399      0.002      0.002      0.003        131 1.0679e+03   997.5665 0.0000e+00
      0.002    23.3197     5.8789     68.953 284.618438    295.131      9.904   175.1914     1.4615     1.2603     0.1423      0.002      0.002      0.003        132 1.1711e+03   997.5692 0.0000e+00
      0.003    23.3157     5.8792     68.948 289.744339    298.874      9.893   174.6236     1.4577     1.3180     0.1441      0.002      0.003      0.004        133 1.1678e+03   997.5723 0.0000e+00
      0.003    23.3119     5.8750     68.891 296.179554    307.420      9.884   175.0021     1.4233     1.3180     0.1482      0.001      0.003      0.004        134 1.2560e+03   997.5759 0.0000e+00
      0.003    23.3077     5.8707     68.832 297.495372    307.064      9.881   175.8728     1.3585     1.4478     0.1481      0.001      0.003      0.004        135 1.3876e+03   997.5774 0.0000e+00
      0.004    23.3032     5.8670     68.780 298.370476    309.343      9.878   177.1978     1.3966     1.3901     0.1491      0.001      0.004      0.005        136 1.2589e+03   997.5787 0.0000e+00
      0.004    23.2992     5.8581     68.666 299.382900    309.428      9.873   178.4471     1.3470     1.4045     0.1492      0.001      0.004      0.006        137 1.2681e+03   997.5800 0.0000e+00
      0.004    23.2952     5.8492     68.551 299.747467    310.511      9.868   178.7879     1.3852     1.2748     0.1497      0.001      0.004      0.006        138 1.3332e+03   997.5813 0.0000e+00
      0.005    23.2907     5.8395     68.425 301.008777    311.386      9.865   179.7721     1.3585     1.2459     0.1501      0.001      0.005      0.007        139 1.2188e+03   997.5828 0.0000e+00
      0.005    23.2859     5.8314     68.317 300.935304    311.705      9.858   179.7343     1.3966     1.4045     0.1503      0.001      0.005      0.007        140 1.2624e+03   997.5837 0.0000e+00
      0.005    23.2810     5.8204     68.175 301.970406    312.378      9.858   179.6586     1.3814     1.4189     0.1506      0.001      0.005      0.007        141 1.2681e+03   997.5852 0.0000e+00
      0.005    23.2757     5.8113     68.054 302.903001    313.932      9.852   179.3179     1.3623     1.3757     0.1513      0.001      0.005      0.007        142 1.3004e+03   997.5867 0.0000e+00
      0.005    23.2694     5.7989     67.896 302.656906    313.086      9.849   179.1664     1.4462     1.3613     0.1509      0.001      0.005      0.007        143 1.2550e+03   997.5878 0.0000e+00
      0.005    23.2628     5.7909     67.788 302.877136    313.940      9.841   179.2421     1.4424     1.2748     0.1513      0.001      0.005      0.008        144 1.0791e+03   997.5892 0.0000e+00
      0.005    23.2560     5.7865     67.722 303.769858    314.333      9.840   180.3021     1.4310     1.3757     0.1515      0.001      0.005      0.008        145 9.6633e+02   997.5910 0.0000e+00
      0.005    23.2490     5.7812     67.645 305.719506    316.926      9.834   180.8700     1.4577     1.4910     0.1528      0.000      0.005      0.008        146 7.5372e+02   997.5933 0.0000e+00
      0.005    23.2413     5.7844     67.669 307.387075    318.290      9.829   180.7186     1.4424     1.3613     0.1534      0.000      0.006      0.009        147 5.6762e+02   997.5956 0.0000e+00
      0.007    23.2331     5.7917     67.743 308.451051    319.744      9.825   180.7186     1.4348     1.3613     0.1541      0.001      0.007      0.010        148 4.3670e+02   997.5978 0.0000e+00
      0.007    23.2239     5.7992     67.817 310.431735    321.555      9.820   181.5136     1.4424     1.3324     0.1550      0.001      0.007      0.010        149 4.0026e+02   997.6003 0.0000e+00
      0.006    23.2133     5.8125     67.957 312.520756    324.103      9.814   182.1571     1.4310     1.2748     0.1562      0.001      0.006      0.009        150 4.0752e+02   997.6031 0.0000e+00
      0.006    23.2027     5.8219     68.054 311.798310    323.226      9.804   182.1950     1.4462     1.3180     0.1558      0.001      0.006      0.009        151 5.3705e+02   997.6051 0.0000e+00
      0.006    23.1920     5.8332     68.173 311.210634    322.563      9.797   182.7250     1.4577     1.3036     0.1555      0.001      0.006      0.009        152 6.7175e+02   997.6074 0.0000e+00
      0.007    23.1810     5.8435     68.282 312.801628    324.601      9.781   183.2929     1.4462     1.3613     0.1565      0.001      0.007      0.010        153 8.4949e+02   997.6105 0.0000e+00
      0.007    23.1700     5.8565     68.421 313.573075    325.144      9.767   183.3307     1.4233     1.3036     0.1567      0.001      0.007      0.010        154 1.1002e+03   997.6135 0.0000e+00
      0.007    23.1582     5.8620     68.471 315.597573    327.538      9.754   184.4286     1.4233     1.4045     0.1579      0.000      0.007      0.010        155 1.2358e+03   997.6169 0.0000e+00
      0.006    23.1468     5.8638     68.479 316.470658    328.554      9.746   183.8986     1.4424     1.4334     0.1584     -0.000      0.006      0.009        156 1.3651e+03   997.6198 0.0000e+00
      0.006    23.1366     5.8627     68.451 316.241776    328.105      9.741   184.3529     1.4462     1.4334     0.1581     -0.000      0.006      0.009        157 1.3283e+03   997.6226 0.0000e+00
      0.006    23.1266     5.8563     68.362 316.843852    329.241      9.738   184.9207     1.4310     1.4045     0.1587     -0.000      0.006      0.009        158 1.2675e+03   997.6256 0.0000e+00
      0.006    23.1163     5.8500     68.273 317.133490    329.105      9.732   185.5643     1.3699     1.4622     0.1586     -0.000      0.006      0.009        159 1.3697e+03   997.6282 0.0000e+00
      0.005    23.1049     5.8365     68.099 319.486846    332.056      9.731   185.7536     1.4005     1.4045     0.1600     -0.001      0.005      0.008        160 1.4021e+03   997.6314 0.0000e+00
      0.004    23.0938     5.8285     67.992 320.014597    332.538      9.729   185.5643     1.3966     1.3613     0.1603     -0.001      0.005      0.007        161 1.2876e+03   997.6341 0.0000e+00
      0.005    23.0841     5.8120     67.788 318.910486    331.294      9.726   186.5107     1.3966     1.3036     0.1597     -0.001      0.006      0.008        162 1.2946e+03   997.6365 0.0000e+00
      0.007    23.0747     5.7954     67.583 320.049663    332.812      9.726   186.8136     1.1258     1.3469     0.1604     -0.000      0.007      0.010        163 1.3059e+03   997.6396 0.0000e+00
      0.007    23.0642     5.7845     67.444 320.850587    333.527      9.722   186.3214     1.1449     1.3036     0.1607      0.000      0.007      0.010        164 1.2812e+03   997.6422 0.0000e+00
      0.008    23.0536     5.7692     67.256 321.790133    334.652      9.720   186.6622     1.1220     1.3469     0.1613      0.001      0.008      0.011        165 1.3176e+03   997.6448 0.0000e+00
      0.008    23.0432     5.7567     67.102 323.328011    336.317      9.721   187.8357     1.1372     1.4334     0.1621      0.001      0.008      0.011        166 1.2700e+03   997.6479 0.0000e+00
      0.008    23.0318     5.7395     66.892 324.376255    337.481      9.723   187.8357     1.1525     1.4334     0.1626      0.002      0.008      0.011        167 1.3110e+03   997.6509 0.0000e+00
      0.009    23.0203     5.7199     66.655 324.993725    338.203      9.725   187.4572     1.1372     1.4334     0.1630      0.002      0.009      0.012        168 1.3382e+03   997.6536 0.0000e+00
      0.009    23.0080     5.7045     66.466 326.256463    339.521      9.730   187.9114     1.1372     1.3613     0.1636      0.002      0.009      0.012        169 1.2735e+03   997.6568 0.0000e+00
      0.008    22.9960     5.6854     66.227 326.952706    340.546      9.730   188.3657     1.1411     1.2748     0.1641      0.001      0.008      0.011        170 1.2945e+03   997.6599 0.0000e+00
      0.007    22.9854     5.7024     66.580 326.351566    339.689      9.727   189.4636     1.1754     1.3324     0.1637      0.000      0.007      0.011        171 1.3329e+03   997.6625 0.0000e+00
      0.007    22.9758     5.9903     70.271 326.343338    340.071      9.725   189.7665     1.2059     1.2459     0.1639     -0.000      0.007      0.011        172 1.3307e+03   997.6655 0.0000e+00
      0.008    22.9666     6.6276     77.980 326.331769    339.879      9.722   188.2522     1.1906     1.2748     0.1638     -0.000      0.007      0.011        173 1.2481e+03   997.6681 0.0000e+00
      0.007    22.9582     7.4215     87.450 326.516303    340.331      9.718   189.1229     1.2097     1.3036     0.1640     -0.000      0.008      0.011        174 1.2540e+03   997.6704 0.0000e+00
      0.009    22.9503     8.2473     97.253 326.744952    340.514      9.716   189.9557     1.2593     1.3180     0.1641     -0.000      0.008      0.011        175 1.3049e+03   997.6727 0.0000e+00
      0.008    22.9438     8.9225    105.265 326.618362    340.515      9.715   190.9022     1.2746     1.4478     0.1641     -0.000      0.008      0.011        176 1.2997e+03   997.6746 0.0000e+00
      0.008    22.9354     9.4564    111.598 327.034582    340.924      9.714   189.3122     1.2708     1.4189     0.1643      0.000      0.008      0.012        177 1.2860e+03   997.6767 0.0000e+00
      0.009    22.9301     9.8033    115.715 327.249006    341.328      9.709   189.6907     1.2631     1.3613     0.1645      0.001      0.009      0.013        178 1.2600e+03   997.6783 0.0000e+00
      0.009    22.9206     9.9639    117.619 327.493788    341.442      9.708   191.0915     1.2135     1.3757     0.1645      0.001      0.009      0.013        179 1.2761e+03   997.6805 0.0000e+00
      0.010    22.9230     9.9511    117.467 328.353220    342.612      9.700   191.9243     1.1830     1.3180     0.1651      0.001      0.009      0.013        180 1.2398e+03   997.6821 0.0000e+00
      0.009    23.0660     9.8039    115.736 322.602970    336.840      9.694   190.3722     1.2173     1.2171     0.1623      0.001      0.009      0.013        181 1.2652e+03   997.6820 0.0000e+00
      0.010    23.3136     9.6257    113.636 248.526667    262.700      9.689   191.6972     1.1601     1.2748     0.1268      0.001      0.010      0.014        182 1.2999e+03   997.6534 0.0000e+00
      0.010    23.4792     9.4563    111.643 127.212453    128.056      9.678   193.7793     1.1601     1.3324     0.0640      0.001      0.010      0.015        183 1.2599e+03   997.5745 0.0000e+00
      0.011    23.5567     9.3257    110.099  70.905066     74.598      9.670   193.7036     1.2059     1.3613     0.0401      0.001      0.010      0.015        184 1.3064e+03   997.4952 0.0000e+00
      0.010    23.5988     9.2247    108.897  59.509162     60.477      9.664   192.6815     1.2288     1.3469     0.0340      0.001      0.010      0.015        185 1.3317e+03   997.4515 0.0000e+00
      0.010    23.6231     9.1517    108.033  50.293024     52.205      9.659   193.0600     1.1678     1.3036     0.0305      0.001      0.010      0.015        186 1.2747e+03   997.4294 0.0000e+00
      0.011    23.6401     9.0972    107.383  47.308158     48.339      9.658   195.1043     1.1868     1.3613     0.0288      0.001      0.010      0.015        187 1.2891e+03   997.4183 0.0000e+00
      0.010    23.6504     9.0590    106.925  45.370522     46.820      9.658   195.2179     1.2555     1.2748     0.0282      0.000      0.010      0.015        188 1.3079e+03   997.4118 0.0000e+00
      0.010    23.6544     9.0259    106.532  44.669036     45.827      9.656   195.7858     1.2784     1.3757     0.0278      0.000      0.010      0.015        189 1.2900e+03   997.4074 0.0000e+00
      0.011    23.6545     9.0003    106.232  43.733996     44.956      9.653   194.7636     1.2746     1.4045     0.0274      0.000      0.011      0.015        190 1.3028e+03   997.4045 0.0000e+00
      0.011    23.6567     8.9774    105.966  43.006275     44.235      9.650   194.9908     1.2479     1.3901     0.0271      0.000      0.011      0.015        191 1.2769e+03   997.4033 0.0000e+00
      0.011    23.6591     8.9645    105.817  42.046957     43.116      9.647   195.6343     1.2402     1.3324     0.0267      0.000      0.011      0.016        192 1.3114e+03   997.4030 0.0000e+00
      0.012    23.6628     8.9625    105.791  42.319185     43.544      9.641   196.3158     1.2517     1.2748     0.0268      0.001      0.011      0.016        193 1.3488e+03   997.4026 0.0000e+00
      0.011    23.6617     8.9622    105.787  41.896757     43.054      9.636   196.6186     1.2479     1.3324     0.0266      0.001      0.011      0.016        194 1.2902e+03   997.4019 0.0000e+00
      0.012    23.6569     8.9563    105.712  40.883055     41.960      9.623   196.2400     1.2479     1.3613     0.0262      0.001      0.011      0.016        195 1.2756e+03   997.4006 0.0000e+00
      0.011    23.6552     8.9555    105.704  40.705446     41.846      9.615   196.3158     1.1754     1.3036     0.0261      0.001      0.011      0.017        196 1.3376e+03   997.4008 0.0000e+00
      0.012    23.6528     8.9553    105.706  40.457866     41.563      9.601   196.1265     1.1830     1.3036     0.0260      0.001      0.012      0.018        197 1.3543e+03   997.4020 0.0000e+00
      0.013    23.6489     8.9553    105.714  39.946266     41.048      9.591   197.4136     1.1906     1.3180     0.0258      0.001      0.013      0.019        198 1.2939e+03   997.4022 0.0000e+00
      0.014    23.6477     8.9556    105.726  39.800836     40.878      9.581   198.0193     1.2326     1.2748     0.0257      0.001      0.014      0.020        199 1.2737e+03   997.4027 0.0000e+00
      0.014    23.6490     8.9395    105.541  39.808935     40.939      9.573   198.3222     1.0953     1.2892     0.0257      0.001      0.014      0.020        200 1.3029e+03   997.4037 0.0000e+00
      0.014    23.6510     8.9196    105.306  39.876909     40.940      9.564   198.3222     1.0609     1.3613     0.0257      0.002      0.014      0.020        201 1.4080e+03   997.4040 0.0000e+00
      0.014    23.6527     8.9001    105.074  40.190481     41.340      9.555   196.4672     1.0800     1.3180     0.0259      0.002      0.014      0.020        202 1.4179e+03   997.4038 0.0000e+00
      0.014    23.6521     8.8982    105.047  40.337536     41.425      9.543   197.7922     1.0762     1.3901     0.0259      0.001      0.014      0.020        203 1.2825e+03   997.4033 0.0000e+00
      0.014    23.6508     8.8922    104.973  40.227420     41.366      9.529   198.2465     1.0419     1.3469     0.0259      0.001      0.014      0.020        204 1.2660e+03   997.4029 0.0000e+00
      0.015    23.6491     8.9024    105.091  39.794002     40.879      9.513   199.6472     0.9961     1.4189     0.0257      0.001      0.014      0.020        205 1.3182e+03   997.4028 0.0000e+00
      0.014    23.6493     8.9127    105.210  38.861442     39.961      9.503   199.7229     1.0075     1.3901     0.0253      0.000      0.014      0.020        206 1.2751e+03   997.4029 0.0000e+00
      0.014    23.6515     8.9338    105.458  38.246273     39.245      9.497   196.4293     0.9885     1.3036     0.0250      0.000      0.014      0.020        207 1.2254e+03   997.4031 0.0000e+00
      0.014    23.6556     8.9486    105.635  37.862512     38.986      9.491   197.4515     1.1372     1.3324     0.0249      0.000      0.014      0.020        208 1.2420e+03   997.4030 0.0000e+00
      0.014    23.6604     8.9694    105.888  37.116264     38.066      9.488   197.6408     1.1449     1.3613     0.0246      0.000      0.014      0.020        209 1.2360e+03   997.4021 0.0000e+00
      0.014    23.6622     8.9828    106.056  36.952250     38.006      9.479   199.6851     1.1601     1.2892     0.0245      0.000      0.014      0.020        210 1.2613e+03   997.4010 0.0000e+00
      0.014    23.6628     8.9914    106.166  37.058997     38.059      9.462   199.6472     1.0991     1.3901     0.0246      0.000      0.014      0.020        211 1.2348e+03   997.4000 0.0000e+00
      0.014    23.6618     8.9972    106.242  37.161231     38.173      9.442   200.4043     1.1411     1.3180     0.0246      0.000      0.014      0.020        212 1.1677e+03   997.3996 0.0000e+00
      0.015    23.6592     8.9948    106.221  37.239919     38.287      9.416   196.9215     1.2059     1.2748     0.0246      0.000      0.015      0.021        213 1.1243e+03   997.3995 0.0000e+00
      0.016    23.6578     8.9969    106.249  37.020343     38.001      9.394   198.0572     1.2135     1.3469     0.0245      0.001      0.015      0.022        214 1.0379e+03   997.3997 0.0000e+00
      0.016    23.6568     8.9917    106.190  37.078861     38.118      9.374   198.2843     1.2021     1.2603     0.0246      0.001      0.015      0.022        215 9.5560e+02   997.4003 0.0000e+00
      0.016    23.6556     8.9790    106.044  37.167093     38.176      9.362   199.1172     1.2097     1.3613     0.0246      0.001      0.015      0.022        216 8.5616e+02   997.4006 0.0000e+00
      0.015    23.6552     8.9696    105.937  36.969813     38.005      9.356   201.0101     1.0838     1.2748     0.0245      0.001      0.015      0.022        217 8.0246e+02   997.4008 0.0000e+00
      0.016    23.6561     8.9614    105.841  36.909479     37.891      9.355   198.2086     1.0686     1.4478     0.0245      0.001      0.015      0.022        218 7.3234e+02   997.4011 0.0000e+00
      0.015    23.6593     8.9525    105.732  36.945824     38.006      9.358   198.5493     1.0800     1.3757     0.0245      0.001      0.015      0.022        219 6.5137e+02   997.4012 0.0000e+00
      0.015    23.6648     8.9469    105.666  37.102394     38.063      9.357   199.0036     1.0838     1.4189     0.0246      0.000      0.015      0.022        220 5.8481e+02   997.4010 0.0000e+00
      0.016    23.6691     8.9405    105.598  37.455521     38.548      9.356   199.3822     1.0190     1.5487     0.0248      0.000      0.015      0.022        221 5.0926e+02   997.4003 0.0000e+00
      0.015    23.6725     8.9402    105.602  37.306525     38.285      9.345   201.0858     1.0190     1.5631     0.0246     -0.000      0.015      0.022        222 4.6754e+02   997.3990 0.0000e+00
      0.016    23.6762     8.9456    105.668  37.021090     38.053      9.328   201.5401     0.9961     1.6208     0.0246     -0.000      0.015      0.022        223 4.4894e+02   997.3979 0.0000e+00
      0.016    23.6781     8.9562    105.793  36.832762     37.820      9.311   199.6851     1.0381     1.7218     0.0245      0.000      0.015      0.022        224 4.6346e+02   997.3969 0.0000e+00
      0.016    23.6793     8.9635    105.882  36.503661     37.502      9.297   199.7229     1.0190     1.3036     0.0243      0.000      0.015      0.022        225 4.8224e+02   997.3959 0.0000e+00
      0.016    23.6810     8.9703    105.970  36.156353     37.128      9.290   199.4579     1.0113     1.2748     0.0242      0.000      0.015      0.023        226 4.6899e+02   997.3954 0.0000e+00
      0.017    23.6830     8.9713    105.980  35.842531     36.811      9.286   200.5936     1.0266     1.4478     0.0240      0.000      0.016      0.024        227 4.9448e+02   997.3950 0.0000e+00
      0.017    23.6840     8.9694    105.960  35.797746     36.753      9.288   201.1236     1.0495     1.4045     0.0240      0.001      0.016      0.024        228 5.3733e+02   997.3946 0.0000e+00
      0.016    23.6821     8.9673    105.933  35.589776     36.579      9.291   202.1458     1.0304     1.3901     0.0239      0.000      0.016      0.023        229 5.3919e+02   997.3940 0.0000e+00
      0.016    23.6815     8.9671    105.922  35.360512     36.263      9.297   201.6915     1.0876     1.3469     0.0238      0.000      0.016      0.023        230 5.7259e+02   997.3936 0.0000e+00
      0.016    23.6852     8.9669    105.899  35.520030     36.522      9.302   201.4643     1.0533     1.3901     0.0239      0.000      0.016      0.023        231 6.2373e+02   997.3942 0.0000e+00
      0.016    23.6891     8.9691    105.900  35.717223     36.638      9.304   201.7293     1.0915     1.2748     0.0240      0.000      0.016      0.023        232 7.2233e+02   997.3944 0.0000e+00
      0.016    23.6905     8.9682    105.885  35.915207     36.921      9.313   201.5022     1.0648     1.3180     0.0241      0.000      0.016      0.023        233 8.5882e+02   997.3936 0.0000e+00
      0.017    23.6900     8.9668    105.874  35.925579     36.861      9.315   201.9943     1.1449     1.3324     0.0241      0.000      0.016      0.023        234 9.7041e+02   997.3926 0.0000e+00
      0.016    23.6921     8.9587    105.787  35.674681     36.659      9.321   204.0765     1.1105     1.2171     0.0240     -0.000      0.016      0.023        235 1.0695e+03   997.3922 0.0000e+00
      0.017    23.6952     8.9389    105.563  35.782941     36.688      9.319   203.3572     1.1258     1.4045     0.0240      0.000      0.016      0.023        236 1.1689e+03   997.3924 0.0000e+00
      0.016    23.6952     8.9336    105.506  36.205727     37.232      9.323   203.6601     1.1334     1.4189     0.0242      0.000      0.016      0.024        237 1.2221e+03   997.3920 0.0000e+00
      0.018    23.6957     8.9346    105.511  36.363521     37.286      9.322   202.6001     1.1029     1.4045     0.0242      0.000      0.016      0.024        238 1.2189e+03   997.3913 0.0000e+00
      0.016    23.6949     8.9370    105.540  36.534861     37.545      9.320   202.9408     1.1487     1.3469     0.0244      0.000      0.016      0.024        239 1.1721e+03   997.3913 0.0000e+00
      0.017    23.6906     8.9389    105.560  36.525916     37.487      9.317   203.2815     1.1449     1.3324     0.0243      0.000      0.017      0.024        240 1.1838e+03   997.3911 0.0000e+00
      0.017    23.6801     8.9413    105.596  36.582093     37.545      9.319   206.6508     1.1334     1.4045     0.0244      0.000      0.017      0.025        241 1.1560e+03   997.3914 0.0000e+00
      0.018    23.6681     8.9432    105.617  37.087287     38.093      9.317   205.0608     1.1334     1.3613     0.0246      0.001      0.018      0.025        242 1.1251e+03   997.3927 0.0000e+00
      0.019    23.6654     8.9478    105.678  37.319704     38.331      9.311   205.1744     1.1258     1.3324     0.0247      0.001      0.018      0.025        243 1.1924e+03   997.3953 0.0000e+00
      0.018    23.6684     8.9596    105.823  37.152284     38.168      9.305   205.0608     1.1334     1.2027     0.0246      0.001      0.018      0.025        244 1.1930e+03   997.3981 0.0000e+00
      0.018    23.6723     8.9701    105.947  36.673301     37.682      9.297   204.2658     1.1296     1.3180     0.0244      0.001      0.018      0.025        245 1.1620e+03   997.3986 0.0000e+00
      0.018    23.6779     8.9725    105.969  35.900618     36.877      9.293   204.0008     1.1487     1.4045     0.0241      0.001      0.018      0.026        246 1.2142e+03   997.3977 0.0000e+00
      0.018    23.6797     8.9716    105.952  35.328252     36.271      9.289   207.9758     1.1525     1.4045     0.0238      0.001      0.018      0.026        247 1.2901e+03   997.3966 0.0000e+00
      0.018    23.6782     8.9696    105.927  35.133442     36.095      9.284   207.1051     1.1334     1.2892     0.0237      0.001      0.018      0.026        248 1.2512e+03   997.3951 0.0000e+00
      0.019    23.6770     8.9669    105.894  34.957733     35.893      9.278   207.1429     1.1220     1.3036     0.0237      0.000      0.018      0.026        249 1.1930e+03   997.3946 0.0000e+00
      0.018    23.6767     8.9687    105.907  34.776471     35.723      9.270   205.7801     1.2021     1.3324     0.0236      0.000      0.018      0.026        250 1.2232e+03   997.3950 0.0000e+00
      0.019    23.6791     8.9779    106.005  34.973797     35.895      9.266   206.0451     1.2212     1.2748     0.0237      0.000      0.018      0.026        251 1.2692e+03   997.3953 0.0000e+00
      0.019    23.6796     8.9852    106.078  35.275183     36.269      9.257   209.4144     1.2059     1.4045     0.0238      0.000      0.018      0.026        252 1.2931e+03   997.3955 0.0000e+00
      0.019    23.6823     8.9877    106.098  35.468175     36.381      9.249   209.0358     1.1983     1.2748     0.0239      0.000      0.018      0.026        253 1.3069e+03   997.3949 0.0000e+00
      0.019    23.6857     8.9939    106.173  35.741142     36.754      9.244   209.0737     1.2021     1.3469     0.0240      0.000      0.018      0.026        254 1.2601e+03   997.3949 0.0000e+00
      0.019    23.6851     8.9857    106.092  35.646678     36.579      9.231   208.8844     1.1525     1.3901     0.0239      0.000      0.018      0.026        255 1.2006e+03   997.3942 0.0000e+00
      0.019    23.6822     8.9885    106.137  35.615364     36.577      9.223   207.1429     1.1296     1.2892     0.0239      0.000      0.018      0.026        256 1.1845e+03   997.3933 0.0000e+00
      0.019    23.6790     8.9847    106.095  35.898645     36.864      9.212   207.4079     1.1449     1.2315     0.0241      0.000      0.019      0.027        257 1.1123e+03   997.3936 0.0000e+00
      0.019    23.6785     8.9772    106.011  36.064616     37.039      9.203   210.8529     1.1182     1.3324     0.0241      0.000      0.019      0.027        258 1.0829e+03   997.3944 0.0000e+00
      0.020    23.6774     8.9743    105.980  36.386736     37.356      9.197   211.1558     1.2021     1.2892     0.0243      0.000      0.019      0.027        259 1.0532e+03   997.3953 0.0000e+00
      0.019    23.6734     8.9748    105.995  36.594240     37.615      9.193   210.9665     1.2173     1.3757     0.0244      0.000      0.019      0.027        260 8.6300e+02   997.3955 0.0000e+00
      0.019    23.6681     8.9782    106.033  36.458338     37.415      9.184   210.0958     1.1983     1.2892     0.0243      0.000      0.019      0.027        261 8.2822e+02   997.3957 0.0000e+00
      0.019    23.6617     8.9746    105.960  36.289153     37.303      9.181   210.1337     1.1983     1.3036     0.0242      0.000      0.019      0.027        262 9.2563e+02   997.3966 0.0000e+00
      0.020    23.6568     8.9627    105.799  36.419540     37.365      9.175   210.2851     1.2708     1.3613     0.0243      0.000      0.020      0.029        263 9.3180e+02   997.3980 0.0000e+00
      0.022    23.6581     8.9541    105.690  36.444250     37.513      9.173   212.1779     1.2669     1.3324     0.0243      0.001      0.020      0.029        264 9.0650e+02   997.3995 0.0000e+00
      0.019    23.6657     8.9426    105.555  35.962067     36.886      9.144   212.2915     1.2669     1.3613     0.0241      0.001      0.015      0.021        265 7.6234e+02   997.4005 0.0000e+00
      0.005    23.6718     8.9313    105.436  35.360109     36.397      9.098   211.6858     1.2708     1.4189     0.0239     -0.003     -0.003     -0.005        266 4.9267e+02   997.3999 0.0000e+00
     -0.035    23.6736     8.9272    105.409  34.467124     35.358      9.140   211.6858     1.2746     1.1450     0.0234     -0.017     -0.041     -0.059        267 3.8079e+02   997.3976 0.0000e+00
     -0.097    23.6755     8.9156    105.283  34.376809     35.296      9.198   211.6479     1.2593     1.1450     0.0234     -0.043     -0.093     -0.134        268 3.9067e+02   997.3958 0.0000e+00
     -0.153    23.6774     8.9159    105.285  35.413237     36.385      9.249   211.9887     1.2631     1.1450     0.0239     -0.076     -0.137     -0.198        269 3.7794e+02   997.3955 0.0000e+00
     -0.165    23.6817     8.9208    105.339  35.873864     36.871      9.298   212.6701     1.2631     1.1017     0.0241     -0.101     -0.160     -0.232        270 3.7222e+02   997.3951 0.0000e+00
     -0.171    23.6796     8.9287    105.431  34.929604     35.895      9.277   212.6701     0.8549     1.3180     0.0237     -0.116     -0.175     -0.253        271 3.6816e+02   997.3944 0.0000e+00
     -0.201    23.6652     8.9395    105.559  35.640093     36.437      9.313   212.7458     0.8168     1.3613     0.0239     -0.126     -0.199     -0.288        272 3.6392e+02   997.3933 0.0000e+00
     -0.235    23.6544     8.9472    105.652  37.567886     38.818      9.354   212.5944     0.8397     1.3757     0.0249     -0.129     -0.228     -0.330        273 3.5252e+02   997.3943 0.0000e+00
     -0.260    23.6511     8.9425    105.603  37.212736     38.056      9.396   212.5565     0.8359     1.3901     0.0246     -0.123     -0.253     -0.367        274 3.4862e+02   997.3976 0.0000e+00
     -0.279    23.6517     8.9358    105.534  36.822882     37.949      9.427   211.7237     0.8244     1.3324     0.0245     -0.109     -0.272     -0.394        275 3.4464e+02   997.4000 0.0000e+00
     -0.293    23.6591     8.9194    105.354  36.186031     37.148      9.446   212.4051     0.9351     1.7939     0.0242     -0.092     -0.285     -0.414        276 3.4774e+02   997.4006 0.0000e+00
     -0.301    23.6695     8.8996    105.125  34.893708     35.857      9.462   212.3672     0.9351     1.8948     0.0236     -0.082     -0.294     -0.427        277 3.4446e+02   997.4000 0.0000e+00
     -0.306    23.6755     8.8916    105.032  34.252861     35.191      9.471   212.9729     0.9732     1.8515     0.0234     -0.077     -0.299     -0.433        278 3.4549e+02   997.3980 0.0000e+00
     -0.307    23.6750     8.8837    104.939  34.079575     34.983      9.474   213.5787     0.9770     1.8227     0.0233     -0.067     -0.301     -0.437        279 3.4692e+02   997.3953 0.0000e+00
     -0.309    23.6727     8.8770    104.861  34.279669     35.236      9.466   213.8058     0.8664     1.0008     0.0234     -0.050     -0.304     -0.441        280 3.4812e+02   997.3940 0.0000e+00
     -0.314    23.6719     8.8762    104.853  34.300158     35.208      9.435   211.2315     0.8626     1.0873     0.0234     -0.035     -0.307     -0.445        281 3.4930e+02   997.3941 0.0000e+00
     -0.316    23.6720     8.8746    104.837  34.468916     35.411      9.414   212.4051     0.8969     1.1306     0.0235     -0.024     -0.309     -0.447        282 3.4682e+02   997.3947 0.0000e+00
     -0.314    23.6737     8.8809    104.913  34.514127     35.469      9.400   213.0865     0.9160     1.0873     0.0235     -0.016     -0.308     -0.447        283 3.4980e+02   997.3949 0.0000e+00
     -0.312    23.6769     8.8746    104.841  34.214263     35.124      9.387   214.2222     0.9579     1.3036     0.0233     -0.009     -0.306     -0.444        284 3.5149e+02   997.3947 0.0000e+00
     -0.310    23.6821     8.8786    104.886  33.982780     34.922      9.376   214.3737     0.9694     1.4045     0.0233     -0.005     -0.304     -0.441        285 3.5310e+02   997.3943 0.0000e+00
     -0.310    23.6880     8.8661    104.738  33.528069     34.432      9.342   210.7772     0.9541     1.3757     0.0231     -0.002     -0.304     -0.440        286 3.5326e+02   997.3934 0.0000e+00
     -0.310    23.6909     8.8570    104.634  33.120833     33.999      9.325   211.6858     0.9656     1.4622     0.0229     -0.000     -0.304     -0.440        287 3.5066e+02   997.3920 0.0000e+00
     -0.309    23.6920     8.8453    104.498  33.037697     33.937      9.315   211.7994     0.9618     1.5776     0.0229      0.002     -0.303     -0.440        288 3.5095e+02   997.3905 0.0000e+00
     -0.309    23.6921     8.8327    104.355  32.890785     33.763      9.312   212.3672     0.9465     1.5199     0.0228      0.003     -0.303     -0.439        289 3.5040e+02   997.3898 0.0000e+00
     -0.309    23.6925     8.8195    104.204  32.829591     33.705      9.313   214.1844     0.9427     1.5776     0.0228      0.003     -0.303     -0.439        290 3.5093e+02   997.3894 0.0000e+00
     -0.309    23.6935     8.8169    104.182  32.876815     33.762      9.309   214.5630     0.9389     1.5199     0.0228      0.002     -0.303     -0.440        291 3.4965e+02   997.3895 0.0000e+00
     -0.310    23.6945     8.8220    104.251  32.891273     33.762      9.309   211.2315     1.0686     1.6208     0.0228      0.001     -0.303     -0.440        292 3.4831e+02   997.3894 0.0000e+00
     -0.308    23.6959     8.8277    104.322  32.870855     33.761      9.313   211.2694     1.0762     1.5920     0.0228      0.001     -0.302     -0.438        293 3.4779e+02   997.3892 0.0000e+00
     -0.306    23.6966     8.8445    104.523  32.783707     33.646      9.318   212.4429     1.0876     1.5776     0.0228      0.001     -0.301     -0.437        294 3.4839e+02   997.3889 0.0000e+00
     -0.307    23.6956     8.8550    104.636  32.881211     33.760      9.313   213.3894     1.0686     1.5199     0.0228      0.002     -0.302     -0.437        295 3.4814e+02   997.3886 0.0000e+00
     -0.309    23.6955     8.8500    104.564  32.927288     33.817      9.308   213.3894     1.0648     1.5487     0.0228      0.001     -0.302     -0.438        296 3.4646e+02   997.3884 0.0000e+00
     -0.309    23.6970     8.8560    104.627  32.844882     33.703      9.303   215.6608     1.0876     1.5776     0.0228      0.001     -0.302     -0.438        297 3.4580e+02   997.3885 0.0000e+00
     -0.306    23.6986     8.8532    104.594  32.865249     33.760      9.297   212.4051     1.0953     1.6208     0.0228      0.001     -0.301     -0.437        298 3.4429e+02   997.3887 0.0000e+00
     -0.307    23.7010     8.8570    104.644  32.842683     33.702      9.287   212.6701     1.0800     1.6208     0.0228      0.001     -0.301     -0.436        299 3.4503e+02   997.3883 0.0000e+00
     -0.306    23.7041     8.8663    104.760  32.813705     33.701      9.283   213.6165     1.0381     1.4622     0.0228      0.001     -0.299     -0.434        300 3.4535e+02   997.3879 0.0000e+00
     -0.302    23.7086     8.8863    104.998  32.782794     33.641      9.270   213.2758     0.8397     1.4334     0.0228      0.002     -0.295     -0.429        301 3.4640e+02   997.3873 0.0000e+00
     -0.296    23.7124     8.8962    105.115  32.703374     33.582      9.265   215.2444     0.8244     1.3180     0.0227      0.004     -0.290     -0.421        302 3.5014e+02   997.3866 0.0000e+00
     -0.289    23.7149     8.8976    105.130  32.645877     33.493      9.261   215.4337     0.8397     1.1594     0.0227      0.008     -0.284     -0.412        303 3.5008e+02   997.3855 0.0000e+00
     -0.284    23.7159     8.8810    104.933  32.646943     33.519      9.266   213.5787     0.8206     1.2748     0.0227      0.012     -0.277     -0.402        304 3.5400e+02   997.3845 0.0000e+00
     -0.273    23.7110     8.8717    104.827  32.583531     33.431      9.274   213.3137     0.8549     1.3613     0.0227      0.016     -0.266     -0.386        305 3.5876e+02   997.3839 0.0000e+00
     -0.256    23.7038     8.8633    104.731  32.517389     33.373      9.260   213.5787     0.8244     1.3901     0.0226      0.023     -0.252     -0.366        306 3.6137e+02   997.3837 0.0000e+00
     -0.243    23.7000     8.8597    104.689  32.462596     33.319      9.248   213.7301     0.8511     1.3469     0.0226      0.031     -0.239     -0.347        307 3.6621e+02   997.3850 0.0000e+00
     -0.234    23.6999     8.8594    104.686  32.414693     33.267      9.239   215.0930     0.8168     1.3324     0.0226      0.037     -0.228     -0.331        308 3.6961e+02   997.3868 0.0000e+00
     -0.220    23.7025     8.8650    104.753  32.517749     33.384      9.228   214.7144     0.8435     1.6497     0.0226      0.041     -0.214     -0.310        309 3.7138e+02   997.3879 0.0000e+00
     -0.198    23.7054     8.8837    104.971  32.571376     33.442      9.209   214.5251     0.8206     1.6785     0.0227      0.048     -0.195     -0.283        310 3.7671e+02   997.3880 0.0000e+00
     -0.179    23.7067     8.9077    105.253  32.584986     33.440      9.193   213.6544     0.8244     1.6785     0.0227      0.054     -0.176     -0.255        311 3.8803e+02   997.3874 0.0000e+00
     -0.161    23.7065     8.9377    105.606  32.560070     33.438      9.187   213.4272     0.8321     1.5487     0.0227      0.060     -0.158     -0.230        312 3.8362e+02   997.3869 0.0000e+00
     -0.145    23.7057     8.9575    105.836  32.602382     33.437      9.164   213.5030     0.8397     1.5343     0.0227      0.063     -0.143     -0.207        313 3.8608e+02   997.3866 0.0000e+00
     -0.131    23.7056     8.9640    105.910  32.798988     33.695      9.142   213.7301     0.8397     1.5487     0.0228      0.064     -0.128     -0.186        314 3.9314e+02   997.3868 0.0000e+00
     -0.116    23.7071     8.9606    105.869  32.789461     33.638      9.143   214.0330     0.8397     1.6352     0.0228      0.066     -0.113     -0.164        315 3.9546e+02   997.3870 0.0000e+00
     -0.098    23.7089     8.9459    105.694  32.703126     33.581      9.142   215.1308     0.8473     1.4622     0.0227      0.067     -0.098     -0.140        316 3.9184e+02   997.3871 0.0000e+00
     -0.084    23.7092     8.9336    105.546  32.728657     33.580      9.142   214.5630     0.8397     1.5487     0.0227      0.066     -0.083     -0.120        317 3.9612e+02   997.3868 0.0000e+00
     -0.072    23.7093     8.9242    105.436  32.935464     33.808      9.142   214.6008     0.8893     1.5631     0.0228      0.062     -0.068     -0.098        318 3.9369e+02   997.3864 0.0000e+00
     -0.050    23.7096     8.9151    105.332  32.979084     33.865      9.150   214.7901     0.8969     1.7650     0.0228      0.061     -0.047     -0.068        319 4.2050e+02   997.3865 0.0000e+00
     -0.022    23.7086     8.9061    105.232  32.911406     33.750      9.148   214.2980     0.9198     1.5920     0.0228      0.065     -0.024     -0.035        320 3.8997e+02   997.3866 0.0000e+00
     -0.003    23.7075     8.8991    105.152  33.019689     33.922      9.124   214.3737     0.8816     1.5199     0.0229      0.069     -0.004     -0.007        321 2.9979e+02   997.3866 0.0000e+00
      0.010    23.7069     8.8993    105.153  32.962845     33.808      9.111   216.3422     1.0266     1.4910     0.0228      0.071      0.011      0.016        322 3.6519e+02   997.3868 0.0000e+00
      0.028    23.7052     8.8975    105.131  32.745114     33.637      9.118   216.3044     1.0381     1.6208     0.0228      0.073      0.028      0.041        323 3.8781e+02   997.3871 0.0000e+00
      0.048    23.7036     8.9010    105.172  32.431409     33.265      9.121   215.3580     1.0190     1.6497     0.0226      0.074      0.046      0.066        324 3.6176e+02   997.3873 0.0000e+00
      0.065    23.7032     8.9043    105.215  32.405118     33.266      9.132   215.7744     1.0075     1.5199     0.0226      0.075      0.063      0.090        325 3.3278e+02   997.3878 0.0000e+00
      0.078    23.7020     8.9116    105.300  32.451915     33.324      9.132   215.8501     1.0953     1.5487     0.0226      0.073      0.077      0.111        326 3.4346e+02   997.3882 0.0000e+00
      0.092    23.7010     8.9118    105.299  32.550945     33.382      9.139   215.8501     1.1601     1.6785     0.0226      0.068      0.092      0.134        327 3.1811e+02   997.3884 0.0000e+00
      0.112    23.7016     8.9055    105.224  32.548537     33.469      9.142   217.4780     1.1296     1.5920     0.0227      0.065      0.113      0.164        328 4.0628e+02   997.3888 0.0000e+00
      0.140    23.7036     8.9029    105.191  32.662314     33.441      9.143   217.2508     1.1449     1.7073     0.0227      0.068      0.139      0.202        329 6.7646e+02   997.3892 0.0000e+00
      0.172    23.7067     8.9032    105.190  32.942677     33.928      9.136   217.4022     1.2135     1.5343     0.0229      0.075      0.169      0.244        330 5.5353e+02   997.3893 0.0000e+00
      0.202    23.7080     8.9077    105.240  32.555182     33.325      9.128   217.5537     1.2021     1.5199     0.0226      0.082      0.195      0.282        331 3.8966e+02   997.3888 0.0000e+00
      0.221    23.7075     8.9189    105.373  32.403817     33.322      9.116   217.4780     1.2097     1.6208     0.0226      0.088      0.214      0.309        332 4.4566e+02   997.3881 0.0000e+00
      0.229    23.7069     8.9414    105.639  32.449579     33.264      9.092   217.2887     1.1945     1.5776     0.0226      0.089      0.226      0.328        333 4.9233e+02   997.3878 0.0000e+00
      0.242    23.7071     8.9586    105.840  32.438974     33.322      9.091   218.8787     1.0762     1.6497     0.0226      0.088      0.241      0.350        334 5.0811e+02   997.3881 0.0000e+00
      0.268    23.7082     8.9805    106.095  32.417015     33.265      9.096   218.6137     1.0571     1.5199     0.0226      0.086      0.263      0.382        335 4.3923e+02   997.3883 0.0000e+00
      0.296    23.7080     8.9931    106.239  32.358393     33.207      9.101   219.2573     1.0876     1.6497     0.0226      0.084      0.287      0.417        336 3.7112e+02   997.3883 0.0000e+00
      0.314    23.7066     8.9887    106.178  32.630443     33.493      9.107   219.3330     1.0724     1.6641     0.0227      0.080      0.307      0.445        337 3.7010e+02   997.3882 0.0000e+00
      0.327    23.7057     8.9684    105.936  32.937691     33.809      9.109   219.4844     1.0876     1.5199     0.0228      0.075      0.323      0.468        338 3.8393e+02   997.3885 0.0000e+00
      0.347    23.7044     8.9541    105.771  32.864900     33.752      9.111   220.2415     1.0190     1.5199     0.0228      0.074      0.344      0.498        339 3.9144e+02   997.3888 0.0000e+00
      0.376    23.7023     8.9439    105.655  32.484000     33.323      9.111   220.8094     1.0266     1.5776     0.0226      0.078      0.370      0.535        340 3.7819e+02   997.3890 0.0000e+00
      0.406    23.7012     8.9418    105.622  32.404328     33.267      9.109   222.3615     1.0190     1.5199     0.0226      0.085      0.396      0.574        341 3.7259e+02   997.3895 0.0000e+00
      0.429    23.7012     8.9428    105.620  32.401102     33.268      9.103   222.5130     1.0113     1.5920     0.0226      0.089      0.419      0.608        342 3.7986e+02   997.3902 0.0000e+00
      0.448    23.7014     8.9408    105.587  32.310243     33.154      9.098   222.9673     1.0686     1.3613     0.0226      0.088      0.439      0.637        343 3.9332e+02   997.3904 0.0000e+00
      0.466    23.7000     8.9497    105.683  32.398886     33.269      9.097   222.9673     1.0533     1.3613     0.0226      0.088      0.459      0.665        344 4.1219e+02   997.3905 0.0000e+00
      0.490    23.6983     8.9577    105.774  32.409303     33.269      9.089   223.7244     1.0991     1.4045     0.0226      0.090      0.481      0.697        345 3.9613e+02   997.3906 0.0000e+00
      0.513    23.6960     8.9587    105.784  32.415793     33.270      9.084   224.0273     1.0953     1.3613     0.0226      0.091      0.505      0.731        346 4.3524e+02   997.3910 0.0000e+00
      0.541    23.6917     8.9523    105.709  32.450068     33.328      9.079   224.1030     1.2822     1.6208     0.0226      0.091      0.531      0.770        347 4.2370e+02   997.3915 0.0000e+00
      0.572    23.6902     8.9436    105.606  32.366651     33.215      9.066   224.8601     1.2517     1.5343     0.0226      0.091      0.558      0.808        348 4.4826e+02   997.3922 0.0000e+00
      0.592    23.6926     8.9496    105.677  32.341834     33.218      9.062   224.5951     1.2479     1.6785     0.0226      0.092      0.580      0.841        349 5.0213e+02   997.3933 0.0000e+00
      0.610    23.6944     8.9503    105.682  32.362441     33.219      9.059   225.1630     1.2479     1.5487     0.0226      0.093      0.603      0.874        350 4.5915e+02   997.3938 0.0000e+00
      0.643    23.6908     8.9613    105.808  32.341008     33.217      9.057   225.2387     1.2669     1.5487     0.0226      0.096      0.633      0.919        351 4.4662e+02   997.3934 0.0000e+00
      0.684    23.6837     8.9691    105.896  32.368505     33.216      9.061   225.5037     1.2517     1.5487     0.0226      0.103      0.670      0.971        352 4.5061e+02   997.3931 0.0000e+00
      0.722    23.6783     8.9793    106.013  32.328219     33.219      9.063   225.7687     1.2708     1.5776     0.0226      0.110      0.703      1.020        353 5.7000e+02   997.3942 0.0000e+00
      0.744    23.6745     8.9842    106.069  32.331888     33.166      9.055   225.5416     1.2669     1.5487     0.0226      0.114      0.727      1.054        354 6.0333e+02   997.3960 0.0000e+00
      0.755    23.6724     8.9829    106.053  32.304685     33.227      9.045   225.9958     1.2746     1.6641     0.0226      0.112      0.744      1.078        355 5.8412e+02   997.3974 0.0000e+00
      0.777    23.6717     8.9777    105.990  32.362075     33.172      9.045   225.9958     1.2631     1.5776     0.0226      0.108      0.764      1.108        356 5.7044e+02   997.3984 0.0000e+00
      0.805    23.6715     8.9655    105.843  32.201212     33.174      9.041   225.9958     1.2631     1.5199     0.0226      0.107      0.789      1.145        357 4.4839e+02   997.3990 0.0000e+00
      0.832    23.6714     8.9491    105.648  32.445621     33.174      9.043   226.5637     1.2593     1.5487     0.0226      0.104      0.816      1.183        358 4.1883e+02   997.3994 0.0000e+00
      0.858    23.6712     8.9302    105.425  33.657912     34.723      9.043   226.4501     1.2402     1.6208     0.0232      0.098      0.841      1.220        359 4.4241e+02   997.4000 0.0000e+00
      0.883    23.6699     8.9355    105.486  34.248103     35.067      9.037   226.2230     1.3890     1.6064     0.0233      0.094      0.868      1.258        360 4.9396e+02   997.4002 0.0000e+00
      0.912    23.6680     8.9342    105.467  33.874123     34.924      9.034   226.6394     1.3890     1.6785     0.0233      0.094      0.898      1.302        361 5.0009e+02   997.4003 0.0000e+00
      0.952    23.6659     8.9423    105.553  33.382565     34.151      9.030   226.6773     1.3623     1.5776     0.0230      0.102      0.934      1.355        362 4.1244e+02   997.4007 0.0000e+00
      0.994    23.6643     8.9389    105.503  33.289421     34.324      9.030   226.5258     1.3623     1.6208     0.0230      0.114      0.973      1.412        363 5.1554e+02   997.4013 0.0000e+00
      1.031    23.6637     8.9218    105.293  33.160389     33.953      9.028   226.8666     1.4615     1.6064     0.0229      0.123      1.008      1.462        364 6.3294e+02   997.4020 0.0000e+00
      1.058    23.6634     8.9045    105.083  33.009807     34.011      9.022   227.8130     1.4462     1.6497     0.0229      0.127      1.034      1.499        365 5.0202e+02   997.4023 0.0000e+00
      1.073    23.6625     8.8931    104.945  32.973114     33.782      9.014   227.7751     1.4539     1.6352     0.0228      0.127      1.054      1.529        366 4.3655e+02   997.4025 0.0000e+00
      1.094    23.6608     8.8785    104.771  32.969018     33.954      9.009   227.6237     1.4539     1.4766     0.0229      0.123      1.075      1.559        367 4.0579e+02   997.4027 0.0000e+00
      1.121    23.6600     8.8723    104.685  32.837130     33.668      9.003   227.1316     1.5416     1.5487     0.0228      0.118      1.101      1.597        368 3.7717e+02   997.4031 0.0000e+00
      1.153    23.6603     8.8653    104.582  32.722437     33.669      8.997   227.6237     1.5187     1.5487     0.0228      0.112      1.130      1.639        369 3.9356e+02   997.4036 0.0000e+00
      1.182    23.6599     8.8516    104.411  32.667311     33.526      8.995   227.4723     1.5149     1.5199     0.0227      0.106      1.160      1.682        370 4.3013e+02   997.4038 0.0000e+00
      1.212    23.6576     8.8459    104.332  32.550184     33.469      8.991   229.4030     1.5111     1.5487     0.0227      0.102      1.192      1.729        371 4.4137e+02   997.4038 0.0000e+00
      1.255    23.6532     8.8391    104.237  32.542281     33.412      8.988   229.0244     1.4195     1.5776     0.0226      0.107      1.230      1.784        372 3.6150e+02   997.4042 0.0000e+00
      1.296    23.6479     8.8421    104.244  32.499374     33.413      8.985   229.3273     1.4539     1.5776     0.0226      0.117      1.266      1.838        373 3.5472e+02   997.4049 0.0000e+00
      1.325    23.6437     8.8561    104.321  32.485069     33.359      8.979   228.0023     1.4272     1.5487     0.0226      0.127      1.293      1.876        374 3.6286e+02   997.4060 0.0000e+00
      1.334    23.6409     8.8653    104.274  32.441570     33.363      8.971   228.4187     1.4424     1.5199     0.0226      0.126      1.310      1.899        375 3.6552e+02   997.4074 0.0000e+00
      1.347    23.6389     8.8791    104.198  32.434995     33.308      8.968   228.7594     1.5187     1.3324     0.0226      0.119      1.325      1.922        376 3.7909e+02   997.4085 0.0000e+00
      1.374    23.6378     8.8883    103.925  32.433998     33.367      8.964   230.6901     1.5035     1.2748     0.0226      0.111      1.349      1.956        377 3.3286e+02   997.4093 0.0000e+00
      1.406    23.6314     8.8925    103.518  32.383556     33.254      8.961   231.0687     1.5263     1.4334     0.0226      0.105      1.380      2.000        378 3.3152e+02   997.4099 0.0000e+00
      1.441    23.6215     8.9262    103.607  32.438513     33.369      8.956   230.9173     1.5149     1.3324     0.0226      0.101      1.411      2.045        379 3.4289e+02   997.4104 0.0000e+00
      1.467    23.6162     9.1015    105.446  32.424862     33.316      8.950   230.0466     1.5187     1.2748     0.0226      0.097      1.436      2.083        380 3.2065e+02   997.4120 0.0000e+00
      1.483    23.6102     9.4416    109.391  32.400547     33.324      8.948   229.7816     1.4310     1.3324     0.0226      0.095      1.457      2.113        381 3.2003e+02   997.4144 0.0000e+00
      1.508    23.6031     9.8856    114.822  32.468777     33.384      8.944   230.2359     1.4539     1.2892     0.0226      0.097      1.483      2.151        382 2.9745e+02   997.4159 0.0000e+00
      1.546    23.5873    10.4270    121.372  32.458468     33.389      8.940   231.9016     1.4424     1.3324     0.0226      0.105      1.516      2.199        383 2.9547e+02   997.4175 0.0000e+00
      1.583    23.5433    10.8519    126.420  32.413379     33.336      8.934   231.8637     1.4882     1.3036     0.0226      0.112      1.549      2.247        384 3.1125e+02   997.4194 0.0000e+00
      1.608    23.4638    11.1127    129.402  32.347122     33.289      8.929   232.1666     1.4767     1.2892     0.0226      0.112      1.575      2.285        385 3.0370e+02   997.4233 0.0000e+00
      1.628    23.3424    11.1799    130.174  32.244647     33.204      8.924   232.1287     1.5149     1.4045     0.0225      0.110      1.596      2.315        386 2.9468e+02   997.4340 0.0000e+00
      1.648    23.1475    11.1159    129.444  32.037245     33.057      8.919   231.2580     1.5035     1.4334     0.0224      0.107      1.616      2.345        387 2.9519e+02   997.4533 0.0000e+00
      1.671    22.9209    10.9851    127.956  31.568285     32.649      8.915   231.4851     1.5111     1.2748     0.0222      0.105      1.635      2.372        388 3.0856e+02   997.4825 0.0000e+00
      1.684    22.7637    10.8354    126.102  31.169168     32.345      8.905   232.3559     1.5607     1.3036     0.0221      0.101      1.650      2.393        389 2.8598e+02   997.5291 0.0000e+00
      1.691    22.6680    10.6782    124.102  31.082280     32.444      8.905   233.0752     1.5683     1.3469     0.0220      0.089      1.662      2.411        390 2.6117e+02   997.5828 0.0000e+00
      1.711    22.6732    10.5582    122.566  31.054335     32.490      8.902   233.6809     1.5569     1.4622     0.0220      0.077      1.678      2.434        391 2.7071e+02   997.6200 0.0000e+00
      1.731    22.7971    10.5233    122.006  31.470658     32.995      8.904   233.5294     1.5683     1.3757     0.0222      0.069      1.695      2.458        392 2.7164e+02   997.6427 0.0000e+00
      1.742    22.9148    10.5417    122.117  31.897438     33.492      8.902   233.1887     1.5530     1.3757     0.0224      0.065      1.707      2.476        393 2.5648e+02   997.6416 0.0000e+00
      1.749    22.9526    10.6340    123.108  31.856445     33.283      8.901   233.3023     1.5607     1.2603     0.0223      0.060      1.715      2.488        394 2.5770e+02   997.6125 0.0000e+00
      1.756    22.9365    10.7420    124.190  31.669767     33.087      8.899   232.8101     1.5721     1.3324     0.0223      0.054      1.723      2.499        395 2.7028e+02   997.5848 0.0000e+00
      1.766    22.9271    10.8220    124.976  31.507532     32.796      8.895   233.9837     1.5988     1.3901     0.0222      0.049      1.731      2.511        396 2.7093e+02   997.5759 0.0000e+00
      1.776    22.9381    10.8630    125.375  31.584285     32.986      8.895   233.8702     1.5683     1.3901     0.0223      0.046      1.741      2.525        397 2.5936e+02   997.5798 0.0000e+00
      1.785    22.9471    10.8842    125.436  31.603876     32.931      8.893   234.7409     1.5683     1.3324     0.0222      0.043      1.751      2.539        398 2.6108e+02   997.5820 0.0000e+00
      1.795    22.9044    10.8721    125.120  31.483152     32.869      8.894   234.6273     1.5759     1.3180     0.0222      0.038      1.760      2.552        399 2.7767e+02   997.5794 0.0000e+00
      1.801    22.8321    10.8378    124.627  31.378994     32.684      8.887   235.1573     1.5988     1.3469     0.0221      0.035      1.767      2.562        400 2.5615e+02   997.5772 0.0000e+00
      1.809    22.7703    10.8084    124.189  31.348346     32.745      8.888   232.3937     1.5874     1.3324     0.0222      0.034      1.775      2.573        401 2.6040e+02   997.5874 0.0000e+00
      1.818    22.7050    10.8031    124.088  31.313917     32.706      8.886   233.3023     1.5721     1.3324     0.0221      0.034      1.783      2.586        402 2.8039e+02   997.6045 0.0000e+00
      1.827    22.6614    10.8282    124.436  31.273731     32.748      8.884   233.4916     1.5683     1.3180     0.0221      0.034      1.791      2.598        403 2.5567e+02   997.6190 0.0000e+00
      1.836    22.6259    10.9108    125.310  31.220623     32.706      8.882   235.0816     1.5683     1.2892     0.0221      0.033      1.800      2.611        404 2.5925e+02   997.6343 0.0000e+00
      1.845    22.5564    10.9974    126.252  31.143019     32.677      8.886   235.0059     1.5797     1.3757     0.0221      0.033      1.809      2.623        405 2.6797e+02   997.6445 0.0000e+00
      1.853    22.4998    11.1008    127.357  31.162939     32.700      8.885   235.4223     1.5683     1.3036     0.0221      0.033      1.817      2.635        406 2.5496e+02   997.6529 0.0000e+00
      1.861    22.4644    11.2203    128.460  31.195853     32.808      8.885   231.7880     1.5492     1.2748     0.0221      0.033      1.825      2.647        407 2.5062e+02   997.6691 0.0000e+00
      1.869    22.3913    11.3816    130.023  31.102083     32.731      8.885   232.7344     1.5683     1.3036     0.0220      0.034      1.832      2.658        408 2.5215e+02   997.6823 0.0000e+00
      1.875    22.3172    11.5615    131.941  31.042642     32.693      8.886   233.2644     1.5607     1.3901     0.0220      0.033      1.839      2.668        409 2.5411e+02   997.6904 0.0000e+00
      1.883    22.2762    11.7348    133.893  31.032834     32.746      8.886   235.1573     1.5569     1.3324     0.0220      0.032      1.847      2.679        410 2.5488e+02   997.7074 0.0000e+00
      1.891    22.2328    11.9264    136.062  30.877304     32.620      8.889   235.0816     1.5759     1.3036     0.0219      0.031      1.854      2.690        411 2.5001e+02   997.7246 0.0000e+00
      1.899    22.2204    12.1430    138.415  30.821452     32.589      8.885   235.5359     1.5530     1.4189     0.0219      0.030      1.861      2.700        412 2.4540e+02   997.7340 0.0000e+00
      1.904    22.2380    12.3637    140.677  30.954230     32.766      8.881   232.3559     1.5721     1.2459     0.0220      0.029      1.868      2.710        413 2.4925e+02   997.7440 0.0000e+00
      1.913    22.2133    12.5757    142.550  30.978719     32.807      8.882   232.3937     1.5187     1.4045     0.0220      0.029      1.878      2.724        414 2.5294e+02   997.7469 0.0000e+00
      1.928    22.1888    12.7373    143.767  30.879860     32.672      8.881   233.9080     1.5073     1.3324     0.0219      0.031      1.892      2.744        415 2.4785e+02   997.7429 0.0000e+00
      1.947    22.1540    12.8476    144.607  30.662486     32.486      8.879   234.1730     1.5149     1.3036     0.0219      0.035      1.910      2.770        416 2.4656e+02   997.7486 0.0000e+00
      1.969    22.0473    12.9573    145.471  30.478959     32.264      8.880   234.4002     1.5035     1.3757     0.0218      0.043      1.929      2.797        417 2.4148e+02   997.7542 0.0000e+00
      1.984    21.9356    13.0612    146.242  30.367615     32.228      8.875   236.2173     1.5645     1.4045     0.0217      0.050      1.944      2.819        418 2.3539e+02   997.7622 0.0000e+00
      1.993    21.8802    13.1350    146.755  30.119679     31.976      8.873   236.0659     1.5721     1.2459     0.0216      0.054      1.954      2.833        419 2.4741e+02   997.7865 0.0000e+00
      2.000    21.8710    13.2037    147.200  29.958035     31.934      8.868   233.2266     1.5759     1.3613     0.0215      0.056      1.959      2.842        420 2.3316e+02   997.8118 0.0000e+00
      2.001    21.8624    13.2522    147.461  30.005935     31.971      8.862   233.4159     1.5569     1.2459     0.0215      0.053      1.963      2.847        421 2.3236e+02   997.8244 0.0000e+00
      2.004    21.8206    13.2741    147.472  30.060091     32.097      8.862   232.5073     1.5492     1.3613     0.0216      0.047      1.968      2.854        422 2.4528e+02   997.8265 0.0000e+00
      2.015    21.7235    13.2853    147.329  29.890649     31.863      8.859   232.6209     1.5759     1.3324     0.0215      0.039      1.978      2.869        423 2.2839e+02   997.8285 0.0000e+00
      2.032    21.5309    13.2807    146.953  29.594683     31.625      8.863   233.9459     1.5721     1.3324     0.0214      0.034      1.993      2.891        424 2.2274e+02   997.8378 0.0000e+00
      2.051    21.3143    13.2484    146.310  29.332314     31.359      8.863   234.0973     1.5645     1.3180     0.0212      0.034      2.009      2.913        425 2.2375e+02   997.8595 0.0000e+00
      2.061    21.1678    13.1812    145.407  29.209970     31.401      8.858   232.9237     1.5607     1.2748     0.0212      0.037      2.023      2.933        426 2.2047e+02   997.9026 0.0000e+00
      2.076    21.0370    13.0868    144.385  29.095276     31.399      8.864   232.4694     1.6408     1.4766     0.0211      0.042      2.038      2.955        427 2.1415e+02   997.9506 0.0000e+00
      2.097    20.9019    13.0317    143.594  28.971520     31.376      8.869   232.4694     1.6408     1.5487     0.0211      0.050      2.057      2.983        428 2.1547e+02   997.9828 0.0000e+00
      2.117    20.7898    12.9739    142.863  28.919686     31.404      8.873   232.3937     1.6408     1.5055     0.0211      0.059      2.076      3.011        429 2.1591e+02   998.0113 0.0000e+00
      2.135    20.6809    12.9265    142.229  28.833974     31.407      8.875   232.9994     1.6255     1.5343     0.0210      0.065      2.094      3.038        430 2.0701e+02   998.0406 0.0000e+00
      2.154    20.5834    12.9161    141.624  28.722754     31.360      8.876   233.3023     1.7094     1.3469     0.0210      0.068      2.112      3.063        431 2.0421e+02   998.0648 0.0000e+00
      2.171    20.5044    12.9244    141.073  28.613790     31.314      8.874   233.9837     1.7247     1.3613     0.0209      0.069      2.127      3.085        432 2.0324e+02   998.0882 0.0000e+00
      2.182    20.4097    12.9198    140.429  28.554891     31.319      8.875   233.3780     1.7171     1.4334     0.0209      0.069      2.140      3.105        433 2.0017e+02   998.1089 0.0000e+00
      2.195    20.3018    12.8967    139.672  28.499856     31.313      8.877   234.0216     1.6789     1.3324     0.0209      0.068      2.154      3.125        434 1.9721e+02   998.1257 0.0000e+00
      2.214    20.1992    12.8621    138.870  28.445330     31.315      8.874   231.6744     1.5836     1.2603     0.0208      0.066      2.173      3.152        435 1.9480e+02   998.1458 0.0000e+00
      2.238    20.1506    12.8326    138.108  28.356178     31.300      8.873   230.9551     1.6179     1.4910     0.0208      0.065      2.194      3.182        436 1.9003e+02   998.1686 0.0000e+00
      2.258    20.1464    12.8071    137.304  28.314615     31.306      8.873   231.9016     1.6065     1.3469     0.0208      0.066      2.214      3.211        437 1.9233e+02   998.1901 0.0000e+00
      2.278    20.0915    12.7969    136.616  28.289730     31.345      8.868   231.7501     1.6408     1.3180     0.0208      0.069      2.232      3.238        438 1.9014e+02   998.2003 0.0000e+00
      2.292    20.0548    12.8003    136.088  28.209428     31.217      8.860   233.0373     1.6141     1.6064     0.0207      0.070      2.246      3.258        439 1.8223e+02   998.2012 0.0000e+00
      2.300    20.0117    12.7902    135.474  28.236822     31.323      8.853   232.8859     1.6293     1.6208     0.0207      0.069      2.258      3.275        440 1.8071e+02   998.2126 0.0000e+00
      2.317    19.8414    12.7862    134.990  28.196409     31.284      8.856   232.7723     1.6179     1.7218     0.0207      0.069      2.275      3.299        441 1.7502e+02   998.2204 0.0000e+00
      2.341    19.6141    12.7753    134.514  28.022757     31.125      8.855   232.1666     1.6599     1.6208     0.0206      0.069      2.296      3.331        442 1.7547e+02   998.2293 0.0000e+00
      2.368    19.4036    12.7677    134.021  27.830883     31.028      8.857   232.4694     1.6179     1.5055     0.0205      0.069      2.321      3.367        443 1.7071e+02   998.2643 0.0000e+00
      2.394    19.2236    12.7552    133.304  27.724314     31.061      8.853   232.8480     1.5759     1.8804     0.0205      0.072      2.345      3.402        444 1.6340e+02   998.3107 0.0000e+00
      2.413    19.0706    12.7243    132.520  27.711126     31.209      8.855   234.6652     1.5759     1.8948     0.0205      0.076      2.367      3.433        445 1.6653e+02   998.3531 0.0000e+00
      2.435    18.9115    12.7022    131.709  27.610398     31.210      8.862   237.7694     1.5950     1.8660     0.0204      0.080      2.389      3.465        446 1.6122e+02   998.3890 0.0000e+00
      2.460    18.7215    12.6625    130.798  27.494274     31.191      8.861   238.1480     1.5836     1.8083     0.0203      0.086      2.413      3.500        447 1.5538e+02   998.4193 0.0000e+00
      2.487    18.5138    12.6258    130.049  27.352128     31.145      8.863   239.1323     1.5073     1.8515     0.0203      0.092      2.439      3.537        448 1.5197e+02   998.4506 0.0000e+00
      2.515    18.3110    12.6298    129.501  27.194922     31.089      8.867   239.8516     1.5187     1.8227     0.0202      0.095      2.465      3.574        449 1.4778e+02   998.4874 0.0000e+00
      2.538    18.1290    12.6153    128.911  27.127174     31.173      8.864   240.0409     1.5111     1.8227     0.0201      0.096      2.487      3.608        450 1.4603e+02   998.5273 0.0000e+00
      2.557    17.9689    12.6044    128.386  27.081059     31.255      8.866   240.5709     1.5111     1.7073     0.0201      0.094      2.508      3.638        451 1.4309e+02   998.5657 0.0000e+00
      2.579    17.8404    12.5767    127.709  27.045039     31.355      8.868   242.1987     1.8582     1.8083     0.0201      0.094      2.530      3.671        452 1.3975e+02   998.6000 0.0000e+00
      2.605    17.6845    12.5248    126.859  26.935100     31.341      8.869   242.3880     1.8887     1.8515     0.0200      0.095      2.555      3.706        453 1.3644e+02   998.6298 0.0000e+00
      2.632    17.4823    12.4454    125.750  26.714376     31.176      8.868   243.1073     1.8620     1.7794     0.0199      0.095      2.581      3.744        454 1.3370e+02   998.6534 0.0000e+00
      2.661    17.3061    12.3298    124.303  26.608874     31.155      8.865   243.7130     1.9040     1.7939     0.0199      0.096      2.608      3.784        455 1.3092e+02   998.6820 0.0000e+00
      2.687    17.0988    12.2031    122.766  26.592520     31.310      8.864   244.5838     1.9765     1.7506     0.0198      0.097      2.634      3.821        456 1.2822e+02   998.7185 0.0000e+00
      2.710    16.9193    12.0777    121.259  26.468211     31.269      8.866   244.5459     1.9841     1.8083     0.0198      0.097      2.658      3.855        457 1.2675e+02   998.7500 0.0000e+00
      2.734    16.7732    11.9678    120.001  26.467438     31.426      8.872   245.1516     2.0070     1.8083     0.0198      0.099      2.683      3.892        458 1.2428e+02   998.7866 0.0000e+00
      2.765    16.5688    11.8611    118.870  26.386208     31.497      8.871   246.3630     2.0375     1.8948     0.0197      0.102      2.712      3.934        459 1.2184e+02   998.8180 0.0000e+00
      2.798    16.3983    11.8018    118.069  26.154682     31.265      8.873   246.2873     2.1748     1.2459     0.0196      0.105      2.742      3.977        460 1.2035e+02   998.8431 0.0000e+00
      2.827    16.2501    11.7458    117.237  26.103984     31.428      8.874   246.5523     2.1825     1.2892     0.0196      0.107      2.769      4.017        461 1.1839e+02   998.8780 0.0000e+00
      2.849    16.1029    11.7030    116.597  26.005063     31.383      8.878   247.0066     2.2130     1.4478     0.0195      0.107      2.792      4.050        462 1.1759e+02   998.9068 0.0000e+00
      2.866    15.9830    11.6892    116.225  25.863171     31.363      8.876   247.2338     2.1825     1.3901     0.0194      0.105      2.812      4.078        463 1.1668e+02   998.9314 0.0000e+00
      2.887    15.8692    11.6792    115.924  25.777086     31.339      8.877   248.1423     2.1634     1.3180     0.0194      0.102      2.832      4.107        464 1.1510e+02   998.9557 0.0000e+00
      2.910    15.7639    11.6796    115.765  25.756809     31.430      8.877   248.4452     2.2626     0.7845     0.0194      0.099      2.855      4.141        465 1.1323e+02   998.9753 0.0000e+00
      2.938    15.6647    11.7011    115.828  25.769969     31.518      8.875   248.8238     2.2473     0.7989     0.0193      0.096      2.882      4.180        466 1.1058e+02   998.9939 0.0000e+00
      2.970    15.5698    11.7266    115.917  25.701508     31.531      8.871   248.9373     2.2511     0.8998     0.0193      0.094      2.911      4.221        467 1.0852e+02   999.0109 0.0000e+00
      2.995    15.5119    11.7597    116.038  25.605090     31.471      8.870   249.0131     2.2550     0.9287     0.0192      0.094      2.936      4.259        468 1.0674e+02   999.0268 0.0000e+00
      3.019    15.4833    11.7982    116.194  25.593801     31.544      8.867   249.5052     2.2893     0.6259     0.0192      0.096      2.961      4.295        469 1.0465e+02   999.0419 0.0000e+00
      3.047    15.4036    11.8074    116.072  25.656349     31.660      8.868   249.9973     2.2931     0.6835     0.0193      0.100      2.989      4.335        470 1.0275e+02   999.0511 0.0000e+00
      3.080    15.2974    11.7964    115.793  25.586510     31.610      8.868   250.2245     2.3046     0.6403     0.0192      0.105      3.020      4.380        471 1.0078e+02   999.0558 0.0000e+00
      3.113    15.2102    11.7784    115.439  25.473395     31.501      8.867   250.9816     2.3160     0.6259     0.0192      0.110      3.052      4.427        472 9.8383e+01   999.0684 0.0000e+00
      3.146    15.1189    11.7681    115.082  25.382475     31.516      8.865   251.0195     2.4953     0.7845     0.0191      0.114      3.082      4.469        473 9.7472e+01   999.0849 0.0000e+00
      3.167    15.0371    11.7602    114.691  25.255406     31.374      8.865   250.6409     2.4686     0.7845     0.0190      0.114      3.104      4.502        474 9.7480e+01   999.0983 0.0000e+00
      3.183    14.9721    11.7365    114.139  25.276133     31.517      8.863   250.8302     2.4762     0.9143     0.0191      0.110      3.122      4.528        475 9.5868e+01   999.1124 0.0000e+00
      3.201    14.9122    11.7107    113.581  25.238235     31.511      8.863   250.9059     2.5067     0.9575     0.0190      0.106      3.141      4.557        476 9.4384e+01   999.1249 0.0000e+00
      3.226    14.8462    11.6626    112.857  25.184123     31.492      8.864   250.9438     2.5601     0.6259     0.0190      0.102      3.166      4.592        477 9.3765e+01   999.1348 0.0000e+00
      3.259    14.7649    11.5967    112.007  25.106547     31.470      8.860   251.4359     2.5563     0.6259     0.0190      0.098      3.197      4.637        478 9.1838e+01   999.1439 0.0000e+00
      3.295    14.6760    11.5184    111.030  24.949754     31.276      8.857   251.5495     2.5640     0.6547     0.0189      0.098      3.229      4.684        479 8.9890e+01   999.1539 0.0000e+00
      3.327    14.5924    11.4171    109.745  24.875756     31.306      8.858   252.7609     2.5601     0.6547     0.0188      0.100      3.258      4.725        480 8.8675e+01   999.1661 0.0000e+00
      3.344    14.5240    11.3053    108.250  24.784005     31.200      8.852   251.7009     2.7051     0.7701     0.0188      0.102      3.278      4.755        481 8.8083e+01   999.1792 0.0000e+00
      3.359    14.4529    11.1691    106.515  24.797401     31.337      8.856   252.4202     2.6822     0.5682     0.0188      0.103      3.297      4.783        482 8.7290e+01   999.1916 0.0000e+00
      3.386    14.3515    11.0336    104.861  24.770259     31.320      8.856   252.1552     2.6708     0.5826     0.0187      0.104      3.322      4.818        483 8.5272e+01   999.2016 0.0000e+00
      3.418    14.2268    10.9045    103.367  24.640099     31.234      8.853   252.0416     2.6822     0.7412     0.0187      0.104      3.352      4.861        484 8.3930e+01   999.2120 0.0000e+00
      3.449    14.0986    10.7766    101.977  24.574374     31.209      8.851   252.6852     2.6555     0.6259     0.0186      0.103      3.382      4.906        485 8.2545e+01   999.2268 0.0000e+00
      3.481    13.9764    10.6532    100.832  24.555906     31.308      8.852   252.8366     2.9111     0.8133     0.0186      0.103      3.412      4.949        486 8.1109e+01   999.2447 0.0000e+00
      3.508    13.8724    10.5700    100.072  24.544650     31.375      8.851   254.0102     2.9340     0.8422     0.0186      0.104      3.436      4.985        487 8.0798e+01   999.2629 0.0000e+00
      3.523    13.7859    10.5253     99.612  24.440334     31.367      8.851   253.5559     2.8958     0.8133     0.0185      0.104      3.455      5.011        488 7.9947e+01   999.2798 0.0000e+00
      3.538    13.6958    10.4759     99.051  24.359969     31.307      8.849   253.8588     2.9454     0.8854     0.0185      0.103      3.473      5.037        489 7.8986e+01   999.2942 0.0000e+00
      3.564    13.5674    10.4547     98.675  24.378139     31.448      8.849   253.9724     3.0751     0.6114     0.0185      0.101      3.496      5.071        490 7.8359e+01   999.3062 0.0000e+00
      3.593    13.3947    10.4265     98.213  24.240047     31.305      8.848   254.0481     3.0484     0.6835     0.0184      0.097      3.522      5.109        491 7.6756e+01   999.3185 0.0000e+00
      3.619    13.2124    10.4097     97.840  24.087590     31.227      8.847   252.9881     3.0446     0.6547     0.0183      0.094      3.547      5.146        492 7.5819e+01   999.3359 0.0000e+00
      3.641    13.0601    10.3816     97.266  24.034797     31.297      8.845   253.3666     3.0675     0.6980     0.0183      0.091      3.570      5.178        493 7.5541e+01   999.3589 0.0000e+00
      3.662    12.9411    10.3340     96.548  23.980010     31.372      8.846   257.1524     3.5482     0.8998     0.0182      0.089      3.591      5.209        494 7.4547e+01   999.3828 0.0000e+00
      3.686    12.8689    10.2450     95.524  23.918890     31.427      8.844   256.4331     3.5558     0.8710     0.0182      0.091      3.611      5.237        495 7.3892e+01   999.4024 0.0000e+00
      3.697    12.8730    10.1416     94.421  23.873973     31.449      8.846   256.0924     3.5291     0.8710     0.0182      0.090      3.624      5.257        496 7.3500e+01   999.4175 0.0000e+00
      3.704    12.8875     9.9992     92.981  23.976713     31.661      8.844   256.5088     3.5329     0.9143     0.0182      0.084      3.637      5.275        497 7.2781e+01   999.4267 0.0000e+00
      3.727    12.8703     9.8345     91.339  24.027991     31.726      8.845   256.8116     3.4566     0.6403     0.0182      0.078      3.658      5.306        498 7.1675e+01   999.4263 0.0000e+00
      3.760    12.8282     9.6531     89.532  23.928631     31.568      8.840   254.9945     3.4185     0.6691     0.0182      0.075      3.686      5.346        499 7.0293e+01   999.4246 0.0000e+00
      3.788    12.7489     9.4533     87.535  23.922659     31.582      8.842   255.2595     3.4070     0.6259     0.0182      0.077      3.713      5.385        500 6.9392e+01   999.4268 0.0000e+00
      3.810    12.6618     9.2437     85.443  23.916958     31.617      8.842   259.0452     3.4146     0.6403     0.0182      0.081      3.735      5.417        501 6.8917e+01   999.4323 0.0000e+00
      3.828    12.5613     9.0186     83.201  23.817273     31.536      8.839   258.4395     4.0326     0.8998     0.0181      0.083      3.752      5.443        502 6.8258e+01   999.4421 0.0000e+00
      3.842    12.4241     8.7948     80.966  23.750570     31.536      8.843   259.2724     4.0479     0.9431     0.0181      0.085      3.767      5.464        503 6.7399e+01   999.4529 0.0000e+00
      3.856    12.2980     8.5659     78.695  23.763061     31.618      8.843   258.7045     4.0174     0.8422     0.0181      0.085      3.780      5.483        504 6.7042e+01   999.4652 0.0000e+00
      3.867    12.2092     8.3530     76.630  23.742529     31.737      8.843   257.5309     4.0059     0.8422     0.0181      0.081      3.792      5.501        505 6.6884e+01   999.4818 0.0000e+00
      3.879    12.1440     8.1384     74.581  23.716931     31.768      8.844   257.3416     4.0021     0.8710     0.0180      0.072      3.805      5.518        506 6.6207e+01   999.4968 0.0000e+00
      3.893    12.0901     7.9167     72.470  23.794957     31.994      8.843   257.3416     4.1967     0.8422     0.0181      0.062      3.819      5.539        507 6.5760e+01   999.5073 0.0000e+00
      3.910    12.0365     7.6868     70.305  23.823159     32.050      8.842   257.2659     4.1852     0.7412     0.0181      0.056      3.837      5.564        508 6.5043e+01   999.5150 0.0000e+00
      3.934    11.9763     7.4406     67.999  23.829942     32.134      8.842   261.0517     4.2157     0.8710     0.0181      0.057      3.857      5.594        509 6.3874e+01   999.5214 0.0000e+00
      3.953    11.9050     7.2254     65.963  23.816150     32.143      8.843   260.7109     4.2043     0.7845     0.0181      0.060      3.877      5.623        510 6.3298e+01   999.5276 0.0000e+00
      3.971    11.8270     7.0359     64.158  23.692255     32.044      8.840   260.8624     4.2119     1.0296     0.0180      0.064      3.898      5.653        511 6.2455e+01   999.5345 0.0000e+00
      3.999    11.7427     6.9396     63.218  23.776828     32.182      8.840   259.9159     4.1890     0.8710     0.0180      0.070      3.923      5.689        512 6.1276e+01   999.5428 0.0000e+00
      4.028    11.6499     6.9163     62.977  23.770158     32.326      8.838   260.1431     4.1967     0.8133     0.0180      0.079      3.950      5.729        513 6.0360e+01   999.5517 0.0000e+00
      4.055    11.5608     6.9816     63.577  23.611734     32.058      8.839   260.4838     4.2043     0.9431     0.0179      0.087      3.976      5.766        514 5.9547e+01   999.5612 0.0000e+00
      4.078    11.4979     7.1393     64.969  23.825929     32.558      8.838   260.0295     5.3258     0.9719     0.0181      0.092      3.998      5.799        515 5.8821e+01   999.5716 0.0000e+00
      4.098    11.4503     7.3150     66.523  23.799795     32.524      8.836   262.0738     5.3144     0.9143     0.0180      0.095      4.017      5.827        516 5.8192e+01   999.5814 0.0000e+00
      4.113    11.4037     7.5097     68.274  23.555432     32.273      8.835   262.5281     5.3068     0.7845     0.0179      0.093      4.032      5.848        517 5.7985e+01   999.5882 0.0000e+00
      4.123    11.3658     7.6583     69.611  23.508099     32.239      8.835   262.6038     5.2991     0.8710     0.0178      0.088      4.045      5.868        518 5.7565e+01   999.5934 0.0000e+00
      4.140    11.3312     7.7528     70.468  23.444081     32.204      8.834   262.6038     5.5738     0.8710     0.0178      0.082      4.064      5.894        519 5.6731e+01   999.5985 0.0000e+00
      4.169    11.2856     7.7755     70.693  23.279715     32.007      8.833   262.7552     5.5662     0.8998     0.0177      0.077      4.090      5.932        520 5.5616e+01   999.6025 0.0000e+00
      4.204    11.2351     7.7471     70.460  23.090718     31.768      8.827   261.6952     5.5662     0.7989     0.0176      0.078      4.119      5.976        521 5.4487e+01   999.6062 0.0000e+00
      4.230    11.1920     7.6838     69.902  23.027740     31.731      8.827   261.9981     5.5547     0.9143     0.0175      0.081      4.144      6.012        522 5.3961e+01   999.6111 0.0000e+00
      4.245    11.1749     7.6147     69.298  23.091558     31.853      8.824   262.9067     5.6196     0.8133     0.0176      0.084      4.163      6.038        523 5.3398e+01   999.6165 0.0000e+00
      4.262    11.1743     7.5520     68.769  23.129777     31.967      8.823   263.9667     5.6348     0.8854     0.0176      0.087      4.181      6.065        524 5.2546e+01   999.6211 0.0000e+00
      4.286    11.1481     7.5104     68.415  23.098655     31.907      8.822   264.6102     5.6310     0.9864     0.0176      0.090      4.202      6.095        525 5.1796e+01   999.6231 0.0000e+00
      4.308    11.1179     7.5032     68.341  23.130296     31.982      8.821   264.7617     5.6043     0.8566     0.0176      0.092      4.222      6.123        526 5.1324e+01   999.6232 0.0000e+00
      4.319    11.1054     7.4934     68.225  23.090403     31.930      8.820   264.4588     5.6119     0.8422     0.0176      0.087      4.234      6.140        527 5.1206e+01   999.6259 0.0000e+00
      4.324    11.0968     7.4970     68.189  23.089075     31.956      8.821   263.7774     5.8599     1.1738     0.0176      0.076      4.239      6.148        528 5.1119e+01   999.6290 0.0000e+00
      4.326    11.0962     7.5125     68.253  23.131956     32.045      8.817   263.6260     5.8828     1.0873     0.0176      0.063      4.242      6.152        529 5.0907e+01   999.6303 0.0000e+00
      4.329    11.1073     7.5261     68.337  23.155508     32.052      8.817   263.8910     5.8370     1.0008     0.0176      0.052      4.244      6.156        530 5.0795e+01   999.6313 0.0000e+00
      4.329    11.1224     7.5243     68.301  23.148618     32.092      8.814   263.7774     5.8599     1.0440     0.0176      0.042      4.245      6.157        531 5.0782e+01   999.6313 0.0000e+00
      4.327    11.1336     7.5264     68.306  23.110916     31.966      8.813   264.1938     5.8904     1.1450     0.0176      0.029      4.246      6.158        532 5.0634e+01   999.6301 0.0000e+00
      4.331    11.1493     7.4963     68.001  23.202424     32.145      8.811   264.4967     5.9324     1.1450     0.0177      0.017      4.248      6.161        533 5.0343e+01   999.6287 0.0000e+00
      4.335    11.1752     7.4549     67.570  23.242046     32.135      8.810   264.5345     5.9057     1.1017     0.0177      0.010      4.251      6.165        534 5.0303e+01   999.6276 0.0000e+00
      4.337    11.1902     7.4058     67.094  23.268915     32.199      8.810   265.0267     5.9057     1.1017     0.0177      0.007      4.253      6.169        535 5.0133e+01   999.6259 0.0000e+00
      4.340    11.1858     7.3438     66.559  23.228212     32.098      8.810   265.2160     5.7989     1.0152     0.0177      0.007      4.257      6.175        536 4.9697e+01   999.6232 0.0000e+00
      4.347    11.1678     7.2880     66.085  23.144613     31.969      8.806   265.0267     5.7912     0.9431     0.0176      0.009      4.264      6.185        537 4.9140e+01   999.6217 0.0000e+00
      4.357    11.1247     7.2338     65.613  23.224869     32.089      8.807   262.7174     5.7912     0.9719     0.0177      0.013      4.276      6.202        538 4.8297e+01   999.6222 0.0000e+00
      4.377    11.0767     7.1965     65.279  23.217185     32.104      8.810   263.7395     5.8065     0.8422     0.0177      0.021      4.296      6.230        539 4.6889e+01   999.6242 0.0000e+00
      4.407    11.0511     7.1743     65.088  23.094949     31.950      8.808   264.0424     5.7912     0.8566     0.0176      0.033      4.319      6.264        540 4.5125e+01   999.6288 0.0000e+00
      4.426    11.0394     7.1698     65.006  23.021608     31.916      8.805   264.4588     5.8141     0.9287     0.0175      0.045      4.337      6.290        541 4.3628e+01   999.6337 0.0000e+00
      4.434    11.0297     7.1689     64.925  23.041925     31.938      8.800   265.6702     5.7912     0.8998     0.0175      0.054      4.349      6.308        542 4.2220e+01   999.6364 0.0000e+00
      4.446    11.0096     7.1688     64.861  23.069672     32.026      8.800   265.7460     5.7836     0.8566     0.0176      0.060      4.360      6.324        543 4.1129e+01   999.6377 0.0000e+00
      4.457    10.9741     7.1706     64.822  23.046312     31.957      8.799   265.9731     5.7760     1.1306     0.0175      0.063      4.371      6.339        544 4.0272e+01   999.6386 0.0000e+00
      4.467    10.9555     7.1702     64.770  23.071000     32.052      8.800   263.3231     6.0697     1.0873     0.0176      0.062      4.382      6.355        545 3.9967e+01   999.6408 0.0000e+00
      4.480    10.9704     7.1464     64.508  23.038956     32.006      8.796   264.1181     6.1117     1.0873     0.0175      0.058      4.394      6.374        546 4.0101e+01   999.6444 0.0000e+00
      4.495    10.9929     7.1243     64.285  23.026969     32.024      8.796   264.6102     6.1079     1.1450     0.0175      0.052      4.408      6.393        547 4.0013e+01   999.6464 0.0000e+00
      4.508    11.0041     7.0841     63.893  23.085924     32.086      8.797   264.7238     6.0964     1.1161     0.0176      0.048      4.420      6.411        548 3.9886e+01   999.6450 0.0000e+00
      4.519    11.0092     7.0504     63.558  23.084048     32.068      8.797   265.5188     6.0583     1.0729     0.0176      0.047      4.431      6.427        549 3.9868e+01   999.6427 0.0000e+00
      4.529    11.0132     7.0103     63.132  23.088529     32.056      8.796   265.5188     6.0850     1.2315     0.0176      0.048      4.442      6.443        550 3.9981e+01   999.6416 0.0000e+00
      4.543    10.9875     6.9728     62.706  23.080344     32.054      8.794   265.9731     6.0773     1.1161     0.0176      0.048      4.455      6.462        551 3.9909e+01   999.6411 0.0000e+00
      4.557    10.9393     6.9240     62.193  23.035002     31.970      8.793   266.0867     6.0392     1.1306     0.0175      0.049      4.469      6.482        552 3.9539e+01   999.6408 0.0000e+00
      4.571    10.8967     6.8737     61.689  22.967263     31.917      8.794   264.5345     6.3902     1.0729     0.0175      0.050      4.484      6.503        553 3.8828e+01   999.6435 0.0000e+00
      4.588    10.8609     6.8216     61.186  22.927722     31.882      8.792   265.0267     6.3711     1.2315     0.0175      0.051      4.500      6.527        554 3.7790e+01   999.6483 0.0000e+00
      4.606    10.8273     6.7468     60.487  22.906524     31.920      8.792   264.6860     6.4092     1.0585     0.0175      0.053      4.516      6.550        555 3.6768e+01   999.6527 0.0000e+00
      4.619    10.7983     6.6552     59.644  22.875193     31.874      8.792   265.2538     6.4207     1.0008     0.0174      0.056      4.528      6.567        556 3.6334e+01   999.6564 0.0000e+00
      4.624    10.7798     6.5386     58.584  22.907494     31.981      8.788   265.5945     6.4321     1.1161     0.0174      0.055      4.536      6.578        557 3.6595e+01   999.6597 0.0000e+00
      4.631    10.7617     6.4111     57.437  22.925569     32.009      8.786   266.2760     6.4626     1.1161     0.0174      0.053      4.543      6.588        558 3.7124e+01   999.6626 0.0000e+00
      4.641    10.7392     6.2689     56.162  22.911941     32.024      8.786   266.5788     6.4703     1.0440     0.0174      0.049      4.552      6.603        559 3.7627e+01   999.6645 0.0000e+00
      4.654    10.6964     6.1375     54.981  22.924460     32.041      8.784   265.7460     6.4703     1.1594     0.0174      0.046      4.564      6.620        560 3.8152e+01   999.6663 0.0000e+00
      4.667    10.6360     5.9988     53.726  22.909994     32.060      8.784   266.3517     6.4474     1.3180     0.0174      0.043      4.577      6.639        561 3.8430e+01   999.6686 0.0000e+00
      4.680    10.5849     5.8803     52.651  22.870720     32.021      8.780   266.3138     6.4283     1.4045     0.0174      0.042      4.589      6.657        562 3.8212e+01   999.6728 0.0000e+00
      4.693    10.5491     5.7733     51.690  22.854885     32.075      8.782   266.6167     6.4626     1.3180     0.0174      0.042      4.602      6.675        563 3.7864e+01   999.6788 0.0000e+00
      4.707    10.5234     5.6902     50.953  22.870486     32.122      8.781   266.9574     6.4703     1.5487     0.0174      0.044      4.615      6.694        564 3.7586e+01   999.6838 0.0000e+00
      4.718    10.5039     5.5823     49.982  22.851321     32.154      8.781   267.6010     6.4550     1.3469     0.0174      0.048      4.627      6.711        565 3.7353e+01   999.6873 0.0000e+00
      4.730    10.4884     5.4541     48.824  22.819516     32.098      8.779   267.2981     6.8212     1.4334     0.0174      0.049      4.639      6.728        566 3.6941e+01   999.6897 0.0000e+00
      4.743    10.4775     5.3193     47.596  22.850844     32.195      8.780   267.4874     6.7831     1.3613     0.0174      0.050      4.650      6.745        567 3.6698e+01   999.6917 0.0000e+00
      4.754    10.4739     5.1757     46.286  22.871571     32.209      8.778   267.8660     6.8441     1.4189     0.0174      0.049      4.658      6.757        568 3.6760e+01   999.6932 0.0000e+00
      4.754    10.4739     5.0368     45.034  22.912190     32.297      8.779   268.1688     6.8479     1.3901     0.0174      0.045      4.663      6.763        569 3.6890e+01   999.6942 0.0000e+00
      4.756    10.4704     4.8861     43.689  22.859531     32.222      8.776   268.3203     6.5847     1.1882     0.0174      0.040      4.668      6.771        570 3.6629e+01   999.6946 0.0000e+00
      4.772    10.4603     4.7553     42.516  22.937106     32.301      8.774   268.7367     6.5733     1.1882     0.0174      0.037      4.680      6.789        571 3.5920e+01   999.6947 0.0000e+00
      4.791    10.4489     4.6351     41.415  23.319125     32.894      8.774   269.0017     6.5771     1.1450     0.0177      0.037      4.694      6.808        572 3.5765e+01   999.6953 0.0000e+00
      4.796    10.4474     4.5411     40.553  23.391069     32.982      8.773   269.3045     6.6114     1.0873     0.0177      0.036      4.701      6.818        573 3.5806e+01   999.6963 0.0000e+00
      4.795    10.4518     4.4618     39.823  23.291820     32.835      8.771   269.3045     6.3978     1.0873     0.0176      0.033      4.704      6.823        574 3.5666e+01   999.6973 0.0000e+00
      4.801    10.4488     4.4072     39.320  23.383408     32.994      8.768   269.2667     6.4245     1.1306     0.0177      0.031      4.708      6.829        575 3.5752e+01   999.6975 0.0000e+00
      4.805    10.4396     4.3836     39.076  23.336322     32.911      8.768   269.3803     6.3825     1.0873     0.0177      0.029      4.717      6.842        576 3.5535e+01   999.6972 0.0000e+00
      4.824    10.4207     4.3930     39.117  23.468884     33.071      8.770   269.6831     6.3978     1.1017     0.0177      0.032      4.736      6.869        577 3.4624e+01   999.6975 0.0000e+00
      4.860    10.3981     4.4355     39.459  23.662691     33.434      8.764   270.0995     6.6953     1.0440     0.0179      0.040      4.763      6.908        578 3.3782e+01   999.6987 0.0000e+00
      4.883    10.3874     4.5040     40.045  23.480155     33.097      8.762   270.3645     6.6915     1.0873     0.0177      0.047      4.784      6.939        579 3.3549e+01   999.7005 0.0000e+00
      4.892    10.3906     4.5759     40.664  23.547968     33.277      8.755   270.7053     6.6991     1.1882     0.0178      0.054      4.797      6.959        580 3.3502e+01   999.7026 0.0000e+00
      4.903    10.3857     4.6516     41.305  23.696772     33.484      8.755   270.9324     6.6953     1.1882     0.0179      0.061      4.810      6.978        581 3.2979e+01   999.7038 0.0000e+00
      4.923    10.3610     4.7243     41.924  23.443060     33.126      8.753   270.0238     6.7831     0.8998     0.0177      0.069      4.828      7.003        582 3.2292e+01   999.7035 0.0000e+00
      4.944    10.3349     4.8061     42.647  23.300990     32.892      8.754   270.2888     6.7602     0.8422     0.0176      0.073      4.848      7.031        583 3.1996e+01   999.7040 0.0000e+00
      4.962    10.3139     4.8678     43.200  23.251626     32.918      8.752   270.4403     6.7602     0.8133     0.0176      0.074      4.869      7.061        584 3.1487e+01   999.7063 0.0000e+00
      4.988    10.2939     4.9351     43.787  23.060252     32.585      8.752   270.9703     6.7526     0.9575     0.0175      0.073      4.896      7.101        585 3.0524e+01   999.7087 0.0000e+00
      5.029    10.2595     4.9909     44.247  23.213381     32.883      8.750   272.0681     6.7411     0.8133     0.0176      0.077      4.932      7.153        586 2.9622e+01   999.7110 0.0000e+00
      5.070    10.2133     5.0371     44.615  23.268382     32.978      8.746   272.1438     5.8599     0.8998     0.0176      0.089      4.968      7.206        587 2.8888e+01   999.7130 0.0000e+00
      5.101    10.1740     5.0723     44.895  22.873348     32.418      8.745   272.3331     5.8332     0.8998     0.0174      0.104      4.998      7.248        588 2.8347e+01   999.7161 0.0000e+00
      5.117    10.1491     5.0860     45.007  22.698058     32.222      8.745   270.0238     5.8752     0.9287     0.0173      0.112      5.018      7.278        589 2.8124e+01   999.7204 0.0000e+00
      5.132    10.1274     5.0731     44.878  22.746141     32.339      8.746   270.2131     5.8675     0.8422     0.0173      0.112      5.036      7.304        590 2.7741e+01   999.7240 0.0000e+00
      5.157    10.0949     5.0074     44.280  22.665443     32.242      8.743   271.2731     4.0975     1.5631     0.0172      0.110      5.059      7.337        591 2.7049e+01   999.7264 0.0000e+00
      5.186    10.0691     4.9076     43.366  22.561570     32.103      8.743   271.5760     4.0937     1.5776     0.0172      0.108      5.086      7.376        592 2.6411e+01   999.7284 0.0000e+00
      5.215    10.0656     4.7791     42.182  22.549645     32.132      8.743   271.7274     4.0746     1.5487     0.0172      0.104      5.112      7.415        593 2.6017e+01   999.7314 0.0000e+00
      5.238    10.0708     4.6277     40.805  22.561829     32.157      8.741   271.9167     4.0899     1.6352     0.0172      0.097      5.135      7.447        594 2.5735e+01   999.7339 0.0000e+00
      5.254    10.0602     4.4770     39.442  22.546413     32.159      8.740   272.9010     3.3040     2.2409     0.0172      0.091      5.152      7.473        595 2.5380e+01   999.7342 0.0000e+00
      5.270    10.0276     4.3230     38.055  22.568831     32.155      8.737   272.9767     3.3002     2.2697     0.0172      0.089      5.171      7.501        596 2.5053e+01   999.7339 0.0000e+00
      5.296     9.9871     4.1673     36.658  22.682008     32.363      8.738   269.9481     3.3002     2.2841     0.0173      0.090      5.197      7.539        597 2.4484e+01   999.7350 0.0000e+00
      5.334     9.9589     3.9971     35.139  22.760957     32.474      8.738   270.6295     3.3002     2.2986     0.0173      0.094      5.229      7.586        598 2.3660e+01   999.7381 0.0000e+00
      5.369     9.9478     3.8115     33.486  22.796363     32.590      8.736   270.2888     3.0751     2.2986     0.0173      0.097      5.258      7.627        599 2.3291e+01   999.7418 0.0000e+00
      5.383     9.9354     3.5967     31.578  22.815654     32.618      8.733   270.4403     3.0408     2.2553     0.0173      0.097      5.276      7.652        600 2.3356e+01   999.7444 0.0000e+00
      5.387     9.9188     3.3971     29.809  22.796191     32.626      8.732   270.7810     3.0484     2.2265     0.0173      0.093      5.289      7.671        601 2.3076e+01   999.7454 0.0000e+00
      5.411     9.8878     3.2017     28.083  22.761357     32.559      8.730   272.2574     3.0751     2.2409     0.0173      0.091      5.313      7.706        602 2.2320e+01   999.7465 0.0000e+00
      5.456     9.8395     3.0330     26.592  22.740545     32.574      8.733   272.6360     3.1209     2.0102     0.0173      0.096      5.352      7.762        603 2.1444e+01   999.7482 0.0000e+00
      5.504     9.7967     2.8921     25.342  22.881329     32.763      8.733   270.0995     3.1324     2.0534     0.0173      0.104      5.394      7.823        604 2.0829e+01   999.7512 0.0000e+00
      5.540     9.7610     2.7774     24.321  23.267334     33.410      8.730   270.4024     3.1247     2.0102     0.0176      0.110      5.429      7.874        605 2.0415e+01   999.7557 0.0000e+00
      5.564     9.7271     2.7016     23.642  23.444835     33.691      8.728   269.9860     3.1247     2.0246     0.0177      0.114      5.455      7.912        606 2.0032e+01   999.7596 0.0000e+00
      5.586     9.6965     2.6400     23.101  23.282389     33.485      8.729   270.3645     3.1056     1.9236     0.0176      0.118      5.479      7.947        607 1.9656e+01   999.7627 0.0000e+00
      5.611     9.6703     2.6207     22.932  23.232571     33.437      8.727   270.3645     3.0027     1.3324     0.0175      0.124      5.503      7.982        608 1.9252e+01   999.7657 0.0000e+00
      5.639     9.6437     2.6229     22.943  23.329143     33.628      8.725   271.2731     2.9759     1.2171     0.0176      0.126      5.531      8.022        609 1.8745e+01   999.7684 0.0000e+00
      5.671     9.6156     2.6592     23.248  23.221453     33.492      8.728   271.1974     2.9721     1.3613     0.0175      0.121      5.561      8.065        610 1.8149e+01   999.7708 0.0000e+00
      5.702     9.5923     2.7207     23.771  23.248134     33.518      8.723   271.5760     3.0179     1.3469     0.0175      0.113      5.591      8.109        611 1.7728e+01   999.7731 0.0000e+00
      5.731     9.5745     2.7963     24.418  23.532882     34.029      8.721   271.3110     2.8958     1.4334     0.0177      0.109      5.620      8.151        612 1.7297e+01   999.7757 0.0000e+00
      5.759     9.5561     2.8859     25.188  23.577899     34.052      8.718   270.7053     2.8844     1.3324     0.0177      0.109      5.648      8.192        613 1.6819e+01   999.7778 0.0000e+00
      5.789     9.5332     2.9677     25.891  23.429051     33.908      8.721   270.9324     2.8729     1.3324     0.0177      0.113      5.679      8.236        614 1.6313e+01   999.7793 0.0000e+00
      5.825     9.5048     3.0371     26.487  23.155408     33.482      8.718   271.2731     2.8539     1.4334     0.0175      0.117      5.713      8.285        615 1.5764e+01   999.7808 0.0000e+00
      5.861     9.4797     3.0809     26.861  22.793023     33.019      8.717   270.9324     2.8043     1.6497     0.0173      0.121      5.746      8.333        616 1.5391e+01   999.7828 0.0000e+00
      5.890     9.4744     3.0975     27.000  22.636161     32.763      8.715   271.0081     2.8081     1.5055     0.0172      0.123      5.774      8.373        617 1.5103e+01   999.7851 0.0000e+00
      5.910     9.4743     3.0906     26.933  22.787925     33.071      8.714   271.1974     2.8043     1.5776     0.0173      0.121      5.795      8.405        618 1.4858e+01   999.7873 0.0000e+00
      5.928     9.4591     3.0628     26.682  22.870705     33.156      8.714   273.3553     2.8081     1.5487     0.0173      0.116      5.814      8.432        619 1.4636e+01   999.7879 0.0000e+00
      5.947     9.4360     3.0146     26.254  22.740458     32.994      8.713   272.4088     2.6402     1.6497     0.0172      0.110      5.833      8.461        620 1.4403e+01   999.7880 0.0000e+00
      5.970     9.4120     2.9755     25.906  22.624245     32.807      8.710   272.7874     2.6402     1.5055     0.0171      0.103      5.853      8.490        621 1.4122e+01   999.7892 0.0000e+00
      5.988     9.3880     2.9148     25.370  22.659944     32.910      8.711   272.0303     2.6364     1.5487     0.0172      0.094      5.872      8.518        622 1.3810e+01   999.7912 0.0000e+00
      6.009     9.3672     2.8362     24.680  22.755268     33.054      8.709   271.1974     2.6326     1.4910     0.0172      0.086      5.892      8.546        623 1.3553e+01   999.7932 0.0000e+00
      6.029     9.3496     2.7406     23.845  22.742549     33.077      8.710   270.8945     2.5144     1.8227     0.0172      0.080      5.912      8.575        624 1.3310e+01   999.7952 0.0000e+00
      6.049     9.3352     2.6453     23.013  22.764627     33.097      8.707   270.8567     2.5105     1.8083     0.0172      0.078      5.933      8.604        625 1.3063e+01   999.7970 0.0000e+00
      6.072     9.3231     2.5528     22.207  22.846263     33.277      8.707   274.3774     2.5182     1.7650     0.0173      0.079      5.956      8.639        626 1.2753e+01   999.7986 0.0000e+00
      6.100     9.3127     2.4602     21.402  22.818656     33.210      8.706   274.4531     2.5067     1.8083     0.0173      0.082      5.984      8.679        627 1.2354e+01   999.7998 0.0000e+00
      6.134     9.3021     2.3660     20.583  22.917452     33.384      8.704   272.4467     2.5105     1.7939     0.0173      0.088      6.015      8.724        628 1.1920e+01   999.8010 0.0000e+00
      6.166     9.2886     2.2536     19.605  23.226792     33.841      8.704   272.2195     2.3389     2.4716     0.0175      0.095      6.045      8.768        629 1.1631e+01   999.8021 0.0000e+00
      6.192     9.2751     2.1483     18.687  23.381413     34.096      8.702   271.9545     2.3274     2.5149     0.0176      0.101      6.069      8.803        630 1.1447e+01   999.8032 0.0000e+00
      6.209     9.2639     2.0339     17.687  23.287745     33.947      8.698   271.5760     2.3122     2.4860     0.0176      0.104      6.088      8.831        631 1.1254e+01   999.8043 0.0000e+00
      6.225     9.2520     1.9013     16.528  23.136048     33.756      8.698   270.5917     2.3465     2.5293     0.0175      0.103      6.107      8.858        632 1.1045e+01   999.8053 0.0000e+00
      6.248     9.2420     1.7697     15.379  23.155570     33.767      8.695   270.7810     2.1596     2.6735     0.0175      0.100      6.129      8.889        633 1.0733e+01   999.8063 0.0000e+00
      6.274     9.2363     1.6316     14.175  23.381922     34.146      8.695   274.1881     2.1481     2.6446     0.0176      0.097      6.154      8.925        634 1.0409e+01   999.8075 0.0000e+00
      6.302     9.2310     1.5148     13.157  23.624396     34.482      8.697   273.4688     2.1481     2.6158     0.0178      0.093      6.179      8.962        635 1.0130e+01   999.8085 0.0000e+00
      6.326     9.2278     1.4152     12.289  23.920028     34.936      8.693   273.2038     2.1405     2.6590     0.0179      0.090      6.202      8.995        636 9.9408e+00   999.8092 0.0000e+00
      6.344     9.2285     1.3638     11.840  24.583745     35.879      8.688   273.3553     2.0871     2.7311     0.0183      0.088      6.222      9.024        637 9.7410e+00   999.8100 0.0000e+00
      6.365     9.2293     1.3464     11.687  25.197490     36.861      8.689   273.1281     2.1253     2.6302     0.0188      0.088      6.242      9.053        638 9.4873e+00   999.8107 0.0000e+00
      6.387     9.2293     1.3657     11.852  25.703457     37.472      8.687   271.8788     2.0947     2.6446     0.0190      0.090      6.264      9.085        639 9.3182e+00   999.8110 0.0000e+00
      6.411     9.2256     1.4101     12.235  26.412527     38.653      8.685   272.0303     2.0871     2.5725     0.0195      0.090      6.289      9.122        640 9.0689e+00   999.8113 0.0000e+00
      6.444     9.2150     1.4764     12.807  26.418120     38.571      8.683   274.6046     2.0642     2.5004     0.0195      0.091      6.318      9.163        641 8.7407e+00   999.8115 0.0000e+00
      6.472     9.1996     1.5489     13.432  25.578016     37.393      8.681   274.1881     2.0947     2.4283     0.0190      0.093      6.344      9.201        642 8.5433e+00   999.8116 0.0000e+00
      6.490     9.1854     1.6056     13.919  24.910680     36.344      8.680   274.2638     2.1024     2.5149     0.0185      0.094      6.363      9.228        643 8.4557e+00   999.8121 0.0000e+00
      6.501     9.1735     1.6637     14.419  24.671688     36.116      8.677   274.5288     2.0757     2.4572     0.0184      0.092      6.377      9.249        644 8.3392e+00   999.8133 0.0000e+00
      6.518     9.1618     1.7104     14.822  24.483341     35.763      8.675   273.6203     1.8659     2.5293     0.0183      0.090      6.394      9.274        645 8.1278e+00   999.8143 0.0000e+00
      6.542     9.1530     1.7587     15.239  24.197288     35.449      8.669   273.2038     1.8620     2.4860     0.0181      0.087      6.417      9.308        646 7.8549e+00   999.8152 0.0000e+00
      6.572     9.1445     1.7973     15.571  24.079899     35.176      8.668   273.2038     1.8201     2.5293     0.0180      0.086      6.446      9.349        647 7.5891e+00   999.8162 0.0000e+00
      6.606     9.1356     1.8359     15.901  24.155544     35.430      8.664   273.9231     1.8277     2.6014     0.0181      0.087      6.476      9.393        648 7.3905e+00   999.8171 0.0000e+00
      6.633     9.1283     1.8682     16.177  24.221623     35.398      8.663   274.2638     1.8239     2.4860     0.0181      0.089      6.503      9.432        649 7.2408e+00   999.8179 0.0000e+00
      6.654     9.1207     1.9014     16.459  24.175376     35.489      8.661   271.9167     1.7247     2.9042     0.0181      0.093      6.526      9.466        650 7.0793e+00   999.8187 0.0000e+00
      6.678     9.1109     1.9316     16.718  23.916923     34.965      8.662   268.5853     1.7094     2.8465     0.0179      0.098      6.551      9.502        651 6.8649e+00   999.8193 0.0000e+00
      6.710     9.0984     1.9462     16.842  23.773204     34.891      8.660   265.4052     1.7247     2.8898     0.0179      0.105      6.582      9.546        652 6.5590e+00   999.8199 0.0000e+00
      6.748     9.0847     1.9647     17.003  23.643414     34.614      8.658   263.4745     1.7171     2.8609     0.0177      0.110      6.616      9.595        653 6.2823e+00   999.8207 0.0000e+00
      6.781     9.0737     1.9817     17.149  23.604573     34.627      8.658   261.9981     1.4577     4.4904     0.0177      0.114      6.645      9.638        654 6.1922e+00   999.8218 0.0000e+00
      6.798     9.0672     2.0014     17.316  23.732694     34.805      8.652   260.5217     1.4882     4.4759     0.0178      0.112      6.665      9.667        655 6.1914e+00   999.8230 0.0000e+00
      6.810     9.0631     2.0336     17.590  23.750528     34.857      8.658   260.9759     1.4958     4.4615     0.0178      0.107      6.681      9.690        656 6.0829e+00   999.8239 0.0000e+00
      6.831     9.0570     2.0631     17.842  23.760087     34.864      8.654   261.0138     1.4767     4.3750     0.0178      0.103      6.702      9.721        657 5.8737e+00   999.8245 0.0000e+00
      6.863     9.0471     2.0969     18.136  23.750419     34.868      8.653   261.4302     1.4119     5.8458     0.0178      0.101      6.732      9.764        658 5.6831e+00   999.8249 0.0000e+00
      6.901     9.0351     2.1258     18.383  23.614474     34.669      8.653   261.5438     1.4043     5.8314     0.0177      0.101      6.765      9.812        659 5.4721e+00   999.8255 0.0000e+00
      6.932     9.0238     2.1523     18.608  23.396162     34.351      8.651   261.2788     1.3966     5.8314     0.0176      0.101      6.795      9.855        660 5.3444e+00   999.8263 0.0000e+00
      6.953     9.0160     2.1649     18.716  23.340917     34.281      8.648   261.1274     1.4043     5.8314     0.0176      0.100      6.817      9.887        661 5.2878e+00   999.8273 0.0000e+00
      6.967     9.0125     2.1762     18.809  23.327827     34.293      8.648   260.4838     1.4043     5.3267     0.0176      0.100      6.835      9.913        662 5.1675e+00   999.8282 0.0000e+00
      6.987     9.0129     2.1931     18.951  23.293990     34.219      8.647   260.5595     1.4233     5.4276     0.0175      0.101      6.856      9.944        663 5.0265e+00   999.8288 0.0000e+00
      7.019     9.0105     2.1922     18.938  23.264563     34.222      8.645   261.0517     1.4233     5.3844     0.0175      0.102      6.885      9.986        664 4.8187e+00   999.8292 0.0000e+00
      7.056     9.0019     2.1974     18.980  23.157134     34.016      8.643   261.1274     1.3966     5.4276     0.0174      0.103      6.917     10.032        665 4.5798e+00   999.8293 0.0000e+00
      7.086     8.9900     2.1992     18.995  23.131520     34.019      8.643   261.0895     1.4043     5.1393     0.0174      0.102      6.945     10.072        666 4.4291e+00   999.8296 0.0000e+00
      7.103     8.9836     2.2015     19.015  23.148357     34.028      8.644   261.2788     1.4310     5.0960     0.0174      0.100      6.963     10.099        667 4.3883e+00   999.8304 0.0000e+00
      7.112     8.9860     2.2081     19.066  23.136181     34.039      8.641   261.2788     1.4233     5.0816     0.0174      0.097      6.977     10.119        668 4.3396e+00   999.8313 0.0000e+00
      7.129     8.9810     2.2097     19.075  23.146675     34.046      8.640   261.2788     1.4233     5.1393     0.0174      0.094      6.995     10.145        669 4.1985e+00   999.8319 0.0000e+00
      7.157     8.9721     2.2017     19.005  23.105683     34.002      8.636   261.2409     1.4081     5.1537     0.0174      0.093      7.018     10.179        670 4.0519e+00   999.8318 0.0000e+00
      7.181     8.9675     2.1992     18.982  23.098346     33.966      8.636   261.2788     1.4195     4.9951     0.0174      0.089      7.043     10.214        671 3.9523e+00   999.8323 0.0000e+00
      7.207     8.9590     2.1985     18.975  23.066957     33.976      8.637   261.5817     1.4233     4.9806     0.0174      0.085      7.069     10.252        672 3.7761e+00   999.8331 0.0000e+00
      7.237     8.9493     2.1797     18.812  22.996667     33.815      8.634   261.7709     1.4157     4.9374     0.0173      0.084      7.096     10.292        673 3.6160e+00   999.8334 0.0000e+00
      7.264     8.9396     2.1608     18.646  23.008126     33.907      8.633   261.6574     1.3890     4.8653     0.0174      0.089      7.123     10.331        674 3.5219e+00   999.8342 0.0000e+00
      7.290     8.9323     2.1390     18.451  22.934236     33.751      8.633   262.3388     1.3776     4.5336     0.0173      0.096      7.149     10.369        675 3.4263e+00   999.8350 0.0000e+00
      7.316     8.9320     2.1114     18.208  22.910929     33.761      8.631   262.1874     1.3470     4.5192     0.0173      0.102      7.174     10.405        676 3.3518e+00   999.8359 0.0000e+00
      7.340     8.9297     2.0816     17.949  22.977902     33.851      8.633   262.5281     1.3890     4.4038     0.0173      0.104      7.198     10.440        677 3.2410e+00   999.8366 0.0000e+00
      7.364     8.9185     2.0585     17.750  23.028589     33.933      8.631   262.1874     1.3470     4.4904     0.0174      0.103      7.221     10.474        678 3.1490e+00   999.8368 0.0000e+00
      7.388     8.9082     2.0211     17.426  23.025549     33.935      8.627   262.6417     1.2822     3.9424     0.0174      0.102      7.244     10.507        679 3.0513e+00   999.8371 0.0000e+00
      7.409     8.9046     1.9926     17.177  23.040920     33.947      8.629   262.8688     1.2975     4.0722     0.0174      0.099      7.264     10.537        680 2.9655e+00   999.8380 0.0000e+00
      7.426     8.9026     1.9592     16.884  23.127927     34.122      8.626   263.0581     1.3089     3.9568     0.0174      0.094      7.281     10.561        681 2.9274e+00   999.8389 0.0000e+00
      7.440     8.9010     1.9171     16.516  23.094968     34.043      8.626   262.8310     1.2975     3.9424     0.0174      0.088      7.297     10.584        682 2.8831e+00   999.8391 0.0000e+00
      7.457     8.8992     1.8693     16.102  23.081938     34.045      8.624   262.6795     1.3051     3.7838     0.0174      0.082      7.315     10.609        683 2.7980e+00   999.8394 0.0000e+00
      7.480     8.8915     1.8082     15.575  23.084913     34.047      8.623   262.6038     1.3165     3.6829     0.0174      0.078      7.338     10.643        684 2.6857e+00   999.8396 0.0000e+00
      7.511     8.8779     1.7457     15.037  23.120885     34.089      8.622   263.8152     1.2975     3.8126     0.0174      0.079      7.366     10.684        685 2.5743e+00   999.8399 0.0000e+00
      7.544     8.8665     1.6744     14.422  23.214872     34.262      8.622   264.0045     1.3013     3.8271     0.0175      0.082      7.395     10.725        686 2.4894e+00   999.8406 0.0000e+00
      7.565     8.8609     1.6002     13.782  23.293731     34.358      8.620   264.1938     1.2784     3.7405     0.0175      0.086      7.416     10.756        687 2.4754e+00   999.8418 0.0000e+00
      7.576     8.8602     1.5438     13.298  23.318916     34.452      8.619   264.6102     1.3051     3.3512     0.0176      0.088      7.435     10.783        688 2.4167e+00   999.8427 0.0000e+00
      7.602     8.8577     1.5018     12.936  23.420468     34.540      8.618   264.8374     1.3051     3.3512     0.0176      0.091      7.461     10.821        689 2.2790e+00   999.8433 0.0000e+00
      7.647     8.8491     1.4653     12.619  23.789310     35.159      8.619   265.1781     1.2898     3.3079     0.0179      0.099      7.499     10.876        690 2.1472e+00   999.8437 0.0000e+00
      7.689     8.8366     1.4371     12.374  23.926115     35.326      8.616   265.1781     1.2936     3.2070     0.0179      0.107      7.536     10.931        691 2.0563e+00   999.8442 0.0000e+00
      7.718     8.8252     1.4348     12.353  23.783327     35.129      8.613   265.3295     1.0342     2.8321     0.0178      0.113      7.566     10.974        692 2.0277e+00   999.8449 0.0000e+00
      7.740     8.8189     1.4294     12.310  23.700453     35.019      8.614   265.7460     1.0686     2.9186     0.0178      0.115      7.588     11.006        693 2.0088e+00   999.8458 0.0000e+00
      7.755     8.8173     1.4319     12.333  23.703464     35.031      8.610   265.8974     1.0495     2.9186     0.0178      0.114      7.604     11.028        694 1.9862e+00   999.8467 0.0000e+00
      7.765     8.8169     1.4229     12.257  23.749967     35.119      8.609   266.0867     1.0304     2.7888     0.0178      0.110      7.617     11.048        695 1.9528e+00   999.8473 0.0000e+00
      7.782     8.8143     1.3934     12.004  23.761051     35.121      8.610   266.2002     0.9885     3.2070     0.0178      0.103      7.631     11.068        696 1.9037e+00   999.8475 0.0000e+00
      7.798     8.8133     1.3218     11.390  23.748905     35.121      8.608   266.4652     0.9770     3.2070     0.0178      0.090      7.647     11.092        697 1.8695e+00   999.8475 0.0000e+00
      7.816     8.8161     1.2167     10.492  23.765084     35.124      8.608   267.1467     0.9732     2.9763     0.0178      0.075      7.667     11.120        698 1.7999e+00   999.8478 0.0000e+00
      7.842     8.8164     1.0803      9.321  23.829772     35.249      8.608   264.9510     0.9808     3.0772     0.0179      0.069      7.690     11.153        699 1.7329e+00   999.8481 0.0000e+00
      7.866     8.8098     0.8946      7.719  23.757254     35.123      8.603   264.9510     1.0571     3.1637     0.0178      0.069      7.713     11.186        700 1.7047e+00   999.8479 0.0000e+00
      7.886     8.7996     0.7153      6.171  23.825710     35.204      8.601   266.9952     1.0419     3.0916     0.0179      0.072      7.737     11.221        701 1.6822e+00   999.8481 0.0000e+00
      7.916     8.7979     0.5205      4.489  23.892666     35.377      8.601   266.9574     1.0571     3.1205     0.0179      0.080      7.765     11.262        702 1.6302e+00   999.8487 0.0000e+00
      7.952     8.8072     0.3398      2.931  24.740177     36.461      8.601   267.2224     1.0342     3.0916     0.0184      0.090      7.796     11.308        703 1.5740e+00   999.8500 0.0000e+00
      7.982     8.8146     0.1891      1.630  25.940220     38.569      8.597   267.6767     1.0991     3.7117     0.0193      0.098      7.825     11.350        704 1.5419e+00   999.8509 0.0000e+00
      8.005     8.8177     0.0760      0.656  25.923933     38.186      8.594   267.9795     1.1029     3.8703     0.0191      0.104      7.851     11.387        705 1.4857e+00   999.8503 0.0000e+00
      8.032     8.8198    -0.0226     -0.194  26.152569     38.756      8.591   265.4052     1.1029     3.7694     0.0194      0.108      7.876     11.422        706 1.4298e+00   999.8500 0.0000e+00
      8.056     8.8311    -0.0784     -0.676  26.692417     39.412      8.591   266.3138     1.1182     3.7982     0.0197      0.108      7.898     11.455        707 1.4279e+00   999.8502 0.0000e+00
      8.072     8.8610    -0.1009     -0.870  29.251156     43.083      8.587   266.2381     1.0838     3.7550     0.0212      0.106      7.918     11.485        708 1.3985e+00   999.8514 0.0000e+00
      8.097     8.8874    -0.1111     -0.958  33.515010     49.754      8.588   266.8438     1.1105     4.2741     0.0242      0.102      7.942     11.520        709 1.3501e+00   999.8528 0.0000e+00
      8.129     8.8895    -0.0996     -0.859  34.481618     50.905      8.584   268.5474     1.1067     4.2452     0.0247      0.099      7.971     11.562        710 1.3186e+00   999.8513 0.0000e+00
      8.159     8.8776    -0.0755     -0.651  32.818457     48.434      8.577   268.5095     1.1105     4.1587     0.0236      0.098      8.001     11.605        711 1.2617e+00   999.8487 0.0000e+00
      8.187     8.8677    -0.0557     -0.480  31.969764     47.072      8.572   265.7081     1.0953     4.1731     0.0230      0.100      8.029     11.645        712 1.2245e+00   999.8482 0.0000e+00
      8.214     8.8622    -0.0238     -0.205  32.248751     47.666      8.567   266.2381     1.1067     4.5769     0.0233      0.102      8.057     11.685        713 1.1791e+00   999.8494 0.0000e+00
      8.246     8.8594     0.0047      0.040  32.619406     48.092      8.560   265.0645     1.1067     4.6201     0.0235      0.106      8.087     11.729        714 1.1144e+00   999.8504 0.0000e+00
      8.280     8.8583     0.0262      0.226  33.019633     48.801      8.558   261.6952     1.1105     4.5336     0.0238      0.112      8.120     11.776        715 1.0518e+00   999.8512 0.0000e+00
      8.313     8.8576     0.0514      0.442  33.261841     49.094      8.553   257.9852     1.1258     4.4615     0.0239      0.118      8.151     11.822        716 1.0536e+00   999.8517 0.0000e+00
      8.343     8.8554     0.0646      0.556  33.414329     49.343      8.548   243.9402     1.0457     4.8941     0.0240      0.120      8.179     11.864        717 1.0269e+00   999.8520 0.0000e+00
      8.368     8.8533     0.0818      0.704  33.866971     50.003      8.546   229.6301     1.0113     4.8797     0.0243      0.119      8.204     11.900        718 9.7495e-01   999.8524 0.0000e+00
      8.387     8.8515     0.0986      0.848  34.239403     50.584      8.543   223.1187     1.0495     4.9518     0.0245      0.116      8.225     11.930        719 9.7015e-01   999.8528 0.0000e+00
      8.407     8.8484     0.1096      0.942  33.987971     50.216      8.535   218.4623     1.0419     4.9374     0.0244      0.112      8.248     11.962        720 9.2280e-01   999.8530 0.0000e+00
      8.437     8.8419     0.1222      1.051  33.498334     49.435      8.534   214.7522     1.1601     7.4608     0.0240      0.108      8.275     12.002        721 8.8607e-01   999.8530 0.0000e+00
      8.471     8.8316     0.1304      1.121  33.218989     49.110      8.531   212.4808     1.1830     7.4897     0.0239      0.105      8.305     12.047        722 8.6586e-01   999.8532 0.0000e+00
      8.501     8.8159     0.1345      1.156  32.468841     47.964      8.526   209.7929     1.1983     7.4753     0.0234      0.104      8.335     12.090        723 8.3183e-01   999.8534 0.0000e+00
      8.529     8.8010     0.1400      1.203  30.817028     45.585      8.524   206.6129     1.1792     7.4897     0.0223      0.104      8.364     12.131        724 7.9651e-01   999.8535 0.0000e+00
      8.557     8.7960     0.1447      1.243  30.533984     44.945      8.520   201.9565     1.6675    11.3253     0.0221      0.107      8.390     12.169        725 7.6904e-01   999.8546 0.0000e+00
      8.580     8.7929     0.1423      1.222  31.961863     47.486      8.518   197.2622     1.6713    11.1523     0.0232      0.109      8.414     12.204        726 7.5320e-01   999.8566 0.0000e+00
      8.603     8.7841     0.1470      1.262  32.239947     47.574      8.517   190.9400     1.6293    11.2965     0.0232      0.110      8.436     12.236        727 7.4176e-01   999.8572 0.0000e+00
      8.625     8.7718     0.1442      1.239  30.691589     45.597      8.513   186.6243     1.6827    11.3686     0.0223      0.108      8.459     12.269        728 7.0654e-01   999.8567 0.0000e+00
      8.649     8.7553     0.1479      1.270  29.592709     43.500      8.510   183.7093     1.6522    11.2388     0.0214      0.102      8.484     12.305        729 6.6057e-01   999.8568 0.0000e+00
      8.680     8.7347     0.1509      1.296  28.896756     43.145      8.507   180.3021     2.1367    11.7002     0.0213      0.099      8.517     12.353        730 6.5085e-01   999.8576 0.0000e+00
      8.726     8.7249     0.1507      1.295  28.328499     41.511      8.505   179.7721     2.1520    11.7002     0.0205      0.103      8.558     12.413        731 5.9630e-01   999.8587 0.0000e+00
      8.777     8.7257     0.1500      1.288  30.625885     45.676      8.506   176.0243     2.1367    11.8300     0.0223      0.114      8.602     12.477        732 5.3426e-01   999.8616 0.0000e+00
      8.813     8.7248     0.1593      1.368  32.200046     47.675      8.504   174.6993     2.1481    11.7579     0.0232      0.125      8.638     12.529        733 5.2649e-01   999.8632 0.0000e+00
      8.836     8.7208     0.1548      1.329  31.939379     47.342      8.504   173.6393     2.1405    11.2532     0.0231      0.133      8.665     12.567        734 4.9191e-01   999.8631 0.0000e+00
      8.858     8.7132     0.1571      1.348  31.898388     47.344      8.500   171.8600     2.1481    11.2677     0.0231      0.136      8.687     12.600        735 4.9382e-01   999.8633 0.0000e+00
      8.882     8.7069     0.1559      1.338  31.747361     46.977      8.496   170.7243     2.1481    11.2965     0.0229      0.134      8.712     12.636        736 4.4900e-01   999.8637 0.0000e+00
      8.913     8.7039     0.1570      1.347  32.186594     47.816      8.496   173.7528     2.1291    11.3398     0.0233      0.130      8.740     12.676        737 3.8884e-01   999.8645 0.0000e+00
      8.943     8.7025     0.1667      1.429  32.448066     48.073      8.490   172.2007     2.7700    10.9504     0.0234      0.122      8.767     12.716        738 4.2606e-01   999.8653 0.0000e+00
      8.966     8.7010     0.1612      1.382  32.251593     47.912      8.488   171.2543     2.7738    10.8351     0.0233      0.111      8.791     12.751        739 3.8333e-01   999.8655 0.0000e+00
      8.986     8.6972     0.1591      1.364  32.312583     47.831      8.484   170.3835     2.7700    10.7341     0.0233      0.102      8.813     12.782        740 3.3543e-01   999.8656 0.0000e+00
      9.010     8.6908     0.1570      1.346  32.490689     48.330      8.481   168.4150     2.7661    10.9360     0.0235      0.099      8.837     12.817        741 3.4424e-01   999.8659 0.0000e+00
      9.039     8.6843     0.1563      1.340  32.948483     48.709      8.479   167.6578     2.8386    10.8783     0.0236      0.100      8.864     12.857        742 2.9462e-01   999.8666 0.0000e+00
      9.069     8.6794     0.1487      1.274  35.328344     52.489      8.472   170.3835     2.8043    10.8206     0.0253      0.102      8.893     12.898        743 2.3909e-01   999.8685 0.0000e+00
      9.095     8.6735     0.1531      1.313  37.589324     55.857      8.473   169.3614     2.8272    10.8495     0.0268      0.102      8.919     12.936        744 2.5088e-01   999.8702 0.0000e+00
      9.119     8.6651     0.1525      1.308  40.151710     59.389      8.468   168.8314     2.8272    10.7485     0.0283      0.101      8.943     12.971        745 2.4681e-01   999.8720 0.0000e+00
      9.144     8.6548     0.1529      1.311  43.047057     64.253      8.465   166.8250     2.2893    11.0802     0.0305      0.101      8.967     13.005        746 2.3101e-01   999.8741 0.0000e+00
      9.167     8.6431     0.1482      1.271  45.962161     67.796      8.460   166.0300     2.2740    11.0658     0.0320      0.102      8.988     13.037        747 2.2366e-01   999.8763 0.0000e+00
      9.187     8.6318     0.1545      1.325  50.992749     76.161      8.456   166.0300     2.2626    11.1523     0.0358      0.100      9.007     13.064        748 2.2642e-01   999.8798 0.0000e+00
      9.201     8.6229     0.1502      1.288  54.312069     80.508      8.451   165.3485     2.2969    11.0514     0.0377      0.095      9.023     13.088        749 2.2751e-01   999.8824 0.0000e+00
      9.217     8.6171     0.1483      1.272  56.601083     84.234      8.447   164.3642     2.2550    11.0658     0.0394      0.088      9.041     13.113        750 2.0189e-01   999.8844 0.0000e+00
      9.239     8.6141     0.1490      1.278  60.187800     89.411      8.441   163.8342     2.2893    11.0658     0.0417      0.082      9.062     13.143        751 2.0169e-01   999.8871 0.0000e+00
      9.265     8.6106     0.1466      1.258  63.525795     94.584      8.434   162.3199     2.2588    11.0081     0.0440      0.080      9.086     13.178        752 2.0831e-01   999.8893 0.0000e+00
      9.292     8.6043     0.1470      1.260  67.075967     99.626      8.427   162.2821     2.2817    11.0369     0.0463      0.080      9.112     13.216        753 1.8517e-01   999.8916 0.0000e+00
      9.317     8.6022     0.1412      1.211  71.648013    106.669      8.420   161.9792     2.2740    11.1235     0.0495      0.083      9.137     13.252        754 1.5822e-01   999.8945 0.0000e+00
      9.341     8.6101     0.1445      1.239  76.210955    113.350      8.409   159.5942     1.8353    11.3686     0.0526      0.086      9.159     13.284        755 1.6101e-01   999.8974 0.0000e+00
      9.360     8.6224     0.1425      1.222  79.716510    118.688      8.402   160.2378     1.8353    11.2677     0.0550      0.089      9.177     13.309        756 1.3653e-01   999.8996 0.0000e+00
      9.371     8.6324     0.1461      1.253  81.598701    121.407      8.390   159.8214     1.8239    11.2388     0.0562      0.089      9.188     13.326        757 1.3430e-01   999.9001 0.0000e+00
      9.378     8.6390     0.1336      1.145  82.095296    122.070      8.383   159.2914     1.8697    11.2532     0.0565      0.084      9.198     13.341        758 1.4174e-01   999.8995 0.0000e+00
      9.391     8.6435     0.1438      1.233  82.603317    122.783      8.375   156.7928     1.5416    11.2532     0.0569      0.075      9.211     13.359        759 1.1855e-01   999.8991 0.0000e+00
      9.409     8.6447     0.1349      1.157  83.342755    123.882      8.365   156.4899     1.5530    11.2532     0.0574      0.067      9.227     13.382        760 1.3117e-01   999.8992 0.0000e+00
      9.425     8.6404     0.1378      1.182  83.254357    123.782      8.353   156.1114     1.5340    11.2677     0.0573      0.060      9.242     13.405        761 1.5493e-01   999.8989 0.0000e+00
      9.440     8.6343     0.1376      1.181  82.624208    122.696      8.344   154.4835     1.5454    11.3974     0.0568      0.056      9.257     13.426        762 1.2983e-01   999.8985 0.0000e+00
      9.453     8.6309     0.1431      1.228  82.463523    122.629      8.331   153.7264     1.6408    11.0225     0.0568      0.054      9.272     13.448        763 1.2051e-01   999.8988 0.0000e+00
      9.470     8.6290     0.1426      1.224  82.682019    122.818      8.322   152.3635     1.6484    11.0514     0.0569      0.055      9.290     13.473        764 1.3161e-01   999.8994 0.0000e+00
      9.494     8.6240     0.1385      1.189  82.500820    122.789      8.309   150.8871     1.6827    11.0081     0.0569      0.060      9.311     13.504        765 1.2317e-01   999.8997 0.0000e+00
      9.520     8.6204     0.1340      1.150  82.273180    122.129      8.295   149.3349     1.6522    11.0081     0.0566      0.067      9.334     13.538        766 1.2405e-01   999.8998 0.0000e+00
      9.540     8.6210     0.1310      1.125  83.262375    123.937      8.284   147.5935     1.5378    10.3592     0.0574      0.072      9.356     13.569        767 1.2365e-01   999.9008 0.0000e+00
      9.561     8.6220     0.1342      1.152  83.705542    124.451      8.272   148.0856     1.5530    10.4313     0.0576      0.075      9.378     13.601        768 1.2386e-01   999.9014 0.0000e+00
      9.587     8.6255     0.1308      1.123  83.533636    124.198      8.260   145.2463     1.5759    10.3448     0.0575      0.081      9.400     13.633        769 1.2375e-01   999.9013 0.0000e+00
      9.606     8.6298     0.1337      1.148  83.684248    124.486      8.246   140.7792     1.5378    10.3304     0.0577      0.085      9.418     13.659        770 1.2370e-01   999.9015 0.0000e+00
      9.617     8.6354     0.1361      1.169  83.607224    124.265      8.238   134.4949     1.6408     9.3210     0.0576      0.084      9.430     13.676        771 1.2350e-01   999.9012 0.0000e+00
      9.624     8.6517     0.1405      1.207  83.629486    124.374      8.225   127.7184     1.6751     9.2345     0.0576      0.079      9.438     13.688        772 1.2364e-01   999.9010 0.0000e+00
      9.631     8.6698     0.1360      1.168  84.933905    126.103      8.216   122.5698     1.6789     9.2777     0.0584      0.069      9.443     13.697        773 1.2374e-01   999.9014 0.0000e+00
      9.635     8.6729     0.1334      1.146  86.469667    128.702      8.204   118.2920     1.6713     9.2921     0.0596      0.058      9.448     13.704        774 1.2386e-01   999.9010 0.0000e+00
      9.638     8.6673     0.1357      1.165  85.699056    127.135      8.194   115.5662     1.6446     8.2539     0.0589      0.047      9.451     13.708        775 1.2382e-01   999.8994 0.0000e+00
      9.639     8.6654     0.1343      1.154  85.090743    126.334      8.186   113.2948     1.6827     8.2683     0.0585      0.035      9.453     13.711        776 1.2376e-01   999.8988 0.0000e+00
      9.640     8.6682     0.1361      1.169  85.117398    126.481      8.174   111.0234     1.6484     8.2107     0.0586      0.024      9.453     13.711        777 1.2374e-01   999.8992 0.0000e+00
      9.640     8.6714     0.1311      1.126  84.477593    125.364      8.168   109.5091     1.6599     8.3981     0.0581      0.016      9.454     13.711        778 1.2370e-01   999.8990 0.0000e+00
      9.641     8.6699     0.1377      1.183  84.253087    125.189      8.159   108.1841     1.6599     8.2972     0.0580      0.011      9.454     13.712        779 1.2375e-01   999.8987 0.0000e+00
      9.641     8.6651     0.1335      1.148  83.584699    124.095      8.147   107.1241     1.6713     8.3549     0.0575      0.007      9.455     13.713        780 1.2373e-01   999.8981 0.0000e+00
      9.642     8.6624     0.1366      1.176  82.962652    123.145      8.141   106.0641     1.6599     8.3693     0.0571      0.004      9.455     13.713        781 1.2361e-01   999.8979 0.0000e+00
      9.641     8.6668     0.1341      1.155  82.829035    123.079      8.132   105.5341     1.6713     8.3404     0.0570      0.003      9.455     13.713        782 1.2368e-01   999.8981 0.0000e+00
      9.641     8.6732     0.1320      1.137  82.206369    122.050      8.126   104.3984     1.6675     8.4270     0.0566      0.002      9.455     13.713        783 1.2369e-01   999.8980 0.0000e+00
      9.642     8.6780     0.1288      1.109  81.598901    121.203      8.118   103.0355     1.5645     8.4991     0.0562      0.001      9.456     13.714        784 1.2371e-01   999.8974 0.0000e+00
      9.642     8.6872     0.1258      1.083  81.327585    120.721      8.113   102.0133     1.5759     8.5856     0.0560      0.001      9.456     13.714        785 1.2366e-01   999.8967 0.0000e+00
      9.643     8.6921     0.1317      1.135  80.940088    120.208      8.105   100.7641     1.5988     8.5856     0.0557      0.001      9.456     13.715        786 1.2341e-01   999.8961 0.0000e+00
      9.643     8.6930     0.1304      1.124  81.219773    120.422      8.097    99.8933     1.5950     8.5135     0.0558      0.001      9.456     13.715        787 1.2362e-01   999.8957 0.0000e+00
      9.643     8.7022     0.1332      1.148  81.870582    121.651      8.092    98.9090     1.5378     9.4508     0.0564      0.001      9.457     13.716        788 1.2379e-01   999.8956 0.0000e+00
      9.644     8.7140     0.1276      1.099  80.783622    119.822      8.085    97.7355     1.5340     9.4219     0.0556      0.001      9.457     13.716        789 1.2357e-01   999.8950 0.0000e+00
      9.643     8.7284 -9.990e-29 -9.990e-29  79.216266    117.504      8.078    96.9783     1.5187     9.3642     0.0545      0.001      9.457     13.716        790 1.2375e-01   999.8935 0.0000e+00
      9.644     8.7594 -9.990e-29 -9.990e-29  78.831456    116.882      8.071    95.9183     1.5302     9.5517     0.0542      0.001      9.457     13.716        791 1.2383e-01   999.8925 0.0000e+00
      9.643     8.7907 -9.990e-29 -9.990e-29  78.322275    116.170      8.066    94.4419     1.5836     8.8451     0.0539      0.001      9.457     13.716        792 1.2353e-01   999.8912 0.0000e+00
      9.643     8.7967 -9.990e-29 -9.990e-29  77.474107    114.654      8.060    93.1547     1.6103     8.7298     0.0532      0.000      9.457     13.716        793 1.2364e-01   999.8885 0.0000e+00
      9.644     8.7899 -9.990e-29 -9.990e-29  77.392399    114.543      8.053    92.2462     1.6179     8.8019     0.0532      0.000      9.457     13.717        794 1.2378e-01   999.8862 0.0000e+00
      9.644     8.7998 -9.990e-29 -9.990e-29  76.820318    113.698      8.050    90.6183     1.6141     8.8596     0.0528      0.000      9.457     13.717        795 1.2362e-01   999.8855 0.0000e+00
      9.644     8.8210 -9.990e-29 -9.990e-29  75.008712    110.946      8.044    89.4826     1.6026     9.0038     0.0515      0.000      9.457     13.717        796 1.2358e-01   999.8849 0.0000e+00
      9.644     8.8288 -9.990e-29 -9.990e-29  74.361390    109.924      8.038    88.2333     1.5874     9.0614     0.0511      0.000      9.457     13.717        797 1.2365e-01   999.8838 0.0000e+00
      9.644     8.8165 -9.990e-29 -9.990e-29  73.409512    108.731      8.031    87.0219     1.5874     9.0903     0.0506      0.001      9.458     13.717        798 1.2364e-01   999.8818 0.0000e+00
      9.644     8.8050 -9.990e-29 -9.990e-29  72.986664    107.471      8.024    85.8483     1.5836     8.9172     0.0500      0.001      9.458     13.717        799 1.2362e-01   999.8810 0.0000e+00
      9.645 -9.990e-29 -9.990e-29 -9.990e-29  71.977976    107.049      8.021    84.7126     1.6675     8.7009     0.0498      0.001      9.458     13.718        800 1.2373e-01   999.8814 0.0000e+00
      9.645 -9.990e-29 -9.990e-29 -9.990e-29  70.092907    102.875      8.016    83.5769     1.6751     8.7586     0.0479      0.001      9.458     13.718        801 1.2379e-01   999.8812 0.0000e+00
