* Sea-Bird SBE19plus  Data File:
* FileName = C:\DATA\060418_fcr50_0004.hex
* Software version 2.6.3.104 SB_Terminal.dll
* Temperature SN = 7809
* Conductivity SN = 7809
* System UpLoad Time = Jun 04 2018 16:28:26
* <ApplicationData>
* <Seaterm232>
* <SoftwareVersion>2.6.3.104</SoftwareVersion>
* <BuildDate>30-Jun-2017</BuildDate>
* </Seaterm232>
* </ApplicationData>
* cast   4 04 Jun 2018 14:38:52 samples 3383 to 4031, avg = 1, stop = mag switch
# nquan = 15
# nvalues = 381                         
# units = specified
# name 0 = depFM: Depth [fresh water, m]
# name 1 = dz/dtM: Descent Rate [m/s]
# name 2 = sbeox0Mg/L: Oxygen, SBE 43 [mg/l]
# name 3 = sbeox0PS: Oxygen, SBE 43 [% saturation]
# name 4 = specc: Specific Conductance [uS/cm]
# name 5 = c0uS/cm: Conductivity [uS/cm]
# name 6 = flECO-AFL: Fluorescence, WET Labs ECO-AFL/FL [mg/m^3]
# name 7 = ph: pH
# name 8 = orp: Oxidation Reduction Potential [mV]
# name 9 = par/sat/log: PAR/Logarithmic, Satlantic
# name 10 = turbWETntu0: Turbidity, WET Labs ECO [NTU]
# name 11 = prdM: Pressure, Strain Gauge [db]
# name 12 = prdE: Pressure, Strain Gauge [psi]
# name 13 = tv290C: Temperature [ITS-90, deg C]
# name 14 = flag:  0.000e+00
# span 0 =     -0.618,      3.762       
# span 1 =     -0.053,      0.205       
# span 2 =    -0.1404,    10.0796       
# span 3 =     -1.353,    110.852       
# span 4 =      0.484,    200.016       
# span 5 =   0.441361, 147.484610       
# span 6 =    -0.7378,     3.9368       
# span 7 =      5.439,      7.519       
# span 8 = -1240.7455,  1227.4868       
# span 9 = 4.4451e+00, 1.5611e+03       
# span 10 =    -1.3365,    19.0225      
# span 11 =     -0.606,      3.690      
# span 12 =     -0.880,      5.352      
# span 13 =    11.5298,    23.3876      
# span 14 = 0.0000e+00, 0.0000e+00      
# interval = seconds: 0.25
# start_time = Jun 04 2018 14:38:52 [Instrument's time stamp, header]
# bad_flag = -9.990e-29
# <Sensors count="9" >
#   <sensor Channel="1" >
#     <!-- Count, Temperature -->
#     <TemperatureSensor SensorID="58" >
#       <SerialNumber>7809</SerialNumber>
#       <CalibrationDate>09-Mar-18</CalibrationDate>
#       <A0>1.21093245e-003</A0>
#       <A1>2.84356597e-004</A1>
#       <A2>-1.94507398e-006</A2>
#       <A3>2.12806664e-007</A3>
#       <Slope>1.00000000</Slope>
#       <Offset>0.0000</Offset>
#     </TemperatureSensor>
#   </sensor>
#   <sensor Channel="2" >
#     <!-- Frequency 0, Conductivity -->
#     <ConductivitySensor SensorID="3" >
#       <SerialNumber>7809</SerialNumber>
#       <CalibrationDate>09-Mar-18</CalibrationDate>
#       <UseG_J>1</UseG_J>
#       <!-- Cell const and series R are applicable only for wide range sensors. -->
#       <SeriesR>0.0000</SeriesR>
#       <CellConst>2000.0000</CellConst>
#       <ConductivityType>0</ConductivityType>
#       <Coefficients equation="0" >
#         <A>0.00000000e+000</A>
#         <B>0.00000000e+000</B>
#         <C>0.00000000e+000</C>
#         <D>0.00000000e+000</D>
#         <M>0.0</M>
#         <CPcor>-9.57000000e-008</CPcor>
#       </Coefficients>
#       <Coefficients equation="1" >
#         <G>-1.00672082e+000</G>
#         <H>1.26906489e-001</H>
#         <I>-1.40584351e-004</I>
#         <J>2.47837121e-005</J>
#         <CPcor>-9.57000000e-008</CPcor>
#         <CTcor>3.2500e-006</CTcor>
#         <!-- WBOTC not applicable unless ConductivityType = 1. -->
#         <WBOTC>0.00000000e+000</WBOTC>
#       </Coefficients>
#       <Slope>1.00000000</Slope>
#       <Offset>0.00000</Offset>
#     </ConductivitySensor>
#   </sensor>
#   <sensor Channel="3" >
#     <!-- Count, Pressure, Strain Gauge -->
#     <PressureSensor SensorID="46" >
#       <SerialNumber>7809</SerialNumber>
#       <CalibrationDate>07-Mar-18</CalibrationDate>
#       <PA0>-4.08176359e-002</PA0>
#       <PA1>4.85188419e-004</PA1>
#       <PA2>-3.51168169e-012</PA2>
#       <PTEMPA0>-5.37806900e+001</PTEMPA0>
#       <PTEMPA1>5.36620721e+001</PTEMPA1>
#       <PTEMPA2>4.87214332e-002</PTEMPA2>
#       <PTCA0>5.25213435e+005</PTCA0>
#       <PTCA1>1.79532409e+000</PTCA1>
#       <PTCA2>-2.84353509e-001</PTCA2>
#       <PTCB0>2.51668750e+001</PTCB0>
#       <PTCB1>3.75000000e-004</PTCB1>
#       <PTCB2>0.00000000e+000</PTCB2>
#       <Offset>0.000000</Offset>
#     </PressureSensor>
#   </sensor>
#   <sensor Channel="4" >
#     <!-- A/D voltage 0, pH -->
#     <pH_Sensor SensorID="43" >
#       <SerialNumber>0363</SerialNumber>
#       <CalibrationDate>16-Mar-18</CalibrationDate>
#       <Slope>4.6194</Slope>
#       <Offset>2.5947</Offset>
#     </pH_Sensor>
#   </sensor>
#   <sensor Channel="5" >
#     <!-- A/D voltage 1, Oxidation Reduction Potential -->
#     <OxidationReductionPotentialSensor SensorID="41" >
#       <SerialNumber>0363</SerialNumber>
#       <CalibrationDate>16-Mar-18</CalibrationDate>
#       <B>2.499480</B>
#       <M>-0.496195</M>
#       <Offset>0.0</Offset>
#     </OxidationReductionPotentialSensor>
#   </sensor>
#   <sensor Channel="6" >
#     <!-- A/D voltage 2, Oxygen, SBE 43 -->
#     <OxygenSensor SensorID="38" >
#       <SerialNumber>0434</SerialNumber>
#       <CalibrationDate>13-Mar-18</CalibrationDate>
#       <Use2007Equation>1</Use2007Equation>
#       <CalibrationCoefficients equation="0" >
#         <!-- Coefficients for Owens-Millard equation. -->
#         <Boc>0.0000</Boc>
#         <Soc>0.0000e+000</Soc>
#         <offset>0.0000</offset>
#         <Pcor>0.00e+000</Pcor>
#         <Tcor>0.0000</Tcor>
#         <Tau>0.0</Tau>
#       </CalibrationCoefficients>
#       <CalibrationCoefficients equation="1" >
#         <!-- Coefficients for Sea-Bird equation - SBE calibration in 2007 and later. -->
#         <Soc>4.5718e-001</Soc>
#         <offset>-0.6113</offset>
#         <A>-4.0649e-003</A>
#         <B> 2.0945e-004</B>
#         <C>-3.3182e-006</C>
#         <D0> 2.5826e+000</D0>
#         <D1> 1.92634e-004</D1>
#         <D2>-4.64803e-002</D2>
#         <E> 3.6000e-002</E>
#         <Tau20> 1.2200</Tau20>
#         <H1>-3.3000e-002</H1>
#         <H2> 5.0000e+003</H2>
#         <H3> 1.4500e+003</H3>
#       </CalibrationCoefficients>
#     </OxygenSensor>
#   </sensor>
#   <sensor Channel="7" >
#     <!-- A/D voltage 3, PAR/Logarithmic, Satlantic -->
#     <PARLog_SatlanticSensor SensorID="76" >
#       <SerialNumber>1122</SerialNumber>
#       <CalibrationDate>22-Jun-2017</CalibrationDate>
#       <a0>9.6090e-001</a0>
#       <a1>8.0780e-001</a1>
#       <Im>1.3589e+000</Im>
#       <Multiplier>1.0000e+000</Multiplier>
#     </PARLog_SatlanticSensor>
#   </sensor>
#   <sensor Channel="8" >
#     <!-- A/D voltage 4, Fluorometer, WET Labs ECO-AFL/FL -->
#     <FluoroWetlabECO_AFL_FL_Sensor SensorID="20" >
#       <SerialNumber>FLNTURT-2496</SerialNumber>
#       <CalibrationDate>25-Jan-2017</CalibrationDate>
#       <ScaleFactor>5.30000000e+001</ScaleFactor>
#       <!-- Dark output -->
#       <Vblank>0.0560</Vblank>
#     </FluoroWetlabECO_AFL_FL_Sensor>
#   </sensor>
#   <sensor Channel="9" >
#     <!-- A/D voltage 5, Turbidity Meter, WET Labs, ECO-NTU -->
#     <TurbidityMeter SensorID="67" >
#       <SerialNumber>FLNTURT-2496</SerialNumber>
#       <CalibrationDate>25-Jan-2017</CalibrationDate>
#       <ScaleFactor>176.000000</ScaleFactor>
#       <!-- Dark output -->
#       <DarkVoltage>0.072000</DarkVoltage>
#     </TurbidityMeter>
#   </sensor>
# </Sensors>
# datcnv_date = Jun 04 2018 16:37:16, 7.26.7.114 [datcnv_vars = 14]
# datcnv_in = C:\DATA\060418_fcr20.hex C:\DATA\SBE19plusV2_7809.xmlcon
# datcnv_skipover = 0
# datcnv_ox_hysteresis_correction = yes
# datcnv_ox_tau_correction = yes
# filter_date = Jun 04 2018 16:37:47, 7.26.7.114
# filter_in = C:\DATA\060418_fcr20.cnv
# filter_low_pass_tc_A = 0.030
# filter_low_pass_tc_B = 0.150
# filter_low_pass_A_vars = prdM prdE tv290C
# filter_low_pass_B_vars = depFM dz/dtM sbeox0Mg/L sbeox0PS specc c0uS/cm flECO-AFL ph orp par/sat/log turbWETntu0
# alignctd_date = Jun 04 2018 16:38:15, 7.26.7.114
# alignctd_in = C:\DATA\060418_fcr20.cnv
# alignctd_adv = dz/dtM 1.000, sbeox0Mg/L 1.000, sbeox0PS 1.000, specc 1.000, c0uS/cm 1.000, flECO-AFL 1.000, ph 1.000, orp 1.000, turbWETntu0 1.000                                                                                 
# file_type = ascii
*END*
     -0.617 8.6917e-20     8.6760     96.520      0.544   0.495675    -0.1782      5.451 -1240.7455 1.5611e+03    -0.6564     -0.605     -0.877    20.5736 0.0000e+00
     -0.617 1.4905e-20     8.6766     96.528      0.531   0.484145    -0.1779      5.446 -1240.7455 6.5008e+02    -0.6647     -0.604     -0.877    20.5737 0.0000e+00
     -0.617 7.8392e-20     8.6766     96.532      0.544   0.495675    -0.1872      5.449 -1240.7455 1.4305e+02    -0.6473     -0.605     -0.878    20.5741 0.0000e+00
     -0.617 8.5454e-19     8.6768     96.537      0.558   0.508252    -0.1899      5.454 -1240.7455 7.3510e+01    -0.6601     -0.605     -0.877    20.5747 0.0000e+00
     -0.617 9.3992e-18     8.6783     96.557      0.559   0.509395    -0.1829      5.451 -1240.7455 5.0996e+01    -0.6973     -0.605     -0.878    20.5757 0.0000e+00
     -0.617 1.0339e-16     8.6789     96.567      0.559   0.509499    -0.1754      5.448 -1240.7455 4.8494e+01    -0.7012     -0.605     -0.877    20.5771 0.0000e+00
     -0.617 1.1373e-15     8.6779     96.559      0.559   0.509509    -0.1728      5.444 -1240.7455 5.4862e+01    -0.6458     -0.605     -0.878    20.5785 0.0000e+00
     -0.617 1.2510e-14     8.6769     96.549      0.559   0.509510    -0.1973      5.439 -1240.7455 6.3245e+01    -0.3640     -0.605     -0.877    20.5803 0.0000e+00
     -0.617 1.3761e-13     8.6774     96.555      0.559   0.509510    -0.2243      5.446 -1240.7455 6.6361e+01     0.1427     -0.605     -0.878    20.5824 0.0000e+00
     -0.617 1.5138e-12     8.6783     96.566      0.559   0.509510    -0.2230      5.459 -1240.7455 6.6408e+01     0.4154     -0.605     -0.878    20.5844 0.0000e+00
     -0.617 1.6651e-11     8.6782     96.566      0.559   0.509509    -0.2280      5.470 -1240.7455 7.5828e+01     0.3998     -0.605     -0.877    20.5858 0.0000e+00
     -0.617 1.8316e-10     8.6777     96.561      0.559   0.509499    -0.2294      5.478 -1240.7455 9.9837e+01     0.2593     -0.605     -0.878    20.5861 0.0000e+00
     -0.617 2.0148e-09     8.6777     96.561      0.559   0.509385    -0.2024      5.483 -1240.7455 1.6590e+02    -0.0017     -0.605     -0.878    20.5861 0.0000e+00
     -0.617 2.2163e-08     8.6782     96.567      0.557   0.508139    -0.1779      5.488 -1240.7455 2.1900e+02    -0.1917     -0.605     -0.878    20.5864 0.0000e+00
     -0.617 2.4379e-07     8.6794     96.580      0.542   0.494427    -0.1710      5.492 -1240.7455 1.7698e+02    -0.2374     -0.605     -0.878    20.5870 0.0000e+00
     -0.617 4.4695e-07     8.6805     96.591      0.516   0.470424    -0.1752      5.491 -1240.7455 1.2166e+02    -0.2494     -0.604     -0.877    20.5874 0.0000e+00
     -0.617 2.4379e-07     8.6805     96.590      0.518   0.471567    -0.1735      5.490 -1240.7455 1.0017e+02    -0.2450     -0.605     -0.878    20.5876 0.0000e+00
     -0.617 2.2146e-08     8.6799     96.584      0.558   0.508241    -0.1685      5.493 -1240.7455 8.4292e+01    -0.2150     -0.605     -0.878    20.5881 0.0000e+00
     -0.617 1.8315e-09     8.6804     96.591      0.585   0.533378    -0.1702      5.497 -1240.7455 8.0525e+01    -0.2226     -0.605     -0.877    20.5876 0.0000e+00
     -0.617 -1.166e-12     8.6808     96.597      0.573   0.521848    -0.1662      5.500 -1240.7455 8.1434e+01    -0.2147     -0.605     -0.878    20.5862 0.0000e+00
     -0.617 -1.283e-11     8.6792     96.580      0.544   0.495653    -0.1667      5.501 -1240.7455 7.8425e+01    -0.1192     -0.606     -0.879    20.5860 0.0000e+00
     -0.617 -1.411e-10     8.6767     96.554      0.516   0.470308    -0.1667      5.501 -1240.7455 7.3294e+01    -0.0442     -0.605     -0.878    20.5867 0.0000e+00
     -0.617 -1.552e-09     8.6759     96.547      0.515   0.469052    -0.1656      5.499 -1240.7455 6.7429e+01    -0.0405     -0.606     -0.879    20.5876 0.0000e+00
     -0.617 -1.707e-08     8.6757     96.545      0.527   0.480458    -0.1716      5.501 -1240.7455 6.1843e+01    -0.0450     -0.605     -0.878    20.5885 0.0000e+00
     -0.618 -1.878e-07     8.6751     96.537      0.528   0.481400    -0.1662      5.506 -1240.7455 5.7937e+01    -0.0677     -0.606     -0.879    20.5894 0.0000e+00
     -0.618 -1.878e-07     8.6749     96.533      0.527   0.480446    -0.1652      5.512 -1240.7455 5.4452e+01    -0.1308     -0.606     -0.879    20.5901 0.0000e+00
     -0.618 -1.707e-08     8.6754     96.537      0.515   0.468926    -0.1782      5.516 -1240.7455 5.0988e+01    -0.1978     -0.606     -0.879    20.5907 0.0000e+00
     -0.618 -1.552e-09     8.6755     96.538      0.515   0.468927    -0.1843      5.517 -1240.7455 4.9164e+01    -0.2383     -0.606     -0.879    20.5911 0.0000e+00
     -0.618 -1.411e-10     8.6763     96.548      0.527   0.480457    -0.1838      5.518 -1240.7455 5.1867e+01    -0.2839     -0.606     -0.878    20.5904 0.0000e+00
     -0.617 -1.283e-11     8.6773     96.559      0.528   0.481513    -0.1815      5.518 -1240.7455 6.5463e+01    -0.3837     -0.605     -0.878    20.5894 0.0000e+00
     -0.617 -1.166e-12     8.6773     96.559      0.528   0.481703    -0.1839      5.517 -1240.7455 8.7037e+01    -0.4676     -0.605     -0.878    20.5887 0.0000e+00
     -0.618 -1.060e-13     8.6773     96.560      0.529   0.482751    -0.1949      5.517 -1240.7455 1.0311e+02    -0.4745     -0.606     -0.879    20.5883 0.0000e+00
     -0.618 -9.640e-15     8.6780     96.569      0.542   0.494177    -0.1951      5.518 -1240.7455 1.0994e+02    -0.4364     -0.606     -0.878    20.5881 0.0000e+00
     -0.618 -8.760e-16     8.6787     96.576      0.541   0.493035    -0.1861      5.520 -1240.7455 1.0958e+02    -0.4038     -0.606     -0.878    20.5880 0.0000e+00
     -0.618 -7.965e-17     8.6789     96.578      0.515   0.468936    -0.1880      5.521 -1240.7455 1.0444e+02    -0.4163     -0.606     -0.879    20.5886 0.0000e+00
     -0.618 -7.240e-18     8.6799     96.588      0.501   0.456453    -0.1902      5.521 -1240.7455 9.8249e+01    -0.4351     -0.606     -0.878    20.5893 0.0000e+00
     -0.618 -6.585e-19     8.6809     96.595      0.515   0.468927    -0.1850      5.521 -1240.7455 9.1276e+01    -0.3870     -0.606     -0.879    20.5900 0.0000e+00
     -0.618 -5.985e-20     8.6794     96.574      0.541   0.492930    -0.1803      5.521 -1240.7455 8.4387e+01    -0.2918     -0.606     -0.879    20.5901 0.0000e+00
     -0.618 -5.440e-21     8.6770     96.544      0.541   0.493033    -0.1795      5.523 -1240.7455 7.9402e+01    -0.2298     -0.606     -0.879    20.5898 0.0000e+00
     -0.618 -4.900e-22     8.6768     96.541      0.516   0.470173    -0.1844      5.524 -1240.7455 7.5641e+01    -0.2177     -0.606     -0.878    20.5899 0.0000e+00
     -0.618 6.1479e-24     8.6786     96.563      0.516   0.470175    -0.1842      5.524 -1240.7455 7.0721e+01    -0.2377     -0.606     -0.879    20.5874 0.0000e+00
     -0.618 5.5810e-22     8.6805     96.586      0.541   0.493054    -0.1769      5.526 -1240.7455 6.4229e+01    -0.2886     -0.606     -0.878    20.5838 0.0000e+00
     -0.618 6.1837e-21     8.6811     96.594      0.541   0.493159    -0.1698      5.529 -1240.7455 5.6977e+01    -0.3138     -0.606     -0.878    20.5822 0.0000e+00
     -0.618 6.8025e-20     8.6808     96.590      0.517   0.471442    -0.1632      5.532 -1240.7455 4.9631e+01    -0.2680     -0.606     -0.879    20.5822 0.0000e+00
     -0.617 7.4827e-19     8.6806     96.588      0.531   0.484124    -0.1701      5.535 -1240.7455 4.5701e+01    -0.2233     -0.605     -0.878    20.5832 0.0000e+00
     -0.617 8.2310e-18     8.6814     96.599      0.570   0.519667    -0.1881      5.537 -1240.7455 4.5187e+01    -0.2304     -0.605     -0.878    20.5843 0.0000e+00
     -0.618 9.0541e-17     8.6828     96.616      0.571   0.520714    -0.1973      5.536 -1240.7455 4.3444e+01    -0.2322     -0.606     -0.879    20.5849 0.0000e+00
     -0.618 9.9595e-16     8.6831     96.621      0.545   0.496786    -0.1894      5.535 -1240.7455 4.2026e+01    -0.1837     -0.606     -0.879    20.5845 0.0000e+00
     -0.618 1.0955e-14     8.6820     96.611      0.531   0.484008    -0.1764      5.537 -1240.7455 4.3946e+01    -0.1631     -0.606     -0.879    20.5846 0.0000e+00
     -0.618 1.2051e-13     8.6803     96.592      0.541   0.493043    -0.1772      5.542 -1240.7455 4.6190e+01    -0.2581     -0.606     -0.879    20.5857 0.0000e+00
     -0.618 1.3256e-12     8.6793     96.581      0.526   0.479200    -0.1805      5.548 -1240.7455 4.7630e+01    -0.3866     -0.606     -0.879    20.5869 0.0000e+00
     -0.618 1.4582e-11     8.6793     96.579      0.486   0.443458    -0.1701      5.551 -1240.7455 5.0498e+01    -0.4345     -0.606     -0.880    20.5881 0.0000e+00
     -0.618 1.6040e-10     8.6785     96.569      0.484   0.441361    -0.1627      5.552 -1240.7455 5.5873e+01    -0.4397     -0.606     -0.879    20.5892 0.0000e+00
     -0.618 1.7644e-09     8.6766     96.549      0.498   0.453845    -0.1644      5.555 -1240.7455 6.1201e+01    -0.3886     -0.606     -0.879    20.5898 0.0000e+00
     -0.618 1.9408e-08     8.6752     96.534      0.513   0.467571    -0.1639      5.557 -1240.7452 5.6550e+01    -0.2741     -0.606     -0.879    20.5889 0.0000e+00
     -0.618 2.1349e-07     8.6757     96.542      0.527   0.480504    -0.1745      5.560 -1240.7417 4.4710e+01    -0.2156     -0.605     -0.878    20.5877 0.0000e+00
     -0.618      0.000     8.6777     96.566      0.530   0.483393    -0.1914      5.563 -1240.7032 4.1534e+01    -0.2308     -0.606     -0.879    20.5872 0.0000e+00
     -0.617      0.000     8.6799     96.592      0.551   0.502499    -0.1928      5.564 -1240.2799 4.7238e+01    -0.2446     -0.605     -0.878    20.5878 0.0000e+00
     -0.617      0.000     8.6818     96.615      0.641   0.584689    -0.1922      5.571 -1235.6244 5.3545e+01    -0.2291     -0.605     -0.878    20.5883 0.0000e+00
     -0.617      0.003     8.6802     96.611      1.478   1.350327    -0.1842      5.639 -1184.4133 5.9771e+01    -0.2572     -0.606     -0.879    20.5895 0.0000e+00
     -0.617      0.014     8.6635     96.592      5.800   5.320707    -0.1693      5.805  -621.0910 6.9923e+01    -0.3102     -0.605     -0.878    20.5898 0.0000e+00
     -0.617      0.035     8.6092     96.599     12.577  11.609346    -0.1865      6.005   459.1321 8.3350e+01    -0.3198     -0.605     -0.878    20.5916 0.0000e+00
     -0.616      0.060     8.5210     96.623     16.398  15.281675    -0.3368      6.190  1121.5649 9.5258e+01    -0.5566     -0.605     -0.878    20.5899 0.0000e+00
     -0.606      0.079     8.4404     96.643     16.968  15.972090    -0.5899      6.377  1227.4868 1.0309e+02    -1.0379     -0.605     -0.878    20.5921 0.0000e+00
     -0.572      0.086     8.3877     96.662     16.902  16.022826    -0.7288      6.566  1217.5663 1.0884e+02    -1.3170     -0.570     -0.827    20.5869 0.0000e+00
     -0.521      0.086     8.3542     96.673     19.481  18.560617    -0.7378      6.770  1001.6161 1.1899e+02    -1.3365     -0.502     -0.728    20.8973 0.0000e+00
     -0.485      0.083     8.3337     96.678     25.519  24.376003    -0.5617      7.020   595.5275 1.3295e+02    -1.0908     -0.463     -0.671    21.6019 0.0000e+00
     -0.476      0.080     8.3218     96.690     30.067  28.760746    -0.2354      7.273   357.1931 1.4119e+02    -0.6653     -0.463     -0.670    22.1299 0.0000e+00
     -0.481      0.081     8.3120     96.702     31.247  29.929851    -0.0744      7.448   322.1957 1.4375e+02    -0.4338     -0.475     -0.688    22.4230 0.0000e+00
     -0.477      0.092     8.2989     96.704     31.268  30.002819    -0.0392      7.519   318.3862 1.6057e+02     0.0297     -0.476     -0.691    22.6403 0.0000e+00
     -0.453      0.117     8.2829     96.714     31.221  30.024094     0.1993      7.515   314.2298 3.6655e+02     4.9987     -0.450     -0.654    22.7527 0.0000e+00
     -0.411      0.152     8.2721     96.784     31.189  30.060169     0.6047      7.473   306.0124 5.5709e+02    14.0529     -0.406     -0.590    22.8222 0.0000e+00
     -0.359      0.183     8.2751     96.969     31.134  30.058071     0.8185      7.423   300.5091 3.6482e+02    18.9559     -0.353     -0.513    22.8789 0.0000e+00
     -0.302      0.202     8.2928     97.273     31.039  29.998805     0.8363      7.380   297.6787 1.4143e+02    19.0225     -0.296     -0.430    22.9588 0.0000e+00
     -0.243      0.205     8.3226     97.683     30.932  29.915165     0.8658      7.350   296.2261 9.2915e+01    14.5531     -0.238     -0.345    23.0781 0.0000e+00
     -0.185      0.197     8.3631     98.198     30.874  29.872370     0.9268      7.332   295.7666 6.8995e+01     6.2679     -0.180     -0.261    23.1952 0.0000e+00
     -0.132      0.183     8.4099     98.768     30.856  29.862414     0.9673      7.319   295.5639 6.0214e+01     1.7344     -0.125     -0.182    23.2775 0.0000e+00
     -0.089      0.166     8.4578     99.333     30.851  29.858301     0.9779      7.306   295.4964 5.3173e+01     1.3049     -0.081     -0.118    23.3264 0.0000e+00
     -0.054      0.147     8.5019     99.850     30.880  29.886147     0.9724      7.293   295.2080 4.4333e+01     1.2882     -0.053     -0.077    23.3542 0.0000e+00
     -0.022      0.127     8.5396    100.290     30.941  29.945080     0.9754      7.282   294.6583 3.9809e+01     1.3190     -0.023     -0.033    23.3772 0.0000e+00
      0.012      0.108     8.5734    100.678     31.001  29.999317     1.0048      7.275   294.1847 3.8059e+01     1.3105      0.013      0.019    23.3876 0.0000e+00
      0.041      0.093     8.6066    101.047     31.043  30.033887     1.0241      7.275   293.9553 3.4462e+01     1.2771      0.043      0.062    23.3864 0.0000e+00
      0.062      0.081     8.6223    101.208     31.063  30.045538     1.0253      7.275   294.1215 3.1751e+01     1.2817      0.064      0.093    23.3837 0.0000e+00
      0.075      0.072     8.5764    100.650     31.037  30.013164     1.0282      7.269   294.3017 3.0505e+01     1.3058      0.075      0.109    23.3855 0.0000e+00
      0.086      0.062     8.4462     99.104     30.987  29.959968     1.0318      7.260   294.1554 2.9595e+01     1.3233      0.083      0.120    23.3824 0.0000e+00
      0.101      0.052     8.2527     96.816     30.942  29.910372     1.0326      7.255   294.0731 2.9337e+01     1.3103      0.096      0.139    23.3673 0.0000e+00
      0.120      0.042     8.0292     94.173     30.896  29.858025     1.0290      7.255   294.1670 2.9645e+01     1.2705      0.118      0.172    23.3555 0.0000e+00
      0.137      0.032     7.8024     91.489     30.881  29.835069     1.0247      7.260   294.1724 2.9958e+01     1.2695      0.139      0.201    23.3462 0.0000e+00
      0.143      0.022     7.5920     89.004     30.876  29.823307     1.0263      7.265   293.9657 3.0292e+01     1.2989      0.144      0.208    23.3360 0.0000e+00
      0.140      0.015     7.4138     86.906     30.834  29.779309     1.0297      7.269   293.6469 3.0757e+01     1.3205      0.139      0.202    23.3280 0.0000e+00
      0.135      0.015     7.2768     85.299     30.801  29.747604     1.0290      7.272   293.3294 3.1002e+01     1.3469      0.130      0.190    23.3152 0.0000e+00
      0.133      0.023     7.1812     84.181     30.811  29.757484     1.0277      7.271   293.0524 3.0706e+01     1.4048      0.127      0.184    23.2991 0.0000e+00
      0.139      0.038     7.1141     83.397     30.824  29.771764     1.0319      7.261   293.0504 3.0111e+01     1.4716      0.134      0.194    23.2874 0.0000e+00
      0.152      0.058     7.0609     82.775     30.846  29.793264     1.0336      7.247   293.3914 3.0307e+01     1.4829      0.147      0.213    23.2834 0.0000e+00
      0.170      0.078     7.0142     82.227     30.881  29.826925     1.0302      7.237   293.9061 3.1171e+01     1.4800      0.165      0.239    23.2834 0.0000e+00
      0.195      0.095     6.9670     81.674     30.916  29.861239     1.0452      7.234   294.5409 3.1655e+01     1.4984      0.187      0.273    23.2848 0.0000e+00
      0.226      0.114     6.9205     81.128     30.947  29.890630     1.0778      7.230   295.3889 3.2176e+01     1.4912      0.222      0.322    23.2883 0.0000e+00
      0.258      0.137     6.8855     80.699     30.928  29.864770     1.1031      7.218   296.3304 3.3362e+01     1.4851      0.254      0.369    23.2894 0.0000e+00
      0.286      0.158     6.8760     80.538     30.885  29.802565     1.1116      7.198   296.9750 3.4978e+01     1.4860      0.281      0.409    23.2876 0.0000e+00
      0.318      0.172     6.9122     80.893     30.883  29.773523     1.1063      7.169   297.2466 3.6961e+01     1.4708      0.301      0.437    23.2883 0.0000e+00
      0.375      0.176     7.0012     81.870     30.903  29.767594     1.0944      7.143   297.3771 3.9994e+01     1.5158      0.357      0.519    23.2921 0.0000e+00
      0.446      0.168     7.1124     83.121     30.952  29.794343     1.0874      7.128   297.5196 4.3674e+01     1.6328      0.451      0.655    23.2844 0.0000e+00
      0.499      0.149     7.2040     84.158     31.082  29.906404     1.0954      7.119   297.5934 4.7030e+01     1.7262      0.495      0.717    23.2476 0.0000e+00
      0.532      0.119     7.2565     84.748     31.299  30.106438     1.1084      7.113   297.5809 5.1235e+01     1.7593      0.524      0.760    23.1958 0.0000e+00
      0.553      0.082     7.2650     84.823     31.584  30.371300     1.1346      7.108   297.3686 5.7714e+01     1.6978      0.550      0.798    23.1530 0.0000e+00
      0.562      0.047     7.2265     84.342     31.935  30.695625     1.1723      7.103   296.9201 6.6798e+01     1.5925      0.553      0.801    23.1215 0.0000e+00
      0.562      0.025     7.1471     83.379     32.312  31.043013     1.1873      7.101   296.6317 7.7741e+01     1.5542      0.552      0.801    23.1010 0.0000e+00
      0.561      0.013     7.0500     82.211     32.629  31.332661     1.1785      7.102   296.6345 8.6881e+01     1.5400      0.550      0.797    23.0902 0.0000e+00
      0.561      0.008     6.9675     81.216     32.849  31.530373     1.1678      7.103   296.8677 9.0226e+01     1.5425      0.549      0.796    23.0770 0.0000e+00
      0.563      0.008     6.9211     80.651     32.991  31.655275     1.1682      7.101   297.1287 8.7227e+01     1.6151      0.552      0.800    23.0556 0.0000e+00
      0.567      0.009     6.9145     80.554     33.112  31.763165     1.1746      7.100   297.2087 8.0497e+01     1.6861      0.556      0.807    23.0309 0.0000e+00
      0.571      0.009     6.9384     80.817     33.242  31.882202     1.1803      7.102   297.1474 7.3956e+01     1.7290      0.560      0.813    23.0072 0.0000e+00
      0.574      0.008     6.9759     81.244     33.319  31.951347     1.1998      7.106   296.9896 6.9277e+01     1.7988      0.564      0.818    22.9859 0.0000e+00
      0.576      0.005     7.0140     81.683     33.335  31.964083     1.2273      7.107   296.8494 6.5887e+01     1.8581      0.565      0.820    22.9695 0.0000e+00
      0.576      0.003     7.0434     82.023     33.345  31.972684     1.2363      7.105   296.8294 6.3377e+01     1.8975      0.565      0.819    22.9575 0.0000e+00
      0.576      0.001     7.0553     82.161     33.365  31.991824     1.2363      7.104   296.9200 6.1576e+01     1.9385      0.564      0.819    22.9476 0.0000e+00
      0.575      0.001     7.0493     82.091     33.379  32.004974     1.2358      7.104   296.9981 6.0731e+01     1.8664      0.563      0.817    22.9408 0.0000e+00
      0.575      0.002     7.0324     81.894     33.379  32.004661     1.2297      7.104   297.0001 6.1152e+01     1.7264      0.563      0.816    22.9377 0.0000e+00
      0.575      0.003     7.0099     81.629     33.363  31.988043     1.2272      7.105   297.0295 6.2840e+01     1.6801      0.563      0.817    22.9367 0.0000e+00
      0.577      0.004     6.9850     81.337     33.304  31.931062     1.2333      7.106   297.0953 6.5747e+01     1.7041      0.565      0.821    22.9364 0.0000e+00
      0.579      0.004     6.9594     81.040     33.258  31.887297     1.2392      7.107   297.0209 6.9473e+01     1.7413      0.568      0.825    22.9372 0.0000e+00
      0.580      0.004     6.9337     80.744     33.273  31.903457     1.2335      7.106   296.9046 7.5009e+01     1.6733      0.569      0.825    22.9371 0.0000e+00
      0.580      0.004     6.9074     80.444     33.304  31.935926     1.2293      7.104   297.0660 8.2362e+01     1.5226      0.568      0.825    22.9350 0.0000e+00
      0.581      0.004     6.8787     80.117     33.329  31.962325     1.2348      7.103   297.4235 8.8084e+01     1.4747      0.569      0.826    22.9328 0.0000e+00
      0.583      0.003     6.8449     79.732     33.331  31.968605     1.2358      7.100   297.6132 9.2547e+01     1.4917      0.571      0.828    22.9335 0.0000e+00
      0.584      0.003     6.8033     79.255     33.306  31.948357     1.2136      7.095   297.6396 9.6329e+01     1.4842      0.571      0.829    22.9366 0.0000e+00
      0.585      0.002     6.7529     78.671     33.262  31.908048     1.1768      7.088   297.7423 9.7137e+01     1.4747      0.574      0.832    22.9400 0.0000e+00
      0.585      0.001     6.6964     78.008     33.217  31.862295     1.1673      7.081   297.8221 9.6408e+01     1.4997      0.575      0.834    22.9439 0.0000e+00
      0.584      0.000     6.6394     77.328     33.201  31.839731     1.1821      7.075   297.8300 9.4932e+01     1.5420      0.573      0.832    22.9507 0.0000e+00
      0.584     -0.001     6.5904     76.738     33.196  31.825755     1.1990      7.072   297.9238 9.3204e+01     1.5275      0.572      0.830    22.9575 0.0000e+00
      0.584     -0.002     6.5557     76.315     33.200  31.820320     1.2165      7.071   298.0966 9.2246e+01     1.4772      0.573      0.831    22.9601 0.0000e+00
      0.584     -0.002     6.5378     76.087     33.226  31.837509     1.2278      7.070   298.2836 9.2720e+01     1.4535      0.574      0.832    22.9579 0.0000e+00
      0.583     -0.001     6.5412     76.107     33.241  31.843040     1.2345      7.067   298.4646 9.5561e+01     1.4540      0.573      0.830    22.9463 0.0000e+00
      0.582      0.000     6.5658     76.377     33.229  31.823676     1.2521      7.063   298.5636 9.9931e+01     1.5440      0.571      0.828    22.9304 0.0000e+00
      0.582      0.000     6.6006     76.767     33.205  31.793892     1.2753      7.058   298.5348 1.0608e+02     1.6870      0.571      0.828    22.9175 0.0000e+00
      0.583      0.001     6.6347     77.151     33.152  31.736960     1.2848      7.055   298.5465 1.1264e+02     1.7181      0.572      0.829    22.9045 0.0000e+00
      0.584      0.002     6.6597     77.432     33.059  31.643395     1.2937      7.053   298.7048 1.1713e+02     1.7062      0.573      0.831    22.8909 0.0000e+00
      0.585      0.002     6.6689     77.532     32.966  31.551734     1.3000      7.050   298.9868 1.2381e+02     1.7271      0.574      0.832    22.8796 0.0000e+00
      0.586      0.002     6.6603     77.427     32.866  31.454311     1.2966      7.048   299.2883 1.3428e+02     1.7271      0.574      0.833    22.8698 0.0000e+00
      0.586      0.002     6.6336     77.114     32.763  31.354577     1.2983      7.045   299.5108 1.3853e+02     1.7361      0.574      0.833    22.8603 0.0000e+00
      0.586      0.001     6.5929     76.637     32.706  31.298490     1.3028      7.043   299.6987 1.3489e+02     1.7446      0.574      0.833    22.8529 0.0000e+00
      0.586      0.000     6.5456     76.086     32.693  31.284238     1.3042      7.043   299.9246 1.3110e+02     1.7379      0.574      0.832    22.8482 0.0000e+00
      0.587     -0.001     6.4961     75.506     32.721  31.309272     1.3060      7.042   300.1775 1.2594e+02     1.7775      0.575      0.835    22.8456 0.0000e+00
      0.587     -0.001     6.4454     74.910     32.763  31.347134     1.3062      7.041   300.2618 1.1990e+02     1.8571      0.576      0.836    22.8439 0.0000e+00
      0.586     -0.001     6.3969     74.339     32.781  31.360978     1.2972      7.038   300.2555 1.1656e+02     1.9062      0.574      0.833    22.8423 0.0000e+00
      0.584     -0.001     6.3544     73.837     32.773  31.349630     1.2900      7.035   300.3593 1.1581e+02     1.9146      0.573      0.831    22.8401 0.0000e+00
      0.584     -0.001     6.3185     73.413     32.764  31.336950     1.2930      7.030   300.3988 1.1698e+02     1.9274      0.572      0.830    22.8377 0.0000e+00
      0.584     -0.001     6.2874     73.044     32.765  31.334662     1.2969      7.027   300.3889 1.1523e+02     1.9387      0.573      0.831    22.8335 0.0000e+00
      0.584     -0.001     6.2586     72.703     32.755  31.321959     1.3004      7.025   300.4970 1.1315e+02     1.9302      0.573      0.832    22.8279 0.0000e+00
      0.584      0.000     6.2311     72.377     32.745  31.310383     1.2983      7.022   300.5885 1.1760e+02     1.9161      0.573      0.831    22.8222 0.0000e+00
      0.584 -1.877e-08     6.2023     72.037     32.760  31.321710     1.3265      7.019   300.6347 1.2013e+02     1.9202      0.573      0.831    22.8165 0.0000e+00
      0.583 -2.065e-07     6.1720     71.680     32.774  31.331893     1.3929      7.019   300.7968 1.1393e+02     1.9494      0.572      0.830    22.8116 0.0000e+00
      0.583 -2.065e-07     6.1405     71.309     32.750  31.306479     1.4305      7.016   301.0000 1.0738e+02     1.9641      0.572      0.829    22.8072 0.0000e+00
      0.584 -1.877e-08     6.1064     70.908     32.713  31.268468     1.4318      7.011   301.1128 1.0489e+02     1.9758      0.573      0.831    22.8026 0.0000e+00
      0.584 -1.703e-09     6.0695     70.477     32.698  31.253352     1.4446      7.008   301.2134 1.0314e+02     1.9993      0.573      0.831    22.7981 0.0000e+00
      0.584 -1.271e-10     6.0309     70.027     32.697  31.250730     1.4844      7.006   301.3562 1.0108e+02     2.0031      0.573      0.831    22.7940 0.0000e+00
      0.584 2.9354e-10     5.9928     69.584     32.683  31.236750     1.5086      7.005   301.5492 1.0010e+02     1.9926      0.573      0.831    22.7898 0.0000e+00
      0.584 3.3828e-09     5.9548     69.141     32.657  31.211335     1.4987      7.003   301.6541 1.0107e+02     1.9639      0.572      0.831    22.7864 0.0000e+00
      0.584 3.7225e-08     5.9172     68.705     32.642  31.197478     1.4569      7.001   301.5919 1.0406e+02     1.9300      0.571      0.829    22.7845 0.0000e+00
      0.584 4.0947e-07     5.8812     68.285     32.642  31.196218     1.3988      6.998   301.5713 1.0751e+02     1.9491      0.572      0.830    22.7833 0.0000e+00
      0.584      0.000     5.8454     67.867     32.643  31.196103     1.3749      6.997   301.6634 1.0877e+02     1.9815      0.572      0.830    22.7825 0.0000e+00
      0.584      0.000     5.8095     67.446     32.645  31.196083     1.3790      6.997   301.7594 1.0902e+02     1.9865      0.573      0.831    22.7818 0.0000e+00
      0.584      0.001     5.7740     67.027     32.648  31.195978     1.3745      6.998   301.8711 1.0799e+02     1.9786      0.573      0.832    22.7816 0.0000e+00
      0.584      0.001     5.7412     66.638     32.652  31.194833     1.3291      6.998   301.9821 1.0446e+02     1.9163      0.573      0.831    22.7809 0.0000e+00
      0.584      0.001     5.7133     66.306     32.643  31.182237     1.2621      6.998   302.0681 1.0177e+02     1.8128      0.573      0.831    22.7789 0.0000e+00
      0.584      0.000     5.6885     66.011     32.635  31.170691     1.2365      6.999   302.1367 9.9140e+01     1.7343      0.572      0.830    22.7754 0.0000e+00
      0.585     -0.001     5.6646     65.727     32.651  31.182239     1.2307      6.999   302.2096 9.4080e+01     1.6997      0.574      0.832    22.7702 0.0000e+00
      0.585     -0.001     5.6429     65.469     32.667  31.194835     1.2375      6.999   302.3470 8.8721e+01     1.6992      0.575      0.834    22.7636 0.0000e+00
      0.584      0.000     5.6220     65.222     32.671  31.195969     1.2734      7.000   302.4215 8.5336e+01     1.7292      0.573      0.832    22.7570 0.0000e+00
      0.583 3.9150e-07     5.6015     64.979     32.674  31.195950     1.2965      7.000   302.5078 8.4398e+01     1.7565      0.571      0.829    22.7514 0.0000e+00
      0.583      0.000     5.5863     64.798     32.675  31.194596     1.2955      7.001   302.6165 8.4401e+01     1.7245      0.571      0.828    22.7468 0.0000e+00
      0.584      0.000     5.5734     64.644     32.661  31.179598     1.2897      7.001   302.5306 8.4314e+01     1.6167      0.573      0.831    22.7423 0.0000e+00
      0.585      0.001     5.5585     64.466     32.624  31.141628     1.2907      7.001   302.3300 8.5131e+01     1.5210      0.574      0.832    22.7376 0.0000e+00
      0.585      0.001     5.5431     64.284     32.600  31.116540     1.2984      7.002   302.1702 8.6578e+01     1.5139      0.573      0.832    22.7335 0.0000e+00
      0.585      0.001     5.5271     64.096     32.616  31.130300     1.3094      7.004   302.1472 8.8153e+01     1.5307      0.574      0.833    22.7298 0.0000e+00
      0.585      0.001     5.5096     63.890     32.671  31.180975     1.3131      7.007   302.2240 8.9300e+01     1.5101      0.574      0.832    22.7258 0.0000e+00
      0.585      0.001     5.4915     63.677     32.981  31.475210     1.3067      7.009   302.3244 8.8519e+01     1.4787      0.573      0.832    22.7222 0.0000e+00
      0.585      0.001     5.4773     63.512     33.553  32.020470     1.3057      7.009   302.5005 8.6290e+01     1.4870      0.573      0.831    22.7196 0.0000e+00
      0.586      0.001     5.4996     63.776     33.921  32.375316     1.3105      7.009   302.6326 8.3705e+01     1.5186      0.574      0.832    22.7177 0.0000e+00
      0.586      0.001     5.6469     65.503     34.003  32.463097     1.3085      7.009   302.5444 8.1018e+01     1.5561      0.575      0.834    22.7152 0.0000e+00
      0.586      0.001     6.0128     69.770     34.040  32.510224     1.2996      7.008   302.4673 7.8569e+01     1.6341      0.575      0.834    22.7124 0.0000e+00
      0.586      0.001     6.5839     76.413     34.088  32.564067     1.2951      7.007   302.5604 7.6768e+01     1.7001      0.575      0.834    22.7092 0.0000e+00
      0.586      0.002     7.2474     84.118     34.130  32.606017     1.3001      7.004   302.6377 7.5901e+01     1.7126      0.574      0.833    22.7106 0.0000e+00
      0.586      0.002     7.9021     91.711     34.165  32.636376     1.3049      7.000   302.7128 7.6335e+01     1.6941      0.574      0.833    22.7288 0.0000e+00
      0.587      0.001     8.4869     98.487     34.211  32.677073     1.2977      6.994   302.6085 7.7862e+01     1.6593      0.575      0.835    22.7507 0.0000e+00
      0.589      0.000     8.9619    103.985     34.258  32.716998     1.2963      6.989   302.0653 8.0210e+01     1.6881      0.577      0.838    22.7627 0.0000e+00
      0.589      0.000     9.3042    107.938     34.286  32.738016     1.3064      6.985   301.5648 8.2886e+01     1.7371      0.578      0.839    22.7645 0.0000e+00
      0.588     -0.001     9.5006    110.199     34.295  32.740658     1.3093      6.983   301.4618 8.5172e+01     1.7342      0.578      0.838    22.7573 0.0000e+00
      0.586     -0.002     9.5580    110.852     34.242  32.685418     1.3315      6.984   301.3363 8.6989e+01     1.7439      0.574      0.833    22.7532 0.0000e+00
      0.585     -0.002     9.5227    110.443     34.063  32.514703     1.3830      6.986   301.1655 8.8580e+01     1.7326      0.573      0.832    22.7471 0.0000e+00
      0.585     -0.001     9.4502    109.633     33.724  32.200863     1.4168      6.988   301.2900 9.0209e+01     1.6887      0.575      0.834    22.7362 0.0000e+00
      0.585      0.000     9.3681    108.753     33.359  31.875848     1.4275      6.991   301.4650 9.1484e+01     1.7014      0.575      0.834    22.7271 0.0000e+00
      0.585      0.001     9.2855    107.895     33.138  31.697044     1.4205      6.991   301.5605 9.2554e+01     1.7333      0.573      0.832    22.7204 0.0000e+00
      0.585      0.002     9.2014    107.016     32.964  31.563254     1.3962      6.989   301.7565 9.4035e+01     1.7082      0.573      0.831    22.7176 0.0000e+00
      0.587      0.002     9.1069    106.000     32.767  31.401424     1.3819      6.987   301.9424 9.5745e+01     1.6733      0.576      0.835    22.7284 0.0000e+00
      0.588      0.002     9.0008    104.837     32.533  31.201124     1.3768      6.984   302.0013 9.6375e+01     1.6768      0.577      0.837    22.7658 0.0000e+00
      0.588      0.001     8.8883    103.598     32.281  30.983213     1.3706      6.980   301.9523 9.5403e+01     1.7208      0.577      0.837    22.8231 0.0000e+00
      0.588     -0.001     8.7705    102.300     32.196  30.925970     1.3622      6.976   301.7804 9.4697e+01     1.7776      0.576      0.836    22.8743 0.0000e+00
      0.589     -0.003     8.6486    100.943     32.268  31.017109     1.3583      6.976   301.6439 9.5052e+01     1.7841      0.578      0.838    22.9119 0.0000e+00
      0.589     -0.005     8.5286     99.578     32.309  31.069075     1.3599      6.980   301.6778 9.5956e+01     1.7381      0.579      0.840    22.9480 0.0000e+00
      0.587     -0.005     8.4181     98.302     32.214  30.982743     1.3445      6.985   301.6748 9.9005e+01     1.7091      0.577      0.836    22.9811 0.0000e+00
      0.582     -0.005     8.3213     97.185     32.019  30.798878     1.3194      6.988   301.6924 1.0482e+02     1.7089      0.571      0.828    23.0237 0.0000e+00
      0.579     -0.005     8.2438     96.302     31.961  30.751188     1.3041      6.984   301.8049 1.1220e+02     1.7050      0.567      0.823    23.0642 0.0000e+00
      0.579     -0.005     8.1898     95.696     32.121  30.914200     1.2975      6.978   301.7442 1.2044e+02     1.6930      0.568      0.822    23.0782 0.0000e+00
      0.580     -0.007     8.1538     95.295     32.326  31.118672     1.2949      6.976   301.4743 1.2592e+02     1.6236      0.568      0.824    23.0822 0.0000e+00
      0.581     -0.013     8.1295     95.017     32.465  31.254717     1.2643      6.984   301.3814 1.2482e+02     1.5373      0.571      0.828    23.0878 0.0000e+00
      0.580     -0.024     8.1140     94.827     32.504  31.288955     1.2120      6.996   301.6536 1.2055e+02     1.5052      0.570      0.827    23.1006 0.0000e+00
      0.577     -0.038     8.1066     94.727     32.631  31.405628     1.1862      7.005   301.8406 1.1915e+02     1.4797      0.566      0.821    23.1176 0.0000e+00
      0.567     -0.048     8.1078     94.717     32.960  31.712757     1.1728      7.008   301.8348 1.2245e+02     1.4717      0.562      0.815    23.1287 0.0000e+00
      0.545     -0.053     8.1193     94.799     33.296  32.017474     1.1606      7.007   301.8420 1.2647e+02     1.5011      0.537      0.779    23.1332 0.0000e+00
      0.520     -0.051     8.1419     94.987     33.549  32.231957     1.1674      7.004   301.8420 1.2638e+02     1.5292      0.505      0.732    23.1261 0.0000e+00
      0.502     -0.043     8.1788     95.337     33.755  32.400686     1.1807      7.000   302.0066 1.2190e+02     1.5375      0.490      0.710    23.1178 0.0000e+00
      0.494     -0.032     8.2341     95.911     33.921  32.533248     1.1842      6.994   302.1967 1.1646e+02     1.5402      0.482      0.700    23.1105 0.0000e+00
      0.493     -0.018     8.3070     96.696     34.044  32.627980     1.1820      6.989   302.1620 1.1256e+02     1.5307      0.481      0.699    23.0812 0.0000e+00
      0.495     -0.006     8.3920     97.636     34.093  32.656881     1.1818      6.988   302.1897 1.0858e+02     1.5155      0.484      0.703    23.0317 0.0000e+00
      0.497      0.004     8.4846     98.679     34.076  32.628607     1.1818      6.988   302.4458 1.0434e+02     1.5080      0.487      0.708    22.9862 0.0000e+00
      0.497      0.018     8.5863     99.838     34.126  32.667180     1.1724      6.985   302.7631 1.0065e+02     1.5017      0.488      0.707    22.9487 0.0000e+00
      0.497      0.037     8.6971    101.089     34.284  32.805685     1.1601      6.983   303.1011 9.8289e+01     1.5614      0.486      0.705    22.9117 0.0000e+00
      0.499      0.055     8.8049    102.276     34.414  32.905959     1.1624      6.984   303.4347 9.6664e+01     1.6800      0.486      0.705    22.8843 0.0000e+00
      0.513      0.069     8.8933    103.232     34.461  32.926854     1.1720      6.986   303.6997 9.2915e+01     1.7451      0.493      0.715    22.8673 0.0000e+00
      0.547      0.078     8.9584    103.946     34.481  32.931254     1.1756      6.982   304.0681 8.9767e+01     1.7696      0.533      0.774    22.8593 0.0000e+00
      0.586      0.081     9.0088    104.516     34.516  32.959143     1.1877      6.975   304.4467 8.9041e+01     1.9152      0.584      0.847    22.8458 0.0000e+00
      0.609      0.079     9.0519    105.003     34.574  33.009990     1.2176      6.970   304.4915 8.6081e+01     2.1625      0.600      0.871    22.8044 0.0000e+00
      0.621      0.071     9.0896    105.409     34.615  33.037928     1.2426      6.969   304.2665 8.1802e+01     2.2882      0.608      0.882    22.7608 0.0000e+00
      0.630      0.061     9.1208    105.724     34.637  33.042867     1.2504      6.967   304.2200 7.9038e+01     2.3062      0.618      0.898    22.7406 0.0000e+00
      0.640      0.059     9.1451    105.955     34.683  33.069678     1.2476      6.965   304.4462 7.6667e+01     2.3185      0.624      0.907    22.7386 0.0000e+00
      0.653      0.065     9.1635    106.119     34.741  33.108020     1.2735      6.964   304.5921 7.4733e+01     2.3458      0.640      0.929    22.7372 0.0000e+00
      0.669      0.075     9.1773    106.227     34.778  33.125346     1.3338      6.962   304.6072 7.2870e+01     2.4218      0.655      0.952    22.7204 0.0000e+00
      0.690      0.083     9.1857    106.279     34.823  33.152119     1.3697      6.961   304.5436 7.0976e+01     2.4748      0.673      0.975    22.6925 0.0000e+00
      0.718      0.088     9.1909    106.302     34.863  33.177651     1.3766      6.961   304.4250 6.9812e+01     2.4674      0.705      1.021    22.6682 0.0000e+00
      0.746      0.090     9.1986    106.356     34.878  33.179974     1.4173      6.962   304.3776 6.9222e+01     2.3938      0.735      1.066    22.6457 0.0000e+00
      0.769      0.089     9.2099    106.452     34.891  33.180187     1.5035      6.965   304.4006 6.8862e+01     2.2565      0.755      1.097    22.6174 0.0000e+00
      0.789      0.088     9.2247    106.588     34.903  33.180207     1.5647      6.968   304.5316 6.8363e+01     2.1500      0.775      1.124    22.5944 0.0000e+00
      0.809      0.086     9.2439    106.767     34.918  33.180201     1.5778      6.968   304.6702 6.7408e+01     2.1121      0.793      1.150    22.5778 0.0000e+00
      0.830      0.085     9.2638    106.932     34.942  33.180101     1.5893      6.967   304.6993 6.6387e+01     2.0428      0.814      1.182    22.5616 0.0000e+00
      0.851      0.087     9.2754    106.981     34.971  33.178951     1.6110      6.966   304.7980 6.5147e+01     1.9225      0.835      1.211    22.5430 0.0000e+00
      0.875      0.092     9.2729    106.860     34.991  33.166254     1.6204      6.966   305.0032 6.3605e+01     1.8782      0.856      1.243    22.5272 0.0000e+00
      0.899      0.099     9.2546    106.547     35.014  33.153568     1.6379      6.965   305.2883 6.2423e+01     1.9045      0.882      1.279    22.5115 0.0000e+00
      0.922      0.108     9.2222    106.034     35.064  33.152546     1.7771      6.962   305.5768 6.1303e+01     1.9660      0.904      1.311    22.4771 0.0000e+00
      0.948      0.114     9.1799    105.352     35.138  33.153827     2.0079      6.957   305.7383 6.0010e+01     2.0730      0.927      1.344    22.4320 0.0000e+00
      0.979      0.115     9.1309    104.583     35.231  33.168972     2.1209      6.952   305.8643 5.8817e+01     2.1295      0.957      1.389    22.3869 0.0000e+00
      1.017      0.112     9.0810    103.848     35.335  33.208529     2.1326      6.950   305.9833 5.7581e+01     2.1299      0.997      1.447    22.3439 0.0000e+00
      1.053      0.105     9.0366    103.222     35.425  33.250938     2.1856      6.949   306.0577 5.6406e+01     2.1394      1.037      1.504    22.2821 0.0000e+00
      1.080      0.096     9.0021    102.737     35.512  33.300585     2.2752      6.948   306.0753 5.5581e+01     2.1215      1.063      1.541    22.1747 0.0000e+00
      1.096      0.087     8.9805    102.410     35.610  33.364151     2.3237      6.947   306.0235 5.5082e+01     2.0964      1.075      1.559    22.0579 0.0000e+00
      1.111      0.081     8.9713    102.203     35.671  33.384323     2.3317      6.946   306.1209 5.4809e+01     2.1104      1.087      1.578    21.9790 0.0000e+00
      1.128      0.081     8.9691    102.049     35.688  33.353896     2.3450      6.942   306.4783 5.4644e+01     2.1994      1.105      1.605    21.9237 0.0000e+00
      1.147      0.088     8.9684    101.883     35.707  33.313761     2.3555      6.932   306.9031 5.4279e+01     2.3180      1.124      1.630    21.8762 0.0000e+00
      1.169      0.097     8.9653    101.644     35.750  33.280069     2.3573      6.921   307.2993 5.3689e+01     2.3244      1.144      1.659    21.8488 0.0000e+00
      1.197      0.103     8.9585    101.367     35.810  33.264004     2.3480      6.913   307.5689 5.3038e+01     2.2762      1.172      1.700    21.7944 0.0000e+00
      1.229      0.106     8.9517    101.132     35.854  33.246447     2.3352      6.913   307.6680 5.2253e+01     2.2848      1.205      1.748    21.7259 0.0000e+00
      1.261      0.107     8.9463    100.926     35.855  33.194744     2.2940      6.916   307.8954 5.1553e+01     2.3063      1.239      1.798    21.6585 0.0000e+00
      1.288      0.109     8.9431    100.709     35.737  33.019878     2.1999      6.919   308.3386 5.0960e+01     2.2920      1.265      1.835    21.5393 0.0000e+00
      1.311      0.113     8.9408    100.414     35.379  32.592893     2.1341      6.920   308.7252 5.0245e+01     2.2641      1.285      1.863    21.4275 0.0000e+00
      1.334      0.119     8.9335     99.945     34.781  31.906274     2.1328      6.918   308.9565 4.9528e+01     2.2746      1.307      1.895    21.3576 0.0000e+00
      1.362      0.125     8.9145     99.270     34.114  31.132498     2.1016      6.913   309.1558 4.8801e+01     2.5109      1.332      1.933    21.2904 0.0000e+00
      1.398      0.130     8.8780     98.394     33.645  30.540617     2.0136      6.907   309.3280 4.7979e+01     2.9233      1.368      1.983    21.2086 0.0000e+00
      1.441      0.130     8.8306     97.450     33.585  30.338357     1.9608      6.903   309.4042 4.7199e+01     3.1110      1.414      2.051    21.0808 0.0000e+00
      1.482      0.126     8.8022     96.840     33.628  30.274465     1.9595      6.905   309.4750 4.6441e+01     3.1018      1.455      2.112    20.8732 0.0000e+00
      1.515      0.121     8.8341     97.024     33.268  29.894962     1.9881      6.908   309.6682 4.5656e+01     3.2397      1.490      2.160    20.6219 0.0000e+00
      1.539      0.119     8.9505     98.140     32.743  29.369522     2.0411      6.908   309.9331 4.5002e+01     3.4956      1.513      2.194    20.3738 0.0000e+00
      1.556      0.120     9.1354     99.905     32.428  29.001682     2.0665      6.909   310.0961 4.4424e+01     3.5720      1.524      2.212    20.1395 0.0000e+00
      1.579      0.125     9.3513    101.922     32.268  28.749461     2.0570      6.910   310.1768 4.3740e+01     3.4925      1.544      2.239    19.9755 0.0000e+00
      1.616      0.131     9.5679    103.897     32.097  28.478851     1.9901      6.911   310.2202 4.2935e+01     3.3885      1.580      2.291    19.9249 0.0000e+00
      1.662      0.138     9.7684    105.604     31.876  28.142612     1.8738      6.911   310.2764 4.2220e+01     3.2295      1.631      2.366    19.8687 0.0000e+00
      1.706      0.146     9.9333    106.809     31.748  27.858837     1.8175      6.910   310.6839 4.1744e+01     3.1269      1.677      2.433    19.7239 0.0000e+00
      1.741      0.155    10.0383    107.336     31.639  27.587488     1.8142      6.908   311.2759 4.1396e+01     3.0939      1.708      2.477    19.5434 0.0000e+00
      1.771      0.163    10.0796    107.214     31.540  27.337933     1.7790      6.905   311.3251 4.1100e+01     2.8612      1.737      2.518    19.3688 0.0000e+00
      1.804      0.166    10.0705    106.602     31.616  27.254172     1.7230      6.904   311.0210 4.0675e+01     2.4805      1.766      2.561    19.1641 0.0000e+00
      1.848      0.162    10.0297    105.778     31.771  27.273027     1.6978      6.906   310.8682 3.9726e+01     2.3045      1.802      2.614    18.8701 0.0000e+00
      1.909      0.152     9.9789    105.035     31.887  27.311763     1.6957      6.910   310.7686 3.8896e+01     2.2901      1.872      2.715    18.5806 0.0000e+00
      1.967      0.136     9.9359    104.513     31.945  27.341478     1.6875      6.913   310.7638 3.8724e+01     2.3063      1.944      2.818    18.3337 0.0000e+00
      1.998      0.116     9.9129    104.224     32.004  27.378288     1.6815      6.915   310.8960 3.8438e+01     2.2866      1.966      2.851    18.0781 0.0000e+00
      2.009      0.096     9.9149    104.078     32.134  27.439339     1.6875      6.916   311.0759 3.8205e+01     2.1746      1.970      2.858    17.8813 0.0000e+00
      2.017      0.081     9.9325    103.921     32.336  27.508099     1.6957      6.917   311.3039 3.8115e+01     2.1112      1.976      2.867    17.8003 0.0000e+00
      2.028      0.077     9.9437    103.637     32.556  27.574555     1.6894      6.917   311.5887 3.7793e+01     2.1298      1.985      2.880    17.7828 0.0000e+00
      2.048      0.085     9.9263    103.096     32.725  27.607719     1.6842      6.914   311.9383 3.7419e+01     2.1858      2.006      2.910    17.7904 0.0000e+00
      2.075      0.095     9.8540    102.054     32.888  27.654950     1.6976      6.909   312.2614 3.7107e+01     2.2708      2.034      2.949    17.7322 0.0000e+00
      2.108      0.102     9.7029    100.279     33.022  27.701015     1.7042      6.903   312.4833 3.6929e+01     2.3027      2.067      2.998    17.5357 0.0000e+00
      2.140      0.105     9.4633     97.659     33.101  27.720125     1.6997      6.893   312.7279 3.6774e+01     2.2665      2.101      3.046    17.3352 0.0000e+00
      2.166      0.102     9.1529     94.346     33.192  27.758956     1.7533      6.881   313.0681 3.6636e+01     2.2597      2.126      3.082    17.1695 0.0000e+00
      2.190      0.095     8.8143     90.751     33.272  27.789480     1.8741      6.870   313.3276 3.6625e+01     2.2827      2.147      3.113    17.0231 0.0000e+00
      2.213      0.087     8.4767     87.186     33.365  27.835150     1.9480      6.860   313.5423 3.6674e+01     2.2691      2.171      3.147    16.9300 0.0000e+00
      2.234      0.079     8.1566     83.829     33.508  27.930105     1.9572      6.849   313.8581 3.6589e+01     2.2480      2.193      3.180    16.8614 0.0000e+00
      2.254      0.074     7.8697     80.804     33.687  28.048568     2.0212      6.838   314.1336 3.6416e+01     2.3022      2.211      3.207    16.8158 0.0000e+00
      2.271      0.071     7.6187     78.120     33.908  28.187944     2.1430      6.829   314.3785 3.6367e+01     2.4056      2.226      3.228    16.7567 0.0000e+00
      2.287      0.070     7.4026     75.779     34.162  28.345239     2.2079      6.820   314.6673 3.6349e+01     2.4609      2.242      3.253    16.6992 0.0000e+00
      2.304      0.071     7.2189     73.765     34.407  28.489839     2.2088      6.809   314.9592 3.6250e+01     2.4820      2.261      3.279    16.6789 0.0000e+00
      2.320      0.072     7.0513     71.922     34.614  28.602694     2.2001      6.797   315.2406 3.6207e+01     2.4779      2.275      3.299    16.6366 0.0000e+00
      2.338      0.073     6.8768     70.032     34.788  28.693677     2.2131      6.785   315.4021 3.6234e+01     2.4728      2.291      3.324    16.5651 0.0000e+00
      2.360      0.075     6.6787     67.927     34.924  28.764328     2.2466      6.772   315.5353 3.6200e+01     2.5113      2.314      3.356    16.4872 0.0000e+00
      2.381      0.076     6.4440     65.477     35.033  28.821853     2.2648      6.759   315.7324 3.6110e+01     2.5168      2.336      3.388    16.3978 0.0000e+00
      2.400      0.076     6.1653     62.599     35.135  28.881158     2.2673      6.746   315.9785 3.6047e+01     2.4773      2.354      3.414    16.3079 0.0000e+00
      2.418      0.076     5.8527     59.388     35.272  28.973333     2.3135      6.733   316.3604 3.6122e+01     2.4603      2.370      3.438    16.2329 0.0000e+00
      2.437      0.075     5.5307     56.087     35.465  29.110782     2.4098      6.718   316.6500 3.6321e+01     2.4643      2.389      3.465    16.1719 0.0000e+00
      2.456      0.075     5.2173     52.869     35.693  29.272959     2.4666      6.705   316.7262 3.6436e+01     2.4643      2.409      3.493    16.1281 0.0000e+00
      2.474      0.076     4.9244     49.856     35.975  29.473588     2.4677      6.693   316.8514 3.6560e+01     2.4608      2.425      3.518    16.0941 0.0000e+00
      2.494      0.078     4.6632     47.159     36.292  29.694918     2.4690      6.682   317.0454 3.6799e+01     2.4826      2.446      3.547    16.0667 0.0000e+00
      2.514      0.082     4.4343     44.789     36.614  29.916868     2.4725      6.668   317.1800 3.6982e+01     2.5149      2.467      3.578    16.0424 0.0000e+00
      2.534      0.089     4.2310     42.683     36.921  30.124936     2.4648      6.647   317.2737 3.7250e+01     2.5157      2.485      3.604    16.0045 0.0000e+00
      2.555      0.095     4.0445     40.738     37.210  30.305430     2.4675      6.624   317.4040 3.7572e+01     2.4926      2.506      3.634    15.9649 0.0000e+00
      2.578      0.100     3.8606     38.814     37.622  30.574981     2.4687      6.604   317.6374 3.7486e+01     2.5097      2.527      3.664    15.9098 0.0000e+00
      2.608      0.102     3.6661     36.795     38.105  30.907185     2.4606      6.588   317.7724 3.7059e+01     2.6007      2.554      3.704    15.8459 0.0000e+00
      2.642      0.100     3.4576     34.655     38.384  31.083095     2.4702      6.574   317.8317 3.6865e+01     2.6774      2.594      3.761    15.8014 0.0000e+00
      2.672      0.096     3.2346     32.388     38.465  31.114106     2.4845      6.560   318.0099 3.6680e+01     2.7049      2.624      3.805    15.7263 0.0000e+00
      2.693      0.090     2.9998     30.023     38.612  31.218595     2.4958      6.545   318.2065 3.6158e+01     2.8109      2.640      3.830    15.6247 0.0000e+00
      2.711      0.083     2.7609     27.627     38.917  31.457297     2.5149      6.533   318.4017 3.5765e+01     3.0131      2.659      3.856    15.5493 0.0000e+00
      2.729      0.077     2.5209     25.218     39.801  32.158433     2.5316      6.523   318.5624 3.5481e+01     3.1358      2.675      3.880    15.4814 0.0000e+00
      2.748      0.074     2.2869     22.861     43.437  35.059541     2.5414      6.512   318.6875 3.4720e+01     3.1647      2.694      3.907    15.4269 0.0000e+00
      2.767      0.075     2.0688     20.643     50.128  40.362289     2.5409      6.502   318.7104 3.3667e+01     3.1797      2.715      3.937    15.4206 0.0000e+00
      2.785      0.079     1.8693     18.599     57.983  46.528705     2.4983      6.491   318.7530 3.2989e+01     3.1643      2.731      3.961    15.4150 0.0000e+00
      2.802      0.084     1.6914     16.775     65.722  52.549840     2.4309      6.477   318.8585 3.2559e+01     3.1314      2.747      3.984    15.3967 0.0000e+00
      2.823      0.089     1.5316     15.139     70.085  55.825313     2.3973      6.462   318.6091 3.1852e+01     3.1170      2.767      4.013    15.3877 0.0000e+00
      2.849      0.092     1.3701     13.496     70.180  55.679973     2.3944      6.447   318.1466 3.0905e+01     3.1430      2.792      4.050    15.2878 0.0000e+00
      2.878      0.092     1.1858     11.646     67.932  53.717458     2.3873      6.429   317.8269 3.0073e+01     3.2324      2.823      4.093    15.1277 0.0000e+00
      2.905      0.089     0.9760      9.564     64.148  50.598643     2.3575      6.412   317.6685 2.9438e+01     3.3129      2.851      4.135    14.9952 0.0000e+00
      2.927      0.082     0.7543      7.379     60.147  47.342143     2.3285      6.399   317.7801 2.8860e+01     3.3225      2.871      4.165    14.8307 0.0000e+00
      2.946      0.074     0.5335      5.211     57.112  44.855328     2.3215      6.388   317.7996 2.8386e+01     3.3489      2.889      4.189    14.6502 0.0000e+00
      2.962      0.067     0.3273      3.191     56.378  44.174063     2.2823      6.378   316.9577 2.8039e+01     3.4794      2.907      4.215    14.5176 0.0000e+00
      2.977      0.064     0.1473      1.435     58.398  45.651078     2.2036      6.372   313.7954 2.7627e+01     3.6790      2.919      4.235    14.4271 0.0000e+00
      2.990      0.068     0.0016      0.018     61.495  47.968961     2.1597      6.368   307.2695 2.7261e+01     3.7800      2.931      4.251    14.3487 0.0000e+00
      3.005      0.076    -0.0947     -0.916     63.207  49.190870     2.1373      6.366   298.6253 2.7016e+01     3.7849      2.947      4.274    14.2675 0.0000e+00
      3.021      0.084    -0.1371     -1.324     63.862  49.555701     2.0623      6.369   289.8979 2.6518e+01     3.8906      2.961      4.294    14.1731 0.0000e+00
      3.043      0.089    -0.1404     -1.353     65.905  50.981250     1.9509      6.376   282.6245 2.5672e+01     4.0807      2.979      4.321    14.0814 0.0000e+00
      3.077      0.092    -0.1200     -1.154     68.787  53.077020     1.8929      6.385   276.7611 2.4841e+01     4.1919      3.017      4.376    14.0044 0.0000e+00
      3.110      0.093    -0.0833     -0.800     71.238  54.869369     1.8942      6.391   272.0041 2.4217e+01     4.2279      3.055      4.432    13.9197 0.0000e+00
      3.131      0.093    -0.0380     -0.364     72.566  55.803099     1.9758      6.394   268.7301 2.3731e+01     4.4853      3.072      4.456    13.8020 0.0000e+00
      3.146      0.090     0.0086      0.082     72.419  55.591966     2.1263      6.397   266.4285 2.3260e+01     4.9843      3.083      4.472    13.6680 0.0000e+00
      3.165      0.087     0.0523      0.500     72.001  55.177893     2.2061      6.400   264.3951 2.2596e+01     5.2572      3.101      4.499    13.5674 0.0000e+00
      3.189      0.089     0.0880      0.841     71.359  54.611702     2.2145      6.403   262.5566 2.1897e+01     5.2818      3.128      4.537    13.5074 0.0000e+00
      3.213      0.097     0.1145      1.092     68.926  52.688235     2.2104      6.403   260.9780 2.1394e+01     5.3728      3.152      4.571    13.4517 0.0000e+00
      3.238      0.105     0.1368      1.303     65.659  50.104485     2.1926      6.405   259.3318 2.0829e+01     5.5642      3.173      4.603    13.3768 0.0000e+00
      3.264      0.110     0.1573      1.495     64.125  48.801508     2.1836      6.411   257.5374 2.0061e+01     5.7040      3.199      4.639    13.3085 0.0000e+00
      3.295      0.108     0.1752      1.661     64.076  48.631109     2.1928      6.420   255.8009 1.9121e+01     5.7207      3.228      4.681    13.2571 0.0000e+00
      3.330      0.103     0.1891      1.790     63.750  48.298322     2.2128      6.430   253.9963 1.8172e+01     5.7050      3.267      4.738    13.2224 0.0000e+00
      3.362      0.094     0.1994      1.885     62.104  47.002404     2.3140      6.440   251.9796 1.7484e+01     5.6973      3.302      4.789    13.1700 0.0000e+00
      3.384      0.083     0.2081      1.965     59.681  45.102203     2.4883      6.450   249.7428 1.7002e+01     5.6885      3.321      4.817    13.0490 0.0000e+00
      3.398      0.073     0.2147      2.022     56.949  42.928493     2.5738      6.459   247.3431 1.6575e+01     5.6905      3.332      4.835    12.9263 0.0000e+00
      3.409      0.069     0.2197      2.063     53.215  39.975634     2.5945      6.469   245.0762 1.6162e+01     5.6905      3.342      4.849    12.8645 0.0000e+00
      3.421      0.072     0.2248      2.103     49.708  37.166656     2.7756      6.478   243.3281 1.5757e+01     5.5666      3.355      4.865    12.8447 0.0000e+00
      3.436      0.081     0.2317      2.158     48.221  35.840609     3.0817      6.487   242.1243 1.5284e+01     5.3523      3.368      4.884    12.8009 0.0000e+00
      3.458      0.091     0.2427      2.249     48.319  35.695299     3.2352      6.494   241.0180 1.4619e+01     5.2666      3.387      4.912    12.6915 0.0000e+00
      3.488      0.095     0.2616      2.414     48.944  35.981234     3.2533      6.500   239.7609 1.3847e+01     5.2624      3.419      4.959    12.5626 0.0000e+00
      3.524      0.093     0.2935      2.703     49.443  36.248415     3.4290      6.505   238.4534 1.3178e+01     5.1485      3.458      5.015    12.3953 0.0000e+00
      3.554      0.085     0.3479      3.201     49.324  36.130520     3.7606      6.510   237.1684 1.2707e+01     4.9278      3.490      5.062    12.1612 0.0000e+00
      3.574      0.073     0.4357      4.006     48.928  35.826270     3.9356      6.515   236.0124 1.2442e+01     4.7906      3.507      5.089    11.9198 0.0000e+00
      3.584      0.059     0.5572      5.120     49.037  35.873068     3.9368      6.518   234.9729 1.2308e+01     4.8019      3.516      5.099    11.7253 0.0000e+00
      3.592      0.046     0.7054      6.478     49.597  36.251640     3.8484      6.519   233.8923 1.2164e+01     4.8817      3.522      5.108    11.6247 0.0000e+00
      3.601      0.038     0.8697      7.987     50.327  36.782540     3.6849      6.518   232.7557 1.1970e+01     4.9612      3.531      5.122    11.6195 0.0000e+00
      3.611      0.034     1.0353      9.512     51.842  37.908747     3.5874      6.516   231.7264 1.1810e+01     5.0011      3.542      5.138    11.6226 0.0000e+00
      3.620      0.032     1.1894     10.934     56.869  41.609562     3.5698      6.513   230.9113 1.1702e+01     5.0281      3.551      5.151    11.5744 0.0000e+00
      3.627      0.029     1.3212     12.149     69.622  50.964122     3.5816      6.508   230.2139 1.1588e+01     5.0737      3.557      5.159    11.5298 0.0000e+00
      3.634      0.026     1.4210     13.072     89.806  65.768447     3.6107      6.502   229.4890 1.1456e+01     5.1555      3.565      5.169    11.5328 0.0000e+00
      3.641      0.022     1.4878     13.695    112.276  82.276946     3.6283      6.494   228.6852 1.1312e+01     5.2230      3.571      5.179    11.5586 0.0000e+00
      3.646      0.020     1.5214     14.015    127.043  93.169351     3.6381      6.486   227.7230 1.1181e+01     5.2496      3.576      5.186    11.5830 0.0000e+00
      3.650      0.020     1.5239     14.047    124.165  91.124864     3.6734      6.478   226.2865 1.1077e+01     5.2635      3.581      5.193    11.5957 0.0000e+00
      3.654      0.020     1.5009     13.842    109.171  80.171184     3.7250      6.470   224.7390 1.0997e+01     5.2694      3.584      5.198    11.6079 0.0000e+00
      3.659      0.021     1.4494     13.372     95.881  70.449517     3.7467      6.460   224.0687 1.0910e+01     5.2601      3.587      5.203    11.6306 0.0000e+00
      3.664      0.023     1.3614     12.563     94.316  69.319347     3.7522      6.451   223.9471 1.0731e+01     5.2423      3.592      5.210    11.6650 0.0000e+00
      3.670      0.025     1.2345     11.392    105.910  77.831735     3.7543      6.442   223.3554 1.0400e+01     5.2376      3.599      5.219    11.6971 0.0000e+00
      3.678      0.027     1.0752      9.920    125.960  92.538356     3.6807      6.431   222.3345 9.9637e+00     5.2339      3.607      5.232    11.7181 0.0000e+00
      3.687      0.027     0.8986      8.290    150.025 110.206654     3.5427      6.436   221.3256 9.5040e+00     5.2581      3.616      5.245    11.7394 0.0000e+00
      3.694      0.026     0.7265      6.704    170.622 125.370503     3.4632      6.491   220.1918 9.0824e+00     5.3172      3.623      5.254    11.7520 0.0000e+00
      3.700      0.024     0.5769      5.325    183.216 134.690991     3.4548      6.596   218.9502 8.7371e+00     5.3373      3.630      5.264    11.7457 0.0000e+00
      3.705      0.022     0.4552      4.204    189.396 139.302743     3.4420      6.722   218.0145 8.4531e+00     5.3485      3.634      5.271    11.7297 0.0000e+00
      3.710      0.020     0.3627      3.351    191.771 141.105663     3.3999      6.840   217.4815 8.1834e+00     5.4230      3.638      5.276    11.7205 0.0000e+00
      3.715      0.017     0.2973      2.748    191.616 141.037593     3.3687      6.938   217.1528 7.8509e+00     5.4744      3.643      5.283    11.7317 0.0000e+00
      3.721      0.015     0.2519      2.330    190.073 139.948918     3.3687      7.016   216.8791 7.4383e+00     5.4821      3.649      5.292    11.7547 0.0000e+00
      3.726      0.013     0.2164      2.001    187.936 138.414695     3.3900      7.082   216.6676 7.1326e+00     5.6689      3.655      5.301    11.7743 0.0000e+00
      3.728      0.012     0.1834      1.697    187.522 138.130268     3.4147      7.141   217.3481 7.1297e+00     6.0237      3.657      5.304    11.7883 0.0000e+00
      3.728      0.012     0.1519      1.406    190.939 140.659674     3.4197      7.191   212.6317 7.2276e+00     6.2327      3.655      5.301    11.7986 0.0000e+00
      3.729      0.013     0.1196      1.106    195.406 143.967410     3.4218      7.231   195.9503 7.0799e+00     6.2717      3.655      5.302    11.8120 0.0000e+00
      3.733      0.014     0.0886      0.819    198.306 146.131196     3.4225      7.266   176.0322 6.7135e+00     6.4037      3.660      5.309    11.8257 0.0000e+00
      3.738      0.016     0.0638      0.591    199.631 147.151088     3.4005      7.294   159.0249 6.2347e+00     6.6393      3.665      5.317    11.8279 0.0000e+00
      3.744      0.017     0.0461      0.427    200.016 147.484610     3.3761      7.317   143.7244 5.6395e+00     6.7394      3.671      5.323    11.8298 0.0000e+00
      3.749      0.016     0.0360      0.333    199.956 147.481090     3.3671      7.335   132.3983 5.0980e+00     6.7293      3.678      5.333    11.8352 0.0000e+00
      3.754      0.016     0.0331      0.306    199.861 147.427968     3.3648      7.342   128.0814 4.7774e+00     6.7310      3.682      5.342    11.8398 0.0000e+00
      3.757 -9.990e-29 -9.990e-29 -9.990e-29 -9.990e-29 -9.990e-29 -9.990e-29 -9.990e-29 -9.990e-29 4.5845e+00 -9.990e-29      3.684      5.344    11.8524 0.0000e+00
      3.759 -9.990e-29 -9.990e-29 -9.990e-29 -9.990e-29 -9.990e-29 -9.990e-29 -9.990e-29 -9.990e-29 4.4451e+00 -9.990e-29      3.686      5.347    11.8665 0.0000e+00
      3.761 -9.990e-29 -9.990e-29 -9.990e-29 -9.990e-29 -9.990e-29 -9.990e-29 -9.990e-29 -9.990e-29 4.4912e+00 -9.990e-29      3.688      5.350    11.8775 0.0000e+00
      3.762 -9.990e-29 -9.990e-29 -9.990e-29 -9.990e-29 -9.990e-29 -9.990e-29 -9.990e-29 -9.990e-29 4.5848e+00 -9.990e-29      3.690      5.352    11.8836 0.0000e+00
