* Sea-Bird SBE19plus  Data File:
* FileName = C:\DATA\060619_fcr50_2.hex
* Software version 2.8.0.119
* Temperature SN = 7809
* Conductivity SN = 7809
* System UpLoad Time = Jun 06 2019 11:59:46
* <ApplicationData>
* <Seaterm232>
* <SoftwareVersion>2.8.0.119</SoftwareVersion>
* <BuildDate>07-Nov-2018</BuildDate>
* </Seaterm232>
* </ApplicationData>
* <InstrumentState>
* <HardwareData DeviceType='SBE19plus' SerialNumber='01907809'>
*
*    <Manufacturer>Sea-Bird Electronics, Inc.</Manufacturer>
*
*    <FirmwareVersion>3.1.8</FirmwareVersion>
*
*    <FirmwareDate>Mar  9 2016 16:22:29</FirmwareDate>
*
*    <CommandSetVersion>1.4</CommandSetVersion>
*
*    <PCBAssembly PCBSerialNum='120721' AssemblyNum='41054J'/>
*
*    <PCBAssembly PCBSerialNum='120715' AssemblyNum='41967A'/>
*
*    <PCBAssembly PCBSerialNum='116699' AssemblyNum='41606'/>
*
*    <PCBAssembly PCBSerialNum='120719' AssemblyNum='41059D'/>
*
*    <MfgDate>28-Apr-2017</MfgDate>
*
*    <InternalSensors>
*
*       <Sensor id='Main Temperature'>
*
*          <type>temperature0</type>
*
*          <SerialNumber>01907809</SerialNumber>
*
*       </Sensor>
*
*       <Sensor id='Main Conductivity'>
*
*          <type>conductivity-0</type>
*
*          <SerialNumber>01907809</SerialNumber>
*
*       </Sensor>
*
*       <Sensor id='Main Pressure'>
*
*          <type>strain-0</type>
*
*          <SerialNumber>10586018</SerialNumber>
*
*       </Sensor>
*
*    </InternalSensors>
*
*    <ExternalSensors>
*
*       <Sensor id='volt 0'>
*
*          <type>pH</type>
*
*          <SerialNumber>27-0363</SerialNumber>
*
*       </Sensor>
*
*       <Sensor id='volt 1'>
*
*          <type>ORP</type>
*
*          <SerialNumber>27-0363</SerialNumber>
*
*       </Sensor>
*
*       <Sensor id='volt 2'>
*
*          <type>OXY</type>
*
*          <SerialNumber>43-0434</SerialNumber>
*
*       </Sensor>
*
*       <Sensor id='volt 3'>
*
*          <type>PAR</type>
*
*          <SerialNumber>1122</SerialNumber>
*
*       </Sensor>
*
*       <Sensor id='volt 4'>
*
*          <type>ECO AFL/FL</type>
*
*          <SerialNumber>FLNTURT-2496</SerialNumber>
*
*       </Sensor>
*
*       <Sensor id='volt 5'>
*
*          <type>ECO-NTU</type>
*
*          <SerialNumber>FLNTURT-2496</SerialNumber>
*
*       </Sensor>
*
*       <Sensor id='serial'>
*
*          <type>not assigned</type>
*
*          <SerialNumber>not assigned</SerialNumber>
*
*       </Sensor>
*
*    </ExternalSensors>
*
* </HardwareData>
* <StatusData DeviceType='SBE19plus' SerialNumber='01907809'>
*
*    <DateTime>2019-06-06T08:58:05</DateTime>
*
*    <LoggingState>not logging</LoggingState>
*
*    <EventSummary numEvents='0'/>
*
*    <Power>
*
*       <vMain>13.6</vMain>
*
*       <vLith>8.7</vLith>
*
*       <iMain>63.0</iMain>
*
*       <iPump>62.4</iPump>
*
*       <iExt01>18.8</iExt01>
*
*       <iExt2345>34.1</iExt2345>
*
*    </Power>
*
*    <MemorySummary>
*
*       <Bytes>43033</Bytes>
*
*       <Samples>1871</Samples>
*
*       <SamplesFree>2858917</SamplesFree>
*
*       <SampleLength>23</SampleLength>
*
*       <Profiles>2</Profiles>
*
*    </MemorySummary>
*
* </StatusData>
* <ConfigurationData DeviceType='SBE19plus' SerialNumber='01907809'>
*
*    <ProfileMode>
*
*       <ScansToAverage>1</ScansToAverage>
*
*       <MinimumCondFreq>5</MinimumCondFreq>
*
*       <PumpDelay>45</PumpDelay>
*
*       <AutoRun>no</AutoRun>
*
*       <IgnoreSwitch>no</IgnoreSwitch>
*
*    </ProfileMode>
*
*    <Battery>
*
*       <Type>alkaline</Type>
*
*       <CutOff>7.5</CutOff>
*
*    </Battery>
*
*    <DataChannels>
*
*       <ExtVolt0>yes</ExtVolt0>
*
*       <ExtVolt1>yes</ExtVolt1>
*
*       <ExtVolt2>yes</ExtVolt2>
*
*       <ExtVolt3>yes</ExtVolt3>
*
*       <ExtVolt4>yes</ExtVolt4>
*
*       <ExtVolt5>yes</ExtVolt5>
*
*       <SBE38>no</SBE38>
*
*       <WETLABS>no</WETLABS>
*
*       <OPTODE>no</OPTODE>
*
*       <SBE63>no</SBE63>
*
*       <SeaFET>no</SeaFET>
*
*       <GTD>no</GTD>
*
*    </DataChannels>
*
*    <EchoCharacters>yes</EchoCharacters>
*
*    <OutputExecutedTag>yes</OutputExecutedTag>
*
*    <OutputFormat>raw HEX</OutputFormat>
*
* </ConfigurationData>
* <CalibrationCoefficients DeviceType='SBE19plus' SerialNumber='01907809'>
*
*    <Calibration format='TEMP1' id='Main Temperature'>
*
*       <SerialNum>01907809</SerialNum>
*
*       <CalDate>24-Mar-19</CalDate>
*
*       <TA0>1.217923e-03</TA0>
*
*       <TA1>2.816693e-04</TA1>
*
*       <TA2>-1.603333e-06</TA2>
*
*       <TA3>1.984146e-07</TA3>
*
*       <TOFFSET>0.000000e+00</TOFFSET>
*
*    </Calibration>
*
*    <Calibration format='WBCOND0' id='Main Conductivity'>
*
*       <SerialNum>01907809</SerialNum>
*
*       <CalDate>24-Mar-19</CalDate>
*
*       <G>-1.005893e+00</G>
*
*       <H>1.268163e-01</H>
*
*       <I>-1.515604e-04</I>
*
*       <J>2.671373e-05</J>
*
*       <CPCOR>-9.570000e-08</CPCOR>
*
*       <CTCOR>3.250000e-06</CTCOR>
*
*       <CSLOPE>1.000000e+00</CSLOPE>
*
*    </Calibration>
*
*    <Calibration format='STRAIN0' id='Main Pressure'>
*
*       <SerialNum>10586018</SerialNum>
*
*       <CalDate>11-Mar-19</CalDate>
*
*       <PA0>4.565618e-02</PA0>
*
*       <PA1>4.850951e-04</PA1>
*
*       <PA2>-2.883271e-12</PA2>
*
*       <PTCA0>5.252467e+05</PTCA0>
*
*       <PTCA1>1.223042e+01</PTCA1>
*
*       <PTCA2>-3.567450e-01</PTCA2>
*
*       <PTCB0>2.516687e+01</PTCB0>
*
*       <PTCB1>3.750000e-04</PTCB1>
*
*       <PTCB2>0.000000e+00</PTCB2>
*
*       <PTEMPA0>-5.487846e+01</PTEMPA0>
*
*       <PTEMPA1>5.537568e+01</PTEMPA1>
*
*       <PTEMPA2>-5.867271e-01</PTEMPA2>
*
*       <POFFSET>5.000000e-01</POFFSET>
*
*       <PRANGE>1.600000e+02</PRANGE>
*
*    </Calibration>
*
*    <Calibration format='VOLT0' id='Volt 0'>
*
*       <OFFSET>-4.920000e-02</OFFSET>
*
*       <SLOPE>1.248122e+00</SLOPE>
*
*    </Calibration>
*
*    <Calibration format='VOLT0' id='Volt 1'>
*
*       <OFFSET>-4.784000e-02</OFFSET>
*
*       <SLOPE>1.248871e+00</SLOPE>
*
*    </Calibration>
*
*    <Calibration format='VOLT0' id='Volt 2'>
*
*       <OFFSET>-4.864632e-02</OFFSET>
*
*       <SLOPE>1.248714e+00</SLOPE>
*
*    </Calibration>
*
*    <Calibration format='VOLT0' id='Volt 3'>
*
*       <OFFSET>-4.743790e-02</OFFSET>
*
*       <SLOPE>1.248571e+00</SLOPE>
*
*    </Calibration>
*
*    <Calibration format='VOLT0' id='Volt 4'>
*
*       <OFFSET>-4.671263e-02</OFFSET>
*
*       <SLOPE>1.248951e+00</SLOPE>
*
*    </Calibration>
*
*    <Calibration format='VOLT0' id='Volt 5'>
*
*       <OFFSET>-4.871053e-02</OFFSET>
*
*       <SLOPE>1.249136e+00</SLOPE>
*
*    </Calibration>
*
*    <Calibration format='FREQ0' id='external frequency channel'>
*
*       <EXTFREQSF>1.000014e+00</EXTFREQSF>
*
*    </Calibration>
*
* </CalibrationCoefficients>
* <EventCounters DeviceType='SBE19plus' SerialNumber='01907809'>
*
*    <EventSummary numEvents='0'/>
*
* </EventCounters></InstrumentState>
* <Headers>
*
* cast   2 06 Jun 2019 06:36:59 samples 1004 to 1871, avg = 1, stop = mag switch
*
# nquan = 18
# nvalues = 783                         
# units = specified
# name 0 = depFM: Depth [fresh water, m]
# name 1 = tv290C: Temperature [ITS-90, deg C]
# name 2 = sbeox0Mg/L: Oxygen, SBE 43 [mg/l]
# name 3 = sbeox0PS: Oxygen, SBE 43 [% saturation]
# name 4 = c0uS/cm: Conductivity [uS/cm]
# name 5 = specc: Specific Conductance [uS/cm]
# name 6 = ph: pH
# name 7 = orp: Oxidation Reduction Potential [mV]
# name 8 = flECO-AFL: Fluorescence, WET Labs ECO-AFL/FL [mg/m^3]
# name 9 = turbWETntu0: Turbidity, WET Labs ECO [NTU]
# name 10 = sal00: Salinity, Practical [PSU]
# name 11 = dz/dtM: Descent Rate [m/s]
# name 12 = prdM: Pressure, Strain Gauge [db]
# name 13 = prdE: Pressure, Strain Gauge [psi]
# name 14 = scan: Scan Count
# name 15 = par/sat/log: PAR/Logarithmic, Satlantic
# name 16 = density00: Density [density, kg/m^3]
# name 17 = flag:  0.000e+00
# span 0 =     -0.639,      9.570       
# span 1 =     9.5062,    22.8679       
# span 2 =     3.6951,    13.0954       
# span 3 =     32.401,    143.192       
# span 4 =  -0.070603,  85.898618       
# span 5 =      0.455,    122.861       
# span 6 =      6.871,     11.069       
# span 7 = -1240.7455,  1240.2295       
# span 8 =    -0.1522,     6.2719       
# span 9 =    -0.6431,     4.5480       
# span 10 =     0.0111,     0.0574      
# span 11 =     -0.119,      0.247      
# span 12 =     -0.626,      9.384      
# span 13 =     -0.908,     13.611      
# span 14 =          1,        783      
# span 15 = 1.2203e-01, 4.4363e+02      
# span 16 =   997.5815,   999.8314      
# span 17 = 0.0000e+00, 0.0000e+00      
# interval = seconds: 0.25
# start_time = Jun 06 2019 06:36:59 [Instrument's time stamp, header]
# bad_flag = -9.990e-29
# <Sensors count="9" >
#   <sensor Channel="1" >
#     <!-- Count, Temperature -->
#     <TemperatureSensor SensorID="58" >
#       <SerialNumber>7809</SerialNumber>
#       <CalibrationDate>24-Mar-19</CalibrationDate>
#       <A0>1.21792325e-003</A0>
#       <A1>2.81669265e-004</A1>
#       <A2>-1.60333336e-006</A2>
#       <A3>1.98414625e-007</A3>
#       <Slope>1.00000000</Slope>
#       <Offset>0.0000</Offset>
#     </TemperatureSensor>
#   </sensor>
#   <sensor Channel="2" >
#     <!-- Frequency 0, Conductivity -->
#     <ConductivitySensor SensorID="3" >
#       <SerialNumber>7809</SerialNumber>
#       <CalibrationDate>24-Mar-19</CalibrationDate>
#       <UseG_J>1</UseG_J>
#       <!-- Cell const and series R are applicable only for wide range sensors. -->
#       <SeriesR>0.0000</SeriesR>
#       <CellConst>2000.0000</CellConst>
#       <ConductivityType>0</ConductivityType>
#       <Coefficients equation="0" >
#         <A>0.00000000e+000</A>
#         <B>0.00000000e+000</B>
#         <C>0.00000000e+000</C>
#         <D>0.00000000e+000</D>
#         <M>0.0</M>
#         <CPcor>-9.57000000e-008</CPcor>
#       </Coefficients>
#       <Coefficients equation="1" >
#         <G>-1.00589325e+000</G>
#         <H>1.26816302e-001</H>
#         <I>-1.51560448e-004</I>
#         <J>2.67137274e-005</J>
#         <CPcor>-9.57000000e-008</CPcor>
#         <CTcor>3.2500e-006</CTcor>
#         <!-- WBOTC not applicable unless ConductivityType = 1. -->
#         <WBOTC>0.00000000e+000</WBOTC>
#       </Coefficients>
#       <Slope>1.00000000</Slope>
#       <Offset>0.00000</Offset>
#     </ConductivitySensor>
#   </sensor>
#   <sensor Channel="3" >
#     <!-- Count, Pressure, Strain Gauge -->
#     <PressureSensor SensorID="46" >
#       <SerialNumber>7809</SerialNumber>
#       <CalibrationDate>11-Mar-19</CalibrationDate>
#       <PA0>4.56561833e-002</PA0>
#       <PA1>4.85095118e-004</PA1>
#       <PA2>-2.88327090e-012</PA2>
#       <PTEMPA0>-5.48784562e+001</PTEMPA0>
#       <PTEMPA1>5.53756816e+001</PTEMPA1>
#       <PTEMPA2>-5.86727098e-001</PTEMPA2>
#       <PTCA0>5.25246745e+005</PTCA0>
#       <PTCA1>1.22304214e+001</PTCA1>
#       <PTCA2>-3.56745036e-001</PTCA2>
#       <PTCB0>2.51668750e+001</PTCB0>
#       <PTCB1>3.75000000e-004</PTCB1>
#       <PTCB2>0.00000000e+000</PTCB2>
#       <Offset>0.000000</Offset>
#     </PressureSensor>
#   </sensor>
#   <sensor Channel="4" >
#     <!-- A/D voltage 0, Oxygen, SBE 43 -->
#     <OxygenSensor SensorID="38" >
#       <SerialNumber>0434</SerialNumber>
#       <CalibrationDate>13-Apr-19</CalibrationDate>
#       <Use2007Equation>1</Use2007Equation>
#       <CalibrationCoefficients equation="0" >
#         <!-- Coefficients for Owens-Millard equation. -->
#         <Boc>0.0000</Boc>
#         <Soc>0.0000e+000</Soc>
#         <offset>0.0000</offset>
#         <Pcor>0.00e+000</Pcor>
#         <Tcor>0.0000</Tcor>
#         <Tau>0.0</Tau>
#       </CalibrationCoefficients>
#       <CalibrationCoefficients equation="1" >
#         <!-- Coefficients for Sea-Bird equation - SBE calibration in 2007 and later. -->
#         <Soc>4.2007e-001</Soc>
#         <offset>-0.6109</offset>
#         <A>-4.3656e-003</A>
#         <B> 1.7017e-004</B>
#         <C>-2.5341e-006</C>
#         <D0> 2.5826e+000</D0>
#         <D1> 1.92634e-004</D1>
#         <D2>-4.64803e-002</D2>
#         <E> 3.6000e-002</E>
#         <Tau20> 1.1800</Tau20>
#         <H1>-3.3000e-002</H1>
#         <H2> 5.0000e+003</H2>
#         <H3> 1.4500e+003</H3>
#       </CalibrationCoefficients>
#     </OxygenSensor>
#   </sensor>
#   <sensor Channel="5" >
#     <!-- A/D voltage 1, PAR/Logarithmic, Satlantic -->
#     <PARLog_SatlanticSensor SensorID="76" >
#       <SerialNumber>1122</SerialNumber>
#       <CalibrationDate>08-May-2019</CalibrationDate>
#       <a0>9.7456e-001</a0>
#       <a1>8.1640e-001</a1>
#       <Im>1.3589e+000</Im>
#       <Multiplier>1.0000e+000</Multiplier>
#     </PARLog_SatlanticSensor>
#   </sensor>
#   <sensor Channel="6" >
#     <!-- A/D voltage 2, pH -->
#     <pH_Sensor SensorID="43" >
#       <SerialNumber>0363</SerialNumber>
#       <CalibrationDate>15-Apr-19</CalibrationDate>
#       <Slope>4.5952</Slope>
#       <Offset>2.5370</Offset>
#     </pH_Sensor>
#   </sensor>
#   <sensor Channel="7" >
#     <!-- A/D voltage 3, Oxidation Reduction Potential -->
#     <OxidationReductionPotentialSensor SensorID="41" >
#       <SerialNumber>0363</SerialNumber>
#       <CalibrationDate>15-Apr-19</CalibrationDate>
#       <B>2.499480</B>
#       <M>-0.496195</M>
#       <Offset>0.0</Offset>
#     </OxidationReductionPotentialSensor>
#   </sensor>
#   <sensor Channel="8" >
#     <!-- A/D voltage 4, Fluorometer, WET Labs ECO-AFL/FL -->
#     <FluoroWetlabECO_AFL_FL_Sensor SensorID="20" >
#       <SerialNumber>FLNTURT-2496</SerialNumber>
#       <CalibrationDate>08-May-2019</CalibrationDate>
#       <ScaleFactor>5.00000000e+001</ScaleFactor>
#       <!-- Dark output -->
#       <Vblank>0.0550</Vblank>
#     </FluoroWetlabECO_AFL_FL_Sensor>
#   </sensor>
#   <sensor Channel="9" >
#     <!-- A/D voltage 5, Turbidity Meter, WET Labs, ECO-NTU -->
#     <TurbidityMeter SensorID="67" >
#       <SerialNumber>FLNTURT-2496</SerialNumber>
#       <CalibrationDate>08-May-2019</CalibrationDate>
#       <ScaleFactor>189.000000</ScaleFactor>
#       <!-- Dark output -->
#       <DarkVoltage>0.071000</DarkVoltage>
#     </TurbidityMeter>
#   </sensor>
# </Sensors>
# datcnv_date = Jun 08 2019 09:49:36, 7.26.7.129 [datcnv_vars = 17]
# datcnv_in = C:\DATA\060619_fcr50_a.hex C:\DATA\SBE19plusV2_7809.xmlcon
# datcnv_skipover = 0
# datcnv_ox_hysteresis_correction = yes
# datcnv_ox_tau_correction = yes
# filter_date = Jun 08 2019 09:49:53, 7.26.7.129
# filter_in = C:\DATA\060619_fcr50_a.cnv
# filter_low_pass_tc_A = 0.030
# filter_low_pass_tc_B = 0.150
# filter_low_pass_A_vars = tv290C c0uS/cm par/sat/log density00
# filter_low_pass_B_vars = prdM prdE
# alignctd_date = Jun 08 2019 09:50:09, 7.26.7.129
# alignctd_in = C:\DATA\060619_fcr50_a.cnv
# alignctd_adv = tv290C 0.500, sbeox0Mg/L 3.000, sbeox0PS 3.000                                                                                                                                                                      
# file_type = ascii
*END*
     -0.638    22.8439     8.3694     97.279   0.862753      0.775      8.426 -1240.7455    -0.1293    -0.5277     0.0111      0.000     -0.626     -0.908          1 2.2473e+02   997.5815 0.0000e+00
     -0.638    22.8432     8.3680     97.263   1.224902      1.445      8.215 -1240.7455    -0.1254    -0.5277     0.0111      0.000     -0.626     -0.908          2 1.9609e+02   997.5821 0.0000e+00
     -0.639    22.8428     8.3694     97.281   0.690334      0.571      8.426 -1240.7455    -0.1522    -0.4556     0.0111     -0.000     -0.626     -0.908          3 1.8612e+02   997.5823 0.0000e+00
     -0.638    22.8434     8.3682     97.268   0.315140      0.455      8.454 -1240.7455    -0.1483    -0.4989     0.0111     -0.000     -0.626     -0.908          4 1.7916e+02   997.5824 0.0000e+00
     -0.639    22.8437     8.3703     97.292   0.893099      0.775      8.278 -1240.7455    -0.1407    -0.5277     0.0111     -0.000     -0.626     -0.908          5 1.6196e+02   997.5826 0.0000e+00
     -0.638    22.8443     8.3716     97.308   1.923537      2.174      8.227 -1240.7455    -0.1407    -0.5277     0.0112     -0.000     -0.626     -0.908          6 1.5962e+02   997.5825 0.0000e+00
     -0.639    22.8447     8.3680     97.268   1.636065      1.620      7.845 -1240.7455    -0.1483    -0.4268     0.0111     -0.000     -0.626     -0.908          7 1.9602e+02   997.5824 0.0000e+00
     -0.638    22.8436     8.3695     97.285   0.747926      0.833      6.871 -1240.7455    -0.1102    -0.4845     0.0111     -0.000     -0.626     -0.908          8 2.7901e+02   997.5822 0.0000e+00
     -0.637    22.8418     8.3674     97.262   0.484687      0.455      7.979 -1240.7455    -0.1254    -0.3979     0.0111      0.000     -0.626     -0.908          9 3.5206e+02   997.5822 0.0000e+00
     -0.638    22.8405     8.3664     97.251   0.573289      0.630      8.152 -1240.7455    -0.1026    -0.6431     0.0111      0.000     -0.626     -0.908         10 4.1568e+02   997.5824 0.0000e+00
     -0.638    22.8403     8.3651     97.232   0.667244      0.688      8.186 -1240.7455    -0.1445    -0.5566     0.0111      0.000     -0.626     -0.908         11 3.9590e+02   997.5828 0.0000e+00
     -0.638    22.8408     8.3721     97.299   0.604417      0.630      8.209 -1240.7455    -0.1293    -0.4845     0.0111      0.000     -0.626     -0.908         12 2.7536e+02   997.5831 0.0000e+00
     -0.638    22.8413     8.3729     97.313   0.651475      0.688      8.240 -1240.7455    -0.1178    -0.4268     0.0111      0.000     -0.626     -0.908         13 1.9134e+02   997.5831 0.0000e+00
     -0.638    22.8416     8.3725     97.306   0.667844      0.688      8.252 -1240.7455    -0.1331    -0.5133     0.0111      0.000     -0.626     -0.908         14 1.8380e+02   997.5831 0.0000e+00
     -0.638    22.8417     8.3782     97.378   0.584048      0.630      8.251 -1240.7455    -0.1178    -0.4268     0.0111      0.000     -0.626     -0.908         15 1.8681e+02   997.5829 0.0000e+00
     -0.638    22.8422     8.3846     97.461   0.785340      0.775      8.247 -1240.7455    -0.1331    -0.4989     0.0111     -0.000     -0.626     -0.908         16 1.7556e+02   997.5829 0.0000e+00
     -0.638    22.8428     8.4077     97.734   0.565248      0.688      8.243 -1240.7455    -0.1331    -0.5277     0.0111     -0.000     -0.626     -0.908         17 1.7439e+02   997.5828 0.0000e+00
     -0.638    22.8433     8.4349     98.049   0.828367      0.688      8.237 -1240.7455    -0.1331    -0.4845     0.0111      0.000     -0.625     -0.907         18 1.8011e+02   997.5827 0.0000e+00
     -0.638    22.8435     8.4731     98.495   0.309985      0.630      8.235 -1240.7455    -0.1140    -0.3691     0.0111      0.000     -0.625     -0.907         19 2.0387e+02   997.5825 0.0000e+00
     -0.637    22.8442     8.5119     98.947   1.151201      0.688      8.237 -1240.7455    -0.1216    -0.5277     0.0111      0.000     -0.624     -0.906         20 2.5604e+02   997.5826 0.0000e+00
     -0.636    22.8393     8.5776     99.707  -0.070603      0.775      8.178 -1240.7455    -0.1407    -0.5566     0.0111      0.001     -0.620     -0.900         21 3.1106e+02   997.5822 0.0000e+00
     -0.628    22.8320     8.6157    100.140   2.067154      0.775      8.042 -1240.7455    -0.1102    -0.4845     0.0111      0.003     -0.600     -0.871         22 3.3773e+02   997.5826 0.0000e+00
     -0.569    22.8318     8.6574    100.619  17.757368     19.662      8.472  1240.2295    -0.1178    -0.4412     0.0170      0.020     -0.550     -0.798         23 3.5114e+02   997.5880 0.0000e+00
     -0.490    22.8318     8.6851    100.940  31.346258     32.065      9.116   144.7920    -0.1178    -0.5277     0.0219      0.053     -0.473     -0.686         24 3.7547e+02   997.5942 0.0000e+00
     -0.385    22.8342     8.6961    101.066  37.005395     39.448      9.761   155.0135    -0.0110     4.3462     0.0249      0.105     -0.387     -0.561         25 3.8671e+02   997.5966 0.0000e+00
     -0.310    22.8396     8.6898    100.994  36.665600     37.844     10.226   155.1271    -0.0263     4.4327     0.0242      0.159     -0.316     -0.458         26 3.9758e+02   997.5968 0.0000e+00
     -0.271    22.8415     8.6817    100.905  34.613199     36.469     10.555   153.8778     0.0043     4.5480     0.0237      0.202     -0.267     -0.388         27 4.1574e+02   997.5957 0.0000e+00
     -0.235    22.8416     8.6690    100.766  34.847768     36.174     10.775   154.6728     0.0195     4.5336     0.0235      0.230     -0.227     -0.330         28 4.1943e+02   997.5947 0.0000e+00
     -0.188    22.8419     8.6641    100.717  34.269744     36.055     10.924   158.9507    -0.0110     4.4904     0.0235      0.245     -0.181     -0.262         29 4.2261e+02   997.5943 0.0000e+00
     -0.126    22.8424     8.6336    100.367  34.532478     35.793     11.011   154.7864     1.3203     1.3613     0.0234      0.247     -0.128     -0.186         30 4.4363e+02   997.5946 0.0000e+00
     -0.078    22.8402     8.5484     99.382  35.824668     37.718     11.057   155.5056     1.3242     1.3324     0.0242      0.231     -0.084     -0.122         31 4.3977e+02   997.5952 0.0000e+00
     -0.053    22.8356     8.4273     97.978  35.743437     37.164     11.069   155.2406     1.3623     1.4189     0.0240      0.204     -0.058     -0.084         32 3.2454e+02   997.5952 0.0000e+00
     -0.045    22.8327     8.2802     96.271  35.255816     36.961     11.054   157.9664     1.3318     1.3036     0.0239      0.172     -0.047     -0.069         33 2.7212e+02   997.5955 0.0000e+00
     -0.045    22.8319     8.1114     94.312  35.453598     36.965     11.028   159.0264     1.4996     1.2892     0.0239      0.145     -0.044     -0.064         34 3.1549e+02   997.5968 0.0000e+00
     -0.044    22.8312     7.9252     92.149  35.349137     37.025     11.005   160.4649     1.5111     1.3036     0.0239      0.120     -0.044     -0.064         35 3.1819e+02   997.5974 0.0000e+00
     -0.045    22.8319     7.7762     90.418  35.385819     36.909     10.974   162.1307     1.5378     1.4622     0.0238      0.090     -0.045     -0.065         36 3.1213e+02   997.5976 0.0000e+00
     -0.046    22.8348     7.6734     89.223  35.230150     36.910     10.945   162.4335     1.5378     1.3613     0.0238      0.058     -0.045     -0.065         37 3.0551e+02   997.5977 0.0000e+00
     -0.045    22.8392     7.6117     88.505  34.476098     35.975     10.913   163.2664     1.5683     1.0873     0.0235      0.029     -0.045     -0.065         38 3.1302e+02   997.5972 0.0000e+00
     -0.045    22.8430     7.5849     88.195  33.924023     35.477     10.887   164.0992     1.5569     1.2027     0.0233      0.010     -0.044     -0.064         39 2.9511e+02   997.5964 0.0000e+00
     -0.045    22.8458     7.5697     88.019  33.902236     35.415     10.855   165.0457     1.5797     1.1882     0.0232      0.002     -0.044     -0.064         40 2.9385e+02   997.5953 0.0000e+00
     -0.044    22.8485     7.5568     87.870  33.851322     35.383     10.826   165.1214     1.5454     1.1450     0.0232      0.000     -0.044     -0.063         41 2.9972e+02   997.5944 0.0000e+00
     -0.044    22.8508     7.5431     87.712  33.898489     35.410     10.800   165.7650     1.5950     1.3613     0.0232      0.000     -0.044     -0.063         42 2.9368e+02   997.5938 0.0000e+00
     -0.044    22.8526     7.5086     87.311  33.813906     35.350     10.773   166.0678     1.5607     1.3324     0.0232      0.000     -0.044     -0.063         43 3.0502e+02   997.5931 0.0000e+00
     -0.044    22.8538     7.4513     86.645  34.045477     35.523     10.748   166.3328     1.5607     1.3613     0.0233      0.001     -0.044     -0.063         44 3.0466e+02   997.5927 0.0000e+00
     -0.044    22.8552     7.3722     85.727  34.617769     36.222     10.727   164.7807     1.6026     1.3901     0.0236      0.001     -0.043     -0.063         45 2.9618e+02   997.5924 0.0000e+00
     -0.044    22.8563     7.2772     84.624  34.761062     36.279     10.706   164.0992     1.5263     1.2892     0.0236      0.001     -0.043     -0.062         46 2.8586e+02   997.5922 0.0000e+00
     -0.044    22.8566     7.2109     83.854  34.815365     36.395     10.686   168.7935     1.5149     1.3469     0.0236      0.000     -0.043     -0.062         47 2.9820e+02   997.5920 0.0000e+00
     -0.044    22.8567     7.1893     83.603  34.905775     36.453     10.663   168.7557     1.5225     1.3324     0.0237      0.000     -0.043     -0.062         48 2.9696e+02   997.5917 0.0000e+00
     -0.043    22.8572     7.2293     84.070  34.885605     36.452     10.641   169.2100     1.4920     1.4045     0.0237      0.000     -0.043     -0.062         49 2.8444e+02   997.5916 0.0000e+00
     -0.043    22.8577     7.3344     85.293  35.018259     36.569     10.625   166.7114     1.4767     1.2748     0.0237      0.000     -0.043     -0.062         50 2.9295e+02   997.5916 0.0000e+00
     -0.044    22.8582     7.4731     86.907  35.066645     36.656     10.604   167.3171     1.5263     1.0873     0.0238      0.000     -0.043     -0.062         51 3.0759e+02   997.5915 0.0000e+00
     -0.043    22.8588     7.6253     88.677  34.914288     36.451     10.587   170.8757     1.5187     1.1450     0.0237      0.000     -0.043     -0.062         52 2.8735e+02   997.5913 0.0000e+00
     -0.043    22.8591     7.7587     90.231  34.704116     36.276     10.570   171.4814     1.4958     1.1882     0.0236      0.000     -0.043     -0.062         53 2.6734e+02   997.5911 0.0000e+00
     -0.043    22.8596     7.8561     91.363  34.498499     36.013     10.555   172.0114     1.4882     1.1882     0.0235      0.000     -0.043     -0.061         54 2.9512e+02   997.5909 0.0000e+00
     -0.042    22.8602     7.9164     92.065  34.518269     36.071     10.540   172.3521     1.5035     1.1450     0.0235      0.000     -0.042     -0.061         55 3.0371e+02   997.5909 0.0000e+00
     -0.043    22.8609     7.9400     92.341  34.620247     36.158     10.528   172.0114     1.4920     1.1450     0.0235      0.000     -0.042     -0.061         56 2.8161e+02   997.5908 0.0000e+00
     -0.042    22.8617     7.9421     92.366  34.608643     36.158     10.518   172.5035     1.4996     1.0585     0.0235      0.001     -0.042     -0.061         57 2.7490e+02   997.5907 0.0000e+00
     -0.043    22.8624     7.9294     92.218  34.562342     36.099     10.510   172.3900     1.5111     1.1594     0.0235      0.001     -0.042     -0.061         58 2.8205e+02   997.5905 0.0000e+00
     -0.042    22.8632     7.9084     91.974  34.470446     36.011     10.503   173.1093     1.5683     1.1450     0.0235      0.001     -0.042     -0.060         59 2.9738e+02   997.5903 0.0000e+00
     -0.042    22.8638     7.8854     91.707  34.426689     35.952     10.493   173.2607     1.5759     1.1882     0.0235      0.000     -0.042     -0.060         60 2.9611e+02   997.5901 0.0000e+00
     -0.042    22.8642     7.8736     91.570  34.409373     35.951     10.473   173.4121     1.5874     1.1306     0.0235      0.001     -0.042     -0.060         61 2.9167e+02   997.5899 0.0000e+00
     -0.042    22.8647     7.8593     91.403  34.314202     35.834     10.455   173.7528     1.5607     1.1017     0.0234      0.000     -0.042     -0.060         62 3.0793e+02   997.5898 0.0000e+00
     -0.042    22.8654     7.8350     91.121  34.308074     35.834     10.443   174.1693     1.5035     1.3613     0.0234      0.000     -0.041     -0.060         63 2.9767e+02   997.5896 0.0000e+00
     -0.042    22.8657     7.8029     90.748  34.328106     35.863     10.436   174.8507     1.5111     1.3613     0.0234      0.000     -0.041     -0.060         64 2.9459e+02   997.5895 0.0000e+00
     -0.042    22.8661     7.7687     90.349  34.259641     35.775     10.428   174.2071     1.5187     1.3036     0.0234      0.000     -0.041     -0.059         65 3.0121e+02   997.5893 0.0000e+00
     -0.041    22.8665     7.7257     89.850  34.185858     35.716     10.421   174.2828     1.4882     1.3901     0.0234      0.001     -0.040     -0.059         66 2.8141e+02   997.5892 0.0000e+00
     -0.041    22.8671     7.6902     89.438  34.153245     35.658     10.413   172.8064     1.5721     1.1450     0.0233      0.001     -0.040     -0.059         67 3.0152e+02   997.5891 0.0000e+00
     -0.042    22.8674     7.6499     88.969  34.122437     35.657     10.402   173.4500     1.5950     1.1161     0.0233      0.000     -0.040     -0.059         68 3.2810e+02   997.5890 0.0000e+00
     -0.040    22.8674     7.6118     88.525  34.076041     35.569     10.393   173.5636     1.5569     1.0585     0.0233      0.001     -0.040     -0.058         69 3.0526e+02   997.5888 0.0000e+00
     -0.041    22.8675     7.5723     88.066  34.122090     35.657     10.382   177.6521     1.5607     1.1450     0.0233      0.001     -0.040     -0.058         70 2.9345e+02   997.5888 0.0000e+00
     -0.040    22.8675     7.5406     87.697  34.065130     35.569     10.368   176.8950     1.5912     1.1161     0.0233      0.001     -0.040     -0.058         71 3.0205e+02   997.5888 0.0000e+00
     -0.041    22.8673     7.5047     87.279  34.058034     35.569     10.358   177.0464     1.6904     1.1450     0.0233      0.001     -0.040     -0.058         72 2.8898e+02   997.5887 0.0000e+00
     -0.041    22.8673     7.4719     86.897  34.130921     35.657     10.345   177.3871     1.6827     1.2171     0.0233      0.001     -0.040     -0.058         73 2.8355e+02   997.5888 0.0000e+00
     -0.040    22.8673     7.4341     86.457  34.063317     35.569     10.333   174.9264     1.6866     1.1306     0.0233      0.000     -0.040     -0.057         74 3.2324e+02   997.5888 0.0000e+00
     -0.040    22.8671     7.3955     86.008  34.053273     35.569     10.325   175.5321     1.6751     1.1882     0.0233      0.000     -0.040     -0.057         75 2.9827e+02   997.5888 0.0000e+00
     -0.040    22.8675     7.3620     85.617  34.291578     35.803     10.319   179.7721     1.6675     1.1450     0.0234      0.000     -0.040     -0.057         76 2.6965e+02   997.5889 0.0000e+00
     -0.040    22.8678     7.3220     85.151  34.507536     36.065     10.315   179.9614     1.6827     1.1450     0.0235      0.000     -0.040     -0.057         77 2.9508e+02   997.5890 0.0000e+00
     -0.040    22.8678     7.2866     84.739  34.554937     36.065     10.307   179.7721     1.7056     1.1017     0.0235      0.000     -0.040     -0.057         78 3.2214e+02   997.5889 0.0000e+00
     -0.040    22.8678     7.2474     84.283  34.499273     36.065     10.302   178.7500     1.6980     1.1594     0.0235      0.000     -0.040     -0.057         79 3.2546e+02   997.5888 0.0000e+00
     -0.040    22.8679     7.2141     83.895  34.280492     35.773     10.292   178.5607     1.4691     1.1450     0.0234      0.000     -0.039     -0.057         80 3.0151e+02   997.5887 0.0000e+00
     -0.040    22.8676     7.1786     83.481  34.145680     35.685     10.280   179.6586     1.4882     1.0873     0.0234      0.000     -0.039     -0.057         81 3.1578e+02   997.5887 0.0000e+00
     -0.040    22.8674     7.1403     83.034  34.074415     35.569     10.272   180.3779     1.4882     1.1017     0.0233      0.000     -0.039     -0.056         82 3.3574e+02   997.5887 0.0000e+00
     -0.040    22.8672     7.1044     82.617  34.043236     35.569     10.261   180.3021     1.4882     1.1161     0.0233      0.000     -0.039     -0.056         83 3.1389e+02   997.5887 0.0000e+00
     -0.040    22.8669     7.0673     82.185  34.006696     35.511     10.248   180.2264     1.5759     1.0585     0.0233      0.000     -0.039     -0.056         84 3.0079e+02   997.5888 0.0000e+00
     -0.039    22.8662     7.0272     81.718  33.942103     35.453     10.234   180.4536     1.5683     1.0729     0.0233      0.000     -0.039     -0.056         85 3.0077e+02   997.5888 0.0000e+00
     -0.040    22.8657     6.9871     81.252  33.945834     35.453     10.223   180.3779     1.5797     1.0873     0.0233      0.000     -0.039     -0.056         86 2.8539e+02   997.5889 0.0000e+00
     -0.040    22.8654     6.9363     80.661  33.913160     35.424     10.212   179.7343     1.5836     1.1882     0.0232      0.000     -0.039     -0.056         87 3.0640e+02   997.5890 0.0000e+00
     -0.039    22.8647     6.8958     80.190  33.893873     35.395     10.200   180.3779     1.6103     1.1882     0.0232      0.000     -0.039     -0.056         88 2.9326e+02   997.5891 0.0000e+00
     -0.039    22.8644     6.8421     79.564  33.880944     35.396     10.191   180.2264     1.6141     1.1017     0.0232      0.000     -0.039     -0.056         89 2.9824e+02   997.5892 0.0000e+00
     -0.039    22.8641     6.7960     79.029  33.840358     35.338     10.187   180.0750     1.6293     1.1450     0.0232      0.000     -0.038     -0.055         90 3.0294e+02   997.5893 0.0000e+00
     -0.039    22.8635     6.7493     78.486  33.825859     35.338     10.178   180.4536     1.6370     1.1161     0.0232      0.000     -0.038     -0.055         91 2.7317e+02   997.5894 0.0000e+00
     -0.039    22.8630     6.7006     77.919  33.839725     35.338     10.168   180.4536     1.6332     1.1017     0.0232      0.000     -0.038     -0.055         92 2.9085e+02   997.5895 0.0000e+00
     -0.039    22.8629     6.6509     77.340  33.852732     35.368     10.158   182.2707     1.5569     1.1594     0.0232      0.000     -0.038     -0.055         93 2.8620e+02   997.5896 0.0000e+00
     -0.039    22.8630     6.6061     76.819  33.839304     35.339     10.152   181.8543     1.5721     1.1017     0.0232      0.000     -0.038     -0.055         94 2.7748e+02   997.5897 0.0000e+00
     -0.039    22.8628     6.5562     76.238  33.826806     35.339     10.142   181.5136     1.5569     1.1161     0.0232      0.000     -0.038     -0.055         95 2.9062e+02   997.5898 0.0000e+00
     -0.039    22.8626     6.5120     75.725  33.838654     35.339     10.136   181.7786     1.5797     1.1306     0.0232      0.000     -0.038     -0.055         96 2.9215e+02   997.5897 0.0000e+00
     -0.039    22.8624     6.4712     75.250  33.824559     35.339     10.130   181.3621     1.6484     1.3324     0.0232      0.000     -0.038     -0.055         97 3.0282e+02   997.5898 0.0000e+00
     -0.039    22.8620     6.4300     74.770  33.785086     35.281     10.127   180.2643     1.5988     1.3324     0.0232      0.000     -0.038     -0.055         98 2.9971e+02   997.5898 0.0000e+00
     -0.038    22.8617     6.3872     74.273  33.798886     35.310     10.122   184.6557     1.6065     1.3036     0.0232      0.000     -0.038     -0.054         99 2.7155e+02   997.5899 0.0000e+00
     -0.038    22.8616     6.3528     73.873  33.837017     35.340     10.114   184.5043     1.6026     1.4334     0.0232      0.000     -0.038     -0.054        100 3.1058e+02   997.5900 0.0000e+00
     -0.038    22.8615     6.3160     73.445  33.826525     35.340     10.111   184.5043     1.6332     1.1450     0.0232      0.000     -0.038     -0.054        101 3.4180e+02   997.5901 0.0000e+00
     -0.038    22.8613     6.2834     73.065  33.782312     35.282     10.102   184.8450     1.6293     1.1450     0.0232      0.000     -0.038     -0.054        102 3.0219e+02   997.5900 0.0000e+00
     -0.038    22.8612     6.2491     72.666  33.773516     35.282     10.097   183.2171     1.6293     1.0873     0.0232      0.000     -0.037     -0.054        103 3.0068e+02   997.5901 0.0000e+00
     -0.038    22.8609     6.2170     72.294  33.778209     35.282     10.092   182.8007     1.6522     1.1738     0.0232      0.000     -0.037     -0.054        104 2.9581e+02   997.5901 0.0000e+00
     -0.037    22.8608     6.1817     71.883  33.806102     35.311     10.086   186.0564     1.5759     1.4045     0.0232      0.001     -0.037     -0.054        105 2.7921e+02   997.5902 0.0000e+00
     -0.038    22.8609     6.1575     71.602  33.827697     35.341     10.081   186.3972     1.6026     1.3469     0.0232      0.001     -0.037     -0.054        106 2.6609e+02   997.5903 0.0000e+00
     -0.038    22.8604     6.1221     71.189  33.780966     35.282     10.081   186.8514     1.5836     1.3757     0.0232      0.000     -0.037     -0.054        107 2.6333e+02   997.5903 0.0000e+00
     -0.038    22.8603     6.0959     70.881  33.775365     35.282     10.072   186.7000     1.5683     1.2603     0.0232      0.000     -0.037     -0.054        108 2.8747e+02   997.5902 0.0000e+00
     -0.037    22.8604     6.0902     70.807  33.775405     35.283     10.071   186.2836     1.6332     1.3324     0.0232      0.000     -0.037     -0.053        109 2.8124e+02   997.5903 0.0000e+00
     -0.038    22.8603     6.1469     71.463  33.780916     35.283     10.066   186.5486     1.6332     1.4189     0.0232      0.000     -0.037     -0.053        110 2.9268e+02   997.5903 0.0000e+00
     -0.038    22.8602     6.2888     73.115  33.798138     35.312     10.066   185.5643     1.6408     1.3469     0.0232      0.000     -0.037     -0.053        111 2.8656e+02   997.5904 0.0000e+00
     -0.037    22.8601     6.4788     75.326  33.783603     35.283     10.066   186.6243     1.6332     1.2892     0.0232      0.000     -0.037     -0.053        112 2.7381e+02   997.5904 0.0000e+00
     -0.037    22.8600     6.6706     77.558  33.769373     35.283     10.063   186.8514     1.6446     1.4622     0.0232      0.000     -0.037     -0.053        113 2.9884e+02   997.5904 0.0000e+00
     -0.038    22.8600     6.8235     79.337  33.786217     35.283     10.060   188.1007     1.5683     1.3901     0.0232      0.000     -0.037     -0.053        114 2.8991e+02   997.5904 0.0000e+00
     -0.038    22.8601     6.9312     80.588  33.762642     35.283     10.055   188.2143     1.5836     1.2603     0.0232      0.000     -0.037     -0.053        115 2.9318e+02   997.5904 0.0000e+00
     -0.037    22.8599     6.9917     81.286  33.739449     35.225     10.052   188.1764     1.5683     1.2892     0.0232      0.000     -0.037     -0.053        116 2.8934e+02   997.5904 0.0000e+00
     -0.036    22.8599     7.0042     81.431  33.844710     35.370     10.047   185.4507     1.5683     1.3469     0.0232      0.000     -0.039     -0.056        117 2.9636e+02   997.5904 0.0000e+00
     -0.044    22.8572     6.9986     81.370  33.957586     35.458     10.027   185.2614     1.5950     1.3469     0.0233     -0.001     -0.052     -0.076        118 3.3530e+02   997.5905 0.0000e+00
     -0.082    22.8510     6.9902     81.275  34.250860     35.779     10.033   184.5043     1.6255     1.4622     0.0234     -0.013     -0.080     -0.117        119 3.1880e+02   997.5904 0.0000e+00
     -0.123    22.8486     7.0300     81.740  34.398303     35.956     10.045   185.0722     1.6370     1.5055     0.0235     -0.032     -0.106     -0.156        120 3.2003e+02   997.5910 0.0000e+00
     -0.120    22.8503     7.1265     82.864  34.070411     35.582     10.046   184.9586     1.6293     1.3469     0.0233     -0.045     -0.110     -0.161        121 3.2180e+02   997.5922 0.0000e+00
     -0.098    22.8519     7.2826     84.679  33.888505     35.408     10.028   185.4129     1.5721     1.1738     0.0232     -0.046     -0.098     -0.142        122 3.2578e+02   997.5929 0.0000e+00
     -0.084    22.8532     7.4116     86.180  33.854270     35.378     10.005   183.7093     1.5416     1.3036     0.0232     -0.040     -0.087     -0.126        123 3.3568e+02   997.5926 0.0000e+00
     -0.083    22.8541     7.5080     87.302  33.905599     35.406      9.976   184.5043     1.5721     1.2315     0.0232     -0.031     -0.086     -0.125        124 3.2433e+02   997.5922 0.0000e+00
     -0.095    22.8532     7.5419     87.696  34.180201     35.726      9.922   184.5043     1.5836     1.1161     0.0234     -0.022     -0.100     -0.145        125 3.3059e+02   997.5919 0.0000e+00
     -0.130    22.8502     7.5181     87.420  34.431099     35.958      9.933   184.4286     1.5607     1.1450     0.0235     -0.017     -0.126     -0.183        126 3.2595e+02   997.5916 0.0000e+00
     -0.160    22.8497     7.4443     86.557  34.334142     35.901      9.954   184.0122     1.5912     1.2603     0.0234     -0.018     -0.146     -0.213        127 3.2397e+02   997.5918 0.0000e+00
     -0.154    22.8519     7.3347     85.278  33.886027     35.378      9.966   184.7693     1.5645     1.1882     0.0232     -0.021     -0.151     -0.219        128 3.2528e+02   997.5923 0.0000e+00
     -0.146    22.8539     7.2222     83.966  33.951677     35.466      9.953   184.7693     1.5950     1.2171     0.0233     -0.031     -0.157     -0.227        129 3.2922e+02   997.5924 0.0000e+00
     -0.185    22.8553     7.1275     82.864  34.341334     35.902      9.976   185.7157     1.5836     1.0729     0.0234     -0.048     -0.182     -0.263        130 3.4464e+02   997.5919 0.0000e+00
     -0.225    22.8563     7.0538     82.007  34.141886     35.667      9.992   185.6022     1.5454     1.1017     0.0233     -0.065     -0.209     -0.303        131 3.4517e+02   997.5912 0.0000e+00
     -0.227    22.8568     7.0094     81.492  33.785050     35.286      9.993   185.0343     1.5797     1.1594     0.0232     -0.069     -0.217     -0.316        132 3.3938e+02   997.5907 0.0000e+00
     -0.215    22.8575     6.9925     81.298  33.718690     35.227     10.001   184.6557     1.5836     1.1161     0.0232     -0.061     -0.211     -0.306        133 3.4573e+02   997.5905 0.0000e+00
     -0.206    22.8580     6.9805     81.160  33.750373     35.256      9.999   185.1857     1.5187     1.1738     0.0232     -0.045     -0.203     -0.294        134 3.4715e+02   997.5904 0.0000e+00
     -0.201    22.8583     6.9797     81.153  33.893774     35.401      9.986   185.5643     1.5111     1.0873     0.0232     -0.033     -0.198     -0.287        135 3.4388e+02   997.5903 0.0000e+00
     -0.198    22.8579     6.9730     81.076  34.132849     35.664      9.968   185.3750     1.5111     1.1450     0.0233     -0.025     -0.195     -0.283        136 3.4099e+02   997.5903 0.0000e+00
     -0.197    22.8551     6.9477     80.784  34.312150     35.839      9.949   186.1700     1.5111     1.1017     0.0234     -0.012     -0.192     -0.278        137 3.4391e+02   997.5903 0.0000e+00
     -0.193    22.8523     6.9122     80.375  34.352155     35.897      9.929   186.2079     1.5187     1.2171     0.0234      0.008     -0.186     -0.270        138 3.4813e+02   997.5905 0.0000e+00
     -0.179    22.8503     6.9009     80.244  34.260852     35.783      9.915   186.5107     1.4386     1.2748     0.0234      0.021     -0.174     -0.253        139 3.4518e+02   997.5911 0.0000e+00
     -0.161    22.8489     6.9308     80.593  34.277619     35.814      9.896   185.3750     1.4386     1.3324     0.0234      0.026     -0.162     -0.234        140 3.4756e+02   997.5918 0.0000e+00
     -0.156    22.8490     6.9825     81.196  34.360922     35.903      9.877   186.1322     1.4233     1.4045     0.0234      0.027     -0.155     -0.224        141 3.5493e+02   997.5924 0.0000e+00
     -0.155    22.8501     7.0509     81.991  34.246078     35.787      9.858   186.3972     1.4539     1.4334     0.0234      0.028     -0.151     -0.219        142 3.5727e+02   997.5927 0.0000e+00
     -0.151    22.8513     7.1103     82.682  34.005702     35.524      9.842   187.4572     1.4577     1.4045     0.0233      0.029     -0.148     -0.214        143 3.5430e+02   997.5926 0.0000e+00
     -0.147    22.8524     7.1427     83.059  33.830393     35.349      9.834   187.9493     1.4348     1.3613     0.0232      0.029     -0.144     -0.210        144 3.5415e+02   997.5923 0.0000e+00
     -0.145    22.8536     7.1556     83.209  33.782733     35.289      9.828   188.3279     1.4500     1.4045     0.0232      0.027     -0.142     -0.207        145 3.5574e+02   997.5920 0.0000e+00
     -0.144    22.8549     7.1342     82.961  33.798336     35.318      9.825   185.4129     1.4500     1.3324     0.0232      0.022     -0.141     -0.205        146 3.5410e+02   997.5918 0.0000e+00
     -0.142    22.8565     7.0781     82.308  33.781345     35.288      9.814   186.1322     1.5836     1.4045     0.0232      0.015     -0.139     -0.202        147 3.5466e+02   997.5914 0.0000e+00
     -0.140    22.8580     6.9970     81.364  33.714985     35.228      9.799   186.4350     1.5759     1.4189     0.0232      0.010     -0.137     -0.200        148 3.5223e+02   997.5912 0.0000e+00
     -0.139    22.8588     6.9043     80.287  33.673503     35.169      9.784   188.3279     1.5569     1.3469     0.0231      0.009     -0.137     -0.198        149 3.4624e+02   997.5908 0.0000e+00
     -0.139    22.8595     6.8112     79.204  33.714444     35.226      9.767   188.1764     1.5836     1.3901     0.0232      0.007     -0.137     -0.198        150 3.4252e+02   997.5904 0.0000e+00
     -0.139    22.8601     6.7275     78.231  33.723296     35.225      9.754   188.5172     1.6408     1.3469     0.0232      0.005     -0.137     -0.198        151 3.4623e+02   997.5902 0.0000e+00
     -0.140    22.8606     6.6419     77.235  33.692119     35.196      9.739   185.1857     1.6408     1.3469     0.0232      0.004     -0.137     -0.199        152 3.5468e+02   997.5901 0.0000e+00
     -0.141    22.8609     6.5699     76.398  33.664351     35.166      9.726   186.3972     1.6332     1.3036     0.0231      0.002     -0.137     -0.200        153 3.5970e+02   997.5899 0.0000e+00
     -0.140    22.8611     6.5105     75.707  33.668960     35.166      9.712   186.5486     1.6408     1.2315     0.0231      0.001     -0.137     -0.199        154 3.6102e+02   997.5898 0.0000e+00
     -0.140    22.8612     6.4602     75.122  33.716014     35.224      9.700   187.0786     1.6179     1.4189     0.0232      0.000     -0.137     -0.199        155 3.5836e+02   997.5898 0.0000e+00
     -0.140    22.8611     6.4125     74.568  33.724315     35.224      9.695   188.9715     1.6408     1.3324     0.0232     -0.000     -0.137     -0.199        156 3.5694e+02   997.5897 0.0000e+00
     -0.140    22.8611     6.3755     74.138  33.717891     35.224      9.691   189.2365     1.6408     1.3613     0.0232     -0.000     -0.137     -0.199        157 3.5811e+02   997.5897 0.0000e+00
     -0.139    22.8609     6.3307     73.617  33.753641     35.253      9.692   187.5329     1.6332     1.3180     0.0232      0.000     -0.136     -0.198        158 3.5797e+02   997.5897 0.0000e+00
     -0.139    22.8607     6.3012     73.275  33.768718     35.282      9.693   187.4572     1.6103     1.3036     0.0232      0.000     -0.136     -0.197        159 3.5628e+02   997.5897 0.0000e+00
     -0.138    22.8606     6.2774     72.998  33.728758     35.224      9.692   188.2143     1.6522     1.3469     0.0232      0.001     -0.136     -0.197        160 3.5306e+02   997.5898 0.0000e+00
     -0.138    22.8607     6.2546     72.733  33.714477     35.224      9.692   188.4036     1.6332     1.3757     0.0232      0.001     -0.136     -0.197        161 3.5163e+02   997.5898 0.0000e+00
     -0.138    22.8605     6.2309     72.457  33.727229     35.224      9.686   188.9715     1.6179     1.3469     0.0232      0.001     -0.135     -0.196        162 3.5144e+02   997.5898 0.0000e+00
     -0.138    22.8607     6.2042     72.148  33.712890     35.224      9.678   189.4636     1.6179     1.3901     0.0232      0.001     -0.135     -0.196        163 3.4936e+02   997.5898 0.0000e+00
     -0.138    22.8608     6.1813     71.881  33.702692     35.195      9.664   189.7286     1.7705     1.1450     0.0232      0.001     -0.135     -0.196        164 3.4759e+02   997.5899 0.0000e+00
     -0.138    22.8609     6.1559     71.586  33.710288     35.224      9.653   190.2207     1.7705     1.1450     0.0232      0.001     -0.135     -0.196        165 3.4656e+02   997.5898 0.0000e+00
     -0.138    22.8610     6.1432     71.438  33.673805     35.166      9.644   190.3722     1.7667     1.1017     0.0231      0.000     -0.135     -0.196        166 3.4683e+02   997.5898 0.0000e+00
     -0.138    22.8611     6.1179     71.144  33.659203     35.166      9.636   190.6372     1.7667     1.0008     0.0231      0.000     -0.135     -0.196        167 3.4519e+02   997.5898 0.0000e+00
     -0.137    22.8613     6.0929     70.852  33.669198     35.166      9.632   191.2807     1.6522     1.4045     0.0231      0.000     -0.135     -0.196        168 3.3896e+02   997.5898 0.0000e+00
     -0.138    22.8614     6.0660     70.539  33.661365     35.165      9.625   191.2050     1.6560     1.3613     0.0231      0.000     -0.135     -0.196        169 3.3609e+02   997.5897 0.0000e+00
     -0.137    22.8616     6.0432     70.275  33.639320     35.136      9.619   191.0536     1.6370     1.3613     0.0231      0.000     -0.135     -0.196        170 3.4012e+02   997.5896 0.0000e+00
     -0.138    22.8615     6.0650     70.522  33.667003     35.165      9.612   191.3186     1.6217     1.3036     0.0231      0.000     -0.135     -0.196        171 3.4491e+02   997.5896 0.0000e+00
     -0.138    22.8617     6.3010     73.257  33.656545     35.165      9.608   191.8865     1.6255     1.2603     0.0231      0.000     -0.135     -0.196        172 3.4683e+02   997.5896 0.0000e+00
     -0.137    22.8620     6.8379     79.492  33.593074     35.078      9.598   192.9465     1.6522     1.3324     0.0231      0.000     -0.135     -0.196        173 3.4907e+02   997.5896 0.0000e+00
     -0.138    22.8620     7.5240     87.462  33.657101     35.165      9.592   193.6658     1.6484     1.4045     0.0231      0.000     -0.135     -0.196        174 3.4965e+02   997.5896 0.0000e+00
     -0.137    22.8620     8.2494     95.890  33.636125     35.136      9.582   191.3186     1.6332     1.3901     0.0231      0.000     -0.135     -0.195        175 3.4937e+02   997.5895 0.0000e+00
     -0.137    22.8619     8.8612    102.997  33.589547     35.077      9.577   191.9243     1.6942     1.3324     0.0231      0.000     -0.135     -0.195        176 3.5080e+02   997.5895 0.0000e+00
     -0.137    22.8620     9.3455    108.624  33.566915     35.077      9.572   192.2272     1.6827     1.3613     0.0231      0.000     -0.134     -0.194        177 3.5115e+02   997.5895 0.0000e+00
     -0.137    22.8616     9.6753    112.456  33.545769     35.019      9.564   193.5900     1.7171     1.3180     0.0231      0.001     -0.134     -0.194        178 3.5197e+02   997.5895 0.0000e+00
     -0.137    22.8614     9.8365    114.327  33.497340     35.019      9.562   194.0065     1.6942     1.3613     0.0231      0.001     -0.134     -0.194        179 3.5381e+02   997.5894 0.0000e+00
     -0.137    22.8614     9.8319    114.272  33.567921     35.019      9.557   194.0443     1.6980     1.3324     0.0231      0.001     -0.134     -0.194        180 3.5530e+02   997.5895 0.0000e+00
     -0.137    22.8577     9.7184    112.953  33.457931     35.019      9.554   191.1293     1.6255     1.3757     0.0231      0.000     -0.134     -0.194        181 3.5455e+02   997.5896 0.0000e+00
     -0.137    22.8512     9.5633    111.150  32.686072     34.086      9.550   192.0757     1.6255     1.2603     0.0227      0.000     -0.134     -0.194        182 3.5218e+02   997.5894 0.0000e+00
     -0.136    22.8460     9.4147    109.424  32.276643     33.739      9.544   192.0000     1.6484     1.3036     0.0226      0.000     -0.134     -0.194        183 3.5042e+02   997.5901 0.0000e+00
     -0.137    22.8423     9.3161    108.276  32.248963     33.685      9.539   192.2272     1.6637     1.3180     0.0225      0.000     -0.134     -0.194        184 3.4877e+02   997.5916 0.0000e+00
     -0.137    22.8397     9.2374    107.362  32.098321     33.543      9.534   192.3029     1.5836     1.3324     0.0225      0.000     -0.134     -0.194        185 3.4737e+02   997.5927 0.0000e+00
     -0.136    22.8382     9.1817    106.713  32.108577     33.545      9.531   194.6122     1.5797     1.4045     0.0225      0.000     -0.134     -0.194        186 3.4651e+02   997.5936 0.0000e+00
     -0.137    22.8370     9.1332    106.150  32.176943     33.635      9.526   192.2272     1.5569     1.4045     0.0225      0.000     -0.134     -0.194        187 3.4580e+02   997.5943 0.0000e+00
     -0.137    22.8359     9.0913    105.663  32.102125     33.548      9.523   192.2650     1.5683     1.4045     0.0225      0.000     -0.134     -0.194        188 3.4510e+02   997.5946 0.0000e+00
     -0.136    22.8350     9.0684    105.397  32.053545     33.491      9.517   192.8707     1.6408     1.1594     0.0224      0.000     -0.134     -0.194        189 3.4408e+02   997.5948 0.0000e+00
     -0.137    22.8343     9.0399    105.065  32.089260     33.550      9.509   193.0222     1.6179     0.9719     0.0225      0.000     -0.134     -0.194        190 3.4323e+02   997.5951 0.0000e+00
     -0.137    22.8341     9.0220    104.858  32.057682     33.492      9.505   193.9308     1.6522     1.1161     0.0224     -0.000     -0.134     -0.194        191 3.4231e+02   997.5953 0.0000e+00
     -0.136    22.8342     9.0073    104.686  32.092845     33.551      9.498   194.3472     1.6408     1.1017     0.0225      0.000     -0.134     -0.194        192 3.4037e+02   997.5955 0.0000e+00
     -0.137    22.8344     9.0008    104.611  32.075127     33.522      9.490   194.9150     1.6408     1.4045     0.0225      0.000     -0.134     -0.194        193 3.3979e+02   997.5955 0.0000e+00
     -0.136    22.8341     8.9979    104.578  32.050102     33.493      9.488   194.4229     1.6141     1.3324     0.0224      0.000     -0.134     -0.194        194 3.4076e+02   997.5955 0.0000e+00
     -0.136    22.8335     9.0002    104.606  32.094361     33.551      9.482   194.4986     1.6446     1.3036     0.0225      0.000     -0.134     -0.194        195 3.4118e+02   997.5955 0.0000e+00
     -0.136    22.8332     9.0098    104.718  32.049676     33.493      9.479   194.8015     1.6370     1.3036     0.0224      0.000     -0.133     -0.194        196 3.4208e+02   997.5955 0.0000e+00
     -0.136    22.8332     9.0106    104.728  32.046455     33.493      9.473   194.6500     1.6408     1.0729     0.0224      0.000     -0.133     -0.193        197 3.4301e+02   997.5957 0.0000e+00
     -0.136    22.8335     9.0083    104.702  32.039113     33.493      9.468   194.7636     1.6408     1.1882     0.0224      0.000     -0.133     -0.193        198 3.4393e+02   997.5957 0.0000e+00
     -0.136    22.8333     9.0116    104.740  32.058813     33.493      9.465   195.2179     1.6293     1.1882     0.0224      0.000     -0.133     -0.193        199 3.4619e+02   997.5957 0.0000e+00
     -0.135    22.8332     9.0140    104.767  32.110824     33.581      9.462   197.6408     1.6255     1.0873     0.0225      0.000     -0.133     -0.193        200 3.4746e+02   997.5957 0.0000e+00
     -0.135    22.8334     9.0160    104.790  32.063270     33.493      9.454   196.8836     1.6141     1.1161     0.0224      0.001     -0.133     -0.193        201 3.4819e+02   997.5957 0.0000e+00
     -0.135    22.8333     9.0126    104.751  32.029109     33.493      9.450   197.0729     1.5378     1.1450     0.0224      0.000     -0.132     -0.192        202 3.4995e+02   997.5957 0.0000e+00
     -0.135    22.8332     9.0095    104.715  32.064453     33.493      9.449   196.4293     1.5111     1.1161     0.0224      0.001     -0.132     -0.192        203 3.5246e+02   997.5957 0.0000e+00
     -0.135    22.8336     9.0054    104.667  32.078540     33.552      9.444   196.9593     1.5263     1.1161     0.0225      0.000     -0.133     -0.193        204 3.5479e+02   997.5958 0.0000e+00
     -0.136    22.8344     9.0109    104.732  32.011577     33.435      9.444   196.6186     1.5263     1.2171     0.0224      0.000     -0.133     -0.193        205 3.5568e+02   997.5957 0.0000e+00
     -0.135    22.8349     9.0088    104.708  32.058903     33.522      9.438   199.1929     1.5950     1.3613     0.0225      0.000     -0.132     -0.192        206 3.5719e+02   997.5957 0.0000e+00
     -0.135    22.8352     9.0159    104.792  32.108529     33.551      9.439   198.9658     1.5721     1.3036     0.0225      0.000     -0.132     -0.192        207 3.5771e+02   997.5956 0.0000e+00
     -0.135    22.8355     9.0121    104.749  32.038703     33.492      9.433   199.4958     1.5721     1.3613     0.0224      0.000     -0.132     -0.192        208 3.5739e+02   997.5954 0.0000e+00
     -0.135    22.8353     9.0088    104.712  32.056916     33.492      9.432   198.2086     1.5797     1.3901     0.0224      0.000     -0.132     -0.192        209 3.5987e+02   997.5953 0.0000e+00
     -0.135    22.8350     9.0044    104.664  32.085864     33.550      9.427   198.6251     1.5836     1.1882     0.0225      0.000     -0.132     -0.192        210 3.6283e+02   997.5952 0.0000e+00
     -0.135    22.8348     8.9987    104.598  32.061934     33.492      9.422   198.8522     1.5454     1.1450     0.0224      0.000     -0.132     -0.192        211 3.6310e+02   997.5953 0.0000e+00
     -0.135    22.8349     8.9953    104.558  32.057067     33.521      9.417   199.8743     1.5797     1.0873     0.0225      0.000     -0.132     -0.192        212 3.6251e+02   997.5954 0.0000e+00
     -0.135    22.8346     8.9976    104.583  32.062290     33.492      9.413   199.8743     1.5759     1.1450     0.0224      0.000     -0.132     -0.192        213 3.6233e+02   997.5954 0.0000e+00
     -0.135    22.8346     9.0057    104.680  32.085062     33.550      9.411   199.5715     1.5035     1.4622     0.0225     -0.000     -0.132     -0.192        214 3.6101e+02   997.5954 0.0000e+00
     -0.134    22.8352     9.0120    104.753  32.058357     33.492      9.405   200.0258     1.5263     1.3757     0.0224      0.000     -0.132     -0.192        215 3.6118e+02   997.5954 0.0000e+00
     -0.135    22.8358     9.0121    104.756  32.036268     33.492      9.401   200.1015     1.5149     1.4045     0.0224      0.000     -0.132     -0.192        216 3.6227e+02   997.5955 0.0000e+00
     -0.135    22.8364     9.0171    104.812  32.112551     33.550      9.396   200.0258     1.5111     1.4622     0.0225      0.000     -0.132     -0.192        217 3.6220e+02   997.5954 0.0000e+00
     -0.134    22.8367     9.0297    104.956  32.111565     33.579      9.395   199.9501     1.5073     1.3613     0.0225      0.000     -0.132     -0.191        218 3.6285e+02   997.5952 0.0000e+00
     -0.134    22.8374     9.0315    104.974  32.067122     33.491      9.390   200.5179     1.5378     1.4478     0.0224      0.000     -0.132     -0.191        219 3.6188e+02   997.5950 0.0000e+00
     -0.134    22.8389     9.0280    104.932  32.078975     33.549      9.388   200.5558     1.5111     1.3757     0.0225      0.000     -0.132     -0.191        220 3.6125e+02   997.5949 0.0000e+00
     -0.135    22.8395     9.0296    104.951  32.067188     33.490      9.386   200.7829     1.5149     1.3469     0.0224      0.000     -0.132     -0.192        221 3.5959e+02   997.5948 0.0000e+00
     -0.135    22.8390     9.0234    104.880  32.081789     33.548      9.384   200.8208     1.5149     1.2748     0.0225     -0.000     -0.132     -0.192        222 3.5748e+02   997.5945 0.0000e+00
     -0.134    22.8387     9.0168    104.804  32.060803     33.489      9.383   201.0101     1.5111     1.4334     0.0224     -0.000     -0.132     -0.191        223 3.5799e+02   997.5943 0.0000e+00
     -0.134    22.8392     9.0002    104.611  32.063677     33.518      9.377   201.1615     1.5263     1.3036     0.0225      0.000     -0.132     -0.191        224 3.5838e+02   997.5944 0.0000e+00
     -0.134    22.8395     8.9851    104.436  32.048584     33.490      9.372   201.0101     1.5340     1.3757     0.0224      0.000     -0.131     -0.191        225 3.5862e+02   997.5945 0.0000e+00
     -0.134    22.8398     8.9794    104.371  32.049958     33.489      9.370   200.8586     1.5035     1.3036     0.0224      0.000     -0.131     -0.191        226 3.5621e+02   997.5943 0.0000e+00
     -0.134    22.8391     8.9831    104.415  32.091594     33.547      9.365   201.0101     1.5912     1.2892     0.0225      0.000     -0.132     -0.191        227 3.5819e+02   997.5943 0.0000e+00
     -0.135    22.8377     8.9921    104.521  32.056024     33.489      9.359   201.2372     1.5721     1.4045     0.0224      0.000     -0.132     -0.191        228 3.5952e+02   997.5942 0.0000e+00
     -0.134    22.8368     9.0081    104.708  32.094224     33.548      9.352   201.1236     1.5683     1.3180     0.0225      0.000     -0.131     -0.191        229 3.5757e+02   997.5944 0.0000e+00
     -0.134    22.8363     9.0141    104.778  32.073684     33.519      9.349   201.8808     1.5607     1.2748     0.0225      0.000     -0.131     -0.191        230 3.5954e+02   997.5947 0.0000e+00
     -0.134    22.8363     9.0232    104.885  32.051958     33.491      9.344   202.1458     1.5759     1.3036     0.0224      0.000     -0.132     -0.191        231 3.6134e+02   997.5949 0.0000e+00
     -0.134    22.8366     9.0362    105.036  32.091634     33.549      9.338   202.3729     1.5683     1.3901     0.0225     -0.000     -0.132     -0.191        232 3.6217e+02   997.5950 0.0000e+00
     -0.134    22.8368     9.0365    105.039  32.053938     33.491      9.334   202.1458     1.5836     1.4334     0.0224     -0.000     -0.132     -0.191        233 3.6132e+02   997.5950 0.0000e+00
     -0.135    22.8369     9.0390    105.068  32.039614     33.491      9.330   202.6758     1.5645     1.4189     0.0224     -0.000     -0.132     -0.191        234 3.6189e+02   997.5949 0.0000e+00
     -0.134    22.8372     9.0356    105.029  32.050203     33.491      9.325   202.6379     1.6599     1.3613     0.0224      0.000     -0.131     -0.191        235 3.6326e+02   997.5949 0.0000e+00
     -0.134    22.8379     9.0287    104.948  32.070389     33.520      9.321   203.8115     1.6446     1.3757     0.0225      0.000     -0.131     -0.191        236 3.6258e+02   997.5949 0.0000e+00
     -0.134    22.8385     9.0178    104.822  32.103379     33.549      9.321   203.7358     1.6141     1.4189     0.0225      0.000     -0.131     -0.191        237 3.6216e+02   997.5948 0.0000e+00
     -0.134    22.8390     9.0103    104.734  32.098033     33.548      9.318   204.0008     1.6141     1.3324     0.0225      0.000     -0.131     -0.191        238 3.6296e+02   997.5947 0.0000e+00
     -0.134    22.8393     9.0030    104.649  32.106668     33.548      9.316   203.4329     1.5645     1.1594     0.0225      0.000     -0.131     -0.191        239 3.6432e+02   997.5946 0.0000e+00
     -0.134    22.8398     8.9990    104.604  32.092630     33.548      9.311   203.8115     1.5874     1.0873     0.0225      0.000     -0.131     -0.191        240 3.6388e+02   997.5944 0.0000e+00
     -0.134    22.8402     8.9974    104.587  32.056247     33.489      9.310   203.7358     1.5530     1.1738     0.0224      0.000     -0.131     -0.191        241 3.6268e+02   997.5943 0.0000e+00
     -0.134    22.8403     9.0026    104.648  32.122319     33.576      9.307   204.0765     1.5797     1.1450     0.0225      0.000     -0.131     -0.191        242 3.6315e+02   997.5942 0.0000e+00
     -0.134    22.8402     9.0078    104.712  32.099289     33.547      9.301   204.7579     1.5530     1.0296     0.0225     -0.000     -0.131     -0.191        243 3.6421e+02   997.5941 0.0000e+00
     -0.134    22.8402     9.0046    104.676  32.055278     33.488      9.293   204.9094     1.5797     1.1882     0.0224     -0.000     -0.131     -0.191        244 3.6401e+02   997.5941 0.0000e+00
     -0.134    22.8402     9.0160    104.809  32.088204     33.547      9.291   204.8336     1.5759     1.1161     0.0225     -0.000     -0.131     -0.191        245 3.6265e+02   997.5941 0.0000e+00
     -0.134    22.8400     9.0136    104.781  32.058313     33.488      9.288   204.7201     1.5836     1.1882     0.0224     -0.000     -0.131     -0.191        246 3.6268e+02   997.5941 0.0000e+00
     -0.134    22.8399     9.0227    104.884  32.092477     33.547      9.281   204.9851     1.5683     1.0296     0.0225     -0.000     -0.131     -0.191        247 3.6308e+02   997.5941 0.0000e+00
     -0.134    22.8398     9.0251    104.913  32.075317     33.518      9.275   204.8715     1.5607     1.0008     0.0225      0.000     -0.131     -0.191        248 3.6214e+02   997.5942 0.0000e+00
     -0.134    22.8399     9.0213    104.867  32.050041     33.489      9.273   205.5151     1.5950     1.1161     0.0224      0.000     -0.131     -0.191        249 3.6200e+02   997.5942 0.0000e+00
     -0.134    22.8405     9.0083    104.716  32.094303     33.547      9.266   205.8558     1.5759     1.1306     0.0225      0.000     -0.131     -0.191        250 3.6193e+02   997.5942 0.0000e+00
     -0.134    22.8410     9.0048    104.675  32.109118     33.547      9.261   205.7801     1.5759     1.2171     0.0225      0.000     -0.131     -0.191        251 3.6290e+02   997.5942 0.0000e+00
     -0.134    22.8416     9.0023    104.645  32.090860     33.547      9.260   206.4236     1.5836     1.3036     0.0225      0.000     -0.130     -0.189        252 3.6320e+02   997.5941 0.0000e+00
     -0.130    22.8430     8.9996    104.614  32.057768     33.488      9.257   206.1208     1.5569     1.3324     0.0224      0.001     -0.127     -0.184        253 3.6057e+02   997.5939 0.0000e+00
     -0.125    22.8439     8.9953    104.567  32.061417     33.517      9.253   204.3036     1.5683     1.3613     0.0225      0.003     -0.123     -0.179        254 3.6138e+02   997.5938 0.0000e+00
     -0.123    22.8443     8.9923    104.535  32.056690     33.486      9.239   204.7201     1.5759     1.2892     0.0224      0.005     -0.123     -0.178        255 3.6253e+02   997.5936 0.0000e+00
     -0.127    22.8441     8.9969    104.594  32.093278     33.544      9.217   204.8715     1.6217     1.3036     0.0225      0.005     -0.129     -0.188        256 3.5948e+02   997.5933 0.0000e+00
     -0.147    22.8432     8.9998    104.632  32.104769     33.544      9.183   204.1144     1.6179     1.3757     0.0225      0.000     -0.149     -0.216        257 3.5418e+02   997.5931 0.0000e+00
     -0.182    22.8428     8.9900    104.519  32.101647     33.544      9.183   205.0986     1.6332     1.3469     0.0225     -0.014     -0.181     -0.262        258 3.4785e+02   997.5930 0.0000e+00
     -0.223    22.8426     8.9740    104.335  32.156420     33.603      9.182   205.0608     1.6408     1.4910     0.0225     -0.035     -0.217     -0.316        259 3.4379e+02   997.5931 0.0000e+00
     -0.259    22.8424     8.9647    104.228  32.184746     33.632      9.181   202.8651     1.5607     1.2315     0.0225     -0.060     -0.252     -0.366        260 3.3945e+02   997.5930 0.0000e+00
     -0.289    22.8421     8.9577    104.149  32.244165     33.691      9.177   203.0543     1.5836     1.1161     0.0225     -0.085     -0.283     -0.410        261 3.3258e+02   997.5929 0.0000e+00
     -0.319    22.8418     8.9591    104.166  32.349129     33.808      9.162   202.4865     1.5645     1.2171     0.0226     -0.106     -0.310     -0.450        262 3.2563e+02   997.5929 0.0000e+00
     -0.341    22.8421     8.9459    104.013  32.350405     33.808      9.160   202.2972     1.5759     1.1738     0.0226     -0.118     -0.331     -0.480        263 3.2239e+02   997.5928 0.0000e+00
     -0.351    22.8430     8.9340    103.875  32.301834     33.750      9.156   204.0765     1.5721     1.1161     0.0226     -0.119     -0.343     -0.496        264 3.2305e+02   997.5928 0.0000e+00
     -0.355    22.8450     8.9193    103.705  32.231802     33.691      9.161   204.0386     1.4462     1.1450     0.0225     -0.107     -0.348     -0.504        265 3.2073e+02   997.5928 0.0000e+00
     -0.358    22.8477     8.9069    103.559  32.141273     33.574      9.168   201.9943     1.4691     1.0152     0.0225     -0.087     -0.351     -0.509        266 3.1562e+02   997.5926 0.0000e+00
     -0.360    22.8496     8.8867    103.318  32.088583     33.543      9.159   202.3729     1.4272     0.9864     0.0225     -0.066     -0.353     -0.511        267 3.0986e+02   997.5920 0.0000e+00
     -0.360    22.8506     8.8666    103.079  32.119604     33.541      9.143   202.6001     1.4539     1.1882     0.0225     -0.046     -0.353     -0.511        268 3.0700e+02   997.5913 0.0000e+00
     -0.359    22.8513     8.8443    102.817  32.221182     33.686      9.127   202.9029     1.5225     1.0729     0.0225     -0.029     -0.352     -0.511        269 3.0901e+02   997.5910 0.0000e+00
     -0.359    22.8522     8.8343    102.697  32.169569     33.598      9.110   202.7136     1.4958     1.0585     0.0225     -0.015     -0.352     -0.510        270 3.1677e+02   997.5908 0.0000e+00
     -0.358    22.8530     8.8307    102.652  32.154207     33.597      9.106   203.4329     1.5225     1.0008     0.0225     -0.007     -0.351     -0.509        271 3.2357e+02   997.5905 0.0000e+00
     -0.357    22.8533     8.8425    102.788  32.181043     33.626      9.111   203.9629     1.5111     1.0873     0.0225     -0.002     -0.350     -0.508        272 3.2367e+02   997.5903 0.0000e+00
     -0.356    22.8536     8.8557    102.938  32.165801     33.596      9.118   203.1301     1.5263     1.4045     0.0225      0.000     -0.347     -0.504        273 3.2478e+02   997.5901 0.0000e+00
     -0.349    22.8540     8.8686    103.086  32.143548     33.596      9.122   202.8272     1.5035     1.4189     0.0225      0.003     -0.342     -0.496        274 3.2851e+02   997.5901 0.0000e+00
     -0.340    22.8543     8.8755    103.163  32.179108     33.596      9.123   203.5844     1.5187     1.3036     0.0225      0.008     -0.335     -0.486        275 3.3120e+02   997.5901 0.0000e+00
     -0.335    22.8532     8.8876    103.305  32.210431     33.683      9.114   204.0765     1.5111     1.2748     0.0225      0.012     -0.330     -0.478        276 3.3238e+02   997.5900 0.0000e+00
     -0.335    22.8505     8.9027    103.478  32.134193     33.537      9.101   204.6444     1.6446     1.1450     0.0225      0.014     -0.328     -0.475        277 3.3437e+02   997.5899 0.0000e+00
     -0.335    22.8479     8.9081    103.538  32.155470     33.625      9.086   205.8936     1.6332     1.0873     0.0225      0.015     -0.324     -0.470        278 3.3314e+02   997.5902 0.0000e+00
     -0.322    22.8461     8.9160    103.623  32.124697     33.539      9.078   205.4394     1.6370     1.1017     0.0225      0.018     -0.314     -0.454        279 3.2899e+02   997.5909 0.0000e+00
     -0.302    22.8442     8.9136    103.590  32.083607     33.541      9.058   205.3636     1.5874     1.0873     0.0225      0.023     -0.296     -0.428        280 3.3614e+02   997.5916 0.0000e+00
     -0.281    22.8427     8.9125    103.571  32.058465     33.484      9.051   205.2122     1.6370     1.3180     0.0224      0.031     -0.274     -0.397        281 3.4228e+02   997.5921 0.0000e+00
     -0.254    22.8418     8.9139    103.585  32.096729     33.544      9.030   204.9094     1.6255     1.3613     0.0225      0.042     -0.249     -0.360        282 3.3725e+02   997.5926 0.0000e+00
     -0.225    22.8407     8.9102    103.542  32.095245     33.545      9.014   204.4172     1.6484     1.3036     0.0225      0.055     -0.222     -0.321        283 3.3703e+02   997.5931 0.0000e+00
     -0.199    22.8391     8.8984    103.406  32.060314     33.487      9.008   204.4929     1.6217     1.3036     0.0224      0.070     -0.195     -0.283        284 3.4189e+02   997.5934 0.0000e+00
     -0.173    22.8378     8.8896    103.306  32.110574     33.576      9.008   203.9251     1.6026     1.4189     0.0225      0.085     -0.169     -0.244        285 3.3776e+02   997.5939 0.0000e+00
     -0.143    22.8377     8.8986    103.411  32.062326     33.489      9.006   203.9251     1.6675     1.4766     0.0224      0.097     -0.142     -0.205        286 3.4519e+02   997.5944 0.0000e+00
     -0.118    22.8374     8.9039    103.471  32.090730     33.549      9.009   203.9629     1.6446     1.4045     0.0225      0.102     -0.118     -0.170        287 3.4514e+02   997.5947 0.0000e+00
     -0.099    22.8356     8.9075    103.504  32.104857     33.548      9.011   204.8715     1.6408     1.3036     0.0225      0.103     -0.097     -0.139        288 3.6206e+02   997.5948 0.0000e+00
     -0.077    22.8324     8.9074    103.480  32.044747     33.490      9.008   205.0986     1.6332     1.3469     0.0224      0.101     -0.075     -0.109        289 3.4937e+02   997.5950 0.0000e+00
     -0.053    22.8294     8.8985    103.373  32.106278     33.550      8.996   205.2879     1.7094     1.3036     0.0225      0.098     -0.052     -0.075        290 3.0058e+02   997.5956 0.0000e+00
     -0.028    22.8266     8.8974    103.351  32.176424     33.640      8.984   202.7136     1.6980     1.4045     0.0225      0.095     -0.028     -0.041        291 2.7485e+02   997.5964 0.0000e+00
     -0.005    22.8250     8.8930    103.278  32.105595     33.554      8.977   201.6536     1.6942     1.4045     0.0225      0.093     -0.006     -0.009        292 2.4983e+02   997.5973 0.0000e+00
      0.014    22.8252     8.8927    103.258  32.046284     33.498      8.971   200.8586     1.6942     1.3469     0.0224      0.091      0.014      0.020        293 2.6357e+02   997.5980 0.0000e+00
      0.034    22.8259     8.8943    103.267  32.042838     33.499      8.971   201.3886     1.7247     1.0296     0.0224      0.088      0.034      0.049        294 2.6031e+02   997.5984 0.0000e+00
      0.056    22.8270     8.9029    103.366  32.109882     33.557      8.968   201.5401     1.7743     1.2027     0.0225      0.087      0.056      0.081        295 2.5565e+02   997.5985 0.0000e+00
      0.080    22.8270     8.9182    103.549  32.229504     33.703      8.970   201.6915     1.7667     1.1306     0.0225      0.087      0.080      0.116        296 2.6148e+02   997.5985 0.0000e+00
      0.109    22.8263     8.9457    103.864  32.190256     33.644      8.973   200.9722     1.7476     1.1738     0.0225      0.088      0.107      0.155        297 2.6378e+02   997.5984 0.0000e+00
      0.137    22.8215     8.9634    104.061  32.158726     33.614      8.969   200.1772     1.6942     1.2748     0.0225      0.091      0.134      0.194        298 2.5584e+02   997.5984 0.0000e+00
      0.164    22.8113     8.9620    104.041  32.090972     33.557      8.962   200.2529     1.6866     1.3324     0.0225      0.093      0.160      0.232        299 2.5314e+02   997.5987 0.0000e+00
      0.188    22.8078     8.9610    104.026  32.007921     33.443      8.956   200.2529     1.7171     1.3180     0.0224      0.097      0.184      0.267        300 2.6477e+02   997.6000 0.0000e+00
      0.210    22.8038     8.9604    104.016  32.025057     33.509      8.954   200.8208     1.6827     1.4045     0.0224      0.099      0.205      0.297        301 2.6156e+02   997.6024 0.0000e+00
      0.229    22.7929     8.9590    103.998  31.951137     33.394      8.948   201.0858     1.7476     1.3757     0.0224      0.099      0.225      0.326        302 2.6412e+02   997.6033 0.0000e+00
      0.248    22.7842     8.9551    103.950  31.892520     33.368      8.944   204.2658     1.7400     1.3180     0.0224      0.096      0.245      0.355        303 2.5998e+02   997.6043 0.0000e+00
      0.270    22.7790     8.9471    103.855  31.831357     33.288      8.943   202.5622     1.7667     1.3613     0.0223      0.092      0.267      0.387        304 2.5096e+02   997.6070 0.0000e+00
      0.298    22.7791     8.9452    103.832  31.879118     33.352      8.942   203.2436     1.7743     1.3324     0.0224      0.089      0.294      0.426        305 2.4463e+02   997.6091 0.0000e+00
      0.331    22.7817     8.9347    103.707  31.981226     33.473      8.939   203.3572     1.7171     1.3324     0.0224      0.090      0.324      0.470        306 2.4068e+02   997.6105 0.0000e+00
      0.361    22.7795     8.9261    103.605  31.941312     33.414      8.935   203.3572     1.8811     1.3036     0.0224      0.094      0.353      0.512        307 2.3742e+02   997.6107 0.0000e+00
      0.387    22.7755     8.9152    103.476  31.869534     33.354      8.937   203.3572     1.8887     1.3613     0.0224      0.098      0.379      0.549        308 2.3286e+02   997.6102 0.0000e+00
      0.411    22.7731     8.9087    103.398  31.863156     33.326      8.936   205.7422     1.8620     1.4622     0.0224      0.102      0.401      0.582        309 2.2590e+02   997.6107 0.0000e+00
      0.428    22.7713     8.9081    103.390  31.860368     33.358      8.936   205.5529     1.8887     1.4045     0.0224      0.103      0.419      0.609        310 2.2248e+02   997.6118 0.0000e+00
      0.444    22.7703     8.9077    103.385  31.843377     33.302      8.935   205.5529     1.9345     1.3324     0.0223      0.101      0.437      0.634        311 2.1772e+02   997.6124 0.0000e+00
      0.465    22.7692     8.9027    103.326  31.913929     33.420      8.933   206.1208     1.9612     1.3613     0.0224      0.096      0.456      0.662        312 2.1327e+02   997.6129 0.0000e+00
      0.487    22.7678     8.9016    103.311  31.891079     33.362      8.927   205.9694     1.9612     1.3901     0.0224      0.089      0.477      0.692        313 2.0721e+02   997.6132 0.0000e+00
      0.508    22.7669     8.9044    103.341  31.871813     33.363      8.920   206.4994     1.9460     1.3324     0.0224      0.083      0.499      0.723        314 2.0003e+02   997.6136 0.0000e+00
      0.530    22.7661     8.9049    103.345  31.849022     33.335      8.915   205.9694     1.9193     1.4478     0.0224      0.080      0.520      0.754        315 1.9509e+02   997.6140 0.0000e+00
      0.553    22.7647     8.9005    103.291  31.830560     33.306      8.909   205.8179     1.8697     1.3180     0.0223      0.080      0.542      0.787        316 1.8896e+02   997.6143 0.0000e+00
      0.578    22.7637     8.9061    103.351  31.865162     33.365      8.900   205.9694     1.8926     1.3036     0.0224      0.082      0.566      0.821        317 1.8651e+02   997.6146 0.0000e+00
      0.600    22.7626     8.9104    103.398  31.835590     33.308      8.894   206.8022     1.8887     1.4045     0.0223      0.085      0.588      0.852        318 1.8611e+02   997.6150 0.0000e+00
      0.620    22.7613     8.9224    103.535  31.867363     33.367      8.893   206.9158     1.9421     1.3613     0.0224      0.087      0.608      0.881        319 1.8486e+02   997.6154 0.0000e+00
      0.640    22.7608     8.9442    103.786  31.884878     33.367      8.890   207.1429     1.9269     1.3180     0.0224      0.087      0.628      0.911        320 1.8304e+02   997.6157 0.0000e+00
      0.663    22.7603     8.9676    104.057  31.843422     33.339      8.888   206.6886     1.9460     1.2315     0.0224      0.087      0.651      0.944        321 1.8056e+02   997.6161 0.0000e+00
      0.690    22.7595     8.9908    104.326  31.830071     33.310      8.888   206.4615     1.9269     1.3180     0.0223      0.088      0.677      0.981        322 1.7952e+02   997.6164 0.0000e+00
      0.717    22.7588     9.0080    104.525  31.812610     33.311      8.883   206.6886     1.9421     1.4189     0.0223      0.090      0.702      1.019        323 1.7863e+02   997.6166 0.0000e+00
      0.743    22.7577     9.0239    104.710  31.835525     33.311      8.881   206.5751     1.9383     1.4189     0.0223      0.092      0.727      1.054        324 1.7668e+02   997.6169 0.0000e+00
      0.763    22.7562     9.0365    104.854  31.860810     33.370      8.880   206.6129     1.9460     1.3180     0.0224      0.092      0.748      1.085        325 1.7542e+02   997.6172 0.0000e+00
      0.784    22.7548     9.0389    104.875  31.840399     33.312      8.880   206.8401     1.9536     1.4910     0.0223      0.093      0.769      1.115        326 1.7466e+02   997.6175 0.0000e+00
      0.806    22.7527     9.0151    104.572  31.890554     33.401      8.874   209.2629     1.9956     1.3324     0.0224      0.093      0.789      1.144        327 1.7147e+02   997.6180 0.0000e+00
      0.823    22.7510     8.9952    104.303  31.887278     33.373      8.870   207.7865     2.0184     1.4045     0.0224      0.091      0.805      1.168        328 1.6932e+02   997.6184 0.0000e+00
      0.833    22.7498     8.9725    103.991  31.874106     33.374      8.867   207.9001     2.0108     1.3613     0.0224      0.085      0.817      1.185        329 1.6799e+02   997.6189 0.0000e+00
      0.845    22.7490     8.9732    103.956  31.877319     33.376      8.868   208.2787     2.0108     1.3324     0.0224      0.076      0.830      1.204        330 1.6547e+02   997.6194 0.0000e+00
      0.862    22.7487     8.9837    104.001  31.824025     33.318      8.866   208.6194     2.0184     1.4622     0.0223      0.070      0.846      1.226        331 1.6326e+02   997.6198 0.0000e+00
      0.878    22.7481     9.0125    104.234  31.821919     33.318      8.866   208.1272     2.0184     1.4045     0.0223      0.065      0.861      1.249        332 1.6132e+02   997.6200 0.0000e+00
      0.895    22.7485     9.0492    104.542  31.850312     33.348      8.863   210.8908     2.0337     1.3757     0.0224      0.062      0.877      1.272        333 1.5931e+02   997.6201 0.0000e+00
      0.910    22.7484     9.1114    105.139  31.877574     33.378      8.861   210.4744     2.0261     1.3901     0.0224      0.060      0.893      1.295        334 1.5531e+02   997.6203 0.0000e+00
      0.927    22.7479     9.2015    106.123  31.876877     33.377      8.859   210.5501     2.0108     1.3036     0.0224      0.059      0.910      1.320        335 1.5096e+02   997.6204 0.0000e+00
      0.946    22.7438     9.3111    107.394  31.880808     33.377      8.854   210.8151     2.1825     1.3036     0.0224      0.061      0.927      1.344        336 1.4726e+02   997.6204 0.0000e+00
      0.961    22.7313     9.4446    108.926  31.872681     33.378      8.852   210.6637     2.2016     1.3613     0.0224      0.064      0.943      1.367        337 1.4358e+02   997.6206 0.0000e+00
      0.977    22.7103     9.5724    110.388  31.827735     33.322      8.851   210.8151     2.2054     1.3324     0.0223      0.065      0.959      1.391        338 1.4032e+02   997.6217 0.0000e+00
      0.996    22.6871     9.6798    111.623  31.788605     33.302      8.845   210.9665     2.1596     1.3757     0.0223      0.065      0.974      1.413        339 1.3846e+02   997.6246 0.0000e+00
      1.004    22.6645     9.7685    112.624  31.773244     33.287      8.838   210.7394     2.0604     1.4045     0.0223      0.064      0.986      1.430        340 1.3677e+02   997.6295 0.0000e+00
      1.017    22.6265     9.8257    113.264  31.757977     33.304      8.839   210.5501     2.0642     1.3901     0.0223      0.061      0.999      1.449        341 1.3446e+02   997.6351 0.0000e+00
      1.035    22.5755     9.8439    113.466  31.689104     33.231      8.839   210.4365     2.0795     1.2892     0.0223      0.060      1.016      1.473        342 1.3278e+02   997.6404 0.0000e+00
      1.054    22.5175     9.8424    113.449  31.621946     33.199      8.842   211.1558     2.0490     1.4045     0.0223      0.060      1.034      1.499        343 1.3188e+02   997.6493 0.0000e+00
      1.073    22.4577     9.8264    113.266  31.574922     33.176      8.841   211.5344     2.1481     1.3613     0.0222      0.060      1.050      1.524        344 1.3184e+02   997.6613 0.0000e+00
      1.088    22.4301     9.8048    113.013  31.540253     33.187      8.838   210.7394     2.1329     1.4478     0.0222      0.061      1.065      1.546        345 1.3216e+02   997.6748 0.0000e+00
      1.100    22.4323     9.7932    112.870  31.516978     33.200      8.839   210.4365     2.1481     1.3613     0.0222      0.062      1.080      1.566        346 1.3242e+02   997.6887 0.0000e+00
      1.114    22.4291     9.7814    112.727  31.574281     33.278      8.839   210.3987     2.1253     1.3901     0.0222      0.061      1.095      1.587        347 1.3178e+02   997.6952 0.0000e+00
      1.134    22.4235     9.7756    112.636  31.557835     33.276      8.837   210.3229     2.1138     1.3324     0.0222      0.064      1.112      1.611        348 1.3140e+02   997.6949 0.0000e+00
      1.151    22.4212     9.7667    112.491  31.537450     33.220      8.833   210.5122     2.2855     1.3613     0.0222      0.064      1.128      1.635        349 1.3193e+02   997.6956 0.0000e+00
      1.164    22.4120     9.7613    112.395  31.540397     33.283      8.830   210.6637     2.2550     1.3324     0.0222      0.063      1.142      1.656        350 1.3246e+02   997.6969 0.0000e+00
      1.179    22.4027     9.7515    112.283  31.494914     33.166      8.831   210.2472     2.2473     1.3324     0.0222      0.061      1.155      1.675        351 1.3298e+02   997.6975 0.0000e+00
      1.190    22.3994     9.7412    112.198  31.564428     33.320      8.827   213.4272     2.2473     1.2892     0.0223      0.060      1.165      1.689        352 1.3382e+02   997.6998 0.0000e+00
      1.194    22.3992     9.7359    112.173  31.542774     33.238      8.823   212.6701     2.3046     1.4045     0.0222      0.056      1.171      1.699        353 1.3485e+02   997.7019 0.0000e+00
      1.199    22.4001     9.7371    112.215  31.551493     33.299      8.820   212.9351     2.3160     1.4334     0.0222      0.051      1.178      1.709        354 1.3433e+02   997.7027 0.0000e+00
      1.213    22.3981     9.7382    112.214  31.583207     33.299      8.821   211.8751     2.3046     1.4334     0.0222      0.046      1.188      1.724        355 1.3292e+02   997.7028 0.0000e+00
      1.223    22.3941     9.7313    112.089  31.503307     33.240      8.817   212.5187     2.2969     1.3324     0.0222      0.041      1.198      1.738        356 1.3259e+02   997.7026 0.0000e+00
      1.230    22.3904     9.7201    111.915  31.532415     33.241      8.814   212.6701     2.3046     1.4334     0.0222      0.037      1.208      1.752        357 1.3117e+02   997.7032 0.0000e+00
      1.243    22.3791     9.7259    111.944  31.576609     33.333      8.813   214.7144     2.3084     1.4622     0.0223      0.036      1.221      1.770        358 1.2797e+02   997.7042 0.0000e+00
      1.263    22.3598     9.7290    111.942  31.477938     33.188      8.809   214.1844     2.3236     1.4334     0.0222      0.038      1.235      1.791        359 1.2562e+02   997.7050 0.0000e+00
      1.272    22.3441     9.7311    111.922  31.447820     33.196      8.800   214.1465     2.2893     1.3036     0.0222      0.042      1.245      1.806        360 1.2414e+02   997.7076 0.0000e+00
      1.276    22.3450     9.7381    111.966  31.465959     33.209      8.799   214.2980     2.3122     1.3757     0.0222      0.043      1.252      1.816        361 1.2244e+02   997.7121 0.0000e+00
      1.284    22.3599     9.7605    112.164  31.514628     33.279      8.799   214.5630     2.3122     1.4045     0.0222      0.043      1.259      1.827        362 1.2007e+02   997.7158 0.0000e+00
      1.294    22.3771     9.7921    112.408  31.565023     33.338      8.796   214.7901     2.3007     1.4045     0.0222      0.041      1.268      1.839        363 1.1860e+02   997.7156 0.0000e+00
      1.300    22.3895     9.8366    112.768  31.551380     33.297      8.792   213.7680     2.2893     1.4189     0.0222      0.039      1.275      1.850        364 1.1816e+02   997.7122 0.0000e+00
      1.308    22.3835     9.8802    113.168  31.561228     33.315      8.794   214.0330     2.3503     1.3613     0.0222      0.037      1.285      1.864        365 1.1706e+02   997.7083 0.0000e+00
      1.325    22.3625     9.9261    113.651  31.463878     33.188      8.790   213.8815     2.3808     1.2748     0.0222      0.035      1.299      1.884        366 1.1623e+02   997.7055 0.0000e+00
      1.340    22.3415    10.0007    114.439  31.405880     33.134      8.790   213.9194     2.3656     1.3180     0.0222      0.036      1.313      1.904        367 1.1589e+02   997.7069 0.0000e+00
      1.351    22.3239    10.0842    115.320  31.455644     33.207      8.786   214.5630     2.3808     1.2892     0.0222      0.040      1.326      1.924        368 1.1562e+02   997.7118 0.0000e+00
      1.367    22.3060    10.1899    116.433  31.461211     33.222      8.789   214.6387     2.3694     1.2748     0.0222      0.045      1.341      1.944        369 1.1555e+02   997.7167 0.0000e+00
      1.382    22.2859    10.2842    117.433  31.428590     33.205      8.782   213.9951     2.2473     1.2748     0.0222      0.049      1.354      1.964        370 1.1568e+02   997.7208 0.0000e+00
      1.393    22.2688    10.3454    118.108  31.407366     33.188      8.780   213.6544     2.2283     1.2603     0.0222      0.051      1.366      1.982        371 1.1538e+02   997.7251 0.0000e+00
      1.404    22.2410    10.3906    118.614  31.339494     33.143      8.778   213.5787     2.2702     1.3324     0.0221      0.053      1.377      1.998        372 1.1499e+02   997.7297 0.0000e+00
      1.417    22.1857    10.4203    118.925  31.216791     33.007      8.778   214.0708     2.2473     1.3613     0.0221      0.053      1.390      2.017        373 1.1427e+02   997.7336 0.0000e+00
      1.432    22.1165    10.4389    119.042  31.145297     32.967      8.779   213.9572     1.9841     1.3036     0.0221      0.052      1.405      2.038        374 1.1311e+02   997.7400 0.0000e+00
      1.449    22.0712    10.4497    119.001  31.043331     32.888      8.774   214.2601     2.0146     1.3613     0.0220      0.053      1.421      2.062        375 1.1166e+02   997.7527 0.0000e+00
      1.467    22.0495    10.4440    118.822  30.988187     32.877      8.771   216.5694     1.9994     1.4478     0.0220      0.055      1.438      2.086        376 1.0981e+02   997.7686 0.0000e+00
      1.483    22.0216    10.4405    118.726  30.976934     32.910      8.769   216.0015     2.0184     1.4045     0.0220      0.056      1.455      2.110        377 1.0841e+02   997.7790 0.0000e+00
      1.499    21.9867    10.4327    118.621  30.938848     32.864      8.765   216.3044     1.9727     1.4910     0.0220      0.059      1.471      2.133        378 1.0655e+02   997.7841 0.0000e+00
      1.518    21.9448    10.4580    118.887  30.917091     32.885      8.767   216.4937     1.9345     1.5776     0.0220      0.062      1.487      2.157        379 1.0452e+02   997.7904 0.0000e+00
      1.533    21.9109    10.5056    119.373  30.826263     32.789      8.766   215.8880     1.9269     1.4766     0.0219      0.064      1.503      2.180        380 1.0253e+02   997.7985 0.0000e+00
      1.548    21.9002    10.5593    119.892  30.814884     32.819      8.761   216.4180     1.9383     1.5920     0.0219      0.065      1.518      2.202        381 9.9793e+01   997.8080 0.0000e+00
      1.564    21.8959    10.6240    120.474  30.901641     32.932      8.762   218.1973     1.8392     1.5199     0.0219      0.065      1.534      2.224        382 9.7395e+01   997.8158 0.0000e+00
      1.579    21.8834    10.6839    120.976  30.807188     32.850      8.760   218.1215     1.8163     1.5920     0.0219      0.064      1.549      2.247        383 9.5445e+01   997.8182 0.0000e+00
      1.596    21.8407    10.7533    121.585  30.754677     32.764      8.757   217.9701     1.8239     1.5776     0.0219      0.063      1.566      2.271        384 9.3445e+01   997.8192 0.0000e+00
      1.615    21.7717    10.8595    122.658  30.789234     32.862      8.756   218.0458     1.8353     1.5776     0.0219      0.064      1.584      2.296        385 9.1789e+01   997.8222 0.0000e+00
      1.632    21.7207    10.9958    124.175  30.645685     32.682      8.751   218.6515     1.6446     1.6497     0.0218      0.064      1.600      2.320        386 9.0591e+01   997.8318 0.0000e+00
      1.646    21.6971    11.1735    126.115  30.548199     32.673      8.752   219.1437     1.6408     1.6352     0.0218      0.064      1.614      2.340        387 8.9797e+01   997.8474 0.0000e+00
      1.658    21.6891    11.3738    128.241  30.525438     32.648      8.752   219.0680     1.6179     1.5487     0.0218      0.063      1.626      2.359        388 8.9369e+01   997.8588 0.0000e+00
      1.672    21.6799    11.5673    130.248  30.555526     32.725      8.752   217.3644     1.6484     1.6064     0.0218      0.062      1.639      2.378        389 8.9156e+01   997.8642 0.0000e+00
      1.685    21.6560    11.7442    132.069  30.510766     32.670      8.753   217.4022     1.5683     1.6064     0.0218      0.060      1.653      2.397        390 8.8979e+01   997.8661 0.0000e+00
      1.699    21.6163    11.9141    133.826  30.403389     32.556      8.750   217.2887     1.5950     1.6208     0.0217      0.058      1.666      2.417        391 8.8775e+01   997.8682 0.0000e+00
      1.714    21.5519    12.0859    135.612  30.333648     32.514      8.750   217.5158     1.5759     1.6208     0.0217      0.056      1.680      2.437        392 8.8438e+01   997.8736 0.0000e+00
      1.727    21.4766    12.2349    137.149  30.093932     32.271      8.748   218.8787     1.5797     1.6497     0.0216      0.054      1.695      2.458        393 8.8407e+01   997.8823 0.0000e+00
      1.744    21.4011    12.3722    138.571  29.931466     32.136      8.748   218.8787     1.5683     1.5920     0.0215      0.054      1.711      2.482        394 8.8630e+01   997.8967 0.0000e+00
      1.764    21.3498    12.4815    139.754  29.795226     32.069      8.747   218.0080     1.5607     1.3757     0.0215      0.057      1.730      2.510        395 8.8361e+01   997.9135 0.0000e+00
      1.786    21.3370    12.5716    140.799  29.759883     32.030      8.748   217.7051     1.5874     1.3613     0.0214      0.061      1.751      2.540        396 8.7815e+01   997.9303 0.0000e+00
      1.807    21.3119    12.6603    141.769  29.827352     32.218      8.747   218.1594     1.5530     1.3036     0.0215      0.066      1.771      2.569        397 8.7043e+01   997.9417 0.0000e+00
      1.825    21.2568    12.7191    142.288  29.592783     31.893      8.745   218.4244     1.5530     1.4189     0.0213      0.070      1.788      2.595        398 8.6212e+01   997.9447 0.0000e+00
      1.840    21.1891    12.7571    142.542  29.429689     31.791      8.748   218.5380     1.5836     1.6929     0.0213      0.072      1.803      2.616        399 8.5426e+01   997.9502 0.0000e+00
      1.853    21.1225    12.7602    142.313  29.408211     31.768      8.749   219.1058     1.5797     1.5199     0.0213      0.072      1.818      2.637        400 8.4380e+01   997.9622 0.0000e+00
      1.870    21.0635    12.7373    141.795  29.323289     31.755      8.750   220.6580     1.5950     1.5343     0.0212      0.071      1.834      2.660        401 8.2875e+01   997.9771 0.0000e+00
      1.888    21.0095    12.6900    141.135  29.209532     31.649      8.747   220.5444     1.5759     1.5920     0.0212      0.069      1.851      2.685        402 8.1522e+01   997.9918 0.0000e+00
      1.905    20.9591    12.6594    140.765  29.135066     31.629      8.746   220.7337     1.5263     1.2748     0.0212      0.067      1.868      2.709        403 7.9892e+01   998.0047 0.0000e+00
      1.922    20.9167    12.6731    140.861  29.090120     31.606      8.746   220.3551     1.5035     1.4478     0.0211      0.065      1.885      2.733        404 7.7909e+01   998.0164 0.0000e+00
      1.939    20.9019    12.7095    141.100  29.087744     31.640      8.747   220.6201     1.4958     1.3036     0.0211      0.064      1.901      2.757        405 7.6471e+01   998.0274 0.0000e+00
      1.954    20.9141    12.7749    141.520  29.138042     31.731      8.750   220.8094     1.5187     1.3469     0.0212      0.064      1.917      2.781        406 7.5141e+01   998.0367 0.0000e+00
      1.974    20.9043    12.8338    141.931  29.146037     31.741      8.747   221.0365     1.4691     1.5776     0.0212      0.066      1.935      2.806        407 7.4155e+01   998.0400 0.0000e+00
      1.991    20.8569    12.8903    142.402  29.107425     31.701      8.746   219.4087     1.4500     1.6497     0.0211      0.067      1.951      2.830        408 7.3338e+01   998.0374 0.0000e+00
      2.005    20.7926    12.9389    142.866  29.037973     31.616      8.742   219.7873     1.4615     1.7218     0.0211      0.067      1.965      2.851        409 7.2865e+01   998.0395 0.0000e+00
      2.018    20.7009    12.9622    143.112  28.906610     31.529      8.739   219.6358     1.4691     1.4910     0.0211      0.065      1.979      2.870        410 7.2402e+01   998.0497 0.0000e+00
      2.032    20.6069    12.9636    143.160  28.796941     31.419      8.739   220.8851     1.4119     1.3469     0.0210      0.063      1.993      2.889        411 7.1928e+01   998.0637 0.0000e+00
      2.045    20.5597    12.9591    143.183  28.759751     31.483      8.742   221.1501     1.3509     1.3613     0.0210      0.061      2.006      2.909        412 7.1822e+01   998.0833 0.0000e+00
      2.059    20.5467    12.9578    143.192  28.745561     31.487      8.741   221.2258     1.3394     1.2459     0.0210      0.059      2.019      2.929        413 7.1498e+01   998.1034 0.0000e+00
      2.073    20.5277    12.9722    143.132  28.696138     31.520      8.742   218.2351     1.3242     1.3757     0.0210      0.057      2.033      2.949        414 7.1301e+01   998.1135 0.0000e+00
      2.086    20.4655    12.9659    142.836  28.643536     31.405      8.741   218.5758     1.3318     1.3469     0.0209      0.054      2.047      2.969        415 7.0927e+01   998.1163 0.0000e+00
      2.103    20.3601    12.9543    142.412  28.574044     31.419      8.739   218.6515     1.2784     1.3613     0.0209      0.054      2.064      2.994        416 6.9877e+01   998.1204 0.0000e+00
      2.127    20.2715    12.9376    141.739  28.397528     31.184      8.741   218.9165     1.2746     1.4045     0.0208      0.057      2.084      3.023        417 6.8684e+01   998.1336 0.0000e+00
      2.147    20.2191    12.9145    141.037  28.418884     31.352      8.735   220.0901     1.2746     1.2748     0.0208      0.062      2.104      3.051        418 6.7836e+01   998.1559 0.0000e+00
      2.162    20.1916    12.8815    140.416  28.458634     31.411      8.735   220.1280     1.2669     1.3469     0.0208      0.065      2.119      3.073        419 6.7150e+01   998.1746 0.0000e+00
      2.172    20.1889    12.8762    140.217  28.436963     31.449      8.737   220.6958     1.3280     1.2027     0.0208      0.066      2.128      3.087        420 6.6698e+01   998.1856 0.0000e+00
      2.175    20.1986    12.9020    140.393  28.475497     31.498      8.735   220.6201     1.3432     1.0729     0.0208      0.063      2.132      3.093        421 6.6438e+01   998.1914 0.0000e+00
      2.176    20.2268    12.9400    140.735  28.440312     31.470      8.735   220.5823     1.3356     1.1450     0.0208      0.056      2.135      3.096        422 6.5939e+01   998.1918 0.0000e+00
      2.180    20.2297    12.9834    141.086  28.510375     31.524      8.735   220.7337     1.3203     1.0585     0.0208      0.047      2.141      3.104        423 6.4883e+01   998.1898 0.0000e+00
      2.193    20.1582    13.0230    141.337  28.477171     31.506      8.738   220.9230     1.2669     1.3036     0.0208      0.039      2.154      3.123        424 6.2940e+01   998.1841 0.0000e+00
      2.217    20.0756    13.0281    141.334  28.333513     31.284      8.737   221.7558     1.2593     1.4045     0.0208      0.035      2.173      3.151        425 6.1193e+01   998.1835 0.0000e+00
      2.237    19.9700    13.0510    141.401  28.274437     31.337      8.736   222.0965     1.2746     1.3324     0.0208      0.037      2.193      3.181        426 6.0010e+01   998.1984 0.0000e+00
      2.254    19.7993    13.0884    141.361  28.106368     31.145      8.736   222.6265     1.3013     1.4334     0.0206      0.043      2.211      3.206        427 5.8925e+01   998.2157 0.0000e+00
      2.270    19.6408    13.0954    140.989  28.009494     31.156      8.739   223.0808     1.3814     1.3324     0.0206      0.052      2.227      3.230        428 5.7908e+01   998.2375 0.0000e+00
      2.287    19.5474    13.0931    140.408  27.980321     31.214      8.738   223.4973     1.3928     1.3613     0.0206      0.060      2.242      3.251        429 5.7019e+01   998.2726 0.0000e+00
      2.301    19.4961    13.0822    139.717  27.964997     31.325      8.738   224.0273     1.4043     1.3036     0.0206      0.066      2.255      3.271        430 5.6531e+01   998.3050 0.0000e+00
      2.312    19.4593    13.0731    139.142  28.028622     31.453      8.738   224.4437     1.4157     1.4045     0.0206      0.067      2.267      3.287        431 5.6147e+01   998.3239 0.0000e+00
      2.322    19.4336    13.0365    138.518  27.960424     31.426      8.737   225.9201     1.3890     1.3469     0.0206      0.063      2.277      3.301        432 5.6066e+01   998.3342 0.0000e+00
      2.329    19.3894    12.9889    137.900  27.901778     31.358      8.736   226.6773     1.4119     1.1017     0.0205      0.055      2.287      3.317        433 5.5658e+01   998.3416 0.0000e+00
      2.346    19.3299    12.9541    137.422  27.805397     31.313      8.734   224.0651     1.4043     1.1882     0.0205      0.052      2.302      3.339        434 5.4877e+01   998.3468 0.0000e+00
      2.369    19.3070    12.9353    137.022  27.754537     31.218      8.733   225.4280     1.3852     1.1161     0.0205      0.052      2.321      3.366        435 5.4649e+01   998.3557 0.0000e+00
      2.384    19.2398    12.9359    136.821  27.846600     31.451      8.732   225.5037     1.4157     1.1594     0.0205      0.053      2.340      3.393        436 5.4223e+01   998.3677 0.0000e+00
      2.406    19.0905    12.9622    136.733  27.690845     31.213      8.732   226.2230     1.4386     1.0873     0.0204      0.056      2.360      3.423        437 5.3697e+01   998.3724 0.0000e+00
      2.429    18.9271    12.9845    136.564  27.533678     31.132      8.731   227.8508     1.4653     1.0729     0.0204      0.063      2.381      3.454        438 5.3687e+01   998.3857 0.0000e+00
      2.450    18.7373    12.9773    136.130  27.420155     31.084      8.729   228.4187     1.4462     1.1017     0.0203      0.070      2.402      3.484        439 5.3472e+01   998.4153 0.0000e+00
      2.470    18.5319    12.9513    135.623  27.358222     31.132      8.729   228.8351     1.4195     1.1161     0.0203      0.076      2.422      3.513        440 5.2903e+01   998.4473 0.0000e+00
      2.491    18.3686    12.9168    135.142  27.314601     31.239      8.732   225.3523     1.6904     1.0873     0.0202      0.080      2.441      3.541        441 5.2502e+01   998.4842 0.0000e+00
      2.508    18.2807    12.8817    134.781  27.207919     31.223      8.731   226.2987     1.6751     1.0296     0.0202      0.080      2.459      3.567        442 5.2129e+01   998.5237 0.0000e+00
      2.525    18.2443    12.8689    134.695  27.224464     31.409      8.727   226.7908     1.7285     1.0585     0.0202      0.079      2.476      3.591        443 5.1509e+01   998.5548 0.0000e+00
      2.541    18.2004    12.8941    134.834  27.205203     31.405      8.730   228.6459     1.7285     1.0873     0.0202      0.077      2.492      3.614        444 5.0992e+01   998.5715 0.0000e+00
      2.556    18.1352    12.9656    135.160  27.172680     31.434      8.730   229.2137     1.7552     1.1161     0.0202      0.074      2.508      3.637        445 5.0361e+01   998.5784 0.0000e+00
      2.574    18.0548    12.9648    134.867  27.146473     31.397      8.730   229.2137     1.7705     1.2315     0.0201      0.070      2.524      3.661        446 4.9435e+01   998.5866 0.0000e+00
      2.592    17.9297    12.9613    134.652  27.089729     31.417      8.728   229.2894     1.7323     1.1306     0.0201      0.068      2.541      3.686        447 4.8728e+01   998.5988 0.0000e+00
      2.609    17.7829    12.9512    134.368  27.035971     31.374      8.727   229.9709     1.7552     1.1306     0.0201      0.067      2.558      3.710        448 4.8007e+01   998.6139 0.0000e+00
      2.626    17.6591    12.9283    133.926  27.006056     31.469      8.728   230.5387     1.9002     1.1306     0.0201      0.066      2.575      3.735        449 4.7060e+01   998.6371 0.0000e+00
      2.643    17.5727    12.9357    133.594  26.949275     31.477      8.732   231.0309     1.9460     0.9864     0.0200      0.066      2.591      3.759        450 4.6304e+01   998.6640 0.0000e+00
      2.660    17.5325    12.9113    132.936  26.928958     31.571      8.728   231.8637     1.9383     1.2171     0.0200      0.067      2.606      3.780        451 4.5960e+01   998.6866 0.0000e+00
      2.669    17.5318    12.8717    132.203  26.942521     31.633      8.727   232.2801     1.9345     1.0873     0.0200      0.065      2.617      3.795        452 4.5922e+01   998.7023 0.0000e+00
      2.675    17.5507    12.8138    131.438  26.932426     31.665      8.729   233.0373     1.9383     1.1450     0.0200      0.061      2.626      3.809        453 4.5659e+01   998.7096 0.0000e+00
      2.691    17.5005    12.7472    130.719  26.971157     31.696      8.729   232.2423     2.1787     1.0440     0.0200      0.057      2.641      3.830        454 4.5203e+01   998.7098 0.0000e+00
      2.713    17.3585    12.6778    129.926  26.923947     31.650      8.729   233.4159     2.2054     1.0152     0.0200      0.056      2.659      3.857        455 4.4882e+01   998.7064 0.0000e+00
      2.731    17.2529    12.5997    128.929  26.783833     31.486      8.727   233.7944     2.2168     1.1161     0.0199      0.056      2.678      3.884        456 4.4616e+01   998.7155 0.0000e+00
      2.749    17.1891    12.5367    127.930  26.760471     31.598      8.727   234.2109     2.1863     1.1161     0.0199      0.058      2.696      3.910        457 4.4357e+01   998.7410 0.0000e+00
      2.767    17.1272    12.4721    126.905  26.775334     31.674      8.725   234.6652     2.2397     1.0440     0.0199      0.060      2.713      3.935        458 4.4138e+01   998.7597 0.0000e+00
      2.783    17.0491    12.4069    125.913  26.765376     31.722      8.724   235.1194     2.2550     1.1882     0.0199      0.064      2.730      3.960        459 4.3959e+01   998.7711 0.0000e+00
      2.802    16.9080    12.3463    125.024  26.713650     31.704      8.725   235.9902     2.2511     1.1882     0.0199      0.068      2.748      3.986        460 4.3614e+01   998.7820 0.0000e+00
      2.822    16.7599    12.2803    124.150  26.632385     31.660      8.724   233.3402     2.2550     1.1161     0.0198      0.072      2.767      4.013        461 4.3231e+01   998.7958 0.0000e+00
      2.841    16.6443    12.2131    123.411  26.540712     31.670      8.721   234.7030     2.4343     1.3036     0.0198      0.072      2.785      4.039        462 4.2862e+01   998.8203 0.0000e+00
      2.857    16.5830    12.1363    122.617  26.472334     31.681      8.722   235.4223     2.4419     1.2171     0.0197      0.071      2.802      4.064        463 4.2392e+01   998.8458 0.0000e+00
      2.874    16.5673    12.0978    122.015  26.539809     31.870      8.723   235.6494     2.4190     1.2459     0.0198      0.071      2.818      4.086        464 4.1984e+01   998.8657 0.0000e+00
      2.887    16.5389    12.0723    121.479  26.604885     31.985      8.722   236.9366     2.4304     1.5055     0.0198      0.069      2.831      4.106        465 4.1529e+01   998.8761 0.0000e+00
      2.900    16.4640    12.0404    120.877  26.539475     31.928      8.724   237.0880     2.3770     1.4334     0.0198      0.067      2.843      4.124        466 4.0951e+01   998.8788 0.0000e+00
      2.912    16.3363    12.0097    120.259  26.473117     31.850      8.725   237.0123     2.3732     1.2748     0.0197      0.063      2.857      4.144        467 4.0262e+01   998.8837 0.0000e+00
      2.929    16.1985    11.9752    119.657  26.391272     31.838      8.726   234.8923     2.3656     1.4189     0.0197      0.060      2.873      4.167        468 3.9302e+01   998.8963 0.0000e+00
      2.948    16.0769    11.9201    118.993  26.197051     31.669      8.723   235.6116     2.3808     1.3324     0.0196      0.059      2.890      4.192        469 3.8525e+01   998.9177 0.0000e+00
      2.964    15.9726    11.8711    118.467  26.063219     31.638      8.723   235.9523     2.4075     1.3469     0.0195      0.059      2.906      4.215        470 3.7974e+01   998.9405 0.0000e+00
      2.979    15.8958    11.8058    117.639  25.995088     31.631      8.724   236.5580     2.3541     1.3469     0.0195      0.059      2.922      4.238        471 3.7272e+01   998.9605 0.0000e+00
      2.997    15.8734    11.7535    116.957  25.985682     31.711      8.721   236.8230     2.3885     1.2315     0.0195      0.061      2.939      4.263        472 3.6577e+01   998.9775 0.0000e+00
      3.016    15.8621    11.6959    116.160  26.074961     31.874      8.726   236.6716     2.3808     1.4045     0.0195      0.064      2.956      4.288        473 3.6067e+01   998.9901 0.0000e+00
      3.031    15.7840    11.6395    115.346  26.120966     31.959      8.723   236.8230     2.3770     1.3180     0.0195      0.066      2.972      4.311        474 3.5684e+01   998.9938 0.0000e+00
      3.046    15.6759    11.5785    114.513  25.987681     31.795      8.722   238.5266     2.3198     1.1450     0.0195      0.066      2.988      4.334        475 3.5349e+01   998.9956 0.0000e+00
      3.064    15.5660    11.5197    113.747  25.826164     31.653      8.721   238.9809     2.3007     1.0873     0.0194      0.066      3.007      4.361        476 3.4905e+01   999.0082 0.0000e+00
      3.088    15.4475    11.4570    112.996  25.699981     31.599      8.724   239.5487     2.3122     1.2748     0.0193      0.067      3.028      4.391        477 3.4457e+01   999.0255 0.0000e+00
      3.109    15.3468    11.4053    112.463  25.611597     31.547      8.721   239.1323     2.3084     1.1738     0.0192      0.070      3.048      4.420        478 3.4190e+01   999.0429 0.0000e+00
      3.125    15.3053    11.3906    112.185  25.640000     31.709      8.723   239.6245     2.1787     1.0873     0.0193      0.072      3.066      4.447        479 3.3925e+01   999.0616 0.0000e+00
      3.146    15.2837    11.3811    111.812  25.664674     31.788      8.724   239.8516     2.1901     1.0873     0.0193      0.073      3.085      4.474        480 3.3653e+01   999.0773 0.0000e+00
      3.166    15.2215    11.3889    111.605  25.640162     31.823      8.721   239.9273     2.2054     1.1450     0.0193      0.075      3.103      4.500        481 3.3656e+01   999.0839 0.0000e+00
      3.179    15.1520    11.3743    111.242  25.552044     31.696      8.721   240.9116     2.2054     1.1450     0.0192      0.075      3.117      4.521        482 3.3875e+01   999.0873 0.0000e+00
      3.190    15.0666    11.3660    111.030  25.448533     31.646      8.722   241.9337     2.1977     0.8422     0.0192      0.073      3.129      4.539        483 3.3780e+01   999.0968 0.0000e+00
      3.205    14.9623    11.3751    110.968  25.295090     31.488      8.722   241.7823     2.1787     0.8710     0.0191      0.069      3.144      4.560        484 3.3520e+01   999.1074 0.0000e+00
      3.223    14.8725    11.4014    111.130  25.121027     31.349      8.723   241.8959     2.1748     0.8422     0.0190      0.065      3.163      4.589        485 3.3110e+01   999.1204 0.0000e+00
      3.250    14.7953    11.4528    111.540  25.043185     31.325      8.720   241.9716     2.2054     0.8854     0.0189      0.065      3.188      4.624        486 3.2443e+01   999.1363 0.0000e+00
      3.280    14.7452    11.5145    111.943  24.977334     31.327      8.720   241.8959     2.2359     0.8998     0.0189      0.070      3.214      4.661        487 3.1965e+01   999.1499 0.0000e+00
      3.301    14.7310    11.5776    112.294  24.936443     31.316      8.716   241.8959     2.2473     0.7989     0.0188      0.074      3.236      4.693        488 3.1551e+01   999.1615 0.0000e+00
      3.318    14.6771    11.6222    112.484  24.946007     31.393      8.719   241.1009     2.2473     0.8998     0.0189      0.078      3.256      4.722        489 3.0995e+01   999.1689 0.0000e+00
      3.342    14.5643    11.6543    112.495  24.876592     31.296      8.718   241.5930     2.2397     0.8854     0.0188      0.084      3.276      4.752        490 3.0475e+01   999.1711 0.0000e+00
      3.363    14.4466    11.6383    112.025  24.815510     31.268      8.717   241.6309     2.2511     0.9143     0.0188      0.088      3.295      4.780        491 3.0118e+01   999.1792 0.0000e+00
      3.376    14.3583    11.5682    111.214  24.814713     31.359      8.719   241.5552     2.2664     0.8422     0.0188      0.087      3.311      4.803        492 2.9769e+01   999.1957 0.0000e+00
      3.392    14.3004    11.4720    110.196  24.759144     31.381      8.719   241.6309     2.2168     0.8710     0.0187      0.082      3.329      4.828        493 2.9125e+01   999.2129 0.0000e+00
      3.417    14.2422    11.3675    109.027  24.706994     31.383      8.720   241.3280     2.2473     0.8422     0.0187      0.078      3.352      4.860        494 2.8482e+01   999.2257 0.0000e+00
      3.443    14.2013    11.2458    107.767  24.701936     31.426      8.718   241.4037     2.2473     0.8710     0.0187      0.077      3.375      4.895        495 2.8145e+01   999.2341 0.0000e+00
      3.463    14.1637    11.1234    106.529  24.646988     31.404      8.719   242.5395     2.3770     0.7845     0.0187      0.079      3.396      4.925        496 2.7829e+01   999.2424 0.0000e+00
      3.482    14.0830    11.0230    105.578  24.508830     31.257      8.720   242.1609     2.3770     0.5249     0.0186      0.080      3.415      4.953        497 2.7577e+01   999.2482 0.0000e+00
      3.501    13.9782    10.9275    104.780  24.399998     31.145      8.719   242.3502     2.3618     0.6403     0.0185      0.080      3.433      4.978        498 2.7484e+01   999.2535 0.0000e+00
      3.515    13.8789    10.8526    104.180  24.338177     31.137      8.720   242.7666     2.3541     0.6403     0.0185      0.079      3.448      5.000        499 2.7429e+01   999.2649 0.0000e+00
      3.530    13.7576    10.8039    103.845  24.348849     31.222      8.719   241.1387     2.5144     0.6835     0.0185      0.078      3.464      5.024        500 2.7256e+01   999.2796 0.0000e+00
      3.552    13.6335    10.7705    103.674  24.327514     31.301      8.720   241.2902     2.4533     0.6114     0.0185      0.076      3.484      5.054        501 2.6885e+01   999.2934 0.0000e+00
      3.577    13.5762    10.7675    103.807  24.305529     31.327      8.722   241.2145     2.4838     0.6403     0.0184      0.074      3.508      5.089        502 2.6680e+01   999.3102 0.0000e+00
      3.605    13.5357    10.8003    104.204  24.346629     31.538      8.719   245.2652     2.4953     0.6547     0.0185      0.076      3.533      5.124        503 2.6573e+01   999.3271 0.0000e+00
      3.626    13.4715    10.8695    104.732  24.246782     31.403      8.717   245.0380     2.8348     0.6835     0.0184      0.079      3.553      5.153        504 2.6422e+01   999.3349 0.0000e+00
      3.638    13.4296    10.9255    105.183  24.163251     31.361      8.716   245.1516     2.8653     0.5970     0.0184      0.080      3.565      5.171        505 2.6364e+01   999.3402 0.0000e+00
      3.642    13.4037    10.9819    105.680  24.184041     31.417      8.717   245.0380     2.8234     0.6114     0.0184      0.077      3.571      5.180        506 2.6354e+01   999.3488 0.0000e+00
      3.645    13.4085    11.0461    106.055  24.220928     31.521      8.718   243.4102     2.8577     0.7412     0.0184      0.071      3.575      5.185        507 2.6313e+01   999.3544 0.0000e+00
      3.650    13.4570    11.1047    106.203  24.235831     31.544      8.716   243.2209     2.8195     0.7268     0.0184      0.060      3.579      5.190        508 2.6277e+01   999.3578 0.0000e+00
      3.652    13.5092    11.1345    106.017  24.283973     31.613      8.713   243.0316     2.8119     0.6980     0.0184      0.047      3.581      5.193        509 2.6159e+01   999.3572 0.0000e+00
      3.652    13.5664    11.1188    105.501  24.368338     31.680      8.711   245.4166     2.7814     0.6259     0.0185      0.032      3.581      5.194        510 2.5911e+01   999.3509 0.0000e+00
      3.653    13.6318    11.0658    104.653  24.397387     31.675      8.708   245.2652     2.7700     0.6691     0.0185      0.020      3.583      5.197        511 2.5660e+01   999.3440 0.0000e+00
      3.658    13.7038    10.9594    103.366  24.395892     31.628      8.709   245.0759     2.9264     0.6259     0.0185      0.013      3.587      5.203        512 2.5295e+01   999.3363 0.0000e+00
      3.663    13.7340    10.8027    101.681  24.399795     31.574      8.706   244.8109     2.9340     0.6691     0.0185      0.011      3.591      5.208        513 2.5073e+01   999.3276 0.0000e+00
      3.664    13.6797    10.6139     99.758  24.392509     31.516      8.705   244.1295     2.8882     0.6835     0.0185      0.010      3.593      5.211        514 2.4876e+01   999.3179 0.0000e+00
      3.666    13.6402    10.3846     97.584  24.345705     31.415      8.707   243.9402     2.9035     0.5970     0.0185      0.010      3.596      5.214        515 2.4715e+01   999.3137 0.0000e+00
      3.668    13.6171    10.1236     95.161  24.339563     31.464      8.709   243.6752     2.8958     0.6259     0.0185      0.010      3.602      5.223        516 2.4526e+01   999.3211 0.0000e+00
      3.684    13.5164     9.8781     92.781  24.370545     31.532      8.708   243.5995     3.0484     0.7124     0.0185      0.014      3.618      5.247        517 2.3935e+01   999.3266 0.0000e+00
      3.717    13.3387     9.6585     90.500  24.277543     31.439      8.711   242.9938     3.0599     0.6835     0.0184      0.025      3.644      5.284        518 2.3527e+01   999.3298 0.0000e+00
      3.743    13.1441     9.4391     88.196  24.099906     31.270      8.712   242.8802     3.0179     0.6835     0.0183      0.038      3.670      5.323        519 2.3328e+01   999.3433 0.0000e+00
      3.768    12.9846     9.2700     86.395  24.088147     31.413      8.711   242.8423     3.0408     0.5970     0.0183      0.053      3.696      5.361        520 2.2972e+01   999.3668 0.0000e+00
      3.796    12.8402     9.1283     84.900  24.084909     31.578      8.710   243.1073     3.3536     0.6691     0.0183      0.069      3.722      5.399        521 2.2669e+01   999.3922 0.0000e+00
      3.822    12.7182     8.9866     83.428  24.103998     31.707      8.708   242.6909     3.3269     0.5970     0.0183      0.084      3.747      5.436        522 2.2466e+01   999.4127 0.0000e+00
      3.846    12.6275     8.8302     81.833  24.212534     32.014      8.710   243.1830     3.3574     0.6259     0.0183      0.095      3.771      5.470        523 2.2332e+01   999.4311 0.0000e+00
      3.870    12.5642     8.6724     80.251  24.157207     32.006      8.707   244.7730     3.3116     0.6547     0.0183      0.102      3.793      5.502        524 2.2379e+01   999.4463 0.0000e+00
      3.887    12.5544     8.5101     78.663  24.084039     32.009      8.709   245.1895     3.4642     0.6403     0.0183      0.100      3.811      5.528        525 2.2325e+01   999.4574 0.0000e+00
      3.903    12.5675     8.3413     77.033  24.096299     32.064      8.705   244.0159     3.4795     0.6403     0.0183      0.093      3.828      5.552        526 2.2115e+01   999.4652 0.0000e+00
      3.919    12.5315     8.1638     75.324  24.082734     32.071      8.711   243.8266     3.4681     0.6259     0.0183      0.088      3.844      5.576        527 2.1946e+01   999.4665 0.0000e+00
      3.938    12.4271     7.9880     73.672  24.041690     31.985      8.708   244.2809     3.4833     0.5970     0.0182      0.082      3.864      5.605        528 2.1730e+01   999.4650 0.0000e+00
      3.964    12.3016     7.8280     72.211  24.088143     32.089      8.707   244.4702     3.5901     1.0585     0.0182      0.078      3.889      5.640        529 2.1390e+01   999.4695 0.0000e+00
      3.993    12.1900     7.6920     70.924  24.173027     32.293      8.705   245.1895     3.6092     1.0152     0.0183      0.079      3.916      5.679        530 2.1020e+01   999.4822 0.0000e+00
      4.021    12.0986     7.5807     69.838  24.024938     32.214      8.708   247.6502     3.6016     0.8854     0.0182      0.082      3.942      5.718        531 2.0757e+01   999.4972 0.0000e+00
      4.046    12.0182     7.4709     68.719  23.887448     32.086      8.707   248.6723     3.5978     0.8422     0.0181      0.087      3.967      5.755        532 2.0419e+01   999.5104 0.0000e+00
      4.070    11.9412     7.3823     67.802  23.899906     32.239      8.707   247.8773     3.9449     0.5682     0.0181      0.093      3.990      5.787        533 2.0034e+01   999.5211 0.0000e+00
      4.091    11.8760     7.2943     66.928  23.831763     32.159      8.707   248.1423     3.9678     0.5682     0.0181      0.096      4.009      5.815        534 1.9762e+01   999.5304 0.0000e+00
      4.104    11.8277     7.2313     66.272  23.853810     32.302      8.709   248.7102     3.9525     0.6403     0.0181      0.095      4.024      5.837        535 1.9539e+01   999.5392 0.0000e+00
      4.116    11.7881     7.1657     65.557  23.872494     32.359      8.708   249.1266     3.9640     0.5538     0.0181      0.090      4.038      5.858        536 1.9275e+01   999.5466 0.0000e+00
      4.135    11.7469     7.0975     64.824  23.808533     32.325      8.706   249.9973     3.9449     0.5970     0.0180      0.082      4.056      5.884        537 1.8969e+01   999.5522 0.0000e+00
      4.158    11.7313     7.0198     64.010  23.814957     32.360      8.706   250.4516     3.7618     0.6114     0.0180      0.077      4.078      5.916        538 1.8718e+01   999.5567 0.0000e+00
      4.184    11.7364     6.9372     63.159  23.834897     32.434      8.708   248.5588     3.7694     0.6835     0.0181      0.075      4.103      5.951        539 1.8496e+01   999.5614 0.0000e+00
      4.209    11.7196     6.8479     62.252  23.813347     32.412      8.704   249.2023     3.7809     0.7556     0.0180      0.076      4.127      5.986        540 1.8305e+01   999.5633 0.0000e+00
      4.233    11.6793     6.7284     61.059  23.812163     32.404      8.702   249.6188     3.7542     0.5970     0.0180      0.079      4.152      6.021        541 1.8139e+01   999.5628 0.0000e+00
      4.258    11.6132     6.6258     60.006  23.806753     32.422      8.699   249.6188     4.5591     0.8998     0.0180      0.085      4.177      6.057        542 1.7957e+01   999.5647 0.0000e+00
      4.285    11.5477     6.5337     59.021  23.760851     32.378      8.697   251.5495     4.5705     0.8998     0.0180      0.092      4.204      6.096        543 1.7718e+01   999.5693 0.0000e+00
      4.315    11.5048     6.4376     57.955  23.750834     32.439      8.693   251.7388     4.5400     0.8998     0.0180      0.098      4.232      6.138        544 1.7466e+01   999.5767 0.0000e+00
      4.345    11.4522     6.3171     56.649  23.700772     32.421      8.691   252.2688     4.5591     0.9719     0.0180      0.102      4.259      6.178        545 1.7286e+01   999.5839 0.0000e+00
      4.369    11.3787     6.1635     55.099  23.615853     32.344      8.691   248.8995     5.1923     0.9287     0.0179      0.104      4.282      6.211        546 1.7210e+01   999.5887 0.0000e+00
      4.385    11.3046     5.9832     53.344  23.560361     32.313      8.692   248.9752     5.2000     0.9143     0.0179      0.102      4.300      6.238        547 1.7106e+01   999.5944 0.0000e+00
      4.402    11.2341     5.7441     51.036  23.503297     32.303      8.696   248.8995     5.2114     0.8710     0.0178      0.099      4.319      6.266        548 1.6876e+01   999.6023 0.0000e+00
      4.428    11.1673     5.4774     48.515  23.331489     32.138      8.695   249.3159     5.1694     0.8277     0.0177      0.096      4.344      6.301        549 1.6581e+01   999.6103 0.0000e+00
      4.459    11.1017     5.1913     45.901  23.300331     32.123      8.695   251.1331     5.1313     0.8854     0.0177      0.094      4.375      6.345        550 1.6150e+01   999.6177 0.0000e+00
      4.496    11.0259     4.8814     43.093  23.542096     32.569      8.695   251.2466     5.1465     0.9431     0.0179      0.096      4.408      6.393        551 1.5706e+01   999.6250 0.0000e+00
      4.529    10.9383     4.6122     40.626  23.504505     32.550      8.698   251.8523     5.1351     0.9575     0.0178      0.100      4.440      6.440        552 1.5362e+01   999.6319 0.0000e+00
      4.558    10.8281     4.3746     38.467  23.465601     32.542      8.698   251.2845     5.1389     0.9143     0.0178      0.105      4.471      6.485        553 1.4914e+01   999.6397 0.0000e+00
      4.592    10.6811     4.1955     36.854  23.590537     32.853      8.699   250.9438     5.8370     0.8566     0.0179      0.113      4.503      6.531        554 1.4472e+01   999.6488 0.0000e+00
      4.625    10.5157     4.0681     35.717  23.645222     32.954      8.700   251.1709     5.8637     0.7701     0.0179      0.121      4.534      6.576        555 1.4108e+01   999.6599 0.0000e+00
      4.653    10.3817     3.9879     35.006  23.782604     33.364      8.702   252.0416     5.8675     0.9575     0.0180      0.125      4.562      6.617        556 1.3749e+01   999.6746 0.0000e+00
      4.678    10.2654     3.9681     34.827  23.834254     33.521      8.703   252.0038     5.8446     0.7989     0.0180      0.124      4.589      6.656        557 1.3423e+01   999.6907 0.0000e+00
      4.708    10.1207     3.9868     34.985  23.788315     33.647      8.701   252.3445     5.8446     0.7845     0.0179      0.122      4.618      6.699        558 1.3069e+01   999.7034 0.0000e+00
      4.742     9.9888     4.0356     35.408  23.780584     33.677      8.703   252.7988     5.5738     1.0152     0.0179      0.119      4.650      6.744        559 1.2758e+01   999.7143 0.0000e+00
      4.774     9.9138     4.1046     36.007  23.814300     33.937      8.704   252.1173     5.5395     0.8422     0.0179      0.119      4.681      6.789        560 1.2493e+01   999.7276 0.0000e+00
      4.802     9.8459     4.1715     36.587  23.776019     33.946      8.701   252.7988     5.5509     0.8710     0.0179      0.119      4.710      6.830        561 1.2234e+01   999.7395 0.0000e+00
      4.830     9.7544     4.2355     37.144  23.739412     34.018      8.700   254.1238     5.5395     0.8710     0.0179      0.117      4.737      6.869        562 1.1961e+01   999.7462 0.0000e+00
      4.857     9.6806     4.2859     37.586  23.830268     34.163      8.701   254.7674     6.2452     1.0729     0.0179      0.116      4.763      6.908        563 1.1741e+01   999.7522 0.0000e+00
      4.883     9.6379     4.3417     38.077  23.840681     34.336      8.699   255.2216     6.2376     1.1161     0.0179      0.115      4.789      6.946        564 1.1556e+01   999.7602 0.0000e+00
      4.911     9.6159     4.3746     38.367  23.785716     34.247      8.699   255.3731     6.2719     1.1738     0.0179      0.114      4.817      6.987        565 1.1321e+01   999.7666 0.0000e+00
      4.943     9.6072     4.4121     38.695  23.839459     34.451      8.699   255.9409     6.2490     1.0729     0.0179      0.112      4.849      7.034        566 1.1091e+01   999.7704 0.0000e+00
      4.981     9.6010     4.4320     38.868  23.833048     34.391      8.694   255.8274     5.8981     1.4045     0.0179      0.113      4.884      7.084        567 1.0889e+01   999.7723 0.0000e+00
      5.016     9.5938     4.4543     39.062  23.823319     34.441      8.695   252.6852     5.9057     1.3469     0.0179      0.117      4.915      7.129        568 1.0812e+01   999.7732 0.0000e+00
      5.038     9.5872     4.4690     39.190  23.821953     34.406      8.697   254.3131     5.9133     1.3324     0.0179      0.118      4.942      7.168        569 1.0694e+01   999.7739 0.0000e+00
      5.065     9.5804     4.4816     39.297  23.805133     34.413      8.691   254.8052     5.9362     1.4622     0.0179      0.119      4.970      7.208        570 1.0392e+01   999.7745 0.0000e+00
      5.102     9.5727     4.4867     39.340  23.814635     34.420      8.692   254.9188     3.8266     2.4860     0.0179      0.121      5.002      7.254        571 1.0126e+01   999.7752 0.0000e+00
      5.133     9.5681     4.4895     39.363  23.810130     34.427      8.689   254.4266     3.8266     2.4860     0.0179      0.123      5.033      7.299        572 9.9232e+00   999.7759 0.0000e+00
      5.160     9.5678     4.4982     39.438  23.810744     34.434      8.687   256.0166     3.8266     2.4860     0.0179      0.121      5.060      7.340        573 9.6985e+00   999.7767 0.0000e+00
      5.188     9.5700     4.5019     39.477  23.813874     34.439      8.688   255.9409     3.8343     2.5149     0.0179      0.119      5.087      7.378        574 9.5320e+00   999.7772 0.0000e+00
      5.211     9.5717     4.5121     39.573  23.835852     34.480      8.688   253.1016     3.2964     2.9330     0.0179      0.114      5.113      7.415        575 9.3412e+00   999.7774 0.0000e+00
      5.242     9.5703     4.5218     39.657  23.813011     34.437      8.685   253.5938     3.3040     2.8609     0.0179      0.113      5.143      7.459        576 9.0593e+00   999.7773 0.0000e+00
      5.280     9.5680     4.5321     39.743  23.753448     34.355      8.682   254.4645     3.2621     2.8032     0.0179      0.116      5.177      7.508        577 8.8139e+00   999.7773 0.0000e+00
      5.314     9.5671     4.5308     39.726  23.761889     34.356      8.683   254.5781     3.2888     2.9474     0.0179      0.118      5.208      7.554        578 8.5621e+00   999.7777 0.0000e+00
      5.339     9.5653     4.5370     39.778  23.802508     34.439      8.680   254.9566     3.3155     2.8898     0.0179      0.117      5.233      7.589        579 8.3809e+00   999.7779 0.0000e+00
      5.354     9.5618     4.5428     39.827  23.762136     34.359      8.680   255.1081     2.9187     3.2070     0.0179      0.114      5.249      7.613        580 8.2838e+00   999.7780 0.0000e+00
      5.364     9.5599     4.5372     39.776  23.752897     34.361      8.678   255.1838     2.9225     3.3224     0.0179      0.107      5.262      7.632        581 8.1437e+00   999.7782 0.0000e+00
      5.379     9.5580     4.5330     39.739  23.784389     34.405      8.678   256.4331     2.9035     3.3079     0.0179      0.099      5.280      7.658        582 7.9320e+00   999.7786 0.0000e+00
      5.410     9.5574     4.5267     39.684  23.811797     34.447      8.676   256.8116     2.9340     3.3224     0.0179      0.093      5.308      7.699        583 7.6247e+00   999.7789 0.0000e+00
      5.449     9.5642     4.5330     39.740  23.807640     34.449      8.674   257.7959     2.3694     3.7405     0.0179      0.090      5.341      7.746        584 7.4217e+00   999.7793 0.0000e+00
      5.477     9.5715     4.5195     39.626  23.819182     34.450      8.671   258.4395     2.3732     3.7838     0.0179      0.089      5.371      7.789        585 7.2519e+00   999.7795 0.0000e+00
      5.502     9.5707     4.5258     39.688  23.797433     34.443      8.669   257.5309     2.3694     3.8559     0.0179      0.092      5.396      7.826        586 7.0113e+00   999.7790 0.0000e+00
      5.530     9.5649     4.5180     39.625  23.775468     34.355      8.669   257.8717     2.3847     3.8126     0.0179      0.098      5.424      7.866        587 6.7087e+00   999.7785 0.0000e+00
      5.561     9.5596     4.5146     39.605  23.846517     34.517      8.664   257.9474     2.4304     3.7838     0.0179      0.107      5.450      7.904        588 6.5169e+00   999.7788 0.0000e+00
      5.580     9.5562     4.5194     39.666  23.797867     34.402      8.664   258.8559     2.4457     3.8126     0.0179      0.111      5.467      7.929        589 6.5862e+00   999.7793 0.0000e+00
      5.581     9.5545     4.5215     39.709  23.806396     34.447      8.662   259.5752     2.4266     3.6829     0.0179      0.104      5.474      7.941        590 6.5529e+00   999.7798 0.0000e+00
      5.589     9.5530     4.5130     39.650  23.865522     34.532      8.660   259.9538     2.4381     3.8126     0.0179      0.090      5.482      7.952        591 6.4081e+00   999.7801 0.0000e+00
      5.603     9.5523     4.5198     39.700  23.813140     34.453      8.659   259.8402     2.2397     3.7550     0.0179      0.076      5.492      7.966        592 6.3222e+00   999.7803 0.0000e+00
      5.609     9.5529     4.5175     39.660  23.753117     34.373      8.657   259.8781     2.2473     3.7261     0.0179      0.063      5.499      7.976        593 6.3101e+00   999.7804 0.0000e+00
      5.611     9.5543     4.5157     39.631  23.762516     34.374      8.657   260.0295     2.2550     3.8559     0.0179      0.050      5.502      7.980        594 6.3328e+00   999.7805 0.0000e+00
      5.611     9.5585     4.5124     39.595  23.801442     34.454      8.655   259.4995     2.2397     3.8559     0.0179      0.036      5.503      7.982        595 6.3302e+00   999.7804 0.0000e+00
      5.612     9.5653     4.5131     39.593  23.823141     34.453      8.654   259.4238     2.2473     3.7838     0.0179      0.025      5.504      7.983        596 6.2746e+00   999.7803 0.0000e+00
      5.614     9.5710     4.5082     39.544  23.883597     34.570      8.655   256.6224     2.0604     3.7550     0.0179      0.018      5.506      7.985        597 6.2395e+00   999.7800 0.0000e+00
      5.614     9.5813     4.5113     39.569  23.874292     34.522      8.654   257.9095     2.0528     3.7550     0.0179      0.015      5.508      7.988        598 6.1610e+00   999.7795 0.0000e+00
      5.622     9.6019     4.5078     39.532  23.864337     34.517      8.649   257.4552     2.0680     3.9424     0.0179      0.012      5.512      7.995        599 6.0155e+00   999.7791 0.0000e+00
      5.627     9.6276     4.5042     39.497  23.807131     34.426      8.647   256.9631     2.0680     3.8992     0.0179      0.010      5.517      8.002        600 6.0504e+00   999.7781 0.0000e+00
      5.627     9.6438     4.5074     39.524  23.827011     34.405      8.650   256.0924     2.0986     3.7550     0.0179      0.009      5.524      8.012        601 5.9934e+00   999.7765 0.0000e+00
      5.645     9.6341     4.5069     39.518  23.898826     34.541      8.647   255.6002     2.1138     3.8271     0.0180      0.015      5.541      8.037        602 5.6425e+00   999.7744 0.0000e+00
      5.681     9.6131     4.5085     39.529  23.776986     34.282      8.645   254.9566     2.1558     3.8415     0.0179      0.027      5.568      8.076        603 5.4289e+00   999.7732 0.0000e+00
      5.707     9.5999     4.5037     39.485  23.771314     34.333      8.644   256.9252     2.1329     3.8703     0.0179      0.042      5.593      8.111        604 5.4127e+00   999.7742 0.0000e+00
      5.719     9.5912     4.5013     39.462  23.817036     34.394      8.643   256.2438     2.3847     4.0578     0.0179      0.055      5.608      8.134        605 5.3715e+00   999.7760 0.0000e+00
      5.731     9.5823     4.5010     39.457  23.808943     34.407      8.639   256.0166     2.3465     4.0001     0.0179      0.064      5.622      8.154        606 5.2795e+00   999.7771 0.0000e+00
      5.749     9.5768     4.5040     39.483  23.811007     34.416      8.639   255.3731     2.3694     4.0722     0.0179      0.070      5.638      8.176        607 5.1834e+00   999.7779 0.0000e+00
      5.765     9.5742     4.4971     39.421  23.814469     34.425      8.639   255.2216     2.3694     4.0866     0.0179      0.074      5.654      8.201        608 5.1729e+00   999.7787 0.0000e+00
      5.782     9.5685     4.4855     39.319  23.804637     34.431      8.638   253.2531     2.2969     3.7550     0.0179      0.074      5.672      8.226        609 5.0967e+00   999.7792 0.0000e+00
      5.804     9.5638     4.4849     39.318  23.764013     34.352      8.635   253.1016     2.3122     3.7694     0.0179      0.071      5.692      8.256        610 4.9716e+00   999.7796 0.0000e+00
      5.826     9.5620     4.4826     39.301  23.776174     34.399      8.631   257.4174     2.3122     3.7694     0.0179      0.067      5.714      8.287        611 4.8663e+00   999.7802 0.0000e+00
      5.848     9.5608     4.4836     39.310  23.759884     34.362      8.630   256.7738     2.3046     3.8703     0.0179      0.069      5.737      8.321        612 4.6373e+00   999.7806 0.0000e+00
      5.877     9.5585     4.4841     39.312  23.754669     34.364      8.629   257.0766     2.2550     4.0289     0.0179      0.077      5.765      8.361        613 4.3988e+00   999.7809 0.0000e+00
      5.911     9.5561     4.4792     39.268  23.812283     34.446      8.629   256.9252     2.2435     3.9712     0.0179      0.086      5.795      8.405        614 4.2424e+00   999.7812 0.0000e+00
      5.939     9.5539     4.4779     39.255  23.806657     34.449      8.625   257.1145     2.2321     3.9857     0.0179      0.094      5.821      8.443        615 4.1148e+00   999.7815 0.0000e+00
      5.957     9.5514     4.4945     39.399  23.761674     34.370      8.625   256.3574     2.2435     4.0866     0.0179      0.098      5.840      8.471        616 4.0566e+00   999.7818 0.0000e+00
      5.970     9.5502     4.4918     39.375  23.809029     34.453      8.625   256.8495     2.2092     4.0578     0.0179      0.098      5.856      8.494        617 3.9599e+00   999.7820 0.0000e+00
      5.988     9.5491     4.4957     39.410  23.836577     34.496      8.624   257.1524     2.2397     4.0289     0.0179      0.095      5.876      8.523        618 3.7510e+00   999.7823 0.0000e+00
      6.019     9.5494     4.5029     39.471  23.757010     34.376      8.623   257.4174     2.2740     3.9424     0.0179      0.093      5.903      8.562        619 3.5771e+00   999.7826 0.0000e+00
      6.050     9.5532     4.5013     39.453  23.759963     34.377      8.620   256.8116     2.2092     3.9568     0.0179      0.093      5.931      8.602        620 3.4562e+00   999.7828 0.0000e+00
      6.075     9.5568     4.5051     39.480  23.803286     34.458      8.618   256.8495     2.2588     4.0433     0.0179      0.091      5.955      8.637        621 3.3709e+00   999.7829 0.0000e+00
      6.094     9.5571     4.5083     39.504  23.762330     34.373      8.619   257.0009     2.0528     3.9857     0.0179      0.090      5.975      8.666        622 3.2826e+00   999.7826 0.0000e+00
      6.111     9.5552     4.5058     39.482  23.751695     34.369      8.615   257.0009     2.0795     3.9424     0.0179      0.090      5.994      8.693        623 3.1896e+00   999.7824 0.0000e+00
      6.132     9.5535     4.5001     39.434  23.757284     34.369      8.616   257.0009     2.0604     4.0145     0.0179      0.091      6.013      8.722        624 3.1343e+00   999.7825 0.0000e+00
      6.153     9.5519     4.5018     39.452  23.814608     34.452      8.613   257.0388     2.0375     4.1010     0.0179      0.091      6.034      8.752        625 3.0315e+00   999.7828 0.0000e+00
      6.176     9.5500     4.5048     39.478  23.828443     34.494      8.610   258.9695     1.9536     4.0289     0.0179      0.089      6.057      8.785        626 2.9079e+00   999.7831 0.0000e+00
      6.201     9.5499     4.5009     39.443  23.769686     34.374      8.611   258.1367     1.9383     3.8992     0.0179      0.085      6.081      8.819        627 2.8553e+00   999.7833 0.0000e+00
      6.223     9.5506     4.5036     39.466  23.798881     34.457      8.607   258.2502     1.9460     3.9712     0.0179      0.084      6.102      8.850        628 2.7763e+00   999.7836 0.0000e+00
      6.243     9.5487     4.4955     39.393  23.821728     34.457      8.607   257.3795     1.9536     4.0001     0.0179      0.084      6.122      8.879        629 2.6914e+00   999.7837 0.0000e+00
      6.263     9.5434     4.5017     39.443  23.800487     34.456      8.605   257.0009     2.0108     4.0001     0.0179      0.085      6.141      8.906        630 2.6513e+00   999.7837 0.0000e+00
      6.279     9.5376     4.4972     39.401  23.766081     34.377      8.606   257.4552     1.9956     3.9136     0.0179      0.085      6.157      8.930        631 2.5700e+00   999.7839 0.0000e+00
      6.293     9.5334     4.5006     39.432  23.805313     34.464      8.605   257.4552     1.9994     4.0866     0.0179      0.081      6.171      8.951        632 2.4952e+00   999.7844 0.0000e+00
      6.307     9.5324     4.4956     39.388  23.840517     34.510      8.602   261.1274     1.9803     3.9424     0.0179      0.076      6.185      8.971        633 2.4319e+00   999.7850 0.0000e+00
      6.323     9.5348     4.4934     39.369  23.811122     34.474      8.601   259.4617     1.9345     4.0289     0.0179      0.070      6.200      8.993        634 2.3716e+00   999.7855 0.0000e+00
      6.338     9.5379     4.4932     39.366  23.812279     34.475      8.602   259.1967     1.9536     4.0866     0.0179      0.066      6.215      9.015        635 2.3395e+00   999.7856 0.0000e+00
      6.353     9.5384     4.4937     39.369  23.809462     34.472      8.600   259.1209     1.9154     3.8992     0.0179      0.062      6.231      9.038        636 2.2731e+00   999.7854 0.0000e+00
      6.372     9.5371     4.4993     39.417  23.814626     34.469      8.599   258.7045     1.9383     4.0001     0.0179      0.061      6.249      9.065        637 2.2054e+00   999.7853 0.0000e+00
      6.395     9.5365     4.4935     39.367  23.805851     34.468      8.596   258.8559     1.9498     3.9712     0.0179      0.063      6.270      9.095        638 2.1297e+00   999.7853 0.0000e+00
      6.416     9.5338     4.4978     39.406  23.761149     34.389      8.595   258.7045     2.0032     3.9136     0.0179      0.066      6.291      9.125        639 2.0705e+00   999.7855 0.0000e+00
      6.434     9.5290     4.4955     39.386  23.781405     34.430      8.595   257.0766     1.9841     4.0289     0.0179      0.070      6.309      9.151        640 2.0540e+00   999.7856 0.0000e+00
      6.452     9.5272     4.4923     39.357  23.810259     34.473      8.592   257.3795     2.0108     3.9280     0.0179      0.073      6.326      9.176        641 1.9880e+00   999.7860 0.0000e+00
      6.468     9.5276     4.4940     39.371  23.814094     34.478      8.592   256.6224     2.0108     4.0289     0.0179      0.074      6.342      9.199        642 1.9405e+00   999.7865 0.0000e+00
      6.483     9.5277     4.4982     39.407  23.806252     34.480      8.589   256.0545     2.0108     4.0145     0.0179      0.073      6.357      9.221        643 1.8861e+00   999.7867 0.0000e+00
      6.497     9.5285     4.4940     39.369  23.760783     34.398      8.589   255.7895     1.9956     3.9280     0.0179      0.071      6.372      9.242        644 1.8207e+00   999.7866 0.0000e+00
      6.514     9.5272     4.4927     39.359  23.752211     34.399      8.588   257.3795     2.0070     4.0289     0.0179      0.068      6.389      9.266        645 1.8043e+00   999.7867 0.0000e+00
      6.533     9.5250     4.4989     39.412  23.816922     34.478      8.585   257.4931     2.0261     4.0001     0.0179      0.066      6.408      9.294        646 1.7482e+00   999.7868 0.0000e+00
      6.555     9.5248     4.5005     39.425  23.828338     34.520      8.584   254.9566     2.0566     4.2164     0.0179      0.066      6.429      9.324        647 1.7150e+00   999.7870 0.0000e+00
      6.578     9.5257     4.5011     39.431  23.826857     34.482      8.583   254.9945     2.0528     4.2596     0.0179      0.069      6.448      9.351        648 1.7089e+00   999.7873 0.0000e+00
      6.590     9.5271     4.4993     39.418  23.848384     34.563      8.582   255.3731     2.0490     4.1587     0.0179      0.070      6.461      9.370        649 1.6715e+00   999.7874 0.0000e+00
      6.596     9.5269     4.5000     39.425  23.771931     34.400      8.581   255.4488     2.0757     4.3462     0.0179      0.068      6.469      9.381        650 1.6674e+00   999.7873 0.0000e+00
      6.601     9.5261     4.5009     39.432  23.744297     34.399      8.580   256.0545     1.9498     4.3606     0.0179      0.063      6.475      9.391        651 1.6642e+00   999.7872 0.0000e+00
      6.610     9.5255     4.5075     39.487  23.764304     34.399      8.581   256.6602     1.9383     4.1299     0.0179      0.057      6.482      9.401        652 1.6451e+00   999.7872 0.0000e+00
      6.617     9.5240     4.5114     39.521  23.747032     34.400      8.578   257.1524     1.9498     4.2452     0.0179      0.049      6.488      9.411        653 1.6145e+00   999.7873 0.0000e+00
      6.623     9.5233     4.5058     39.473  23.765791     34.401      8.576   257.7959     1.9460     4.2452     0.0179      0.040      6.493      9.418        654 1.5924e+00   999.7874 0.0000e+00
      6.624     9.5240     4.5092     39.504  23.829810     34.523      8.577   259.0074     1.8201     4.2452     0.0179      0.031      6.497      9.423        655 1.6226e+00   999.7876 0.0000e+00
      6.627     9.5236     4.5088     39.502  23.815448     34.484      8.574   259.4617     1.8277     4.3317     0.0179      0.024      6.504      9.434        656 1.5868e+00   999.7876 0.0000e+00
      6.648     9.5218     4.5093     39.505  23.754049     34.402      8.574   260.0674     1.8124     4.2308     0.0179      0.025      6.524      9.462        657 1.5113e+00   999.7877 0.0000e+00
      6.682     9.5226     4.5101     39.513  23.758135     34.403      8.574   260.4838     1.7896     4.1875     0.0179      0.034      6.550      9.500        658 1.4645e+00   999.7879 0.0000e+00
      6.704     9.5260     4.5044     39.463  23.810363     34.485      8.570   261.4302     1.8201     4.2452     0.0179      0.045      6.573      9.534        659 1.4126e+00   999.7881 0.0000e+00
      6.722     9.5269     4.5031     39.451  23.807521     34.484      8.572   261.9224     1.9421     4.1443     0.0179      0.056      6.596      9.566        660 1.3793e+00   999.7881 0.0000e+00
      6.755     9.5249     4.5020     39.438  23.820906     34.481      8.567   262.5281     1.9498     4.2452     0.0179      0.069      6.623      9.605        661 1.3256e+00   999.7880 0.0000e+00
      6.783     9.5226     4.5072     39.481  23.882557     34.601      8.570   260.0674     1.9650     4.3029     0.0179      0.083      6.647      9.640        662 1.2938e+00   999.7881 0.0000e+00
      6.793     9.5220     4.5020     39.435  23.819649     34.482      8.566   261.4681     1.9421     4.1731     0.0179      0.091      6.662      9.662        663 1.2786e+00   999.7883 0.0000e+00
      6.805     9.5232     4.5034     39.449  23.810343     34.484      8.565   261.1274     2.0261     4.2596     0.0179      0.091      6.674      9.681        664 1.2476e+00   999.7885 0.0000e+00
      6.821     9.5250     4.5049     39.462  23.805287     34.485      8.564   261.5438     1.9879     4.1443     0.0179      0.085      6.689      9.702        665 1.2513e+00   999.7887 0.0000e+00
      6.836     9.5258     4.4992     39.411  23.766707     34.403      8.562   263.3231     2.0070     4.2452     0.0179      0.077      6.709      9.730        666 1.2144e+00   999.7886 0.0000e+00
      6.867     9.5255     4.5105     39.510  23.739887     34.401      8.563   263.4367     1.9956     4.2741     0.0179      0.075      6.736      9.770        667 1.1623e+00   999.7886 0.0000e+00
      6.902     9.5253     4.5030     39.443  23.779431     34.400      8.558   263.3988     2.0757     4.2741     0.0179      0.078      6.766      9.815        668 1.1156e+00   999.7887 0.0000e+00
      6.930     9.5256     4.4989     39.406  23.865581     34.603      8.558   259.2724     2.0719     4.2452     0.0179      0.081      6.795      9.856        669 1.0675e+00   999.7889 0.0000e+00
      6.956     9.5245     4.4936     39.359  23.780759     34.401      8.557   259.4995     2.0604     4.1587     0.0179      0.088      6.822      9.894        670 1.0438e+00   999.7890 0.0000e+00
      6.985     9.5212     4.5019     39.432  23.736904     34.401      8.558   260.3324     2.0451     4.2741     0.0179      0.098      6.848      9.932        671 9.9492e-01   999.7891 0.0000e+00
      7.009     9.5187     4.5039     39.451  23.772073     34.402      8.555   260.2567     2.0680     4.2596     0.0179      0.105      6.872      9.967        672 9.5442e-01   999.7893 0.0000e+00
      7.028     9.5190     4.5125     39.527  23.796227     34.486      8.555   260.2567     2.0909     4.1875     0.0179      0.107      6.893      9.998        673 9.2580e-01   999.7897 0.0000e+00
      7.052     9.5203     4.5097     39.501  23.766079     34.407      8.552   261.3924     2.0451     4.2741     0.0179      0.105      6.917     10.033        674 8.7753e-01   999.7900 0.0000e+00
      7.081     9.5196     4.5169     39.562  23.809591     34.488      8.551   260.6731     2.0680     4.1875     0.0179      0.102      6.945     10.073        675 8.3180e-01   999.7901 0.0000e+00
      7.114     9.5186     4.5211     39.598  23.830931     34.527      8.550   259.1967     2.1024     3.9136     0.0179      0.100      6.976     10.118        676 8.0899e-01   999.7902 0.0000e+00
      7.145     9.5190     4.5259     39.642  23.769142     34.406      8.549   259.4995     2.1596     3.9857     0.0179      0.103      7.007     10.163        677 7.6084e-01   999.7903 0.0000e+00
      7.177     9.5179     4.5193     39.586  23.797634     34.488      8.547   259.4238     2.1062     3.9857     0.0179      0.107      7.038     10.208        678 7.2195e-01   999.7905 0.0000e+00
      7.209     9.5160     4.5133     39.533  23.765855     34.407      8.547   259.4995     2.1367     3.9568     0.0179      0.111      7.068     10.252        679 7.0402e-01   999.7907 0.0000e+00
      7.237     9.5159     4.5069     39.476  23.749457     34.408      8.545   259.8781     2.1024     4.0001     0.0179      0.116      7.096     10.292        680 6.7071e-01   999.7910 0.0000e+00
      7.262     9.5166     4.5008     39.422  23.758806     34.410      8.544   259.4238     2.1863     4.2596     0.0179      0.118      7.121     10.328        681 6.5440e-01   999.7912 0.0000e+00
      7.283     9.5178     4.5001     39.415  23.754219     34.410      8.544   259.3102     2.1748     4.2020     0.0179      0.116      7.144     10.361        682 6.3256e-01   999.7913 0.0000e+00
      7.308     9.5181     4.4941     39.363  23.755166     34.410      8.541   259.3481     2.1939     4.1875     0.0179      0.112      7.169     10.398        683 6.1630e-01   999.7914 0.0000e+00
      7.339     9.5163     4.4868     39.298  23.787246     34.449      8.542   259.8402     2.1901     4.2452     0.0179      0.108      7.200     10.443        684 5.7254e-01   999.7914 0.0000e+00
      7.380     9.5140     4.4836     39.269  23.803149     34.489      8.540   261.0138     2.0642     4.3029     0.0179      0.109      7.237     10.496        685 5.3504e-01   999.7916 0.0000e+00
      7.417     9.5137     4.4795     39.234  23.764992     34.410      8.537   261.2788     2.0642     4.2596     0.0179      0.113      7.272     10.548        686 5.1498e-01   999.7919 0.0000e+00
      7.449     9.5153     4.4802     39.239  23.805114     34.493      8.538   261.3924     2.0413     4.2164     0.0179      0.117      7.304     10.594        687 4.9981e-01   999.7922 0.0000e+00
      7.479     9.5168     4.4783     39.223  23.812453     34.493      8.537   261.7709     2.0451     4.2452     0.0179      0.122      7.334     10.637        688 4.9677e-01   999.7924 0.0000e+00
      7.508     9.5172     4.4748     39.191  23.815093     34.492      8.536   261.8845     2.0642     4.4471     0.0179      0.126      7.363     10.679        689 4.3491e-01   999.7924 0.0000e+00
      7.537     9.5165     4.4731     39.175  23.801828     34.490      8.533   262.3388     2.0680     4.4327     0.0179      0.128      7.392     10.721        690 4.0917e-01   999.7924 0.0000e+00
      7.569     9.5155     4.4804     39.239  23.740109     34.368      8.533   259.8024     2.0642     4.5192     0.0178      0.128      7.422     10.765        691 4.0723e-01   999.7925 0.0000e+00
      7.600     9.5151     4.4718     39.163  23.743816     34.410      8.532   260.9381     2.0490     4.4904     0.0179      0.125      7.452     10.808        692 3.8869e-01   999.7927 0.0000e+00
      7.628     9.5152     4.4740     39.182  23.767600     34.411      8.532   260.7867     2.0604     4.2308     0.0179      0.120      7.481     10.850        693 3.8642e-01   999.7930 0.0000e+00
      7.659     9.5142     4.4775     39.213  23.799364     34.492      8.533   261.0517     2.0566     4.2308     0.0179      0.118      7.511     10.894        694 3.7269e-01   999.7932 0.0000e+00
      7.690     9.5136     4.4729     39.173  23.763521     34.411      8.530   261.4681     2.0642     4.1875     0.0179      0.118      7.541     10.938        695 3.7743e-01   999.7933 0.0000e+00
      7.721     9.5137     4.4741     39.183  23.752969     34.412      8.529   261.0138     2.0604     4.2885     0.0179      0.119      7.572     10.982        696 3.6055e-01   999.7935 0.0000e+00
      7.753     9.5131     4.4733     39.177  23.812495     34.493      8.528   261.5438     1.9536     4.4038     0.0179      0.120      7.602     11.026        697 3.1809e-01   999.7937 0.0000e+00
      7.782     9.5128     4.4799     39.236  23.837531     34.534      8.526   261.7709     1.9421     4.2596     0.0179      0.120      7.632     11.069        698 3.0307e-01   999.7939 0.0000e+00
      7.812     9.5125     4.4744     39.188  23.810665     34.494      8.527   261.8088     1.9574     4.3317     0.0179      0.120      7.663     11.114        699 2.6226e-01   999.7940 0.0000e+00
      7.848     9.5116     4.4735     39.180  23.757077     34.413      8.527   262.4145     1.9193     4.2452     0.0179      0.121      7.698     11.164        700 2.2133e-01   999.7942 0.0000e+00
      7.888     9.5114     4.4753     39.194  23.815370     34.494      8.524   262.5659     1.9383     4.1299     0.0179      0.125      7.734     11.218        701 2.4264e-01   999.7945 0.0000e+00
      7.924     9.5109     4.4734     39.177  23.797357     34.495      8.522   261.2788     1.9383     4.2596     0.0179      0.129      7.770     11.270        702 2.2639e-01   999.7947 0.0000e+00
      7.960     9.5104     4.4835     39.265  23.720259     34.334      8.522   261.3167     1.9460     4.1587     0.0178      0.132      7.804     11.319        703 2.1601e-01   999.7948 0.0000e+00
      7.990     9.5105     4.4808     39.242  23.792847     34.496      8.522   261.0895     1.9383     4.2452     0.0179      0.135      7.833     11.361        704 2.2164e-01   999.7950 0.0000e+00
      8.013     9.5109     4.4900     39.323  23.795875     34.456      8.521   264.6860     1.9345     4.2020     0.0179      0.133      7.856     11.394        705 1.9884e-01   999.7952 0.0000e+00
      8.029     9.5110     4.4782     39.219  23.805344     34.496      8.518   264.6481     1.8392     4.2452     0.0179      0.127      7.875     11.421        706 2.1174e-01   999.7953 0.0000e+00
      8.049     9.5109     4.4838     39.267  23.810681     34.496      8.519   264.6102     1.8163     4.2596     0.0179      0.118      7.896     11.452        707 1.8896e-01   999.7953 0.0000e+00
      8.078     9.5120     4.4823     39.255  23.759616     34.415      8.515   264.4210     1.8124     4.1443     0.0179      0.109      7.921     11.489        708 1.7071e-01   999.7954 0.0000e+00
      8.105     9.5131     4.4750     39.192  23.750423     34.415      8.515   264.4588     1.7896     4.1443     0.0179      0.101      7.946     11.525        709 1.8861e-01   999.7956 0.0000e+00
      8.124     9.5129     4.4657     39.112  23.762886     34.414      8.516   264.2695     1.8201     4.1875     0.0179      0.095      7.968     11.557        710 1.8686e-01   999.7956 0.0000e+00
      8.146     9.5117     4.4566     39.033  23.803342     34.494      8.513   262.6795     1.8163     4.2596     0.0179      0.090      7.993     11.592        711 1.4552e-01   999.7956 0.0000e+00
      8.180     9.5101     4.4556     39.026  23.818546     34.494      8.513   262.2631     1.7972     4.2164     0.0179      0.092      8.023     11.637        712 1.3688e-01   999.7958 0.0000e+00
      8.217     9.5096     4.4572     39.043  23.832817     34.536      8.513   263.6260     1.7819     4.2164     0.0179      0.099      8.056     11.685        713 1.5529e-01   999.7961 0.0000e+00
      8.246     9.5105     4.4578     39.051  23.815200     34.497      8.510   264.2317     2.0108     4.1587     0.0179      0.106      8.084     11.725        714 1.3236e-01   999.7963 0.0000e+00
      8.264     9.5111     4.4523     39.001  23.751618     34.416      8.508   263.5502     2.0337     4.1875     0.0179      0.108      8.106     11.757        715 1.4109e-01   999.7964 0.0000e+00
      8.286     9.5104     4.4570     39.038  23.763858     34.416      8.510   263.3231     2.0261     4.2164     0.0179      0.106      8.129     11.789        716 1.4415e-01   999.7965 0.0000e+00
      8.316     9.5094     4.4603     39.065  23.799969     34.496      8.505   263.0960     1.9841     4.1587     0.0179      0.107      8.155     11.828        717 1.2775e-01   999.7966 0.0000e+00
      8.346     9.5099     4.4586     39.048  23.765913     34.416      8.504   262.2631     1.8124     4.2741     0.0179      0.108      8.184     11.869        718 1.3358e-01   999.7967 0.0000e+00
      8.373     9.5113     4.4608     39.067  23.747005     34.417      8.502   261.6952     1.8239     4.2741     0.0179      0.107      8.210     11.906        719 1.2651e-01   999.7969 0.0000e+00
      8.395     9.5125     4.4645     39.099  23.793882     34.457      8.503   261.9224     1.8239     4.2452     0.0179      0.103      8.230     11.935        720 1.2203e-01   999.7970 0.0000e+00
      8.407     9.5140     4.4661     39.112  23.796427     34.496      8.501   261.3924     1.7972     4.1731     0.0179      0.097      8.241     11.953        721 1.2481e-01   999.7970 0.0000e+00
      8.409     9.5161     4.4714     39.158  23.773456     34.414      8.500   260.7867     1.8239     4.2164     0.0179      0.089      8.246     11.959        722 1.2312e-01   999.7969 0.0000e+00
      8.409     9.5190     4.4697     39.142  23.792852     34.493      8.503   260.4081     1.8773     4.2452     0.0179      0.077      8.248     11.962        723 1.2413e-01   999.7968 0.0000e+00
      8.413     9.5214     4.4711     39.154  23.831522     34.491      8.499   259.2724     1.8811     4.2885     0.0179      0.062      8.254     11.971        724 1.2347e-01   999.7966 0.0000e+00
      8.428     9.5198     4.4660     39.108  23.843800     34.569      8.500   259.0074     1.8659     4.2741     0.0179      0.048      8.269     11.992        725 1.2375e-01   999.7965 0.0000e+00
      8.453     9.5156     4.4698     39.142  23.777572     34.405      8.497   258.9317     1.8735     4.1154     0.0179      0.041      8.291     12.024        726 1.2343e-01   999.7963 0.0000e+00
      8.481     9.5127     4.4608     39.063  23.825090     34.527      8.494   262.6417     2.1176     4.2452     0.0179      0.043      8.318     12.063        727 1.2375e-01   999.7966 0.0000e+00
      8.511     9.5117     4.4606     39.061  23.814283     34.491      8.495   261.3167     2.1253     4.2596     0.0179      0.052      8.345     12.103        728 1.2363e-01   999.7971 0.0000e+00
      8.535     9.5113     4.4592     39.050  23.761405     34.413      8.494   261.4681     2.1329     4.2596     0.0179      0.066      8.371     12.141        729 1.2373e-01   999.7975 0.0000e+00
      8.561     9.5101     4.4570     39.032  23.802044     34.495      8.492   261.9981     2.1253     4.2164     0.0179      0.081      8.396     12.177        730 1.2371e-01   999.7977 0.0000e+00
      8.587     9.5088     4.4662     39.112  23.763709     34.415      8.494   260.1052     2.1214     4.2452     0.0179      0.093      8.421     12.213        731 1.2380e-01   999.7978 0.0000e+00
      8.613     9.5081     4.4683     39.131  23.749879     34.416      8.490   260.5217     2.1481     4.3317     0.0179      0.101      8.446     12.249        732 1.2376e-01   999.7980 0.0000e+00
      8.636     9.5074     4.4722     39.167  23.760023     34.417      8.491   260.6731     2.1176     4.2308     0.0179      0.103      8.471     12.286        733 1.2370e-01   999.7982 0.0000e+00
      8.665     9.5068     4.4710     39.156  23.780702     34.458      8.490   263.5502     2.1367     4.1731     0.0179      0.103      8.501     12.330        734 1.2378e-01   999.7984 0.0000e+00
      8.705     9.5062     4.4844     39.271  23.812995     34.500      8.489   263.3988     1.8582     4.1875     0.0179      0.105      8.535     12.380        735 1.2367e-01   999.7987 0.0000e+00
      8.741     9.5063     4.4808     39.239  23.808688     34.500      8.489   262.6795     1.8697     4.2596     0.0179      0.110      8.570     12.431        736 1.2374e-01   999.7989 0.0000e+00
      8.773     9.5065     4.4845     39.271  23.815680     34.501      8.490   262.5659     1.8811     4.2596     0.0179      0.116      8.601     12.476        737 1.2386e-01   999.7991 0.0000e+00
      8.799     9.5068     4.4852     39.277  23.804292     34.501      8.485   262.8310     1.8811     4.3317     0.0179      0.120      8.628     12.514        738 1.2385e-01   999.7992 0.0000e+00
      8.821     9.5080     4.4797     39.229  23.763624     34.420      8.487   262.8310     1.8544     4.2164     0.0179      0.121      8.651     12.547        739 1.2379e-01   999.7993 0.0000e+00
      8.842     9.5085     4.4817     39.247  23.807057     34.500      8.485   262.7552     1.7705     4.2020     0.0179      0.118      8.674     12.580        740 1.2369e-01   999.7994 0.0000e+00
      8.870     9.5080     4.4771     39.206  23.809477     34.499      8.484   262.9824     1.7438     4.2452     0.0179      0.115      8.700     12.618        741 1.2368e-01   999.7994 0.0000e+00
      8.903     9.5086     4.4711     39.154  23.790229     34.458      8.482   261.6195     1.7552     4.2741     0.0179      0.111      8.730     12.661        742 1.2363e-01   999.7995 0.0000e+00
      8.932     9.5101     4.4677     39.123  23.801393     34.499      8.480   261.2409     1.7476     4.1154     0.0179      0.107      8.759     12.703        743 1.2365e-01   999.7997 0.0000e+00
      8.959     9.5099     4.4636     39.088  23.765967     34.418      8.482   261.4302     1.7476     4.2308     0.0179      0.105      8.786     12.742        744 1.2378e-01   999.7998 0.0000e+00
      8.986     9.5083     4.4670     39.118  23.745464     34.416      8.478   260.7488     1.7743     4.2164     0.0179      0.105      8.811     12.780        745 1.2377e-01   999.7998 0.0000e+00
      9.011     9.5075     4.4626     39.080  23.767674     34.416      8.477   260.7867     1.7743     4.2164     0.0179      0.107      8.837     12.817        746 1.2368e-01   999.8000 0.0000e+00
      9.037     9.5074     4.4542     39.009  23.797563     34.499      8.476   261.9981     1.7629     4.2452     0.0179      0.108      8.864     12.856        747 1.2365e-01   999.8002 0.0000e+00
      9.069     9.5072     4.4498     38.971  23.826738     34.500      8.477   260.9759     1.8239     4.2741     0.0179      0.110      8.894     12.899        748 1.2379e-01   999.8004 0.0000e+00
      9.101     9.5071     4.4516     38.989  23.820219     34.540      8.474   262.5281     1.8048     4.1731     0.0179      0.110      8.924     12.943        749 1.2383e-01   999.8006 0.0000e+00
      9.129     9.5074     4.4550     39.023  23.776060     34.419      8.473   260.7867     1.8201     4.2164     0.0179      0.110      8.952     12.984        750 1.2365e-01   999.8007 0.0000e+00
      9.157     9.5072     4.4520     39.004  23.792842     34.500      8.473   260.9002     1.8124     4.2596     0.0179      0.111      8.978     13.022        751 1.2367e-01   999.8009 0.0000e+00
      9.181     9.5067     4.4529     39.026  23.769716     34.418      8.470   261.0517     1.8773     4.2164     0.0179      0.111      9.000     13.053        752 1.2371e-01   999.8009 0.0000e+00
      9.193     9.5066     4.4526     39.034  23.804839     34.500      8.470   260.7109     1.9078     4.1154     0.0179      0.107      9.013     13.072        753 1.2362e-01   999.8010 0.0000e+00
      9.199     9.5069     4.4653     39.141  23.808367     34.500      8.469   260.7488     1.8887     4.3317     0.0179      0.098      9.021     13.085        754 1.2363e-01   999.8011 0.0000e+00
      9.207     9.5074     4.4769     39.233  23.765327     34.419      8.466   260.7488     1.8544     4.2020     0.0179      0.085      9.030     13.098        755 1.2374e-01   999.8011 0.0000e+00
      9.220     9.5088     4.4798     39.252  23.828784     34.541      8.469   263.3988     1.6980     4.2741     0.0179      0.072      9.042     13.115        756 1.2367e-01   999.8012 0.0000e+00
      9.234     9.5104     4.4832     39.275  23.818248     34.500      8.469   262.7174     1.6904     4.1875     0.0179      0.061      9.054     13.132        757 1.2362e-01   999.8012 0.0000e+00
      9.245     9.5110     4.4861     39.294  23.808057     34.498      8.468   262.7552     1.7323     4.2164     0.0179      0.052      9.063     13.145        758 1.2364e-01   999.8011 0.0000e+00
      9.246     9.5134     4.4847     39.279  23.811848     34.496      8.466   262.4902     1.7209     4.2452     0.0179      0.043      9.061     13.142        759 1.2362e-01   999.8010 0.0000e+00
      9.228     9.5179     4.4824     39.258  23.813529     34.496      8.466   262.3767     1.6789     4.1875     0.0179      0.031      9.040     13.111        760 1.2369e-01   999.8009 0.0000e+00
      9.182     9.5260     4.4770     39.210  23.805964     34.493      8.466   261.5438     1.5263     4.2020     0.0179      0.010      8.991     13.040        761 1.2356e-01   999.8004 0.0000e+00
      9.090     9.5409     4.4687     39.139  23.821261     34.489      8.464   261.5438     1.5111     4.1587     0.0179     -0.032      8.924     12.943        762 1.2366e-01   999.7997 0.0000e+00
      9.026     9.5523     4.4573     39.043  23.883343     34.602      8.464   265.9731     1.4996     4.3750     0.0179     -0.081      8.883     12.883        763 1.2375e-01   999.7987 0.0000e+00
      9.061     9.5484     4.4588     39.058  23.817552     34.466      8.461   264.9131     1.5187     4.2452     0.0179     -0.107      8.903     12.912        764 1.2362e-01   999.7976 0.0000e+00
      9.145     9.5380     4.4525     39.011  23.755045     34.373      8.459   264.6102     1.5950     4.2741     0.0179     -0.097      8.968     13.007        765 1.2368e-01   999.7970 0.0000e+00
      9.224     9.5308     4.4389     38.906  23.813044     34.458      8.460   264.2695     1.6065     4.2020     0.0179     -0.057      9.041     13.113        766 1.2369e-01   999.7978 0.0000e+00
      9.288     9.5236     4.4274     38.816  23.804610     34.469      8.461   264.1560     1.5836     4.1731     0.0179      0.003      9.104     13.205        767 1.2372e-01   999.7989 0.0000e+00
      9.341     9.5168     4.3998     38.579  23.824778     34.476      8.460   262.1874     1.5569     4.1587     0.0179      0.076      9.157     13.282        768 1.2379e-01   999.7998 0.0000e+00
      9.387     9.5130     4.3268     37.940  23.787948     34.483      8.460   262.1874     1.7056     4.2452     0.0179      0.148      9.202     13.346        769 1.2369e-01   999.8006 0.0000e+00
      9.422     9.5122     4.1108     36.046  23.850447     34.490      8.455   261.7709     1.6904     4.2164     0.0179      0.204      9.235     13.395        770 1.2370e-01   999.8013 0.0000e+00
      9.442     9.5121     3.6951     32.401  23.835854     34.615      8.454   262.6795     1.7171     4.1587     0.0179      0.219      9.260     13.431        771 1.2373e-01   999.8017 0.0000e+00
      9.466     9.5134 -9.990e-29 -9.990e-29  23.835728     34.414      8.452   261.5438     1.6980     4.1731     0.0179      0.197      9.284     13.466        772 1.2372e-01   999.8019 0.0000e+00
      9.494     9.5168 -9.990e-29 -9.990e-29  23.761752     34.576      8.447   260.4081     1.7514     4.1443     0.0179      0.164      9.308     13.501        773 1.2382e-01   999.8020 0.0000e+00
      9.516     9.5191 -9.990e-29 -9.990e-29  25.083021     36.030      8.445   258.9695     1.7476     4.3173     0.0185      0.137      9.328     13.529        774 1.2365e-01   999.8027 0.0000e+00
      9.525     9.5240 -9.990e-29 -9.990e-29  23.761187     35.096      8.445   258.8559     1.7629     4.2308     0.0182      0.113      9.341     13.548        775 1.2367e-01   999.8018 0.0000e+00
      9.537     9.5349 -9.990e-29 -9.990e-29  28.990865     40.391      8.444   257.8717     1.7552     4.2164     0.0204      0.094      9.352     13.565        776 1.2372e-01   999.8043 0.0000e+00
      9.550     9.5448 -9.990e-29 -9.990e-29  57.463676     83.798      8.441   257.7959     1.5759     4.4327     0.0396      0.079      9.363     13.581        777 1.2368e-01   999.8183 0.0000e+00
      9.559     9.5523 -9.990e-29 -9.990e-29  78.801483    115.115      8.438   257.8338     1.5492     4.4904     0.0538      0.068      9.373     13.594        778 1.2370e-01   999.8284 0.0000e+00
      9.564     9.5587 -9.990e-29 -9.990e-29  85.898618    122.861      8.437   257.8717     1.5683     4.4471     0.0574      0.059      9.379     13.602        779 1.2365e-01   999.8314 0.0000e+00
      9.568     9.5616 -9.990e-29 -9.990e-29  77.071706    114.734      8.436   257.4552     1.5607     4.3317     0.0536      0.048      9.382     13.607        780 1.2369e-01   999.8262 0.0000e+00
      9.569     9.5621 -9.990e-29 -9.990e-29  47.672994     65.719      8.436   257.9474     1.8392     4.4615     0.0315      0.036      9.384     13.610        781 1.2371e-01   999.8105 0.0000e+00
      9.569 -9.990e-29 -9.990e-29 -9.990e-29  31.424668     47.651      8.436   257.8717     1.8315     4.4615     0.0236      0.028      9.384     13.611        782 1.2377e-01   999.8020 0.0000e+00
      9.570 -9.990e-29 -9.990e-29 -9.990e-29  29.644712     40.542      8.433   258.2124     1.8239     4.4615     0.0205      0.021      9.384     13.611        783 1.2379e-01   999.8011 0.0000e+00
