* Sea-Bird SBE19plus  Data File:
* FileName = C:\DATA\061019_fcr_0003.hex
* Software version 2.8.0.119
* Temperature SN = 7809
* Conductivity SN = 7809
* System UpLoad Time = Jun 10 2019 13:28:37
* <ApplicationData>
* <Seaterm232>
* <SoftwareVersion>2.8.0.119</SoftwareVersion>
* <BuildDate>07-Nov-2018</BuildDate>
* </Seaterm232>
* </ApplicationData>
* <InstrumentState>
* <HardwareData DeviceType='SBE19plus' SerialNumber='01907809'>
*
*    <Manufacturer>Sea-Bird Electronics, Inc.</Manufacturer>
*
*    <FirmwareVersion>3.1.8</FirmwareVersion>
*
*    <FirmwareDate>Mar  9 2016 16:22:29</FirmwareDate>
*
*    <CommandSetVersion>1.4</CommandSetVersion>
*
*    <PCBAssembly PCBSerialNum='120721' AssemblyNum='41054J'/>
*
*    <PCBAssembly PCBSerialNum='120715' AssemblyNum='41967A'/>
*
*    <PCBAssembly PCBSerialNum='116699' AssemblyNum='41606'/>
*
*    <PCBAssembly PCBSerialNum='120719' AssemblyNum='41059D'/>
*
*    <MfgDate>28-Apr-2017</MfgDate>
*
*    <InternalSensors>
*
*       <Sensor id='Main Temperature'>
*
*          <type>temperature0</type>
*
*          <SerialNumber>01907809</SerialNumber>
*
*       </Sensor>
*
*       <Sensor id='Main Conductivity'>
*
*          <type>conductivity-0</type>
*
*          <SerialNumber>01907809</SerialNumber>
*
*       </Sensor>
*
*       <Sensor id='Main Pressure'>
*
*          <type>strain-0</type>
*
*          <SerialNumber>10586018</SerialNumber>
*
*       </Sensor>
*
*    </InternalSensors>
*
*    <ExternalSensors>
*
*       <Sensor id='volt 0'>
*
*          <type>pH</type>
*
*          <SerialNumber>27-0363</SerialNumber>
*
*       </Sensor>
*
*       <Sensor id='volt 1'>
*
*          <type>ORP</type>
*
*          <SerialNumber>27-0363</SerialNumber>
*
*       </Sensor>
*
*       <Sensor id='volt 2'>
*
*          <type>OXY</type>
*
*          <SerialNumber>43-0434</SerialNumber>
*
*       </Sensor>
*
*       <Sensor id='volt 3'>
*
*          <type>PAR</type>
*
*          <SerialNumber>1122</SerialNumber>
*
*       </Sensor>
*
*       <Sensor id='volt 4'>
*
*          <type>ECO AFL/FL</type>
*
*          <SerialNumber>FLNTURT-2496</SerialNumber>
*
*       </Sensor>
*
*       <Sensor id='volt 5'>
*
*          <type>ECO-NTU</type>
*
*          <SerialNumber>FLNTURT-2496</SerialNumber>
*
*       </Sensor>
*
*       <Sensor id='serial'>
*
*          <type>not assigned</type>
*
*          <SerialNumber>not assigned</SerialNumber>
*
*       </Sensor>
*
*    </ExternalSensors>
*
* </HardwareData>
* <StatusData DeviceType='SBE19plus' SerialNumber='01907809'>
*
*    <DateTime>2019-06-10T13:27:22</DateTime>
*
*    <LoggingState>not logging</LoggingState>
*
*    <EventSummary numEvents='0'/>
*
*    <Power>
*
*       <vMain>13.5</vMain>
*
*       <vLith>8.6</vLith>
*
*       <iMain>63.1</iMain>
*
*       <iPump>148.4</iPump>
*
*       <iExt01>19.7</iExt01>
*
*       <iExt2345>35.3</iExt2345>
*
*    </Power>
*
*    <MemorySummary>
*
*       <Bytes>109940</Bytes>
*
*       <Samples>4780</Samples>
*
*       <SamplesFree>2856008</SamplesFree>
*
*       <SampleLength>23</SampleLength>
*
*       <Profiles>6</Profiles>
*
*    </MemorySummary>
*
* </StatusData>
* <ConfigurationData DeviceType='SBE19plus' SerialNumber='01907809'>
*
*    <ProfileMode>
*
*       <ScansToAverage>1</ScansToAverage>
*
*       <MinimumCondFreq>5</MinimumCondFreq>
*
*       <PumpDelay>45</PumpDelay>
*
*       <AutoRun>no</AutoRun>
*
*       <IgnoreSwitch>no</IgnoreSwitch>
*
*    </ProfileMode>
*
*    <Battery>
*
*       <Type>alkaline</Type>
*
*       <CutOff>7.5</CutOff>
*
*    </Battery>
*
*    <DataChannels>
*
*       <ExtVolt0>yes</ExtVolt0>
*
*       <ExtVolt1>yes</ExtVolt1>
*
*       <ExtVolt2>yes</ExtVolt2>
*
*       <ExtVolt3>yes</ExtVolt3>
*
*       <ExtVolt4>yes</ExtVolt4>
*
*       <ExtVolt5>yes</ExtVolt5>
*
*       <SBE38>no</SBE38>
*
*       <WETLABS>no</WETLABS>
*
*       <OPTODE>no</OPTODE>
*
*       <SBE63>no</SBE63>
*
*       <SeaFET>no</SeaFET>
*
*       <GTD>no</GTD>
*
*    </DataChannels>
*
*    <EchoCharacters>yes</EchoCharacters>
*
*    <OutputExecutedTag>yes</OutputExecutedTag>
*
*    <OutputFormat>raw HEX</OutputFormat>
*
* </ConfigurationData>
* <CalibrationCoefficients DeviceType='SBE19plus' SerialNumber='01907809'>
*
*    <Calibration format='TEMP1' id='Main Temperature'>
*
*       <SerialNum>01907809</SerialNum>
*
*       <CalDate>24-Mar-19</CalDate>
*
*       <TA0>1.217923e-03</TA0>
*
*       <TA1>2.816693e-04</TA1>
*
*       <TA2>-1.603333e-06</TA2>
*
*       <TA3>1.984146e-07</TA3>
*
*       <TOFFSET>0.000000e+00</TOFFSET>
*
*    </Calibration>
*
*    <Calibration format='WBCOND0' id='Main Conductivity'>
*
*       <SerialNum>01907809</SerialNum>
*
*       <CalDate>24-Mar-19</CalDate>
*
*       <G>-1.005893e+00</G>
*
*       <H>1.268163e-01</H>
*
*       <I>-1.515604e-04</I>
*
*       <J>2.671373e-05</J>
*
*       <CPCOR>-9.570000e-08</CPCOR>
*
*       <CTCOR>3.250000e-06</CTCOR>
*
*       <CSLOPE>1.000000e+00</CSLOPE>
*
*    </Calibration>
*
*    <Calibration format='STRAIN0' id='Main Pressure'>
*
*       <SerialNum>10586018</SerialNum>
*
*       <CalDate>11-Mar-19</CalDate>
*
*       <PA0>4.565618e-02</PA0>
*
*       <PA1>4.850951e-04</PA1>
*
*       <PA2>-2.883271e-12</PA2>
*
*       <PTCA0>5.252467e+05</PTCA0>
*
*       <PTCA1>1.223042e+01</PTCA1>
*
*       <PTCA2>-3.567450e-01</PTCA2>
*
*       <PTCB0>2.516687e+01</PTCB0>
*
*       <PTCB1>3.750000e-04</PTCB1>
*
*       <PTCB2>0.000000e+00</PTCB2>
*
*       <PTEMPA0>-5.487846e+01</PTEMPA0>
*
*       <PTEMPA1>5.537568e+01</PTEMPA1>
*
*       <PTEMPA2>-5.867271e-01</PTEMPA2>
*
*       <POFFSET>7.140000e-01</POFFSET>
*
*       <PRANGE>1.600000e+02</PRANGE>
*
*    </Calibration>
*
*    <Calibration format='VOLT0' id='Volt 0'>
*
*       <OFFSET>-4.920000e-02</OFFSET>
*
*       <SLOPE>1.248122e+00</SLOPE>
*
*    </Calibration>
*
*    <Calibration format='VOLT0' id='Volt 1'>
*
*       <OFFSET>-4.784000e-02</OFFSET>
*
*       <SLOPE>1.248871e+00</SLOPE>
*
*    </Calibration>
*
*    <Calibration format='VOLT0' id='Volt 2'>
*
*       <OFFSET>-4.864632e-02</OFFSET>
*
*       <SLOPE>1.248714e+00</SLOPE>
*
*    </Calibration>
*
*    <Calibration format='VOLT0' id='Volt 3'>
*
*       <OFFSET>-4.743790e-02</OFFSET>
*
*       <SLOPE>1.248571e+00</SLOPE>
*
*    </Calibration>
*
*    <Calibration format='VOLT0' id='Volt 4'>
*
*       <OFFSET>-4.671263e-02</OFFSET>
*
*       <SLOPE>1.248951e+00</SLOPE>
*
*    </Calibration>
*
*    <Calibration format='VOLT0' id='Volt 5'>
*
*       <OFFSET>-4.871053e-02</OFFSET>
*
*       <SLOPE>1.249136e+00</SLOPE>
*
*    </Calibration>
*
*    <Calibration format='FREQ0' id='external frequency channel'>
*
*       <EXTFREQSF>1.000014e+00</EXTFREQSF>
*
*    </Calibration>
*
* </CalibrationCoefficients>
* <EventCounters DeviceType='SBE19plus' SerialNumber='01907809'>
*
*    <EventSummary numEvents='0'/>
*
* </EventCounters></InstrumentState>
* <Headers>
*
* cast   3 10 Jun 2019 12:12:13 samples 1663 to 2266, avg = 1, stop = mag switch
*
# nquan = 18
# nvalues = 452                         
# units = specified
# name 0 = depFM: Depth [fresh water, m]
# name 1 = tv290C: Temperature [ITS-90, deg C]
# name 2 = sbeox0Mg/L: Oxygen, SBE 43 [mg/l]
# name 3 = sbeox0PS: Oxygen, SBE 43 [% saturation]
# name 4 = c0uS/cm: Conductivity [uS/cm]
# name 5 = specc: Specific Conductance [uS/cm]
# name 6 = ph: pH
# name 7 = orp: Oxidation Reduction Potential [mV]
# name 8 = flECO-AFL: Fluorescence, WET Labs ECO-AFL/FL [mg/m^3]
# name 9 = turbWETntu0: Turbidity, WET Labs ECO [NTU]
# name 10 = sal00: Salinity, Practical [PSU]
# name 11 = dz/dtM: Descent Rate [m/s]
# name 12 = prdM: Pressure, Strain Gauge [db]
# name 13 = prdE: Pressure, Strain Gauge [psi]
# name 14 = scan: Scan Count
# name 15 = par/sat/log: PAR/Logarithmic, Satlantic
# name 16 = density00: Density [density, kg/m^3]
# name 17 = flag:  0.000e+00
# span 0 =     -0.596,      3.379       
# span 1 =    15.1619,    21.6807       
# span 2 =    -1.1187,    10.0987       
# span 3 =    -11.140,    114.741       
# span 4 =   0.497583,  68.443278       
# span 5 =      0.537,     84.815       
# span 6 =      7.037,     10.129       
# span 7 = -1084.5844,   285.6967       
# span 8 =    -0.1522,     4.1471       
# span 9 =    -0.5998,    10.1573       
# span 10 =     0.0102,     0.0424      
# span 11 =     -0.094,      0.305      
# span 12 =     -0.584,      3.313      
# span 13 =     -0.847,      4.805      
# span 14 =          1,        452      
# span 15 = 1.8698e+01, 6.6701e+02      
# span 16 =   997.8609,   999.1223      
# span 17 = 0.0000e+00, 0.0000e+00      
# interval = seconds: 0.25
# start_time = Jun 10 2019 12:12:13 [Instrument's time stamp, header]
# bad_flag = -9.990e-29
# <Sensors count="9" >
#   <sensor Channel="1" >
#     <!-- Count, Temperature -->
#     <TemperatureSensor SensorID="58" >
#       <SerialNumber>7809</SerialNumber>
#       <CalibrationDate>24-Mar-19</CalibrationDate>
#       <A0>1.21792325e-003</A0>
#       <A1>2.81669265e-004</A1>
#       <A2>-1.60333336e-006</A2>
#       <A3>1.98414625e-007</A3>
#       <Slope>1.00000000</Slope>
#       <Offset>0.0000</Offset>
#     </TemperatureSensor>
#   </sensor>
#   <sensor Channel="2" >
#     <!-- Frequency 0, Conductivity -->
#     <ConductivitySensor SensorID="3" >
#       <SerialNumber>7809</SerialNumber>
#       <CalibrationDate>24-Mar-19</CalibrationDate>
#       <UseG_J>1</UseG_J>
#       <!-- Cell const and series R are applicable only for wide range sensors. -->
#       <SeriesR>0.0000</SeriesR>
#       <CellConst>2000.0000</CellConst>
#       <ConductivityType>0</ConductivityType>
#       <Coefficients equation="0" >
#         <A>0.00000000e+000</A>
#         <B>0.00000000e+000</B>
#         <C>0.00000000e+000</C>
#         <D>0.00000000e+000</D>
#         <M>0.0</M>
#         <CPcor>-9.57000000e-008</CPcor>
#       </Coefficients>
#       <Coefficients equation="1" >
#         <G>-1.00589325e+000</G>
#         <H>1.26816302e-001</H>
#         <I>-1.51560448e-004</I>
#         <J>2.67137274e-005</J>
#         <CPcor>-9.57000000e-008</CPcor>
#         <CTcor>3.2500e-006</CTcor>
#         <!-- WBOTC not applicable unless ConductivityType = 1. -->
#         <WBOTC>0.00000000e+000</WBOTC>
#       </Coefficients>
#       <Slope>1.00000000</Slope>
#       <Offset>0.00000</Offset>
#     </ConductivitySensor>
#   </sensor>
#   <sensor Channel="3" >
#     <!-- Count, Pressure, Strain Gauge -->
#     <PressureSensor SensorID="46" >
#       <SerialNumber>7809</SerialNumber>
#       <CalibrationDate>11-Mar-19</CalibrationDate>
#       <PA0>4.56561833e-002</PA0>
#       <PA1>4.85095118e-004</PA1>
#       <PA2>-2.88327090e-012</PA2>
#       <PTEMPA0>-5.48784562e+001</PTEMPA0>
#       <PTEMPA1>5.53756816e+001</PTEMPA1>
#       <PTEMPA2>-5.86727098e-001</PTEMPA2>
#       <PTCA0>5.25246745e+005</PTCA0>
#       <PTCA1>1.22304214e+001</PTCA1>
#       <PTCA2>-3.56745036e-001</PTCA2>
#       <PTCB0>2.51668750e+001</PTCB0>
#       <PTCB1>3.75000000e-004</PTCB1>
#       <PTCB2>0.00000000e+000</PTCB2>
#       <Offset>0.000000</Offset>
#     </PressureSensor>
#   </sensor>
#   <sensor Channel="4" >
#     <!-- A/D voltage 0, Oxygen, SBE 43 -->
#     <OxygenSensor SensorID="38" >
#       <SerialNumber>0434</SerialNumber>
#       <CalibrationDate>13-Apr-19</CalibrationDate>
#       <Use2007Equation>1</Use2007Equation>
#       <CalibrationCoefficients equation="0" >
#         <!-- Coefficients for Owens-Millard equation. -->
#         <Boc>0.0000</Boc>
#         <Soc>0.0000e+000</Soc>
#         <offset>0.0000</offset>
#         <Pcor>0.00e+000</Pcor>
#         <Tcor>0.0000</Tcor>
#         <Tau>0.0</Tau>
#       </CalibrationCoefficients>
#       <CalibrationCoefficients equation="1" >
#         <!-- Coefficients for Sea-Bird equation - SBE calibration in 2007 and later. -->
#         <Soc>4.2007e-001</Soc>
#         <offset>-0.6109</offset>
#         <A>-4.3656e-003</A>
#         <B> 1.7017e-004</B>
#         <C>-2.5341e-006</C>
#         <D0> 2.5826e+000</D0>
#         <D1> 1.92634e-004</D1>
#         <D2>-4.64803e-002</D2>
#         <E> 3.6000e-002</E>
#         <Tau20> 1.1800</Tau20>
#         <H1>-3.3000e-002</H1>
#         <H2> 5.0000e+003</H2>
#         <H3> 1.4500e+003</H3>
#       </CalibrationCoefficients>
#     </OxygenSensor>
#   </sensor>
#   <sensor Channel="5" >
#     <!-- A/D voltage 1, PAR/Logarithmic, Satlantic -->
#     <PARLog_SatlanticSensor SensorID="76" >
#       <SerialNumber>1122</SerialNumber>
#       <CalibrationDate>08-May-2019</CalibrationDate>
#       <a0>9.7456e-001</a0>
#       <a1>8.1640e-001</a1>
#       <Im>1.3589e+000</Im>
#       <Multiplier>1.0000e+000</Multiplier>
#     </PARLog_SatlanticSensor>
#   </sensor>
#   <sensor Channel="6" >
#     <!-- A/D voltage 2, pH -->
#     <pH_Sensor SensorID="43" >
#       <SerialNumber>0363</SerialNumber>
#       <CalibrationDate>15-Apr-19</CalibrationDate>
#       <Slope>4.5952</Slope>
#       <Offset>2.5370</Offset>
#     </pH_Sensor>
#   </sensor>
#   <sensor Channel="7" >
#     <!-- A/D voltage 3, Oxidation Reduction Potential -->
#     <OxidationReductionPotentialSensor SensorID="41" >
#       <SerialNumber>0363</SerialNumber>
#       <CalibrationDate>15-Apr-19</CalibrationDate>
#       <B>2.499480</B>
#       <M>-0.496195</M>
#       <Offset>0.0</Offset>
#     </OxidationReductionPotentialSensor>
#   </sensor>
#   <sensor Channel="8" >
#     <!-- A/D voltage 4, Fluorometer, WET Labs ECO-AFL/FL -->
#     <FluoroWetlabECO_AFL_FL_Sensor SensorID="20" >
#       <SerialNumber>FLNTURT-2496</SerialNumber>
#       <CalibrationDate>08-May-2019</CalibrationDate>
#       <ScaleFactor>5.00000000e+001</ScaleFactor>
#       <!-- Dark output -->
#       <Vblank>0.0550</Vblank>
#     </FluoroWetlabECO_AFL_FL_Sensor>
#   </sensor>
#   <sensor Channel="9" >
#     <!-- A/D voltage 5, Turbidity Meter, WET Labs, ECO-NTU -->
#     <TurbidityMeter SensorID="67" >
#       <SerialNumber>FLNTURT-2496</SerialNumber>
#       <CalibrationDate>08-May-2019</CalibrationDate>
#       <ScaleFactor>189.000000</ScaleFactor>
#       <!-- Dark output -->
#       <DarkVoltage>0.071000</DarkVoltage>
#     </TurbidityMeter>
#   </sensor>
# </Sensors>
# datcnv_date = Jun 10 2019 13:33:10, 7.26.7.129 [datcnv_vars = 17]
# datcnv_in = C:\DATA\061019_fcr20.hex C:\DATA\SBE19plusV2_7809.xmlcon
# datcnv_skipover = 0
# datcnv_ox_hysteresis_correction = yes
# datcnv_ox_tau_correction = yes
# filter_date = Jun 10 2019 13:33:32, 7.26.7.129
# filter_in = C:\DATA\061019_fcr20.cnv
# filter_low_pass_tc_A = 0.030
# filter_low_pass_tc_B = 0.150
# filter_low_pass_A_vars = tv290C c0uS/cm par/sat/log density00
# filter_low_pass_B_vars = prdM prdE
# alignctd_date = Jun 10 2019 13:33:50, 7.26.7.129
# alignctd_in = C:\DATA\061019_fcr20.cnv
# alignctd_adv = tv290C 0.500, sbeox0Mg/L 3.000, sbeox0PS 3.000                                                                                                                                                                      
# file_type = ascii
*END*
     -0.594    20.6645     8.7164     97.141   0.543516      0.599      7.054 -1083.7136    -0.1178    -0.5277     0.0102      0.000     -0.583     -0.846          1 6.0194e+02   998.0711 0.0000e+00
     -0.594    20.6646     8.7187     97.167   0.551832      0.599      7.052 -1084.5844    -0.0949    -0.5710     0.0102      0.000     -0.583     -0.845          2 5.8901e+02   998.0710 0.0000e+00
     -0.594    20.6646     8.7229     97.213   0.597428      0.660      7.057 -1083.4486    -0.1178    -0.4268     0.0102      0.000     -0.583     -0.845          3 5.8426e+02   998.0710 0.0000e+00
     -0.594    20.6647     8.7193     97.173   0.545938      0.599      7.054 -1083.3351    -0.1254    -0.4700     0.0102      0.000     -0.583     -0.845          4 5.9745e+02   998.0710 0.0000e+00
     -0.594    20.6647     8.7210     97.192   0.497583      0.537      7.059 -1082.5401    -0.1254    -0.4268     0.0102      0.000     -0.583     -0.845          5 5.8457e+02   998.0710 0.0000e+00
     -0.594    20.6650     8.7260     97.248   0.539277      0.599      7.057 -1083.6379    -0.1293    -0.4268     0.0102      0.000     -0.583     -0.846          6 5.4511e+02   998.0710 0.0000e+00
     -0.595    20.6651     8.7197     97.177   0.553215      0.599      7.059 -1083.4486    -0.1140    -0.4845     0.0102     -0.000     -0.583     -0.846          7 5.4485e+02   998.0710 0.0000e+00
     -0.594    20.6651     8.7236     97.221   0.539401      0.599      7.059 -1083.4108    -0.1407    -0.4556     0.0102     -0.000     -0.583     -0.846          8 5.4596e+02   998.0709 0.0000e+00
     -0.595    20.6653     8.7180     97.160   0.556467      0.599      7.059 -1080.6851    -0.1064    -0.5277     0.0102     -0.000     -0.583     -0.846          9 5.5555e+02   998.0709 0.0000e+00
     -0.595    20.6654     8.7258     97.247   0.650305      0.721      7.053 -1070.6907    -0.1331    -0.5710     0.0102     -0.000     -0.583     -0.846         10 5.8325e+02   998.0709 0.0000e+00
     -0.595    20.6655     8.7216     97.201   0.748024      0.812      7.049 -1048.3928    -0.1483    -0.5566     0.0102     -0.000     -0.583     -0.846         11 6.1096e+02   998.0709 0.0000e+00
     -0.595    20.6656     8.7185     97.166   0.967337      1.056      7.040 -1011.6713    -0.1522    -0.5854     0.0102     -0.000     -0.583     -0.846         12 6.3132e+02   998.0708 0.0000e+00
     -0.595    20.6656     8.7213     97.198   1.176102      1.300      7.037  -984.3384    -0.1254     0.0058     0.0102     -0.000     -0.583     -0.846         13 6.3462e+02   998.0708 0.0000e+00
     -0.595    20.6656     8.7192     97.175   1.198205      1.300      7.045  -984.6791    -0.1178    -0.0519     0.0102     -0.000     -0.583     -0.846         14 6.3892e+02   998.0708 0.0000e+00
     -0.595    20.6654     8.7229     97.217   1.324409      1.453      7.058  -996.4527    -0.1102    -0.0807     0.0103     -0.000     -0.584     -0.847         15 6.4490e+02   998.0708 0.0000e+00
     -0.596    20.6655     8.7247     97.236   1.314876      1.453      7.063 -1001.9041    -0.1254    -0.0374     0.0103     -0.000     -0.584     -0.847         16 6.4107e+02   998.0708 0.0000e+00
     -0.595    20.6657     8.7206     97.191   1.298818      1.392      7.069 -1004.1756    -0.1102    -0.5277     0.0102     -0.000     -0.584     -0.846         17 6.4748e+02   998.0709 0.0000e+00
     -0.595    20.6660     8.7156     97.144   1.462724      1.636      7.067 -1005.0463    -0.1140    -0.5277     0.0103     -0.000     -0.584     -0.846         18 6.5082e+02   998.0709 0.0000e+00
     -0.595    20.6662     8.6900     97.151   1.406728      1.514      7.065 -1007.9613    -0.1178    -0.5998     0.0103     -0.000     -0.584     -0.846         19 6.3127e+02   998.0708 0.0000e+00
     -0.595    20.6667     8.6469     97.177   1.309337      1.453      7.064 -1007.1284    -0.1064    -0.4556     0.0103     -0.000     -0.584     -0.846         20 6.3679e+02   998.0708 0.0000e+00
     -0.595    20.6668     8.6104     97.181   1.288093      1.392      7.064 -1009.9677    -0.1331    -0.5566     0.0102     -0.000     -0.584     -0.846         21 6.4846e+02   998.0707 0.0000e+00
     -0.594    20.6673     8.6005     97.349   1.166918      1.300      7.065 -1019.1670    -0.1407    -0.5998     0.0102      0.000     -0.584     -0.846         22 6.4937e+02   998.0706 0.0000e+00
     -0.595    20.6668     8.6180     97.704   1.223473      1.300      7.058  -992.0991    -0.1178    -0.5133     0.0102      0.000     -0.584     -0.846         23 6.5951e+02   998.0705 0.0000e+00
     -0.595    20.6679     8.6480     98.133   1.069796      1.239      7.057  -984.8684    -0.1178    -0.4989     0.0102      0.000     -0.584     -0.846         24 6.6701e+02   998.0705 0.0000e+00
     -0.595    20.6666     8.6906     98.672   1.299000      1.300      7.059  -984.9819    -0.1293    -0.5133     0.0102     -0.000     -0.584     -0.846         25 6.6440e+02   998.0706 0.0000e+00
     -0.595    20.6688     8.7302     99.153   1.086148      1.392      7.063  -981.2719    -0.1254    -0.4845     0.0102     -0.000     -0.584     -0.846         26 6.5973e+02   998.0703 0.0000e+00
     -0.594    20.6653     8.7610     99.521   1.423436      1.239      7.068 -1008.4534    -0.1102    -0.4268     0.0102     -0.000     -0.584     -0.846         27 6.5186e+02   998.0706 0.0000e+00
     -0.595    20.6747     8.7819     99.772   0.672170      1.239      7.075 -1026.7385    -0.1254    -0.4124     0.0102     -0.000     -0.581     -0.842         28 6.4051e+02   998.0700 0.0000e+00
     -0.595    20.8244     8.7841     99.793   1.873171      1.239      7.080 -1061.3400    -0.1331    -0.4845     0.0102     -0.000     -0.555     -0.804         29 6.3254e+02   998.0711 0.0000e+00
     -0.504    21.0876     8.8191    100.190  16.560877     18.397      7.588   281.6460    -0.1483    -0.1816     0.0158      0.024     -0.471     -0.683         30 6.2877e+02   998.0735 0.0000e+00
     -0.340    21.3090     8.8169    100.162  29.843661     32.923      8.309   279.9046    -0.1254    -0.1672     0.0216      0.085     -0.342     -0.496         31 6.3174e+02   998.0464 0.0000e+00
     -0.206    21.4552     8.8295    100.302  30.702430     33.095      8.908   275.6646    -0.0911    -0.2105     0.0218      0.164     -0.223     -0.323         32 6.3258e+02   997.9905 0.0000e+00
     -0.135    21.5400     8.8484    100.520  30.448298     32.998      9.363   253.9724    -0.1064    -0.2682     0.0218      0.236     -0.148     -0.214         33 6.2657e+02   997.9423 0.0000e+00
     -0.108    21.5863     8.8145    100.141  30.633849     32.893      9.638   253.1016     2.2054     8.8163     0.0218      0.285     -0.113     -0.163         34 6.1413e+02   997.9102 0.0000e+00
     -0.100    21.6160     8.7330     99.224  30.471452     32.775      9.799   252.2309     2.2321     8.7442     0.0218      0.305     -0.099     -0.144         35 6.0787e+02   997.8913 0.0000e+00
     -0.095    21.6316     8.6276     98.037  30.591108     32.802      9.899   251.1331     2.2473     8.7875     0.0218      0.293     -0.090     -0.131         36 6.0626e+02   997.8811 0.0000e+00
     -0.078    21.6415     8.5037     96.636  30.544171     32.781      9.988   250.4516     2.2359     8.8019     0.0218      0.253     -0.077     -0.112         37 6.0750e+02   997.8745 0.0000e+00
     -0.063    21.6478     8.3544     94.942  30.470600     32.650     10.060   249.5431     2.9531     1.3613     0.0217      0.184     -0.066     -0.096         38 6.1612e+02   997.8712 0.0000e+00
     -0.063    21.6469     8.2368     93.610  30.445649     32.644     10.108   249.2402     2.9531     1.3469     0.0217      0.109     -0.061     -0.088         39 6.1873e+02   997.8689 0.0000e+00
     -0.058    21.6456     8.1427     92.536  30.456713     32.638     10.126   249.0509     2.9874     1.2892     0.0217      0.060     -0.057     -0.082         40 6.1980e+02   997.8674 0.0000e+00
     -0.053    21.6442     8.0717     91.726  30.456830     32.640     10.129   249.0131     2.9721     1.3757     0.0217      0.038     -0.052     -0.076         41 6.1931e+02   997.8677 0.0000e+00
     -0.049    21.6426     8.0232     91.178  30.564007     32.760     10.122   249.0888     2.9759     1.3180     0.0218      0.030     -0.050     -0.073         42 6.1862e+02   997.8681 0.0000e+00
     -0.051    21.6442     7.9941     90.849  30.945484     33.150     10.115   249.0509     2.9683     1.3324     0.0220      0.025     -0.051     -0.074         43 6.1965e+02   997.8684 0.0000e+00
     -0.055    21.6477     7.9590     90.450  31.581931     33.870     10.104   248.8616     2.9759     1.3036     0.0223      0.018     -0.053     -0.077         44 6.1395e+02   997.8690 0.0000e+00
     -0.055    21.6524     7.9195     90.000  31.875485     34.168     10.094   248.5588     2.9721     1.2459     0.0224      0.010     -0.053     -0.077         45 6.1308e+02   997.8687 0.0000e+00
     -0.051    21.6577     7.8798     89.551  31.943024     34.225     10.085   248.5588     2.9607     1.3324     0.0224      0.005     -0.050     -0.074         46 6.1147e+02   997.8680 0.0000e+00
     -0.049    21.6611     7.8224     88.903  32.149696     34.461     10.078   248.2938     2.9759     1.4189     0.0225      0.004     -0.048     -0.071         47 6.1988e+02   997.8671 0.0000e+00
     -0.049    21.6632     7.7603     88.201  32.299735     34.607     10.069   248.1423     2.9645     1.3036     0.0226      0.002     -0.048     -0.070         48 6.1272e+02   997.8660 0.0000e+00
     -0.050    21.6651     7.7134     87.671  32.467385     34.784     10.061   248.2559     2.9759     1.3757     0.0226      0.001     -0.046     -0.068         49 6.2557e+02   997.8653 0.0000e+00
     -0.044    21.6630     7.7039     87.567  32.563261     34.902     10.053   248.2181     2.9759     1.3324     0.0227      0.003     -0.041     -0.060         50 5.8513e+02   997.8648 0.0000e+00
     -0.033    21.6614     7.7490     88.082  32.150791     34.451     10.041   248.2181     2.9759     1.3613     0.0225      0.008     -0.034     -0.050         51 4.5228e+02   997.8644 0.0000e+00
     -0.029    21.6625     7.8041     88.710  31.914067     34.154     10.014   248.1423     2.9759     1.3180     0.0224      0.012     -0.029     -0.043         52 4.3226e+02   997.8647 0.0000e+00
     -0.027    21.6634     7.8738     89.497  32.265290     34.604     10.003   248.3316     2.9607     1.3180     0.0226      0.014     -0.026     -0.038         53 4.4460e+02   997.8652 0.0000e+00
     -0.024    21.6637     7.9489     90.347  32.365525     34.663     10.002   248.1802     2.9798     1.4189     0.0226      0.015     -0.023     -0.033         54 4.3934e+02   997.8650 0.0000e+00
     -0.019    21.6634     8.0194     91.150  32.293009     34.603     10.003   248.2938     3.0904     1.3613     0.0226      0.017     -0.018     -0.027         55 4.4963e+02   997.8648 0.0000e+00
     -0.014    21.6647     8.0757     91.786  32.177765     34.482      9.999   247.8773     3.1133     1.4045     0.0225      0.018     -0.014     -0.020         56 4.5368e+02   997.8647 0.0000e+00
     -0.011    21.6671     8.1004     92.069  31.946002     34.214      9.991   248.1423     3.1095     1.3469     0.0224      0.018     -0.010     -0.015         57 4.6366e+02   997.8647 0.0000e+00
     -0.007    21.6691     8.0839     91.885  31.811095     34.093      9.982   248.4452     3.0980     1.2748     0.0223      0.017     -0.006     -0.009         58 4.4719e+02   997.8644 0.0000e+00
     -0.001    21.6711     8.0377     91.366  31.693835     33.942      9.970   248.4831     3.3116     1.3901     0.0223      0.015     -0.001     -0.002         59 4.3468e+02   997.8639 0.0000e+00
      0.005    21.6728     7.9621     90.507  31.558630     33.820      9.957   247.8395     3.2735     1.3324     0.0222      0.017      0.005      0.008         60 4.2550e+02   997.8634 0.0000e+00
      0.012    21.6746     7.8640     89.392  31.475685     33.699      9.933   247.8016     3.2697     1.3324     0.0222      0.019      0.012      0.018         61 4.3224e+02   997.8629 0.0000e+00
      0.019    21.6755     7.7501     88.097  31.471154     33.728      9.897   247.3095     3.2735     1.3036     0.0222      0.020      0.021      0.031         62 4.3731e+02   997.8626 0.0000e+00
      0.034    21.6727     7.6418     86.869  31.416130     33.637      9.900   246.8173     3.1972     1.5487     0.0222      0.024      0.034      0.049         63 4.2132e+02   997.8622 0.0000e+00
      0.049    21.6710     7.5693     86.047  31.336769     33.576      9.904   246.5902     3.1972     1.5631     0.0221      0.030      0.046      0.066         64 4.0746e+02   997.8620 0.0000e+00
      0.055    21.6711     7.5265     85.561  31.303273     33.519      9.897   246.9309     3.2239     1.6208     0.0221      0.034      0.053      0.077         65 3.8832e+02   997.8627 0.0000e+00
      0.059    21.6695     7.5105     85.379  31.280054     33.520      9.889   247.1202     3.2010     1.5776     0.0221      0.036      0.057      0.082         66 3.8654e+02   997.8630 0.0000e+00
      0.060    21.6704     7.5115     85.391  31.217530     33.430      9.893   247.0445     3.1819     1.4189     0.0221      0.034      0.059      0.087         67 3.8773e+02   997.8631 0.0000e+00
      0.064    21.6732     7.5379     85.692  31.203320     33.431      9.895   246.8173     3.3269     1.3036     0.0221      0.031      0.063      0.093         68 3.8433e+02   997.8634 0.0000e+00
      0.072    21.6757     7.5711     86.070  31.149602     33.371      9.885   246.9688     3.3536     1.4189     0.0221      0.028      0.069      0.101         69 3.7824e+02   997.8632 0.0000e+00
      0.076    21.6764     7.6149     86.566  31.106619     33.309      9.870   246.7795     3.3460     1.4189     0.0220      0.024      0.074      0.108         70 3.7616e+02   997.8626 0.0000e+00
      0.079    21.6758     7.6636     87.113  31.138303     33.367      9.850   246.5902     3.3269     1.3757     0.0221      0.020      0.077      0.112         71 3.7639e+02   997.8621 0.0000e+00
      0.080    21.6765     7.6952     87.468  31.110172     33.307      9.836   246.5902     3.1934     1.2459     0.0220      0.016      0.077      0.112         72 3.7249e+02   997.8619 0.0000e+00
      0.078    21.6781     7.7174     87.714  31.082374     33.307      9.832   246.7038     3.1819     1.3613     0.0220      0.013      0.076      0.111         73 3.7435e+02   997.8621 0.0000e+00
      0.076    21.6791     7.7451     88.017  31.054389     33.247      9.828   246.7038     3.2315     1.3469     0.0220      0.011      0.076      0.110         74 3.7136e+02   997.8619 0.0000e+00
      0.078    21.6796     7.7420     87.980  31.026491     33.246      9.819   246.8930     3.2315     1.4334     0.0220      0.008      0.077      0.111         75 3.6982e+02   997.8615 0.0000e+00
      0.079    21.6797     7.7237     87.776  30.998584     33.185      9.805   247.0066     3.2086     1.2748     0.0220      0.005      0.077      0.112         76 3.6597e+02   997.8613 0.0000e+00
      0.079    21.6799     7.6772     87.249  30.970610     33.185      9.793   247.1202     3.2125     1.4622     0.0220      0.002      0.077      0.112         77 3.6548e+02   997.8612 0.0000e+00
      0.078    21.6802     7.6400     86.819  31.002050     33.185      9.782   247.1959     3.2201     1.4334     0.0220      0.000      0.077      0.111         78 3.6811e+02   997.8612 0.0000e+00
      0.078    21.6807     7.6006     86.372  31.018712     33.245      9.770   247.5745     3.2201     1.3036     0.0220     -0.000      0.077      0.111         79 3.6916e+02   997.8611 0.0000e+00
      0.078    21.6797     7.5603     85.915  30.949876     33.125      9.759   247.3095     3.2201     1.3324     0.0220      0.000      0.077      0.111         80 3.7310e+02   997.8610 0.0000e+00
      0.079    21.6760     7.4978     85.203  30.939582     33.154      9.747   247.4230     3.2239     1.3469     0.0220      0.001      0.077      0.110         81 3.7855e+02   997.8609 0.0000e+00
      0.076    21.6737     7.4445     84.594  30.942643     33.125      9.738   247.5745     3.2048     1.3469     0.0220 8.7346e-07      0.076      0.109         82 3.7582e+02   997.8612 0.0000e+00
      0.076    21.6691     7.3980     84.062  30.916440     33.128      9.733   247.3852     3.2086     1.3324     0.0220     -0.001      0.076      0.109         83 3.6406e+02   997.8620 0.0000e+00
      0.080    21.6631     7.3507     83.522  30.883311     33.069      9.723   247.3095     3.4032     1.3613     0.0219     -0.001      0.077      0.112         84 3.6020e+02   997.8625 0.0000e+00
      0.080    21.6619     7.3015     82.961  30.865367     33.073      9.704   247.6502     3.3956     1.2748     0.0219      0.000      0.078      0.113         85 3.6198e+02   997.8634 0.0000e+00
      0.080    21.6644     7.2496     82.371  30.879520     33.077      9.688   247.8773     3.4032     1.3469     0.0219      0.001      0.079      0.114         86 3.6249e+02   997.8648 0.0000e+00
      0.081    21.6645     7.1944     81.742  30.895325     33.108      9.685   248.0666     3.4108     1.3613     0.0219      0.001      0.082      0.118         87 3.6355e+02   997.8652 0.0000e+00
      0.091    21.6609     7.1488     81.222  30.875324     33.076      9.685   247.2338     3.3956     1.6497     0.0219      0.004      0.088      0.128         88 3.6283e+02   997.8646 0.0000e+00
      0.098    21.6608     7.0956     80.618  30.815530     33.016      9.675   247.6502     3.3918     1.6064     0.0219      0.009      0.093      0.135         89 3.6454e+02   997.8646 0.0000e+00
      0.095    21.6618     7.0593     80.203  30.880857     33.079      9.670   247.7638     3.3918     1.6785     0.0219      0.011      0.093      0.135         90 3.6779e+02   997.8654 0.0000e+00
      0.092    21.6603     7.0120     79.662  30.912533     33.138      9.669   248.0666     3.4032     1.7218     0.0220      0.011      0.092      0.133         91 3.7229e+02   997.8654 0.0000e+00
      0.093    21.6584     6.9803     79.297  30.835364     33.018      9.664   247.9909     3.4070     1.6208     0.0219      0.009      0.093      0.134         92 3.6883e+02   997.8652 0.0000e+00
      0.098    21.6561     6.9447     78.888  30.769506     32.989      9.658   248.0666     3.4108     1.3613     0.0219      0.009      0.097      0.139         93 3.6074e+02   997.8655 0.0000e+00
      0.103    21.6545     6.9148     78.545  30.757481     32.931      9.652   248.1423     3.4070     1.3324     0.0219      0.009      0.099      0.143         94 3.5646e+02   997.8660 0.0000e+00
      0.102    21.6538     6.8858     78.214  30.791079     33.022      9.642   248.1802     3.4032     1.2892     0.0219      0.008      0.099      0.143         95 3.5514e+02   997.8666 0.0000e+00
      0.097    21.6529     6.8446     77.744  30.757322     32.934      9.631   248.3695     3.3956     1.3757     0.0219      0.004      0.096      0.139         96 3.5437e+02   997.8668 0.0000e+00
      0.094    21.6517     6.8019     77.256  30.799491     33.024      9.625   247.9909     3.4642     1.6641     0.0219      0.001      0.093      0.134         97 3.5288e+02   997.8669 0.0000e+00
      0.092    21.6512     6.7585     76.765  30.827480     33.024      9.613   247.8395     3.4490     1.6064     0.0219      0.000      0.089      0.128         98 3.5764e+02   997.8671 0.0000e+00
      0.085    21.6509     6.7131     76.245  30.840996     33.055      9.607   248.1802     3.4413     1.5776     0.0219     -0.003      0.083      0.120         99 3.6483e+02   997.8674 0.0000e+00
      0.077    21.6493     6.6579     75.605  30.871549     33.085      9.602   248.2181     3.4413     1.6497     0.0219     -0.009      0.077      0.112        100 3.6875e+02   997.8675 0.0000e+00
      0.074    21.6469     6.6130     75.082  30.819084     33.026      9.592   248.2938     3.4452     1.4334     0.0219     -0.014      0.074      0.107        101 3.6854e+02   997.8675 0.0000e+00
      0.074    21.6442     6.5748     74.633  30.817409     33.027      9.582   248.4452     3.4909     1.4189     0.0219     -0.016      0.073      0.106        102 3.7155e+02   997.8679 0.0000e+00
      0.076    21.6413     6.5487     74.323  30.873634     33.088      9.572   249.0131     3.4261     1.3901     0.0219     -0.015      0.074      0.108        103 3.6779e+02   997.8685 0.0000e+00
      0.078    21.6387     6.5236     74.027  30.808367     33.031      9.565   249.1266     3.4528     1.3469     0.0219     -0.012      0.076      0.110        104 3.6345e+02   997.8691 0.0000e+00
      0.080    21.6373     6.4961     73.708  30.750502     32.943      9.559   249.1266     3.4146     1.4334     0.0219     -0.008      0.078      0.113        105 3.6248e+02   997.8697 0.0000e+00
      0.082    21.6361     6.4622     73.313  30.827142     33.064      9.556   249.0131     3.3956     1.3324     0.0219     -0.003      0.080      0.116        106 3.5589e+02   997.8703 0.0000e+00
      0.083    21.6348     6.4406     73.013  30.831498     33.035      9.548   248.9373     3.4108     1.4334     0.0219      0.002      0.081      0.118        107 3.5754e+02   997.8706 0.0000e+00
      0.084    21.6352     6.4172     72.705  30.804335     33.036      9.536   249.3538     3.3918     1.3324     0.0219      0.005      0.081      0.117        108 3.6025e+02   997.8709 0.0000e+00
      0.079    21.6324     6.3976     72.466  30.831320     33.037      9.524   249.3159     3.4070     1.6064     0.0219      0.005      0.076      0.110        109 3.6718e+02   997.8711 0.0000e+00
      0.066    21.6235     6.3926     72.402  30.857168     33.097      9.522   248.9373     3.4528     1.6064     0.0219     -0.000      0.068      0.098        110 3.7682e+02   997.8710 0.0000e+00
      0.063    21.6143     6.4038     72.527  30.831419     33.039      9.518   249.3159     3.4757     1.5776     0.0219     -0.006      0.063      0.092        111 3.7763e+02   997.8716 0.0000e+00
      0.067    21.6042     6.4339     72.865  30.833739     33.075      9.509   249.3538     3.4757     1.5631     0.0219     -0.008      0.063      0.092        112 3.7936e+02   997.8736 0.0000e+00
      0.064    21.5948     6.4713     73.275  30.824659     33.052      9.493   249.0888     3.4604     1.6641     0.0219     -0.011      0.063      0.092        113 3.7277e+02   997.8756 0.0000e+00
      0.062    21.5865     6.5087     73.660  30.813096     33.059      9.483   249.3916     3.4108     1.3324     0.0219     -0.012      0.062      0.090        114 3.3982e+02   997.8779 0.0000e+00
      0.063    21.5830     6.5440     74.023  30.818506     33.066      9.474   249.5809     3.3956     1.3180     0.0219     -0.011      0.062      0.089        115 3.2247e+02   997.8800 0.0000e+00
      0.063    21.5730     6.5881     74.506  30.817931     33.071      9.461   249.6945     3.3765     1.3324     0.0219     -0.009      0.058      0.084        116 3.4143e+02   997.8819 0.0000e+00
      0.050    21.5372     6.6565     75.268  30.932320     33.194      9.433   249.4673     3.4146     1.3324     0.0220     -0.009      0.046      0.066        117 3.6839e+02   997.8826 0.0000e+00
      0.026    21.5060     6.7897     76.767  30.972418     33.260      9.443   249.4295     3.3612     1.3036     0.0220     -0.014      0.029      0.042        118 3.8113e+02   997.8847 0.0000e+00
      0.014    21.4941     6.9449     78.522  30.886544     33.167      9.450   249.4295     3.3841     1.4334     0.0219     -0.023      0.016      0.024        119 3.9213e+02   997.8926 0.0000e+00
      0.010    21.4881     7.0897     80.169  30.861443     33.189      9.458   249.8459     3.3918     1.3469     0.0219     -0.030      0.010      0.014        120 4.0399e+02   997.8996 0.0000e+00
      0.004    21.4867     7.2067     81.516  30.825908     33.137      9.462   249.7702     3.4223     1.3469     0.0219     -0.035      0.004      0.006        121 4.1238e+02   997.9022 0.0000e+00
     -0.001    21.4850     7.2946     82.531  30.812267     33.142      9.455   249.9216     3.2659     1.3469     0.0219     -0.038     -0.002     -0.004        122 4.3909e+02   997.9035 0.0000e+00
     -0.010    21.4749     7.3370     83.022  30.878422     33.202      9.449   249.8838     3.2888     1.3757     0.0219     -0.039     -0.014     -0.020        123 4.5878e+02   997.9037 0.0000e+00
     -0.032    21.4489     7.3353     83.007  30.950966     33.294      9.443   254.6538     3.2621     1.3469     0.0220     -0.041     -0.034     -0.048        124 4.7498e+02   997.9040 0.0000e+00
     -0.062    21.4234     7.2889     82.488  30.988627     33.331      9.432   251.7766     3.3078     1.3901     0.0220     -0.044     -0.058     -0.083        125 4.8605e+02   997.9061 0.0000e+00
     -0.081    21.4120     7.2137     81.641  30.979691     33.350      9.424   251.1331     3.3155     1.3613     0.0220     -0.049     -0.075     -0.108        126 4.8143e+02   997.9118 0.0000e+00
     -0.085    21.4045     7.1321     80.719  30.932469     33.308      9.418   251.2088     3.3040     1.3324     0.0220     -0.054     -0.082     -0.119        127 4.9177e+02   997.9174 0.0000e+00
     -0.086    21.3997     7.0582     79.870  30.869642     33.256      9.407   252.5338     3.3460     1.3901     0.0219     -0.056     -0.083     -0.121        128 4.8863e+02   997.9198 0.0000e+00
     -0.086    21.3999     6.9907     79.078  30.880125     33.262      9.396   251.9659     3.3536     1.3180     0.0219     -0.053     -0.081     -0.117        129 4.7162e+02   997.9216 0.0000e+00
     -0.075    21.4064     6.9601     78.698  30.889802     33.295      9.381   274.3396     3.2926     1.3324     0.0219     -0.043     -0.072     -0.104        130 4.7058e+02   997.9227 0.0000e+00
     -0.059    21.4210     6.9658     78.740  30.827973     33.205      9.363   274.1124     3.2811     1.2171     0.0219     -0.025     -0.058     -0.083        131 4.6927e+02   997.9227 0.0000e+00
     -0.042    21.4343     7.0013     79.136  30.808935     33.200      9.341   274.3396     3.2621     1.3180     0.0219     -0.001     -0.043     -0.062        132 4.4527e+02   997.9213 0.0000e+00
     -0.031    21.4407     7.0548     79.743  30.824612     33.189      9.327   274.8317     3.2964     1.2748     0.0219      0.020     -0.033     -0.047        133 3.9958e+02   997.9182 0.0000e+00
     -0.027    21.4439     7.1130     80.406  30.808460     33.180      9.317   274.8317     3.2621     1.4189     0.0219      0.032     -0.028     -0.041        134 4.0345e+02   997.9153 0.0000e+00
     -0.029    21.4470     7.1565     80.901  30.829031     33.175      9.308   264.7238     3.3574     1.3469     0.0219      0.036     -0.028     -0.041        135 4.0971e+02   997.9138 0.0000e+00
     -0.029    21.4503     7.1796     81.168  30.917514     33.293      9.296   258.1367     3.3269     1.2892     0.0220      0.034     -0.028     -0.041        136 3.7875e+02   997.9131 0.0000e+00
     -0.027    21.4509     7.1754     81.125  30.905731     33.261      9.293   256.8874     3.3307     1.2892     0.0219      0.029     -0.028     -0.041        137 4.0524e+02   997.9125 0.0000e+00
     -0.029    21.4428     7.1539     80.884  30.873321     33.229      9.290   256.7738     3.3383     1.3613     0.0219      0.020     -0.033     -0.049        138 4.6441e+02   997.9117 0.0000e+00
     -0.047    21.4242     7.1165     80.464  30.928218     33.288      9.286   273.5067     3.2201     1.3036     0.0220      0.006     -0.052     -0.075        139 4.8271e+02   997.9115 0.0000e+00
     -0.083    21.4027     7.0688     79.926  30.985544     33.354      9.279   273.2796     3.2125     1.3324     0.0220     -0.014     -0.085     -0.123        140 4.7924e+02   997.9132 0.0000e+00
     -0.131    21.3884     7.0193     79.367  30.979742     33.368      9.275   273.6203     3.1934     1.3324     0.0220     -0.039     -0.124     -0.180        141 4.8288e+02   997.9171 0.0000e+00
     -0.164    21.3846     6.9758     78.877  30.935445     33.323      9.268   273.9610     3.2315     1.3613     0.0220     -0.064     -0.155     -0.225        142 4.9260e+02   997.9217 0.0000e+00
     -0.180    21.3861     6.9432     78.509  30.892546     33.303      9.240   273.8853     3.2697     1.3324     0.0219     -0.083     -0.173     -0.250        143 5.0934e+02   997.9247 0.0000e+00
     -0.184    21.3885     6.9231     78.280  30.885002     33.276      9.222   274.3017     3.2888     1.3901     0.0219     -0.094     -0.179     -0.259        144 5.2391e+02   997.9255 0.0000e+00
     -0.183    21.3914     6.8996     78.011  30.915208     33.335      9.211   274.7560     3.2735     1.2748     0.0220     -0.094     -0.177     -0.257        145 5.2296e+02   997.9252 0.0000e+00
     -0.175    21.3950     6.8785     77.768  30.884582     33.273      9.190   273.5067     3.2392     1.2748     0.0219     -0.081     -0.169     -0.246        146 5.2070e+02   997.9247 0.0000e+00
     -0.161    21.3979     6.8640     77.599  30.863863     33.271      9.173   273.1281     3.2277     1.3757     0.0219     -0.056     -0.157     -0.228        147 5.2676e+02   997.9241 0.0000e+00
     -0.146    21.3993     6.8470     77.399  30.881739     33.268      9.153   272.5224     3.1972     1.2748     0.0219     -0.024     -0.144     -0.208        148 5.3919e+02   997.9234 0.0000e+00
     -0.134    21.4008     6.8328     77.231  30.891961     33.296      9.127   272.4845     3.2163     1.2748     0.0219      0.006     -0.130     -0.189        149 5.4906e+02   997.9228 0.0000e+00
     -0.119    21.4018     6.8034     76.894  30.880766     33.265      9.123   272.3331     3.1972     1.3324     0.0219      0.027     -0.117     -0.170        150 5.4379e+02   997.9226 0.0000e+00
     -0.106    21.4023     6.7833     76.663  30.866043     33.264      9.102   272.7117     3.2888     1.3613     0.0219      0.040     -0.104     -0.151        151 5.3601e+02   997.9223 0.0000e+00
     -0.093    21.4033     6.7570     76.364  30.821405     33.203      9.085   272.6360     3.2811     1.4622     0.0219      0.048     -0.091     -0.132        152 5.2449e+02   997.9221 0.0000e+00
     -0.080    21.4035     6.7291     76.045  30.817811     33.203      9.068   271.9924     3.2735     1.3036     0.0219      0.052     -0.080     -0.116        153 5.0948e+02   997.9221 0.0000e+00
     -0.071    21.4026     6.6987     75.698  30.870514     33.262      9.059   271.8410     3.2964     1.3180     0.0219      0.052     -0.073     -0.105        154 4.9814e+02   997.9219 0.0000e+00
     -0.071    21.4004     6.6571     75.228  30.903949     33.292      9.059   271.5381     3.2697     1.3180     0.0219      0.047     -0.071     -0.103        155 4.9957e+02   997.9219 0.0000e+00
     -0.074    21.3978     6.6151     74.750  30.924334     33.323      9.066   271.5760     3.2773     1.4189     0.0220      0.039     -0.071     -0.103        156 5.0453e+02   997.9221 0.0000e+00
     -0.073    21.3947     6.5642     74.172  30.874772     33.264      9.072   271.8410     3.2964     1.3324     0.0219      0.031     -0.070     -0.101        157 5.0077e+02   997.9225 0.0000e+00
     -0.066    21.3897     6.5197     73.666  30.876750     33.266      9.071   271.8410     3.2735     1.3036     0.0219      0.024     -0.066     -0.096        158 4.9691e+02   997.9231 0.0000e+00
     -0.063    21.3844     6.4692     73.090  30.921873     33.328      9.064   271.7653     3.2849     1.2171     0.0220      0.017     -0.064     -0.092        159 4.9860e+02   997.9238 0.0000e+00
     -0.064    21.3805     6.4315     72.659  30.937125     33.332      9.059   271.9924     3.2010     1.4045     0.0220      0.011     -0.064     -0.092        160 5.1782e+02   997.9250 0.0000e+00
     -0.066    21.3785     6.3979     72.272  30.917026     33.336      9.049   271.5760     3.2392     1.3324     0.0220      0.006     -0.065     -0.095        161 5.2480e+02   997.9261 0.0000e+00
     -0.069    21.3767     6.3692     71.943  30.917263     33.309      9.041   271.8031     3.2239     1.3901     0.0219      0.003     -0.068     -0.099        162 5.1726e+02   997.9270 0.0000e+00
     -0.073    21.3741     6.3484     71.707  30.966458     33.400      9.037   271.5760     3.2201     1.2603     0.0220      0.001     -0.072     -0.104        163 5.2200e+02   997.9274 0.0000e+00
     -0.078    21.3725     6.3168     71.349  30.944684     33.341      9.029   271.6517     3.3574     1.3469     0.0220     -0.002     -0.074     -0.107        164 5.1345e+02   997.9278 0.0000e+00
     -0.074    21.3718     6.2856     70.995  30.914736     33.343      9.025   271.7653     3.3612     1.3613     0.0220     -0.004     -0.071     -0.102        165 5.0463e+02   997.9284 0.0000e+00
     -0.064    21.3702     6.2550     70.648  30.885221     33.284      9.024   271.8410     3.3307     1.3036     0.0219     -0.004     -0.064     -0.092        166 5.0836e+02   997.9288 0.0000e+00
     -0.056    21.3680     6.2232     70.287  30.862909     33.285      9.018   271.8788     3.3193     1.2892     0.0219      0.000     -0.057     -0.083        167 5.0474e+02   997.9289 0.0000e+00
     -0.054    21.3655     6.1805     69.803  30.912878     33.316      9.009   271.3110     3.2773     1.2748     0.0219      0.005     -0.054     -0.079        168 5.0405e+02   997.9293 0.0000e+00
     -0.056    21.3625     6.1412     69.358  30.971169     33.408      8.992   271.3867     3.2811     1.2892     0.0220      0.009     -0.057     -0.083        169 5.0842e+02   997.9298 0.0000e+00
     -0.064    21.3581     6.1076     68.979  30.938501     33.350      8.985   271.3488     3.2697     1.3757     0.0220      0.009     -0.064     -0.093        170 5.1087e+02   997.9303 0.0000e+00
     -0.076    21.3533     6.0879     68.801  30.923906     33.352      8.985   271.7274     3.2849     1.3180     0.0220      0.005     -0.072     -0.104        171 5.1237e+02   997.9309 0.0000e+00
     -0.079    21.3503     6.2178     70.409  30.930079     33.355      8.986   271.5760     3.2811     1.3324     0.0220     -0.001     -0.075     -0.109        172 5.0995e+02   997.9319 0.0000e+00
     -0.076    21.3490     6.6624     75.562  30.930820     33.358      8.986   271.3488     3.2888     1.4334     0.0220     -0.007     -0.074     -0.107        173 5.0620e+02   997.9330 0.0000e+00
     -0.071    21.3483     7.3591     83.539  30.952613     33.391      8.983   271.5760     3.2697     1.3469     0.0220     -0.010     -0.070     -0.101        174 5.0127e+02   997.9336 0.0000e+00
     -0.066    21.3473     8.0656     91.600  30.932588     33.361      8.979   271.3488     3.2697     1.4622     0.0220     -0.010     -0.066     -0.096        175 5.0019e+02   997.9339 0.0000e+00
     -0.064    21.3459     8.7288     99.155  30.926115     33.362      8.966   271.5760     3.2964     1.4045     0.0220     -0.006     -0.064     -0.094        176 5.0204e+02   997.9341 0.0000e+00
     -0.065    21.3450     9.3029    105.687  30.931042     33.363      8.940   271.6517     3.2811     1.3613     0.0220     -0.001     -0.065     -0.094        177 5.0185e+02   997.9343 0.0000e+00
     -0.067    21.3435     9.7390    110.647  30.926458     33.364      8.918   271.5003     3.2621     1.4045     0.0220      0.004     -0.065     -0.094        178 5.0225e+02   997.9347 0.0000e+00
     -0.066    21.3433    10.0043    113.666  30.931820     33.364      8.905   271.4245     3.3116     1.3036     0.0220      0.007     -0.065     -0.094        179 5.0278e+02   997.9349 0.0000e+00
     -0.065    21.3421    10.0987    114.741  30.953995     33.395      8.902   271.8410     3.3193     1.2748     0.0220      0.006     -0.064     -0.093        180 5.0234e+02   997.9352 0.0000e+00
     -0.064    21.3797    10.0378    114.051  30.928489     33.366      8.902   271.2731     3.1400     1.2171     0.0220      0.004     -0.063     -0.091        181 5.0119e+02   997.9352 0.0000e+00
     -0.063    21.4764     9.9064    112.558  30.815429     33.245      8.899   271.5760     3.1514     1.3324     0.0219      0.002     -0.062     -0.090        182 5.0191e+02   997.9354 0.0000e+00
     -0.063    21.5601     9.7785    111.103  30.679920     33.071      8.893   271.8788     3.1476     1.4045     0.0218      0.001     -0.062     -0.090        183 5.0294e+02   997.9271 0.0000e+00
     -0.063    21.6050     9.6591    109.741  30.682339     32.998      8.892   271.9167     3.1819     1.4045     0.0218      0.001     -0.062     -0.090        184 5.0265e+02   997.9057 0.0000e+00
     -0.063    21.6296     9.5607    108.614  30.723506     33.001      8.892   271.5760     3.2048     1.2892     0.0219      0.002     -0.062     -0.090        185 5.0215e+02   997.8872 0.0000e+00
     -0.063    21.6407     9.4855    107.756  30.687907     32.908      8.888   271.4245     3.2201     1.4045     0.0218      0.002     -0.062     -0.090        186 5.0288e+02   997.8771 0.0000e+00
     -0.063    21.6466     9.4221    107.031  30.667368     32.891      8.886   271.4624     3.1972     1.3901     0.0218      0.001     -0.062     -0.090        187 5.0335e+02   997.8717 0.0000e+00
     -0.062    21.6490     9.3604    106.306  30.689805     32.883      8.886   271.9924     3.2048     1.3324     0.0218      0.001     -0.062     -0.090        188 5.0340e+02   997.8691 0.0000e+00
     -0.063    21.6509     9.3408    106.043  30.719232     32.939      8.882   271.5003     3.3269     1.4622     0.0219      0.000     -0.062     -0.090        189 5.0396e+02   997.8679 0.0000e+00
     -0.062    21.6523     9.3228    105.831  30.689997     32.878      8.879   271.6517     3.3269     1.3613     0.0218      0.000     -0.061     -0.089        190 5.0450e+02   997.8673 0.0000e+00
     -0.062    21.6533     9.3147    105.741  30.666935     32.876      8.877   271.7653     3.3460     1.3036     0.0218      0.000     -0.061     -0.089        191 5.0435e+02   997.8669 0.0000e+00
     -0.062    21.6531     9.3219    105.820  30.688678     32.875      8.876   271.8410     3.3536     1.3180     0.0218      0.000     -0.061     -0.088        192 5.0369e+02   997.8665 0.0000e+00
     -0.061    21.6523     9.3319    105.920  30.722189     32.934      8.873   272.0303     3.4566     1.4189     0.0219      0.001     -0.060     -0.087        193 5.0498e+02   997.8663 0.0000e+00
     -0.061    21.6499     9.3375    105.974  30.684482     32.875      8.866   271.9167     3.4681     1.3757     0.0218      0.001     -0.060     -0.086        194 5.0446e+02   997.8664 0.0000e+00
     -0.060    21.6461     9.3418    106.025  30.676350     32.875      8.864   271.9924     3.4604     1.3324     0.0218      0.001     -0.060     -0.086        195 5.0422e+02   997.8666 0.0000e+00
     -0.061    21.6437     9.3482    106.104  30.732309     32.937      8.864   271.9924     3.4528     1.3036     0.0219      0.001     -0.060     -0.086        196 5.0530e+02   997.8671 0.0000e+00
     -0.060    21.6417     9.3506    106.131  30.674095     32.880      8.862   271.9167     3.4871     1.4334     0.0218      0.001     -0.060     -0.086        197 5.0529e+02   997.8680 0.0000e+00
     -0.061    21.6291     9.3567    106.191  30.689546     32.881      8.859   271.7274     3.4757     1.4189     0.0218      0.001     -0.060     -0.087        198 5.0444e+02   997.8685 0.0000e+00
     -0.062    21.6108     9.3572    106.200  30.772335     33.002      8.859   271.6895     3.4528     1.3180     0.0219      0.000     -0.061     -0.088        199 5.0303e+02   997.8690 0.0000e+00
     -0.062    21.6059     9.3622    106.269  30.689574     32.891      8.860   271.9167     3.4528     1.3180     0.0218     -0.000     -0.061     -0.089        200 5.0338e+02   997.8717 0.0000e+00
     -0.063    21.6077     9.3529    106.175  30.674042     32.905      8.855   271.6138     3.4452     1.3613     0.0218     -0.001     -0.062     -0.089        201 5.0240e+02   997.8758 0.0000e+00
     -0.063    21.6055     9.3523    106.176  30.673164     32.908      8.851   271.9545     3.4604     1.3757     0.0218     -0.001     -0.062     -0.090        202 5.0241e+02   997.8769 0.0000e+00
     -0.064    21.5995     9.3507    106.152  30.572163     32.787      8.852   271.6895     3.3841     1.3036     0.0218     -0.002     -0.063     -0.092        203 5.0360e+02   997.8764 0.0000e+00
     -0.066    21.5950     9.3519    106.146  30.621979     32.848      8.847   271.2731     3.4108     1.3613     0.0218     -0.003     -0.065     -0.095        204 5.0449e+02   997.8770 0.0000e+00
     -0.070    21.5957     9.3411    106.007  30.670422     32.913      8.848   271.6517     3.3841     1.3901     0.0218     -0.004     -0.068     -0.100        205 5.0006e+02   997.8783 0.0000e+00
     -0.074    21.5989     9.3312    105.888  30.630382     32.856      8.846   271.0838     3.3879     1.3613     0.0218     -0.005     -0.072     -0.106        206 5.0006e+02   997.8793 0.0000e+00
     -0.078    21.5989     9.3336    105.916  30.671810     32.915      8.841   271.1217     3.4070     1.3324     0.0218     -0.008     -0.077     -0.112        207 5.0879e+02   997.8791 0.0000e+00
     -0.083    21.5947     9.3411    106.000  30.678120     32.913      8.838   271.6138     3.4185     1.2027     0.0218     -0.010     -0.081     -0.118        208 5.1110e+02   997.8784 0.0000e+00
     -0.088    21.5956     9.3464    106.050  30.622528     32.853      8.834   271.6895     3.3956     1.3324     0.0218     -0.013     -0.086     -0.126        209 5.1138e+02   997.8784 0.0000e+00
     -0.094    21.6017     9.3415    105.986  30.622487     32.856      8.829   271.5760     3.4032     1.4045     0.0218     -0.015     -0.091     -0.133        210 5.1346e+02   997.8792 0.0000e+00
     -0.098    21.6073     9.3350    105.905  30.678172     32.915      8.826   271.5760     3.4146     1.3036     0.0218     -0.017     -0.093     -0.135        211 5.1436e+02   997.8791 0.0000e+00
     -0.092    21.6111     9.3324    105.858  30.671734     32.911      8.826   271.5003     3.3956     1.4045     0.0218     -0.016     -0.088     -0.128        212 5.1365e+02   997.8777 0.0000e+00
     -0.080    21.6085     9.3392    105.905  30.630497     32.847      8.820   271.0838     3.4032     1.3613     0.0218     -0.010     -0.078     -0.113        213 5.1036e+02   997.8765 0.0000e+00
     -0.066    21.5990     9.3476    105.998  30.670236     32.904      8.798   271.3488     3.3956     1.3613     0.0218     -0.000     -0.067     -0.098        214 5.1353e+02   997.8757 0.0000e+00
     -0.060    21.5910     9.3650    106.210  30.681531     32.906      8.784   271.3488     3.4681     1.3757     0.0218      0.009     -0.061     -0.089        215 5.1887e+02   997.8763 0.0000e+00
     -0.061    21.5879     9.3842    106.438  30.616441     32.853      8.760   271.3110     3.4948     1.3901     0.0218      0.016     -0.061     -0.088        216 5.3680e+02   997.8785 0.0000e+00
     -0.064    21.5883     9.4022    106.659  30.632737     32.859      8.736   271.8031     3.4452     1.2315     0.0218      0.019     -0.061     -0.088        217 5.3118e+02   997.8802 0.0000e+00
     -0.062    21.5874     9.4092    106.787  30.661256     32.921      8.739   262.1874     3.4528     1.3469     0.0218      0.020     -0.057     -0.082        218 5.5122e+02   997.8809 0.0000e+00
     -0.047    21.5827     9.4181    106.927  30.640204     32.861      8.743   261.2031     3.5253     1.4189     0.0218      0.022     -0.046     -0.066        219 5.1961e+02   997.8808 0.0000e+00
     -0.031    21.5786     9.4179    106.940  30.658935     32.921      8.746   260.2188     3.5520     1.4334     0.0218      0.023     -0.031     -0.045        220 4.2770e+02   997.8811 0.0000e+00
     -0.017    21.5753     9.3990    106.717  30.637947     32.865      8.743   259.6509     3.5329     1.3613     0.0218      0.025     -0.016     -0.024        221 4.6368e+02   997.8822 0.0000e+00
     -0.001    21.5657     9.3621    106.295  30.607072     32.867      8.739   258.7802     3.5176     1.3613     0.0218      0.031     -0.001     -0.002        222 4.4722e+02   997.8832 0.0000e+00
      0.016    21.5525     9.3245    105.878  30.638108     32.870      8.737   258.0231     3.3918     1.2892     0.0218      0.040      0.012      0.018        223 4.2884e+02   997.8841 0.0000e+00
      0.023    21.5506     9.3083    105.702  30.717832     32.996      8.726   257.8717     3.3841     1.2748     0.0219      0.048      0.020      0.029        224 4.5183e+02   997.8863 0.0000e+00
      0.024    21.5579     9.2971    105.580  30.626366     32.886      8.722   257.5688     3.3994     1.3036     0.0218      0.050      0.020      0.029        225 4.7102e+02   997.8892 0.0000e+00
      0.014    21.5625     9.2890    105.491  30.574183     32.827      8.721   257.4552     3.3994     1.4045     0.0218      0.043      0.010      0.015        226 5.0940e+02   997.8895 0.0000e+00
     -0.004    21.5716     9.2871    105.475  30.664269     32.942      8.727   257.2281     3.4681     1.4334     0.0218      0.027     -0.007     -0.011        227 5.0111e+02   997.8879 0.0000e+00
     -0.032    21.5937     9.2934    105.551  30.632757     32.878      8.732   257.5688     3.4528     1.2892     0.0218      0.005     -0.029     -0.044        228 5.2751e+02   997.8867 0.0000e+00
     -0.056    21.6136     9.2946    105.567  30.672648     32.933      8.736   257.2281     3.4833     1.5199     0.0218     -0.020     -0.048     -0.071        229 5.4428e+02   997.8845 0.0000e+00
     -0.060    21.6202     9.2904    105.521  30.673871     32.916      8.736   270.6674     3.4413     1.3324     0.0218     -0.039     -0.058     -0.084        230 5.1507e+02   997.8796 0.0000e+00
     -0.063    21.6168     9.2823    105.425  30.631227     32.843      8.730   270.3645     3.4146     1.3036     0.0218     -0.050     -0.060     -0.086        231 4.9567e+02   997.8752 0.0000e+00
     -0.058    21.6153     9.2561    105.122  30.666459     32.898      8.727   258.4017     3.3994     1.3324     0.0218     -0.051     -0.057     -0.082        232 5.2187e+02   997.8738 0.0000e+00
     -0.053    21.6199     9.2386    104.914  30.689274     32.900      8.723   258.3638     3.3841     1.3613     0.0218     -0.044     -0.053     -0.077        233 5.3122e+02   997.8746 0.0000e+00
     -0.052    21.6239     9.2333    104.849  30.662087     32.901      8.720   271.6517     3.4032     1.4045     0.0218     -0.031     -0.051     -0.073        234 5.2727e+02   997.8749 0.0000e+00
     -0.049    21.6262     9.2356    104.874  30.641041     32.838      8.712   258.3638     3.3956     1.3613     0.0218     -0.015     -0.048     -0.070        235 5.2406e+02   997.8739 0.0000e+00
     -0.046    21.6278     9.2364    104.879  30.656212     32.895      8.703   270.7431     3.5978     1.5199     0.0218     -0.001     -0.045     -0.065        236 5.3030e+02   997.8730 0.0000e+00
     -0.043    21.6302     9.2395    104.905  30.643205     32.834      8.692   271.0460     3.5634     1.6064     0.0218      0.008     -0.043     -0.062        237 5.1130e+02   997.8724 0.0000e+00
     -0.043    21.6326     9.2467    104.997  30.657226     32.893      8.685   259.4238     3.5672     1.5631     0.0218      0.010     -0.041     -0.058        238 5.1479e+02   997.8721 0.0000e+00
     -0.038    21.6341     9.2711    105.294  30.638763     32.831      8.679   271.3488     3.5978     1.6352     0.0218      0.011     -0.037     -0.053        239 3.9629e+02   997.8716 0.0000e+00
     -0.033    21.6345     9.3017    105.647  30.606930     32.829      8.668   270.9703     3.5482     1.3613     0.0218      0.011     -0.033     -0.048        240 3.3698e+02   997.8711 0.0000e+00
     -0.031    21.6329     9.3115    105.757  30.637590     32.828      8.659   271.3488     3.4986     1.3036     0.0218      0.011     -0.031     -0.045        241 3.1519e+02   997.8708 0.0000e+00
     -0.030    21.6299     9.3239    105.896  30.659859     32.888      8.655   271.4624     3.4986     1.4334     0.0218      0.011     -0.030     -0.044        242 1.1909e+02   997.8707 0.0000e+00
     -0.030    21.6259     9.3375    106.051  30.638469     32.829      8.656   271.8031     3.5176     1.2748     0.0218      0.010     -0.030     -0.044        243 3.0671e+02   997.8710 0.0000e+00
     -0.032    21.6230     9.3366    106.022  30.604958     32.831      8.651   261.6952     3.5176     1.5920     0.0218      0.008     -0.030     -0.044        244 4.3304e+02   997.8717 0.0000e+00
     -0.031    21.6224     9.3213    105.833  30.583059     32.774      8.651   260.4081     3.5138     1.5631     0.0218      0.006     -0.030     -0.044        245 4.1307e+02   997.8726 0.0000e+00
     -0.029    21.6203     9.3145    105.740  30.665723     32.896      8.653   260.1052     3.4986     1.5487     0.0218      0.005     -0.029     -0.042        246 5.6224e+02   997.8732 0.0000e+00
     -0.026    21.6166     9.3160    105.736  30.679842     32.896      8.651   259.4995     3.4986     1.7073     0.0218      0.004     -0.029     -0.043        247 5.7890e+02   997.8734 0.0000e+00
     -0.034    21.6213     9.3215    105.785  30.624740     32.838      8.647   258.8181     3.6054     1.4045     0.0218      0.001     -0.040     -0.059        248 5.8233e+02   997.8738 0.0000e+00
     -0.066    21.6304     9.3252    105.839  30.615792     32.841      8.647   263.0581     3.5825     1.2892     0.0218     -0.009     -0.060     -0.086        249 6.0241e+02   997.8744 0.0000e+00
     -0.078    21.6335     9.3225    105.817  30.631726     32.837      8.646   259.1588     3.5901     1.2748     0.0218     -0.020     -0.071     -0.103        250 6.0159e+02   997.8734 0.0000e+00
     -0.071    21.6325     9.3240    105.832  30.664161     32.890      8.647   258.4774     3.5710     1.3036     0.0218     -0.025     -0.071     -0.103        251 6.0340e+02   997.8714 0.0000e+00
     -0.069    21.6323     9.3354    105.954  30.634676     32.829      8.645   258.2881     3.5176     1.4478     0.0218     -0.027     -0.068     -0.099        252 6.0512e+02   997.8706 0.0000e+00
     -0.069    21.6312     9.3436    106.050  30.609166     32.829      8.641   258.0988     3.5558     1.2748     0.0218     -0.026     -0.067     -0.097        253 6.1417e+02   997.8710 0.0000e+00
     -0.067    21.6233     9.3524    106.159  30.636656     32.830      8.637   257.7202     3.4986     1.2748     0.0218     -0.023     -0.064     -0.094        254 6.0714e+02   997.8710 0.0000e+00
     -0.061    21.6152     9.3613    106.263  30.659718     32.890      8.632   257.5688     3.5176     1.3036     0.0218     -0.015     -0.059     -0.085        255 6.0938e+02   997.8713 0.0000e+00
     -0.051    21.6080     9.3715    106.369  30.639720     32.836      8.628   257.3416     3.5482     1.2748     0.0218     -0.002     -0.050     -0.073        256 6.0123e+02   997.8730 0.0000e+00
     -0.042    21.5975     9.3797    106.450  30.602293     32.841      8.624   257.0766     3.6321     1.6208     0.0218      0.013     -0.039     -0.057        257 6.0886e+02   997.8749 0.0000e+00
     -0.026    21.5920     9.3762    106.394  30.587792     32.787      8.618   257.1524     3.6397     1.6208     0.0218      0.022     -0.024     -0.035        258 5.9435e+02   997.8765 0.0000e+00
     -0.006    21.5965     9.3811    106.439  30.598516     32.854      8.614   256.8116     3.6206     1.5920     0.0218      0.030     -0.004     -0.006        259 4.9463e+02   997.8790 0.0000e+00
      0.020    21.6013     9.3862    106.496  30.588952     32.798      8.607   255.5245     3.6702     1.5487     0.0218      0.042      0.020      0.029        260 4.6426e+02   997.8804 0.0000e+00
      0.047    21.6001     9.3944    106.586  30.658950     32.914      8.604   255.0324     3.6245     1.6064     0.0218      0.056      0.045      0.066        261 4.5148e+02   997.8795 0.0000e+00
      0.073    21.5971     9.4004    106.644  30.629909     32.851      8.593   254.8809     3.6321     1.6064     0.0218      0.069      0.070      0.101        262 4.1317e+02   997.8786 0.0000e+00
      0.095    21.5983     9.4028    106.668  30.565839     32.792      8.577   254.7295     3.6397     1.5776     0.0218      0.080      0.090      0.130        263 4.1330e+02   997.8789 0.0000e+00
      0.107    21.6029     9.4092    106.739  30.620180     32.854      8.562   254.4266     3.6359     1.5631     0.0218      0.085      0.103      0.150        264 4.0551e+02   997.8796 0.0000e+00
      0.114    21.6036     9.4096    106.731  30.621536     32.853      8.560   254.3131     3.6969     1.7073     0.0218      0.084      0.112      0.163        265 3.9713e+02   997.8794 0.0000e+00
      0.122    21.5993     9.4148    106.766  30.623403     32.850      8.561   254.3888     3.7084     1.6208     0.0218      0.077      0.120      0.174        266 3.9169e+02   997.8784 0.0000e+00
      0.131    21.5928     9.4224    106.823  30.617854     32.850      8.560   254.3888     3.6969     1.5199     0.0218      0.067      0.126      0.184        267 3.7673e+02   997.8783 0.0000e+00
      0.135    21.5856     9.4288    106.884  30.569190     32.793      8.552   254.1995     3.6969     1.6785     0.0218      0.054      0.131      0.190        268 3.7763e+02   997.8791 0.0000e+00
      0.135    21.5804     9.4343    106.951  30.565463     32.797      8.545   254.3888     3.6817     1.3757     0.0218      0.041      0.133      0.192        269 3.8205e+02   997.8806 0.0000e+00
      0.136    21.5798     9.4402    107.010  30.622495     32.862      8.541   254.0481     3.6931     1.3324     0.0218      0.029      0.134      0.193        270 3.8186e+02   997.8823 0.0000e+00
      0.138    21.5785     9.4435    107.042  30.616722     32.866      8.543   254.6916     3.7198     1.3613     0.0218      0.020      0.137      0.198        271 3.7624e+02   997.8835 0.0000e+00
      0.144    21.5738     9.4505    107.118  30.631902     32.867      8.547   254.0859     3.6969     1.3469     0.0218      0.016      0.142      0.206        272 3.6228e+02   997.8836 0.0000e+00
      0.153    21.5720     9.4464    107.060  30.662857     32.927      8.551   253.8588     3.9602     1.6641     0.0218      0.015      0.152      0.221        273 3.4522e+02   997.8839 0.0000e+00
      0.169    21.5711     9.4386    106.945  30.637451     32.871      8.554   254.3131     3.9487     1.5199     0.0218      0.018      0.166      0.241        274 3.1900e+02   997.8850 0.0000e+00
      0.188    21.5650     9.4320    106.851  30.663520     32.932      8.554   253.8966     3.9678     1.6064     0.0218      0.024      0.183      0.266        275 3.0356e+02   997.8856 0.0000e+00
      0.203    21.5533     9.4323    106.834  30.630417     32.873      8.554   253.7452     3.9487     1.6208     0.0218      0.033      0.199      0.288        276 2.9612e+02   997.8859 0.0000e+00
      0.217    21.5393     9.4331    106.824  30.619396     32.877      8.546   254.0102     3.9487     1.5199     0.0218      0.043      0.211      0.305        277 2.9624e+02   997.8872 0.0000e+00
      0.223    21.5343     9.4428    106.920  30.617984     32.885      8.532   253.8588     3.9716     1.5776     0.0218      0.048      0.217      0.314        278 3.0159e+02   997.8898 0.0000e+00
      0.222    21.5357     9.4562    107.063  30.632178     32.895      8.527   253.8588     4.0250     1.5199     0.0218      0.048      0.219      0.318        279 3.0632e+02   997.8930 0.0000e+00
      0.225    21.5327     9.4759    107.280  30.660990     32.959      8.534   253.7074     3.9945     1.5776     0.0218      0.044      0.223      0.323        280 3.0905e+02   997.8941 0.0000e+00
      0.234    21.5295     9.4908    107.427  30.641384     32.897      8.542   253.8588     4.0021     1.7073     0.0218      0.038      0.232      0.336        281 3.1108e+02   997.8938 0.0000e+00
      0.249    21.5282     9.4961    107.462  30.597326     32.900      8.547   253.7452     3.9411     1.5487     0.0218      0.033      0.248      0.359        282 3.1149e+02   997.8946 0.0000e+00
      0.274    21.5219     9.4962    107.451  30.597317     32.842      8.552   253.8209     3.9411     1.5199     0.0218      0.034      0.269      0.391        283 3.0557e+02   997.8954 0.0000e+00
      0.300    21.5100     9.5040    107.527  30.641397     32.963      8.546   253.9724     3.9335     1.6641     0.0218      0.041      0.293      0.425        284 3.0292e+02   997.8959 0.0000e+00
      0.322    21.5001     9.5029    107.510  30.601722     32.847      8.537   254.2374     3.9487     1.6352     0.0218      0.051      0.315      0.456        285 2.9775e+02   997.8973 0.0000e+00
      0.340    21.4906     9.4983    107.449  30.646695     32.976      8.529   254.0481     4.0059     1.5055     0.0218      0.063      0.334      0.484        286 2.9192e+02   997.9001 0.0000e+00
      0.358    21.4814     9.4878    107.331  30.644686     32.923      8.523   254.3131     4.0097     1.5343     0.0218      0.073      0.351      0.509        287 2.8439e+02   997.9024 0.0000e+00
      0.376    21.4749     9.4813    107.245  30.604225     32.930      8.522   254.6159     3.9945     1.5487     0.0218      0.079      0.367      0.533        288 2.7593e+02   997.9044 0.0000e+00
      0.389    21.4708     9.4726    107.130  30.637799     32.936      8.520   254.6538     4.0136     1.5487     0.0218      0.079      0.382      0.554        289 2.7048e+02   997.9066 0.0000e+00
      0.403    21.4675     9.4554    106.915  30.662160     33.001      8.527   254.5402     4.0632     1.6208     0.0218      0.075      0.394      0.572        290 2.6574e+02   997.9081 0.0000e+00
      0.414    21.4570     9.4396    106.716  30.692416     33.004      8.526   254.5402     4.0822     1.5920     0.0218      0.068      0.407      0.591        291 2.6205e+02   997.9091 0.0000e+00
      0.429    21.4457     9.4178    106.455  30.807535     33.156      8.529   254.8431     4.0670     1.5920     0.0219      0.062      0.421      0.611        292 2.5630e+02   997.9100 0.0000e+00
      0.447    21.4391     9.3938    106.179  30.785538     33.134      8.527   255.1459     4.0899     1.4910     0.0219      0.059      0.437      0.634        293 2.5433e+02   997.9123 0.0000e+00
      0.461    21.4342     9.3669    105.861  30.690167     33.022      8.525   255.1081     3.9602     1.8515     0.0218      0.058      0.452      0.656        294 2.5294e+02   997.9148 0.0000e+00
      0.477    21.4307     9.3419    105.566  30.718841     33.086      8.519   254.9566     3.9487     1.7939     0.0219      0.057      0.468      0.679        295 2.4842e+02   997.9164 0.0000e+00
      0.493    21.4281     9.3023    105.113  30.690605     33.030      8.514   255.3352     3.9335     1.7650     0.0218      0.058      0.483      0.700        296 2.4765e+02   997.9176 0.0000e+00
      0.506    21.4270     9.2701    104.749  30.666056     33.032      8.514   255.5245     3.9411     1.8083     0.0218      0.058      0.498      0.723        297 2.4346e+02   997.9183 0.0000e+00
      0.528    21.4216     9.2428    104.441  30.630887     32.974      8.516   256.0166     3.9830     1.6497     0.0218      0.061      0.516      0.748        298 2.3799e+02   997.9190 0.0000e+00
      0.544    21.4130     9.2163    104.148  30.675121     33.034      8.510   255.7516     3.7046     1.7650     0.0218      0.063      0.532      0.771        299 2.3630e+02   997.9193 0.0000e+00
      0.556    21.4041     9.2005    103.986  30.670262     33.039      8.507   255.9409     3.6893     1.8948     0.0218      0.063      0.545      0.791        300 2.3176e+02   997.9206 0.0000e+00
      0.569    21.3936     9.1823    103.795  30.577685     32.924      8.504   255.8274     3.7046     1.7650     0.0218      0.061      0.557      0.809        301 2.2876e+02   997.9226 0.0000e+00
      0.581    21.3870     9.1702    103.661  30.553326     32.931      8.504   256.4331     3.7046     1.8371     0.0218      0.060      0.569      0.825        302 2.2537e+02   997.9246 0.0000e+00
      0.590    21.3841     9.1728    103.674  30.522824     32.878      8.503   256.3195     3.5901     1.8371     0.0218      0.057      0.579      0.839        303 2.2145e+02   997.9269 0.0000e+00
      0.600    21.3780     9.1909    103.859  30.556395     32.943      8.503   256.7738     3.5939     1.7073     0.0218      0.053      0.589      0.854        304 2.1764e+02   997.9284 0.0000e+00
      0.612    21.3720     9.2012    103.955  30.511548     32.884      8.507   256.4331     3.6054     1.7650     0.0218      0.050      0.600      0.870        305 2.1426e+02   997.9291 0.0000e+00
      0.622    21.3692     9.2026    103.942  30.460133     32.829      8.508   257.0766     3.5787     1.7506     0.0217      0.045      0.610      0.885        306 2.1112e+02   997.9304 0.0000e+00
      0.633    21.3688     9.1986    103.868  30.501879     32.893      8.509   256.8874     3.6969     1.7650     0.0218      0.043      0.621      0.901        307 2.0658e+02   997.9318 0.0000e+00
      0.646    21.3694     9.1833    103.679  30.518850     32.896      8.509   257.0388     3.7008     1.9092     0.0218      0.043      0.634      0.919        308 2.0346e+02   997.9326 0.0000e+00
      0.659    21.3727     9.1595    103.401  30.498265     32.896      8.511   257.3038     3.7122     1.7362     0.0218      0.044      0.646      0.937        309 1.9959e+02   997.9328 0.0000e+00
      0.671    21.3804     9.1369    103.142  30.468245     32.835      8.511   257.5309     3.6855     1.7362     0.0217      0.045      0.658      0.954        310 1.9614e+02   997.9326 0.0000e+00
      0.682    21.3880     9.1041    102.767  30.556209     32.953      8.510   257.8717     3.6855     2.0102     0.0218      0.046      0.668      0.969        311 1.9376e+02   997.9320 0.0000e+00
      0.691    21.3892     9.0720    102.403  30.566550     32.948      8.510   257.4552     3.6969     1.9957     0.0218      0.046      0.678      0.984        312 1.9037e+02   997.9302 0.0000e+00
      0.702    21.3815     9.0494    102.135  30.514627     32.882      8.509   257.3795     3.7046     1.9669     0.0218      0.045      0.689      1.000        313 1.8684e+02   997.9286 0.0000e+00
      0.714    21.3717     9.0320    101.909  30.502320     32.881      8.511   257.4931     3.7122     2.0534     0.0218      0.045      0.700      1.016        314 1.8249e+02   997.9285 0.0000e+00
      0.726    21.3614     9.0199    101.718  30.404109     32.766      8.509   257.3795     3.7999     2.0390     0.0217      0.045      0.713      1.034        315 1.7717e+02   997.9301 0.0000e+00
      0.742    21.3468     9.0076    101.489  30.340592     32.713      8.507   257.4931     3.8152     2.0678     0.0217      0.045      0.727      1.054        316 1.7208e+02   997.9323 0.0000e+00
      0.755    21.3332     8.9920    101.229  30.403612     32.780      8.506   257.7202     3.8190     2.0102     0.0217      0.046      0.739      1.072        317 1.6698e+02   997.9347 0.0000e+00
      0.765    21.3248     8.9574    100.792  30.444190     32.851      8.504   257.6824     3.8266     2.0823     0.0217      0.047      0.748      1.085        318 1.6299e+02   997.9380 0.0000e+00
      0.769    21.3204     8.9134    100.303  30.408605     32.801      8.498   257.5688     3.8037     2.0534     0.0217      0.046      0.754      1.094        319 1.5881e+02   997.9410 0.0000e+00
      0.774    21.3182     8.8645     99.800  30.388651     32.806      8.497   258.1745     4.0632     2.0534     0.0217      0.043      0.761      1.104        320 1.5436e+02   997.9428 0.0000e+00
      0.785    21.3162     8.8357     99.512  30.409774     32.810      8.497   258.0988     4.0784     2.0534     0.0217      0.041      0.771      1.119        321 1.5054e+02   997.9439 0.0000e+00
      0.801    21.3147     8.8265     99.426  30.382321     32.811      8.499   258.3259     4.0860     2.0678     0.0217      0.039      0.786      1.141        322 1.4718e+02   997.9445 0.0000e+00
      0.820    21.3084     8.8401     99.574  30.363567     32.752      8.497   258.7424     4.0593     2.0102     0.0217      0.041      0.805      1.168        323 1.4475e+02   997.9450 0.0000e+00
      0.840    21.2939     8.8707     99.884  30.373861     32.813      8.498   258.6667     4.1318     1.9381     0.0217      0.044      0.826      1.198        324 1.4208e+02   997.9453 0.0000e+00
      0.867    21.2656     8.9018    100.207  30.280632     32.667      8.493   259.1209     4.1089     1.9525     0.0217      0.053      0.854      1.238        325 1.3728e+02   997.9468 0.0000e+00
      0.906    21.2207     8.9306    100.533  30.183335     32.617      8.488   259.6131     4.1471     2.0823     0.0216      0.067      0.888      1.288        326 1.3093e+02   997.9502 0.0000e+00
      0.945    21.1783     8.9471    100.730  30.169071     32.576      8.476   259.4995     4.1204     2.1111     0.0216      0.085      0.919      1.333        327 1.2797e+02   997.9566 0.0000e+00
      0.960    21.1543     8.9490    100.765  30.239145     32.730      8.470   259.3859     3.9487     2.0823     0.0217      0.097      0.936      1.358        328 1.2644e+02   997.9665 0.0000e+00
      0.960    21.1570     8.9410    100.667  30.214648     32.699      8.469   259.7267     3.9678     2.0678     0.0216      0.098      0.938      1.361        329 1.2561e+02   997.9758 0.0000e+00
      0.952    21.1804     8.9248    100.474  30.229199     32.746      8.474   259.9917     3.9335     2.0102     0.0216      0.088      0.933      1.354        330 1.2704e+02   997.9810 0.0000e+00
      0.945    21.1998     8.9080    100.281  30.250672     32.775      8.477   260.2945     3.9716     2.0823     0.0217      0.070      0.928      1.347        331 1.2566e+02   997.9804 0.0000e+00
      0.944    21.2089     8.9010    100.202  30.217550     32.697      8.479   260.3324     3.8915     1.7794     0.0216      0.049      0.928      1.347        332 1.2326e+02   997.9752 0.0000e+00
      0.951    21.2061     8.8959    100.154  30.240785     32.744      8.480   260.7867     3.8686     1.7362     0.0217      0.029      0.937      1.358        333 1.2025e+02   997.9710 0.0000e+00
      0.971    21.1884     8.8949    100.154  30.221750     32.677      8.477   261.0138     3.8800     1.8371     0.0216      0.015      0.952      1.381        334 1.1683e+02   997.9691 0.0000e+00
      0.990    21.1751     8.8993    100.209  30.181985     32.679      8.473   261.0895     3.8686     1.8660     0.0216      0.012      0.969      1.405        335 1.1529e+02   997.9698 0.0000e+00
      1.001    21.1753     8.9055    100.247  30.171771     32.631      8.466   261.0517     3.6779     1.6785     0.0216      0.020      0.981      1.423        336 1.1242e+02   997.9737 0.0000e+00
      1.012    21.1814     8.9132    100.309  30.204839     32.732      8.465   261.2409     3.7275     1.7939     0.0216      0.031      0.991      1.437        337 1.1168e+02   997.9767 0.0000e+00
      1.018    21.1872     8.9214    100.400  30.170461     32.640      8.464   261.6195     3.6969     1.7650     0.0216      0.040      0.998      1.446        338 1.1130e+02   997.9767 0.0000e+00
      1.022    21.1844     8.9307    100.512  30.184930     32.697      8.466   261.4302     3.6893     1.7650     0.0216      0.044      1.004      1.455        339 1.0902e+02   997.9753 0.0000e+00
      1.031    21.1788     8.9357    100.545  30.216459     32.692      8.462   261.3924     3.6969     1.7939     0.0216      0.044      1.010      1.465        340 1.0866e+02   997.9741 0.0000e+00
      1.037    21.1764     8.9357    100.475  30.190473     32.695      8.461   261.8845     3.4948     2.0102     0.0216      0.040      1.015      1.473        341 1.0799e+02   997.9747 0.0000e+00
      1.038    21.1768     8.9298    100.354  30.217268     32.699      8.462   262.1117     3.4909     2.0534     0.0216      0.031      1.017      1.475        342 1.0826e+02   997.9759 0.0000e+00
      1.035    21.1811     8.9159    100.160  30.212740     32.730      8.461   262.0738     3.4986     1.9381     0.0216      0.023      1.016      1.473        343 1.1130e+02   997.9765 0.0000e+00
      1.033    21.1879     8.8792     99.716  30.166484     32.640      8.461   261.9224     3.5100     2.0534     0.0216      0.016      1.016      1.474        344 1.1246e+02   997.9764 0.0000e+00
      1.040    21.1886     8.8301     99.153  30.185957     32.697      8.461   261.8467     3.5825     1.8660     0.0216      0.012      1.023      1.484        345 1.1198e+02   997.9755 0.0000e+00
      1.058    21.1742     8.7791     98.570  30.218131     32.692      8.461   261.6952     3.5825     1.8371     0.0216      0.014      1.037      1.505        346 1.1249e+02   997.9741 0.0000e+00
      1.076    21.1615     8.7059     97.723  30.244945     32.751      8.460   261.6195     3.5672     1.6497     0.0217      0.019      1.052      1.526        347 1.1306e+02   997.9740 0.0000e+00
      1.084    21.1604     8.6499     97.061  30.271090     32.763      8.459   261.6952     3.5482     1.7506     0.0217      0.024      1.063      1.541        348 1.1427e+02   997.9772 0.0000e+00
      1.090    21.1638     8.5917     96.366  30.215224     32.741      8.453   261.8467     3.6626     1.8083     0.0216      0.030      1.073      1.556        349 1.1462e+02   997.9800 0.0000e+00
      1.109    21.1514     8.5231     95.561  30.225598     32.712      8.454   262.2631     3.6283     1.8083     0.0216      0.038      1.090      1.581        350 1.1232e+02   997.9804 0.0000e+00
      1.138    21.1172     8.4473     94.693  30.228555     32.770      8.453   262.1495     3.6473     1.7794     0.0217      0.050      1.113      1.615        351 1.1103e+02   997.9797 0.0000e+00
      1.157    21.0887     8.3502     93.598  30.181917     32.657      8.452   262.2252     3.6473     1.7506     0.0216      0.059      1.135      1.645        352 1.1076e+02   997.9825 0.0000e+00
      1.175    21.0694     8.2427     92.391  30.105890     32.682      8.450   262.2631     3.5672     1.8660     0.0216      0.065      1.155      1.675        353 1.0835e+02   997.9900 0.0000e+00
      1.203    21.0536     8.1343     91.170  29.819551     32.308      8.450   262.5281     3.6016     1.7650     0.0214      0.070      1.179      1.709        354 1.0678e+02   997.9963 0.0000e+00
      1.225    21.0472     8.0389     90.084  29.708766     32.261      8.448   262.6038     3.5978     1.7794     0.0214      0.077      1.203      1.744        355 1.0580e+02   998.0006 0.0000e+00
      1.250    21.0416     7.9577     89.163  29.769765     32.303      8.450   263.2474     3.5978     1.7506     0.0214      0.085      1.228      1.780        356 1.0367e+02   998.0041 0.0000e+00
      1.279    21.0290     7.9114     88.635  29.595521     32.155      8.449   263.2852     2.8844     1.7939     0.0214      0.092      1.258      1.824        357 1.0155e+02   998.0056 0.0000e+00
      1.317    21.0113     7.8848     88.316  29.333119     31.826      8.450   263.8152     2.9225     1.8371     0.0212      0.098      1.295      1.879        358 9.8513e+01   998.0069 0.0000e+00
      1.368    20.9892     7.8785     88.208  29.296457     31.835      8.442   263.9667     2.9454     1.8948     0.0212      0.108      1.337      1.940        359 9.5415e+01   998.0097 0.0000e+00
      1.406    20.9701     7.8865     88.272  29.315282     31.847      8.444   264.0424     2.9264     1.7218     0.0212      0.121      1.372      1.990        360 9.4890e+01   998.0137 0.0000e+00
      1.422    20.9603     7.9274     88.716  29.309701     31.862      8.441   263.9288     2.8920     1.6785     0.0212      0.127      1.393      2.020        361 9.4824e+01   998.0186 0.0000e+00
      1.434    20.9566     7.9915     89.416  29.333036     31.906      8.440   264.1938     2.6288     2.0534     0.0212      0.125      1.407      2.040        362 9.4608e+01   998.0229 0.0000e+00
      1.447    20.9557     8.0894     90.463  29.315873     31.882      8.439   264.1181     2.6670     2.1111     0.0212      0.119      1.419      2.058        363 9.4748e+01   998.0251 0.0000e+00
      1.459    20.9515     8.1895     91.505  29.301440     31.885      8.438   264.6102     2.7051     2.0534     0.0212      0.107      1.433      2.078        364 9.3942e+01   998.0259 0.0000e+00
      1.477    20.9433     8.2844     92.497  29.262126     31.825      8.436   264.8374     2.6898     2.0678     0.0212      0.092      1.448      2.100        365 9.3417e+01   998.0262 0.0000e+00
      1.492    20.9364     8.3646     93.336  29.246301     31.827      8.438   264.6481     2.6364     1.7939     0.0212      0.076      1.463      2.122        366 9.2999e+01   998.0271 0.0000e+00
      1.507    20.9313     8.4238     93.950  29.261888     31.833      8.433   264.6860     2.6822     1.8804     0.0212      0.062      1.480      2.146        367 9.2587e+01   998.0290 0.0000e+00
      1.529    20.9188     8.4588     94.290  29.331605     31.929      8.434   265.7460     2.6593     1.7362     0.0212      0.059      1.504      2.181        368 9.0175e+01   998.0306 0.0000e+00
      1.568    20.8976     8.4684     94.364  29.248416     31.842      8.425   265.4431     2.6631     1.7506     0.0212      0.067      1.534      2.225        369 8.7968e+01   998.0318 0.0000e+00
      1.594    20.8824     8.4634     94.289  29.098801     31.668      8.423   265.5188     2.4610     1.7794     0.0211      0.077      1.560      2.263        370 8.7441e+01   998.0346 0.0000e+00
      1.610    20.8744     8.4541     94.154  29.132688     31.744      8.421   265.7081     2.4381     1.7939     0.0212      0.083      1.578      2.289        371 8.6598e+01   998.0393 0.0000e+00
      1.624    20.8639     8.4476     94.024  29.147002     31.754      8.421   265.7838     2.4648     1.8227     0.0212      0.086      1.595      2.313        372 8.5859e+01   998.0426 0.0000e+00
      1.646    20.8370     8.4381     93.859  29.021746     31.638      8.422   266.2381     2.4381     1.8371     0.0211      0.088      1.618      2.346        373 8.3729e+01   998.0444 0.0000e+00
      1.681    20.7948     8.4324     93.738  28.992331     31.584      8.418   266.1624     2.0909     1.7794     0.0211      0.092      1.648      2.391        374 8.1906e+01   998.0467 0.0000e+00
      1.715    20.7562     8.4248     93.619  28.976247     31.633      8.415   266.0867     2.1291     1.8227     0.0211      0.096      1.680      2.437        375 8.0074e+01   998.0527 0.0000e+00
      1.746    20.7265     8.4096     93.427  28.745538     31.358      8.415   266.3138     2.1481     1.7650     0.0210      0.099      1.711      2.482        376 7.8357e+01   998.0619 0.0000e+00
      1.775    20.7001     8.4063     93.368  28.598116     31.262      8.412   266.3895     2.1291     1.8371     0.0209      0.101      1.742      2.527        377 7.6548e+01   998.0703 0.0000e+00
      1.812    20.6742     8.4007     93.291  28.508008     31.160      8.408   266.6167     2.1825     1.7794     0.0209      0.110      1.775      2.575        378 7.4059e+01   998.0767 0.0000e+00
      1.843    20.6559     8.3952     93.238  28.442962     31.117      8.405   266.4274     2.1863     1.8371     0.0208      0.119      1.803      2.615        379 7.3639e+01   998.0825 0.0000e+00
      1.858    20.6454     8.3998     93.291  28.501335     31.196      8.402   266.5788     2.2016     1.8660     0.0209      0.121      1.825      2.647        380 7.2791e+01   998.0881 0.0000e+00
      1.883    20.6275     8.4026     93.321  28.464996     31.178      8.405   267.0331     2.1939     1.7650     0.0208      0.118      1.850      2.684        381 7.0873e+01   998.0921 0.0000e+00
      1.920    20.5974     8.4223     93.547  28.369701     31.063      8.407   266.8817     2.1977     1.7362     0.0208      0.115      1.879      2.726        382 6.9558e+01   998.0945 0.0000e+00
      1.944    20.5645     8.4453     93.793  28.294081     31.013      8.406   266.6924     2.1672     1.8227     0.0208      0.111      1.903      2.761        383 6.9129e+01   998.0984 0.0000e+00
      1.957    20.5349     8.4692     94.056  28.262882     30.973      8.409   266.5410     2.1672     1.7218     0.0207      0.105      1.923      2.789        384 6.8387e+01   998.1048 0.0000e+00
      1.982    20.5154     8.4859     94.233  28.290048     31.056      8.408   266.8060     2.1596     1.8371     0.0208      0.100      1.945      2.822        385 6.6655e+01   998.1120 0.0000e+00
      2.012    20.5030     8.4896     94.250  28.319532     31.077      8.409   266.8817     2.2130     1.7939     0.0208      0.096      1.969      2.857        386 6.5874e+01   998.1184 0.0000e+00
      2.029    20.4901     8.4950     94.290  28.344692     31.151      8.407   267.1088     2.1748     1.7650     0.0208      0.094      1.988      2.884        387 6.5631e+01   998.1226 0.0000e+00
      2.041    20.4832     8.4938     94.259  28.554976     31.344      8.406   267.2981     2.1520     1.7794     0.0209      0.091      2.004      2.907        388 6.4885e+01   998.1253 0.0000e+00
      2.061    20.4864     8.4871     94.162  29.183537     32.089      8.405   267.0331     2.1748     1.8083     0.0212      0.085      2.022      2.933        389 6.3968e+01   998.1284 0.0000e+00
      2.083    20.4877     8.4765     94.029  29.280638     32.217      8.407   267.3738     2.2168     1.8371     0.0212      0.080      2.040      2.959        390 6.3242e+01   998.1300 0.0000e+00
      2.097    20.4878     8.4690     93.939  29.530223     32.368      8.407   267.5252     2.0451     1.9669     0.0213      0.077      2.055      2.981        391 6.3033e+01   998.1294 0.0000e+00
      2.107    20.4900     8.4649     93.900  29.406172     32.490      8.406   267.7524     2.0604     1.9813     0.0213      0.073      2.071      3.004        392 6.2224e+01   998.1292 0.0000e+00
      2.134    20.4865     8.4795     94.040  29.553516     32.214      8.407   267.8660     2.0680     2.0678     0.0212      0.070      2.094      3.037        393 6.0626e+01   998.1294 0.0000e+00
      2.164    20.4839     8.4966     94.123  30.620769     33.961      8.404   267.7903     2.0528     2.0246     0.0219      0.071      2.119      3.073        394 6.0135e+01   998.1293 0.0000e+00
      2.180    20.4792     8.5120     94.197  30.388780     33.135      8.402   268.1688     1.9612     2.0967     0.0216      0.075      2.141      3.106        395 5.9120e+01   998.1301 0.0000e+00
      2.210    20.4669     8.5145     94.207  30.938362     34.180      8.401   268.2824     1.9154     2.0246     0.0220      0.080      2.165      3.140        396 5.7879e+01   998.1309 0.0000e+00
      2.231    20.4563     8.5248     94.342  31.536663     34.583      8.396   269.4560     1.9307     1.9813     0.0222      0.084      2.185      3.170        397 5.7703e+01   998.1323 0.0000e+00
      2.243    20.4464     8.5380     94.478  31.303303     34.470      8.398   269.2667     1.9498     2.0534     0.0221      0.085      2.202      3.194        398 5.6800e+01   998.1349 0.0000e+00
      2.264    20.4347     8.5488     94.535  31.495425     34.600      8.394   269.3045     1.6827     1.9669     0.0222      0.086      2.218      3.218        399 5.6150e+01   998.1372 0.0000e+00
      2.278    20.4266     8.5617     94.530  31.475340     34.669      8.395   269.9103     1.6751     2.0102     0.0222      0.084      2.233      3.240        400 5.5691e+01   998.1394 0.0000e+00
      2.292    20.4229     8.5692     94.418  31.298674     34.402      8.390   270.5160     1.6904     1.9669     0.0221      0.077      2.246      3.258        401 5.5049e+01   998.1419 0.0000e+00
      2.301    20.4261     8.5671     94.222  31.330130     34.500      8.393   270.2131     1.6866     2.0102     0.0221      0.069      2.259      3.276        402 5.4760e+01   998.1436 0.0000e+00
      2.317    20.4123     8.5743     94.079  31.406570     34.564      8.390   269.9860     1.7094     2.0823     0.0222      0.064      2.278      3.304        403 5.3290e+01   998.1445 0.0000e+00
      2.351    20.3578     8.5912     93.835  31.707216     34.869      8.387   269.6453     1.5683     2.1976     0.0223      0.063      2.302      3.339        404 5.2036e+01   998.1440 0.0000e+00
      2.373    20.3053     8.6277     93.908  32.259615     35.555      8.384   270.2888     1.5759     2.2409     0.0226      0.067      2.322      3.368        405 5.1898e+01   998.1474 0.0000e+00
      2.380    20.2959     8.7207     94.804  32.259794     35.538      8.386   270.4403     1.5607     2.2265     0.0225      0.068      2.332      3.382        406 5.1666e+01   998.1588 0.0000e+00
      2.381    20.3060     8.8843     96.604  32.062549     35.394      8.388   270.2510     1.5912     2.2553     0.0225      0.064      2.337      3.389        407 5.1605e+01   998.1697 0.0000e+00
      2.386    20.3017     9.0958     98.612  32.060673     35.371      8.387   270.7053     1.5149     2.8609     0.0225      0.060      2.347      3.404        408 5.1011e+01   998.1718 0.0000e+00
      2.413    20.2667     9.3337    100.175  32.232507     35.577      8.385   271.5760     1.5111     2.8898     0.0225      0.059      2.373      3.440        409 4.9240e+01   998.1698 0.0000e+00
      2.458    20.1897     9.4642    100.627  32.470906     35.828      8.384   271.9167     1.5035     2.8465     0.0227      0.065      2.408      3.491        410 4.7858e+01   998.1709 0.0000e+00
      2.492    20.0841     9.4572     99.761  32.504712     35.916      8.379   271.5381     1.5035     2.9186     0.0227      0.072      2.441      3.540        411 4.7207e+01   998.1785 0.0000e+00
      2.517    19.9946     9.2271     96.679  32.308968     35.731      8.378   271.6895     1.4996     3.3368     0.0226      0.079      2.469      3.580        412 4.6283e+01   998.1945 0.0000e+00
      2.545    19.8690     8.6863     90.560  31.884935     35.381      8.378   271.5003     1.5187     3.3512     0.0224      0.091      2.495      3.619        413 4.5512e+01   998.2165 0.0000e+00
      2.570    19.6490     7.9726     82.866  31.432524     34.895      8.376   271.8410     1.5035     3.2791     0.0222      0.104      2.520      3.656        414 4.4663e+01   998.2350 0.0000e+00
      2.597    19.4736     7.1848     74.638  31.123982     34.707      8.375   272.0303     1.4958     3.3800     0.0221      0.114      2.544      3.690        415 4.3841e+01   998.2608 0.0000e+00
      2.616    19.4115     6.4181     66.734  31.083869     34.760      8.377   272.3331     1.3127     3.6108     0.0220      0.114      2.564      3.719        416 4.3422e+01   998.3058 0.0000e+00
      2.630    19.4243     5.7164     59.547  31.245506     35.178      8.375   271.8788     1.3318     3.5819     0.0221      0.105      2.584      3.749        417 4.2840e+01   998.3414 0.0000e+00
      2.661    19.2607     5.1536     53.814  31.456188     35.352      8.376   272.7496     1.2822     3.4377     0.0222      0.097      2.617      3.797        418 4.1300e+01   998.3539 0.0000e+00
      2.717    18.7833     4.7528     49.764  31.740166     35.783      8.375   272.6360     1.3470     3.5531     0.0224      0.101      2.666      3.867        419 3.9311e+01   998.3518 0.0000e+00
      2.776    18.3107     4.6055     48.231  31.929095     35.997      8.381   273.2796     1.2898     3.8992     0.0224      0.116      2.718      3.942        420 3.7809e+01   998.3847 0.0000e+00
      2.821    17.9305     4.6448     48.603  32.198886     36.823      8.387   273.4688     1.2479     3.8559     0.0226      0.131      2.761      4.005        421 3.6778e+01   998.4786 0.0000e+00
      2.850    17.6017     4.8069     50.221  32.056421     36.989      8.396   273.7338     1.2898     3.8703     0.0225      0.144      2.792      4.051        422 3.6263e+01   998.5691 0.0000e+00
      2.872    17.3602     5.0203     52.280  31.573280     36.769      8.397   274.1881     1.2593     3.8703     0.0223      0.150      2.817      4.086        423 3.5512e+01   998.6397 0.0000e+00
      2.898    17.2162     5.2106     53.809  31.348534     36.789      8.399   274.6046     1.2669     3.7405     0.0222      0.153      2.840      4.119        424 3.4739e+01   998.6998 0.0000e+00
      2.919    17.1861     5.2955     54.174  31.269645     36.900      8.397   275.5510     1.0609     4.0578     0.0221      0.147      2.859      4.148        425 3.4390e+01   998.7432 0.0000e+00
      2.931    17.2339     5.1725     52.455  31.404909     37.193      8.400   276.1946     1.0800     4.0289     0.0222      0.129      2.874      4.170        426 3.4036e+01   998.7688 0.0000e+00
      2.946    17.3163     4.7421     47.758  31.624677     37.481      8.396   276.3460     1.0762     3.9424     0.0223      0.106      2.889      4.191        427 3.3503e+01   998.7742 0.0000e+00
      2.962    17.4396     3.9933     40.014  31.766490     37.607      8.395   276.2324     1.0876     3.9424     0.0224      0.087      2.907      4.217        428 3.2833e+01   998.7659 0.0000e+00
      2.988    17.5597     2.9388     29.338  31.761715     37.529      8.391   277.3681     1.0457     4.2164     0.0224      0.077      2.931      4.251        429 3.2052e+01   998.7514 0.0000e+00
      3.016    17.5804     1.8617     18.548  31.837982     37.492      8.390   277.6710     1.0152     4.2308     0.0224      0.076      2.956      4.288        430 3.1387e+01   998.7296 0.0000e+00
      3.040    17.5314     0.8613      8.578  31.671529     37.244      8.389   278.0117     1.0381     4.2452     0.0223      0.078      2.982      4.325        431 3.0577e+01   998.7081 0.0000e+00
      3.068    17.4663     0.0245      0.244  31.761422     37.204      8.390   278.5039     1.0381     4.3029     0.0223      0.082      3.007      4.361        432 2.9788e+01   998.7046 0.0000e+00
      3.089    17.2920    -0.6361     -6.333  32.259416     38.026      8.393   278.5417     1.0838     5.5718     0.0227      0.087      3.030      4.394        433 2.9391e+01   998.7136 0.0000e+00
      3.110    16.9058    -1.0034     -9.987  33.896225     39.704      8.393   279.1096     1.0876     5.6439     0.0234      0.092      3.055      4.433        434 2.8372e+01   998.7262 0.0000e+00
      3.151    16.4498    -1.1187    -11.140  36.421191     43.286      8.394   279.1474     1.0876     5.6872     0.0248      0.100      3.090      4.483        435 2.7063e+01   998.7584 0.0000e+00
      3.192    16.0409    -1.0818    -10.788  38.303583     45.467      8.393   280.2831     1.0609     5.6439     0.0256      0.108      3.130      4.540        436 2.6017e+01   998.8267 0.0000e+00
      3.234    15.7096    -0.9113     -9.105  43.112595     52.023      8.390   281.6081     1.0876     5.9756     0.0283      0.116      3.170      4.598        437 2.4908e+01   998.9066 0.0000e+00
      3.273    15.4725    -0.7182     -7.187  51.425438     62.593      8.385   282.4031     1.0762     6.0333     0.0328      0.126      3.206      4.651        438 2.3915e+01   998.9780 0.0000e+00
      3.302    15.2984    -0.5241     -5.251  61.200533     75.148      8.377   282.0624     1.1029     6.0765     0.0382      0.133      3.234      4.690        439 2.3543e+01   999.0358 0.0000e+00
      3.317    15.2057    -0.3434     -3.442  68.443278     84.815      8.371   282.4789     1.0838     6.1919     0.0424      0.133      3.249      4.712        440 2.3472e+01   999.0763 0.0000e+00
      3.320    15.1847 -9.990e-29 -9.990e-29  68.315842     84.764      8.366   285.6967     0.7825     5.8314     0.0424      0.126      3.255      4.722        441 2.3326e+01   999.1036 0.0000e+00
      3.324    15.1827 -9.990e-29 -9.990e-29  65.424630     81.275      8.360   284.5989     0.7825     5.9035     0.0408      0.110      3.259      4.727        442 2.3265e+01   999.1166 0.0000e+00
      3.326    15.1705 -9.990e-29 -9.990e-29  65.215005     81.104      8.354   284.2960     0.7519     5.7593     0.0407      0.086      3.262      4.732        443 2.3207e+01   999.1198 0.0000e+00
      3.331    15.1619 -9.990e-29 -9.990e-29  66.528783     82.814      8.352   284.7124     0.7901     5.8747     0.0414      0.062      3.267      4.739        444 2.2839e+01   999.1207 0.0000e+00
      3.337    15.1837 -9.990e-29 -9.990e-29  65.867160     82.073      8.345   284.7124     0.8816     6.3794     0.0411      0.042      3.273      4.747        445 2.2194e+01   999.1223 0.0000e+00
      3.344    15.2492 -9.990e-29 -9.990e-29  62.477238     77.740      8.341   284.1067     0.9389     6.3505     0.0392      0.028      3.279      4.757        446 2.1756e+01   999.1222 0.0000e+00
      3.350    15.3381 -9.990e-29 -9.990e-29  59.708347     74.219      8.337   282.9332     0.9045     6.2784     0.0376      0.021      3.287      4.767        447 2.0746e+01   999.1176 0.0000e+00
      3.362    15.4124 -9.990e-29 -9.990e-29  57.533051     71.598      8.331   281.1917     0.9045     6.2784     0.0365      0.021      3.297      4.781        448 1.9229e+01   999.1067 0.0000e+00
      3.373    15.4651 -9.990e-29 -9.990e-29  55.393790     68.458      8.325   282.5546     0.8931     6.2928     0.0351      0.025      3.306      4.795        449 1.8698e+01   999.0921 0.0000e+00
      3.378    15.4894 -9.990e-29 -9.990e-29  54.687182     67.813      8.324   282.2517     1.7476    10.1573     0.0348      0.028      3.312      4.803        450 1.8712e+01   999.0802 0.0000e+00
      3.378 -9.990e-29 -9.990e-29 -9.990e-29  55.534899     68.383      8.319   282.5924     1.7552    10.0708     0.0351      0.029      3.313      4.805        451 1.8704e+01   999.0723 0.0000e+00
      3.379 -9.990e-29 -9.990e-29 -9.990e-29  56.474570     70.030      8.315   282.7060     1.7629    10.0997     0.0359      0.026      3.313      4.805        452 1.8793e+01   999.0690 0.0000e+00
