* Sea-Bird SBE19plus  Data File:
* FileName = C:\DATA\061418_bvr50_0005.hex
* Software version 2.6.3.104 SB_Terminal.dll
* Temperature SN = 7809
* Conductivity SN = 7809
* System UpLoad Time = Jun 14 2018 16:25:56
* <ApplicationData>
* <Seaterm232>
* <SoftwareVersion>2.6.3.104</SoftwareVersion>
* <BuildDate>30-Jun-2017</BuildDate>
* </Seaterm232>
* </ApplicationData>
* cast   5 11 Jun 2018 15:04:58 samples 1567 to 2014, avg = 1, stop = mag switch
# nquan = 15
# nvalues = 262                         
# units = specified
# name 0 = depFM: Depth [fresh water, m]
# name 1 = dz/dtM: Descent Rate [m/s]
# name 2 = sbeox0Mg/L: Oxygen, SBE 43 [mg/l]
# name 3 = sbeox0PS: Oxygen, SBE 43 [% saturation]
# name 4 = specc: Specific Conductance [uS/cm]
# name 5 = c0uS/cm: Conductivity [uS/cm]
# name 6 = flECO-AFL: Fluorescence, WET Labs ECO-AFL/FL [mg/m^3]
# name 7 = ph: pH
# name 8 = orp: Oxidation Reduction Potential [mV]
# name 9 = par/sat/log: PAR/Logarithmic, Satlantic
# name 10 = turbWETntu0: Turbidity, WET Labs ECO [NTU]
# name 11 = prdM: Pressure, Strain Gauge [db]
# name 12 = prdE: Pressure, Strain Gauge [psi]
# name 13 = tv290C: Temperature [ITS-90, deg C]
# name 14 = flag:  0.000e+00
# span 0 =     -0.592,      7.390       
# span 1 =     -0.001,      0.300       
# span 2 =     6.6057,     8.8929       
# span 3 =     59.057,     90.701       
# span 4 =      0.765,     43.341       
# span 5 =   0.705586,  31.775032       
# span 6 =    -0.1966,     3.7352       
# span 7 =      6.358,      8.061       
# span 8 =   259.9669,   482.6149       
# span 9 = 3.1176e-01, 3.2709e+02       
# span 10 =    -0.2943,     8.0072      
# span 11 =     -0.581,      7.248      
# span 12 =     -0.843,     10.512      
# span 13 =    10.2859,    24.8582      
# span 14 = 0.0000e+00, 0.0000e+00      
# interval = seconds: 0.25
# start_time = Jun 11 2018 15:04:58 [Instrument's time stamp, header]
# bad_flag = -9.990e-29
# <Sensors count="9" >
#   <sensor Channel="1" >
#     <!-- Count, Temperature -->
#     <TemperatureSensor SensorID="58" >
#       <SerialNumber>7809</SerialNumber>
#       <CalibrationDate>09-Mar-18</CalibrationDate>
#       <A0>1.21093245e-003</A0>
#       <A1>2.84356597e-004</A1>
#       <A2>-1.94507398e-006</A2>
#       <A3>2.12806664e-007</A3>
#       <Slope>1.00000000</Slope>
#       <Offset>0.0000</Offset>
#     </TemperatureSensor>
#   </sensor>
#   <sensor Channel="2" >
#     <!-- Frequency 0, Conductivity -->
#     <ConductivitySensor SensorID="3" >
#       <SerialNumber>7809</SerialNumber>
#       <CalibrationDate>09-Mar-18</CalibrationDate>
#       <UseG_J>1</UseG_J>
#       <!-- Cell const and series R are applicable only for wide range sensors. -->
#       <SeriesR>0.0000</SeriesR>
#       <CellConst>2000.0000</CellConst>
#       <ConductivityType>0</ConductivityType>
#       <Coefficients equation="0" >
#         <A>0.00000000e+000</A>
#         <B>0.00000000e+000</B>
#         <C>0.00000000e+000</C>
#         <D>0.00000000e+000</D>
#         <M>0.0</M>
#         <CPcor>-9.57000000e-008</CPcor>
#       </Coefficients>
#       <Coefficients equation="1" >
#         <G>-1.00672082e+000</G>
#         <H>1.26906489e-001</H>
#         <I>-1.40584351e-004</I>
#         <J>2.47837121e-005</J>
#         <CPcor>-9.57000000e-008</CPcor>
#         <CTcor>3.2500e-006</CTcor>
#         <!-- WBOTC not applicable unless ConductivityType = 1. -->
#         <WBOTC>0.00000000e+000</WBOTC>
#       </Coefficients>
#       <Slope>1.00000000</Slope>
#       <Offset>0.00000</Offset>
#     </ConductivitySensor>
#   </sensor>
#   <sensor Channel="3" >
#     <!-- Count, Pressure, Strain Gauge -->
#     <PressureSensor SensorID="46" >
#       <SerialNumber>7809</SerialNumber>
#       <CalibrationDate>07-Mar-18</CalibrationDate>
#       <PA0>-4.08176359e-002</PA0>
#       <PA1>4.85188419e-004</PA1>
#       <PA2>-3.51168169e-012</PA2>
#       <PTEMPA0>-5.37806900e+001</PTEMPA0>
#       <PTEMPA1>5.36620721e+001</PTEMPA1>
#       <PTEMPA2>4.87214332e-002</PTEMPA2>
#       <PTCA0>5.25213435e+005</PTCA0>
#       <PTCA1>1.79532409e+000</PTCA1>
#       <PTCA2>-2.84353509e-001</PTCA2>
#       <PTCB0>2.51668750e+001</PTCB0>
#       <PTCB1>3.75000000e-004</PTCB1>
#       <PTCB2>0.00000000e+000</PTCB2>
#       <Offset>0.000000</Offset>
#     </PressureSensor>
#   </sensor>
#   <sensor Channel="4" >
#     <!-- A/D voltage 0, pH -->
#     <pH_Sensor SensorID="43" >
#       <SerialNumber>0363</SerialNumber>
#       <CalibrationDate>16-Mar-18</CalibrationDate>
#       <Slope>4.6194</Slope>
#       <Offset>2.5947</Offset>
#     </pH_Sensor>
#   </sensor>
#   <sensor Channel="5" >
#     <!-- A/D voltage 1, Oxidation Reduction Potential -->
#     <OxidationReductionPotentialSensor SensorID="41" >
#       <SerialNumber>0363</SerialNumber>
#       <CalibrationDate>16-Mar-18</CalibrationDate>
#       <B>2.499480</B>
#       <M>-0.496195</M>
#       <Offset>0.0</Offset>
#     </OxidationReductionPotentialSensor>
#   </sensor>
#   <sensor Channel="6" >
#     <!-- A/D voltage 2, Oxygen, SBE 43 -->
#     <OxygenSensor SensorID="38" >
#       <SerialNumber>0434</SerialNumber>
#       <CalibrationDate>13-Mar-18</CalibrationDate>
#       <Use2007Equation>1</Use2007Equation>
#       <CalibrationCoefficients equation="0" >
#         <!-- Coefficients for Owens-Millard equation. -->
#         <Boc>0.0000</Boc>
#         <Soc>0.0000e+000</Soc>
#         <offset>0.0000</offset>
#         <Pcor>0.00e+000</Pcor>
#         <Tcor>0.0000</Tcor>
#         <Tau>0.0</Tau>
#       </CalibrationCoefficients>
#       <CalibrationCoefficients equation="1" >
#         <!-- Coefficients for Sea-Bird equation - SBE calibration in 2007 and later. -->
#         <Soc>4.5718e-001</Soc>
#         <offset>-0.6113</offset>
#         <A>-4.0649e-003</A>
#         <B> 2.0945e-004</B>
#         <C>-3.3182e-006</C>
#         <D0> 2.5826e+000</D0>
#         <D1> 1.92634e-004</D1>
#         <D2>-4.64803e-002</D2>
#         <E> 3.6000e-002</E>
#         <Tau20> 1.2200</Tau20>
#         <H1>-3.3000e-002</H1>
#         <H2> 5.0000e+003</H2>
#         <H3> 1.4500e+003</H3>
#       </CalibrationCoefficients>
#     </OxygenSensor>
#   </sensor>
#   <sensor Channel="7" >
#     <!-- A/D voltage 3, PAR/Logarithmic, Satlantic -->
#     <PARLog_SatlanticSensor SensorID="76" >
#       <SerialNumber>1122</SerialNumber>
#       <CalibrationDate>22-Jun-2017</CalibrationDate>
#       <a0>9.6090e-001</a0>
#       <a1>8.0780e-001</a1>
#       <Im>1.3589e+000</Im>
#       <Multiplier>1.0000e+000</Multiplier>
#     </PARLog_SatlanticSensor>
#   </sensor>
#   <sensor Channel="8" >
#     <!-- A/D voltage 4, Fluorometer, WET Labs ECO-AFL/FL -->
#     <FluoroWetlabECO_AFL_FL_Sensor SensorID="20" >
#       <SerialNumber>FLNTURT-2496</SerialNumber>
#       <CalibrationDate>25-Jan-2017</CalibrationDate>
#       <ScaleFactor>5.30000000e+001</ScaleFactor>
#       <!-- Dark output -->
#       <Vblank>0.0560</Vblank>
#     </FluoroWetlabECO_AFL_FL_Sensor>
#   </sensor>
#   <sensor Channel="9" >
#     <!-- A/D voltage 5, Turbidity Meter, WET Labs, ECO-NTU -->
#     <TurbidityMeter SensorID="67" >
#       <SerialNumber>FLNTURT-2496</SerialNumber>
#       <CalibrationDate>25-Jan-2017</CalibrationDate>
#       <ScaleFactor>176.000000</ScaleFactor>
#       <!-- Dark output -->
#       <DarkVoltage>0.072000</DarkVoltage>
#     </TurbidityMeter>
#   </sensor>
# </Sensors>
# datcnv_date = Jun 14 2018 16:42:55, 7.26.7.114 [datcnv_vars = 14]
# datcnv_in = C:\DATA\061118_fcr45.hex C:\DATA\SBE19plusV2_7809.xmlcon
# datcnv_skipover = 0
# datcnv_ox_hysteresis_correction = yes
# datcnv_ox_tau_correction = yes
# filter_date = Jun 14 2018 16:44:33, 7.26.7.114
# filter_in = C:\DATA\061118_fcr45.cnv
# filter_low_pass_tc_A = 0.030
# filter_low_pass_tc_B = 0.150
# filter_low_pass_A_vars = prdM prdE tv290C
# filter_low_pass_B_vars = depFM dz/dtM sbeox0Mg/L sbeox0PS specc c0uS/cm flECO-AFL ph orp par/sat/log turbWETntu0
# alignctd_date = Jun 14 2018 16:45:24, 7.26.7.114
# alignctd_in = C:\DATA\061118_fcr45.cnv
# alignctd_adv = dz/dtM 1.000, sbeox0Mg/L 1.000, sbeox0PS 1.000, specc 1.000, c0uS/cm 1.000, flECO-AFL 1.000, ph 1.000, orp 1.000, turbWETntu0 1.000                                                                                 
# file_type = ascii
*END*
     -0.591 -8.201e-21     7.3378     82.514      0.793   0.731584    -0.1755      6.360   261.5845 2.0521e+02    -0.0024     -0.580     -0.841    21.1230 0.0000e+00
     -0.591 -9.021e-20     7.3368     82.504      0.779   0.718787    -0.1830      6.360   261.0404 2.0930e+02     0.0092     -0.580     -0.841    21.1235 0.0000e+00
     -0.591 -9.923e-19     7.3380     82.518      0.765   0.706147    -0.1819      6.360   260.3943 2.1266e+02     0.0072     -0.580     -0.842    21.1238 0.0000e+00
     -0.591 -1.092e-17     7.3406     82.548      0.765   0.705586    -0.1807      6.360   259.9669 2.1272e+02    -0.0563     -0.579     -0.841    21.1240 0.0000e+00
     -0.591 -1.201e-16     7.3393     82.534      0.772   0.712011    -0.1869      6.360   260.0027 2.0996e+02    -0.1492     -0.580     -0.840    21.1242 0.0000e+00
     -0.591 -1.321e-15     7.3366     82.503      0.850   0.783828    -0.1922      6.360   260.5691 2.0436e+02    -0.1998     -0.580     -0.842    21.1246 0.0000e+00
     -0.591 -1.453e-14     7.3347     82.482      1.088   1.003205    -0.1900      6.360   261.7383 1.9398e+02    -0.2108     -0.580     -0.841    21.1251 0.0000e+00
     -0.591 -1.598e-13     7.3332     82.466      1.379   1.271837    -0.1873      6.358   265.1056 1.8789e+02    -0.2215     -0.580     -0.841    21.1253 0.0000e+00
     -0.592 -2.930e-13     7.3329     82.463      1.552   1.431875    -0.1787      6.358   269.5343 1.9256e+02    -0.2067     -0.581     -0.842    21.1255 0.0000e+00
     -0.592 -1.598e-13     7.3339     82.474      1.741   1.606517    -0.1681      6.358   271.2335 1.9524e+02    -0.1841     -0.580     -0.842    21.1257 0.0000e+00
     -0.591 -1.453e-14     7.3356     82.494      2.086   1.924862    -0.1694      6.359   270.5935 1.9099e+02    -0.2236     -0.580     -0.841    21.1261 0.0000e+00
     -0.591 -1.321e-15     7.3363     82.503      2.425   2.237006    -0.1754      6.361   269.3680 1.8547e+02    -0.2569     -0.580     -0.841    21.1264 0.0000e+00
     -0.591 -1.215e-16     7.3352     82.491      2.533   2.336620    -0.1774      6.361   267.4292 1.8259e+02    -0.2200     -0.580     -0.842    21.1265 0.0000e+00
     -0.591 -2.658e-17     7.3336     82.474      2.361   2.178031    -0.1745      6.362   265.1341 1.8385e+02    -0.1749     -0.580     -0.841    21.1269 0.0000e+00
     -0.591 -1.734e-16     7.3334     82.472      2.065   1.904957    -0.1773      6.364   264.0744 1.8662e+02    -0.1684     -0.580     -0.842    21.1273 0.0000e+00
     -0.591 -1.896e-15     7.3336     82.475      1.841   1.698406    -0.1936      6.365   264.7689 1.8797e+02    -0.2027     -0.580     -0.841    21.1275 0.0000e+00
     -0.592 -2.086e-14     7.3321     82.459      1.716   1.583120    -0.1966      6.366   266.1310 1.8864e+02    -0.2541     -0.580     -0.842    21.1277 0.0000e+00
     -0.592 -2.294e-13     7.3305     82.441      1.585   1.462269    -0.1762      6.366   267.7230 1.9024e+02    -0.2716     -0.581     -0.842    21.1283 0.0000e+00
     -0.592 -2.524e-12     7.3310     82.448      1.426   1.315258    -0.1672      6.365   269.6498 1.9219e+02    -0.2614     -0.580     -0.841    21.1284 0.0000e+00
     -0.592 -2.776e-11     7.3338     82.479      1.302   1.200745    -0.1809      6.366   271.2733 1.9356e+02    -0.2229     -0.580     -0.842    21.1286 0.0000e+00
     -0.592 -3.054e-10     7.3380     82.526      1.253   1.155745    -0.1943      6.367   272.2103 1.9322e+02    -0.1722     -0.580     -0.842    21.1291 0.0000e+00
     -0.592 -3.359e-09     7.3410     82.561      1.248   1.151643    -0.1917      6.367   272.8047 1.9341e+02    -0.1976     -0.580     -0.842    21.1295 0.0000e+00
     -0.592 -3.695e-08     7.3429     82.582      1.248   1.151158    -0.1766      6.367   273.5559 1.9680e+02    -0.2554     -0.580     -0.842    21.1298 0.0000e+00
     -0.592 -4.064e-07     7.3458     82.615      1.246   1.149876    -0.1681      6.368   274.9260 2.0034e+02    -0.2308     -0.580     -0.841    21.1302 0.0000e+00
     -0.592     -0.000     7.3481     82.642      1.231   1.136141    -0.1720      6.368   276.2929 2.0010e+02    -0.1433     -0.580     -0.842    21.1304 0.0000e+00
     -0.592     -0.000     7.3477     82.638      1.205   1.111908    -0.1780      6.367   276.7472 1.9798e+02    -0.1136     -0.580     -0.842    21.1304 0.0000e+00
     -0.592     -0.001     7.3452     82.611      1.203   1.110536    -0.1759      6.367   276.8061 1.9793e+02    -0.1759     -0.580     -0.841    21.1310 0.0000e+00
     -0.592     -0.001     7.3431     82.588      1.213   1.119560    -0.1644      6.367   277.3485 1.9878e+02    -0.2252     -0.581     -0.842    21.1314 0.0000e+00
     -0.592     -0.000     7.3432     82.589      1.186   1.094184    -0.1584      6.368   278.2283 1.9813e+02    -0.2527     -0.581     -0.843    21.1314 0.0000e+00
     -0.592 -1.847e-08     7.3444     82.603      1.146   1.057374    -0.1682      6.369   278.9261 1.9781e+02    -0.2937     -0.581     -0.843    21.1316 0.0000e+00
     -0.592 -2.032e-07     7.3454     82.614      1.144   1.054971    -0.1816      6.369   279.2467 2.0036e+02    -0.2943     -0.581     -0.843    21.1319 0.0000e+00
     -0.592 -2.032e-07     7.3462     82.624      1.155   1.065129    -0.1822      6.369   279.4368 2.0571e+02    -0.2899     -0.581     -0.843    21.1321 0.0000e+00
     -0.592 -1.847e-08     7.3464     82.627      1.142   1.053371    -0.1762      6.369   279.9349 2.1271e+02    -0.2723     -0.581     -0.842    21.1325 0.0000e+00
     -0.592 -1.680e-09     7.3458     82.620      1.127   1.039629    -0.1734      6.369   280.6232 2.1996e+02    -0.2339     -0.581     -0.843    21.1328 0.0000e+00
     -0.592 -1.527e-10     7.3448     82.609      1.112   1.025803    -0.1769      6.369   281.1329 2.2515e+02    -0.2524     -0.580     -0.842    21.1331 0.0000e+00
     -0.592 -1.388e-11     7.3429     82.588      1.098   1.013027    -0.1814      6.369   281.6234 2.2676e+02    -0.2522     -0.581     -0.842    21.1333 0.0000e+00
     -0.592 -1.262e-12     7.3402     82.558      1.097   1.011980    -0.1805      6.369   282.4249 2.2500e+02    -0.2313     -0.580     -0.842    21.1335 0.0000e+00
     -0.592 -1.147e-13     7.3373     82.527      1.098   1.013144    -0.1842      6.369   283.2522 2.2215e+02    -0.2740     -0.581     -0.842    21.1338 0.0000e+00
     -0.592 -1.043e-14     7.3358     82.509      1.113   1.027107    -0.1809      6.370   283.8829 2.2192e+02    -0.2804     -0.581     -0.842    21.1340 0.0000e+00
     -0.592 -9.480e-16     7.3359     82.510      1.142   1.053978    -0.1683      6.371   284.5439 2.2428e+02    -0.2166     -0.581     -0.842    21.1343 0.0000e+00
     -0.592 -8.620e-17     7.3362     82.515      1.175   1.084384    -0.1695      6.371   285.1353 2.2555e+02    -0.2046     -0.581     -0.842    21.1344 0.0000e+00
     -0.592 -7.835e-18     7.3360     82.513      1.236   1.141090    -0.1771      6.370   286.0438 2.2425e+02    -0.2270     -0.581     -0.842    21.1347 0.0000e+00
     -0.592 -7.120e-19     7.3347     82.498      1.335   1.232291    -0.1777      6.370   288.3006 2.1737e+02    -0.2127     -0.580     -0.842    21.1350 0.0000e+00
     -0.592 -6.475e-20     7.3338     82.489      1.408   1.299296    -0.1765      6.370   292.8048 2.0313e+02    -0.2145     -0.581     -0.843    21.1353 0.0000e+00
     -0.592 -5.885e-21     7.3343     82.495      1.427   1.317097    -0.1811      6.369   298.4300 1.9121e+02    -0.2189     -0.580     -0.842    21.1357 0.0000e+00
     -0.592 -5.350e-22     7.3353     82.507      1.431   1.320700    -0.1876      6.369   303.2286 1.8815e+02    -0.2053     -0.581     -0.843    21.1358 0.0000e+00
     -0.592 -4.865e-23     7.3358     82.512      1.455   1.342855    -0.1899      6.368   311.0742 1.8860e+02    -0.2027     -0.581     -0.843    21.1359 0.0000e+00
     -0.592 -4.422e-24     7.3344     82.497      1.511   1.394734    -0.1824      6.367   322.2232 1.8822e+02    -0.1866     -0.581     -0.842    21.1361 0.0000e+00
     -0.592 -3.959e-25     7.3331     82.482      1.561   1.440644    -0.1694      6.369   329.0172 1.8702e+02    -0.1945     -0.580     -0.842    21.1365 0.0000e+00
     -0.592 3.0823e-26     7.3321     82.473      1.576   1.454054    -0.1705      6.373   331.6161 1.8627e+02    -0.2369     -0.581     -0.843    21.1368 0.0000e+00
     -0.592 7.3777e-25     7.3311     82.462      1.687   1.556867    -0.1777      6.375   333.2556 1.8543e+02    -0.2409     -0.581     -0.842    21.1369 0.0000e+00
     -0.592 8.1518e-24     7.3299     82.449      2.015   1.859346    -0.1738      6.377   332.5791 1.8441e+02    -0.2131     -0.580     -0.842    21.1372 0.0000e+00
     -0.592 8.9673e-23     7.3281     82.430      2.378   2.194174    -0.1694      6.379   329.8021 1.8430e+02    -0.2057     -0.581     -0.842    21.1374 0.0000e+00
     -0.592 9.8640e-22     7.3271     82.417      2.501   2.307592    -0.1703      6.380   329.6212 1.8535e+02    -0.2126     -0.580     -0.842    21.1377 0.0000e+00
     -0.592 1.0850e-20     7.3281     82.430      2.333   2.152587    -0.1756      6.378   334.3496 1.8915e+02    -0.2352     -0.581     -0.843    21.1381 0.0000e+00
     -0.592 1.1935e-19     7.3303     82.455      2.065   1.905454    -0.1875      6.376   339.9957 1.9529e+02    -0.2657     -0.580     -0.842    21.1384 0.0000e+00
     -0.592 1.3129e-18     7.3322     82.477      1.874   1.729357    -0.1949      6.375   344.6287 1.9897e+02    -0.2453     -0.581     -0.842    21.1386 0.0000e+00
     -0.592 1.4442e-17     7.3336     82.493      1.812   1.672230    -0.1914      6.370   368.6852 1.9809e+02    -0.2019     -0.581     -0.843    21.1389 0.0000e+00
     -0.592 1.5886e-16     7.3340     82.498      1.797   1.658647    -0.1817      6.363   411.8922 1.9396e+02    -0.1991     -0.581     -0.843    21.1392 0.0000e+00
     -0.592 1.7475e-15     7.3336     82.494      1.696   1.565128    -0.1706      6.364   433.6597 1.8996e+02    -0.2118     -0.581     -0.842    21.1394 0.0000e+00
     -0.592 1.9222e-14     7.3334     82.493      1.549   1.429309    -0.1664      6.373   433.6399 1.9222e+02    -0.2325     -0.581     -0.843    21.1398 0.0000e+00
     -0.592 2.1144e-13     7.3344     82.504      1.461   1.348183    -0.1767      6.379   432.9904 1.9793e+02    -0.2664     -0.581     -0.842    21.1401 0.0000e+00
     -0.592 2.3259e-12     7.3354     82.515      1.457   1.345214    -0.1857      6.382   433.2928 1.9873e+02    -0.2251     -0.581     -0.843    21.1406 0.0000e+00
     -0.592 2.5585e-11     7.3359     82.522      1.509   1.393410    -0.1839      6.382   441.7693 1.9391e+02    -0.0994     -0.581     -0.842    21.1409 0.0000e+00
     -0.592 2.8143e-10     7.3365     82.529      1.542   1.423602    -0.1814      6.379   458.6465 1.8673e+02    -0.0275     -0.580     -0.842    21.1412 0.0000e+00
     -0.592 3.0957e-09     7.3368     82.532      1.510   1.393188    -0.1739      6.377   471.3841 1.7852e+02     0.0026     -0.581     -0.842    21.1414 0.0000e+00
     -0.592 3.4053e-08     7.3378     82.545      1.455   1.342751    -0.1666      6.377   477.7327 1.6870e+02     0.0511     -0.581     -0.842    21.1418 0.0000e+00
     -0.592 3.7459e-07     7.3388     82.557      1.432   1.321087    -0.1671      6.379   481.1166 1.5839e+02     0.0391     -0.580     -0.842    21.1418 0.0000e+00
     -0.592      0.000     7.3382     82.550      1.432   1.321497    -0.1707      6.382   482.6149 1.5048e+02    -0.0194     -0.580     -0.842    21.1427 0.0000e+00
     -0.592      0.000     7.3378     82.547      1.460   1.347708    -0.1733      6.385   482.0821 1.4776e+02    -0.0467     -0.580     -0.842    21.1420 0.0000e+00
     -0.592      0.000     7.3372     82.552      1.772   1.638004    -0.1707      6.387   477.9435 1.4980e+02    -0.0462     -0.580     -0.842    21.1439 0.0000e+00
     -0.592      0.005     7.3250     82.542      5.473   5.085091    -0.1671      6.402   457.6131 1.5355e+02    -0.0437     -0.580     -0.841    21.1419 0.0000e+00
     -0.592      0.020     7.2746     82.525     14.435  13.528846    -0.1664      6.498   416.7789 1.5912e+02    -0.0166     -0.580     -0.842    21.1459 0.0000e+00
     -0.592      0.044     7.1787     82.512     24.198  22.966718    -0.1719      6.747   380.6901 1.6777e+02     0.0372     -0.579     -0.841    21.1401 0.0000e+00
     -0.589      0.070     7.0781     82.511     30.313  29.143162    -0.1782      7.114   350.2808 1.8006e+02     0.1489     -0.581     -0.843    21.1505 0.0000e+00
     -0.571      0.096     7.0074     82.520     32.264  31.324018    -0.1780      7.500   320.8144 1.9594e+02     0.3272     -0.573     -0.830    21.1346 0.0000e+00
     -0.531      0.122     6.9634     82.536     32.279  31.556663    -0.1785      7.812   311.3549 2.1074e+02     0.4225     -0.523     -0.758    21.4031 0.0000e+00
     -0.483      0.147     6.9311     82.550     32.194  31.638811    -0.1751      7.996   315.4935 2.2330e+02     0.4471     -0.467     -0.677    22.2571 0.0000e+00
     -0.443      0.166     6.9026     82.549     32.094  31.682410    -0.1279      8.061   312.2614 2.4718e+02     0.6245     -0.433     -0.629    23.1002 0.0000e+00
     -0.405      0.174     6.8817     82.563     32.003  31.702975     0.2907      8.046   298.9476 2.8047e+02     2.5356     -0.401     -0.582    23.5977 0.0000e+00
     -0.359      0.174     6.8722     82.627     31.923  31.697089     1.0450      7.988   286.7599 3.0160e+02     6.0685     -0.356     -0.515    23.8999 0.0000e+00
     -0.306      0.179     6.8716     82.734     31.853  31.674849     1.4564      7.920   280.8823 3.1169e+02     8.0001     -0.298     -0.432    24.1370 0.0000e+00
     -0.257      0.198     6.8768     82.878     31.768  31.624671     1.4879      7.848   278.2144 3.2107e+02     8.0072     -0.246     -0.358    24.3734 0.0000e+00
     -0.220      0.223     6.8890     83.088     31.652  31.535003     1.4991      7.773   277.1313 3.2709e+02     6.1852     -0.216     -0.313    24.5469 0.0000e+00
     -0.180      0.247     6.9126     83.413     31.579  31.479834     1.5281      7.701   276.9925 3.1614e+02     2.8467     -0.189     -0.275    24.6559 0.0000e+00
     -0.111      0.265     6.9557     83.938     31.563  31.465734     1.5443      7.635   277.1387 2.6279e+02     1.0279     -0.120     -0.174    24.7204 0.0000e+00
     -0.016      0.276     7.0250     84.707     31.552  31.428033     1.5475      7.577   277.4362 1.9204e+02     0.8883     -0.013     -0.018    24.7721 0.0000e+00
      0.077      0.281     7.1143     85.662     31.578  31.405002     1.5661      7.529   278.6117 1.5402e+02     0.9140      0.080      0.116    24.8156 0.0000e+00
      0.154      0.281     7.2180     86.813     31.653  31.441216     1.5950      7.490   280.0787 1.3915e+02     0.9116      0.159      0.230    24.8425 0.0000e+00
      0.210      0.272     7.3349     88.192     31.708  31.484776     1.6126      7.458   281.0640 1.2954e+02     0.8903      0.212      0.307    24.8582 0.0000e+00
      0.259      0.263     7.4471     89.556     31.705  31.487108     1.6230      7.434   281.7487 1.1888e+02     0.8696      0.245      0.355    24.8163 0.0000e+00
      0.322      0.260     7.5229     90.481     31.682  31.469420     1.6370      7.417   282.2487 1.0657e+02     0.8752      0.310      0.450    24.7114 0.0000e+00
      0.397      0.263     7.5414     90.701     31.674  31.461450     1.6628      7.404   282.8070 9.9670e+01     0.8971      0.393      0.569    24.6391 0.0000e+00
      0.472      0.268     7.5058     90.266     31.670  31.454246     1.6779      7.394   283.7667 9.4646e+01     0.8589      0.464      0.673    24.6334 0.0000e+00
      0.543      0.271     7.4301     89.346     31.665  31.445820     1.6722      7.382   284.7321 8.9947e+01     0.8100      0.533      0.772    24.6541 0.0000e+00
      0.613      0.268     7.3249     88.070     31.646  31.423080     1.7045      7.371   285.3599 8.6782e+01     0.8253      0.604      0.875    24.6639 0.0000e+00
      0.678      0.262     7.2090     86.671     31.595  31.369807     1.7743      7.363   285.8508 8.4406e+01     0.8609      0.668      0.968    24.6580 0.0000e+00
      0.740      0.257     7.1079     85.456     31.535  31.309772     1.8085      7.357   286.1082 8.1551e+01     0.8743      0.724      1.050    24.6533 0.0000e+00
      0.805      0.248     7.0280     84.496     31.494  31.268764     1.8055      7.354   286.0624 7.8027e+01     0.8649      0.789      1.144    24.6494 0.0000e+00
      0.872      0.233     6.9610     83.686     31.481  31.255032     1.8026      7.356   285.9849 7.4651e+01     0.8692      0.857      1.243    24.6396 0.0000e+00
      0.936      0.211     6.8988     82.930     31.500  31.270752     1.8380      7.361   286.1184 7.1836e+01     0.8954      0.919      1.334    24.6359 0.0000e+00
      0.996      0.183     6.8361     82.160     31.569  31.331822     1.9112      7.366   286.6441 6.9625e+01     0.8770      0.980      1.421    24.6388 0.0000e+00
      1.043      0.157     6.7750     81.390     31.674  31.421836     1.9529      7.364   287.6948 6.8286e+01     0.8305      1.031      1.495    24.6386 0.0000e+00
      1.071      0.141     6.7241     80.711     31.751  31.469962     1.9555      7.353   289.0134 6.7686e+01     0.8517      1.056      1.531    24.6365 0.0000e+00
      1.086      0.139     6.6821     80.113     31.791  31.469109     1.9525      7.338   290.2832 6.7162e+01     0.9192      1.063      1.542    24.6310 0.0000e+00
      1.104      0.153     6.6429     79.536     31.844  31.474960     1.9530      7.322   291.6048 6.6110e+01     0.9443      1.075      1.560    24.6228 0.0000e+00
      1.139      0.179     6.6137     79.059     31.903  31.477137     1.9516      7.308   292.6029 6.3970e+01     0.9118      1.109      1.607    24.6049 0.0000e+00
      1.194      0.210     6.6057     78.804     31.927  31.431836     1.9452      7.298   293.1449 6.0819e+01     0.8611      1.167      1.692    24.5587 0.0000e+00
      1.264      0.238     6.6141     78.741     32.003  31.435191     2.0227      7.290   293.8565 5.7344e+01     0.8506      1.237      1.795    24.4887 0.0000e+00
      1.339      0.257     6.6288     78.766     32.218  31.581106     2.1810      7.282   294.4951 5.3996e+01     0.8767      1.311      1.901    24.4199 0.0000e+00
      1.414      0.265     6.6502     78.867     32.443  31.735284     2.2606      7.276   294.9303 5.1244e+01     0.8712      1.391      2.017    24.3383 0.0000e+00
      1.481      0.264     6.6819     79.061     32.566  31.775032     2.2586      7.274   295.5052 4.9242e+01     0.8455      1.457      2.114    24.2192 0.0000e+00
      1.541      0.257     6.7233     79.299     32.646  31.744031     2.2851      7.270   295.9390 4.7407e+01     0.9017      1.508      2.187    24.1014 0.0000e+00
      1.604      0.247     6.7661     79.460     32.733  31.677845     2.3516      7.265   296.2178 4.5460e+01     1.0315      1.570      2.277    24.0092 0.0000e+00
      1.671      0.238     6.7982     79.445     32.773  31.546149     2.3926      7.260   296.8120 4.3526e+01     1.1030      1.641      2.380    23.9100 0.0000e+00
      1.733      0.233     6.8159     79.271     32.750  31.358131     2.3859      7.252   297.8750 4.1584e+01     1.0948      1.701      2.467    23.7947 0.0000e+00
      1.790      0.232     6.8299     79.057     32.737  31.182551     2.2701      7.241   298.9176 3.9777e+01     1.0241      1.756      2.547    23.6407 0.0000e+00
      1.844      0.233     6.8555     78.944     32.809  31.074214     2.0583      7.231   299.4373 3.8198e+01     0.9198      1.809      2.624    23.3967 0.0000e+00
      1.898      0.235     6.8983     79.007     32.928  31.000610     1.9482      7.223   299.6840 3.6634e+01     0.8711      1.860      2.698    23.1126 0.0000e+00
      1.956      0.240     6.9554     79.264     33.033  30.927418     1.9495      7.217   300.0079 3.4886e+01     0.8621      1.914      2.777    22.8670 0.0000e+00
      2.022      0.242     7.0212     79.678     33.144  30.887594     1.9460      7.212   300.1694 3.3007e+01     0.8419      1.982      2.874    22.6317 0.0000e+00
      2.092      0.240     7.0893     80.177     33.215  30.836439     1.8870      7.209   300.3468 3.1265e+01     0.8403      2.052      2.977    22.3586 0.0000e+00
      2.158      0.232     7.1533     80.681     33.156  30.689803     1.7876      7.205   300.8617 2.9825e+01     0.8731      2.119      3.073    22.0567 0.0000e+00
      2.218      0.222     7.2059     81.074     33.054  30.511658     1.7363      7.198   301.4057 2.8612e+01     0.8726      2.177      3.157    21.7918 0.0000e+00
      2.271      0.211     7.2393     81.257     33.018  30.397062     1.7355      7.190   302.1061 2.7600e+01     0.8331      2.230      3.234    21.5802 0.0000e+00
      2.317      0.201     7.2512     81.204     33.019  30.320216     1.7049      7.183   302.9622 2.6700e+01     0.8229      2.272      3.295    21.3972 0.0000e+00
      2.362      0.194     7.2514     80.936     33.099  30.280987     1.6419      7.175   303.4974 2.5719e+01     0.8716      2.312      3.354    21.2730 0.0000e+00
      2.412      0.190     7.2498     80.498     33.317  30.303637     1.6174      7.169   303.8444 2.4737e+01     0.9336      2.366      3.431    21.1522 0.0000e+00
      2.462      0.187     7.2387     79.941     33.558  30.339804     1.6202      7.163   304.1466 2.3890e+01     0.9322      2.415      3.503    21.0138 0.0000e+00
      2.511      0.182     7.2103     79.331     33.695  30.336994     1.5924      7.158   304.3983 2.3150e+01     0.9462      2.462      3.572    20.9270 0.0000e+00
      2.559      0.176     7.1817     78.777     33.734  30.269493     1.5568      7.151   304.9946 2.2470e+01     1.0415      2.511      3.642    20.7890 0.0000e+00
      2.603      0.171     7.1736     78.382     33.757  30.158583     1.5574      7.140   305.9369 2.1881e+01     1.1086      2.556      3.707    20.4807 0.0000e+00
      2.643      0.171     7.1907     78.188     33.921  30.138913     1.5724      7.126   306.6709 2.1385e+01     1.1161      2.594      3.761    20.1490 0.0000e+00
      2.679      0.176     7.2284     78.178     34.292  30.285464     1.6006      7.114   306.9005 2.0870e+01     1.1016      2.626      3.809    19.9980 0.0000e+00
      2.719      0.179     7.2739     78.269     34.699  30.469649     1.6504      7.106   306.7344 2.0233e+01     1.0868      2.663      3.862    19.8877 0.0000e+00
      2.769      0.178     7.3005     78.333     34.944  30.587469     1.6685      7.101   306.5548 1.9475e+01     1.0896      2.711      3.931    19.6813 0.0000e+00
      2.827      0.171     7.2908     78.271     34.971  30.630262     1.6721      7.099   306.4496 1.8793e+01     1.1042      2.775      4.024    19.4273 0.0000e+00
      2.881      0.153     7.2579     78.073     34.866  30.606047     1.7032      7.100   306.3233 1.8318e+01     1.1112      2.831      4.105    19.1611 0.0000e+00
      2.922      0.127     7.2208     77.774     34.749  30.548817     1.7317      7.102   306.4038 1.8005e+01     1.0832      2.867      4.159    18.8671 0.0000e+00
      2.950      0.099     7.1909     77.449     34.634  30.446404     1.7418      7.099   307.3375 1.7856e+01     1.0697      2.899      4.204    18.6762 0.0000e+00
      2.965      0.083     7.1801     77.159     34.579  30.320382     1.7428      7.085   309.1800 1.7805e+01     1.1004      2.913      4.225    18.7727 0.0000e+00
      2.968      0.090     7.2038     76.968     34.777  30.295134     1.7428      7.064   310.5268 1.7778e+01     1.1190      2.912      4.223    18.9072 0.0000e+00
      2.969      0.118     7.2750     77.039     35.245  30.394906     1.7607      7.046   311.1465 1.7723e+01     1.0806      2.908      4.219    18.9703 0.0000e+00
      2.984      0.157     7.3900     77.543     35.746  30.510199     1.7938      7.034   311.6830 1.7328e+01     1.0332      2.910      4.221    18.9825 0.0000e+00
      3.037      0.199     7.5367     78.488     36.170  30.609113     1.8123      7.024   312.0228 1.6454e+01     1.0352      2.963      4.297    18.9025 0.0000e+00
      3.121      0.238     7.7002     79.729     36.519  30.701429     1.8183      7.016   312.4156 1.5539e+01     1.0432      3.064      4.445    18.6302 0.0000e+00
      3.205      0.266     7.8587     81.029     36.738  30.737026     1.8949      7.008   312.9047 1.4846e+01     0.9762      3.149      4.567    18.1099 0.0000e+00
      3.278      0.278     7.9904     82.107     36.939  30.785303     2.0400      7.000   313.2907 1.4250e+01     0.8664      3.215      4.663    17.6400 0.0000e+00
      3.344      0.273     8.0793     82.802     37.194  30.903941     2.1199      6.991   313.5552 1.3709e+01     0.8446      3.280      4.758    17.2852 0.0000e+00
      3.408      0.259     8.1162     83.045     37.337  30.964688     2.1347      6.983   314.0367 1.3214e+01     0.8964      3.341      4.846    16.9969 0.0000e+00
      3.474      0.249     8.1004     82.774     37.373  30.948143     2.2099      6.974   314.7245 1.2728e+01     0.9748      3.406      4.940    16.8226 0.0000e+00
      3.539      0.244     8.0409     82.051     37.446  30.957875     2.3402      6.962   315.1603 1.2292e+01     1.0595      3.475      5.039    16.6590 0.0000e+00
      3.599      0.240     7.9518     81.032     37.578  31.018787     2.4053      6.948   315.6068 1.1907e+01     1.0958      3.532      5.122    16.5123 0.0000e+00
      3.655      0.236     7.8498     79.880     37.753  31.112984     2.4264      6.937   316.3376 1.1510e+01     1.1085      3.583      5.196    16.4623 0.0000e+00
      3.714      0.230     7.7502     78.750     37.933  31.207624     2.7522      6.929   317.0267 1.1105e+01     1.1524      3.643      5.282    16.4057 0.0000e+00
      3.777      0.220     7.6579     77.703     38.074  31.273868     3.3757      6.922   317.2277 1.0707e+01     1.2298      3.704      5.372    16.3259 0.0000e+00
      3.837      0.205     7.5707     76.727     38.132  31.278769     3.7162      6.917   317.2194 1.0335e+01     1.2815      3.764      5.460    16.2735 0.0000e+00
      3.892      0.185     7.4877     75.835     38.146  31.266832     3.7352      6.913   317.3559 1.0019e+01     1.3200      3.820      5.541    16.2037 0.0000e+00
      3.939      0.165     7.4022     75.007     38.111  31.256532     3.7067      6.909   317.6744 9.7838e+00     1.3891      3.866      5.607    16.1294 0.0000e+00
      3.976      0.151     7.3137     74.207     37.930  31.154249     3.6562      6.903   318.3160 9.6444e+00     1.4456      3.903      5.661    16.0634 0.0000e+00
      4.003      0.148     7.2501     73.534     37.816  31.046353     3.6308      6.893   319.0919 9.5498e+00     1.4549      3.930      5.700    16.0057 0.0000e+00
      4.023      0.158     7.2436     73.135     37.996  31.031621     3.6303      6.882   319.8283 9.3751e+00     1.4709      3.941      5.716    15.9563 0.0000e+00
      4.054      0.178     7.3011     73.078     38.388  31.039442     3.6031      6.870   320.4220 9.0260e+00     1.5168      3.966      5.751    15.9771 0.0000e+00
      4.108      0.201     7.4024     73.347     38.886  31.077025     3.4033      6.862   320.6783 8.5535e+00     1.6138      4.025      5.836    16.0941 0.0000e+00
      4.174      0.219     7.5238     73.918     39.386  31.168031     3.0519      6.857   320.6035 8.0513e+00     1.7580      4.093      5.937    16.1232 0.0000e+00
      4.243      0.226     7.6446     74.777     39.692  31.250278     2.8558      6.854   320.5504 7.5277e+00     1.8255      4.160      6.034    15.9173 0.0000e+00
      4.312      0.220     7.7432     75.797     39.734  31.309159     2.8336      6.852   320.8108 7.0302e+00     1.8500      4.231      6.135    15.4484 0.0000e+00
      4.373      0.206     7.8327     76.795     39.739  31.371924     2.7928      6.849   320.9988 6.6687e+00     1.9022      4.296      6.230    14.9266 0.0000e+00
      4.416      0.189     7.9430     77.699     39.927  31.437665     2.7117      6.845   320.9298 6.4006e+00     1.9379      4.335      6.289    14.5125 0.0000e+00
      4.448      0.172     8.0717     78.545     40.211  31.468820     2.6614      6.842   321.3537 6.0759e+00     1.9461      4.358      6.321    14.2427 0.0000e+00
      4.486      0.163     8.1904     79.280     40.411  31.430827     2.6538      6.834   322.5104 5.6944e+00     1.9400      4.395      6.373    14.3753 0.0000e+00
      4.532      0.173     8.2839     79.800     40.464  31.295617     2.6565      6.819   323.6435 5.3834e+00     1.9258      4.449      6.452    14.5732 0.0000e+00
      4.572      0.201     8.3795     80.195     40.526  31.104018     2.6578      6.801   324.2131 5.1847e+00     1.9271      4.490      6.511    14.4133 0.0000e+00
      4.607      0.237     8.5072     80.660     40.863  31.019260     2.6508      6.787   324.3220 4.9383e+00     1.9553      4.508      6.538    14.1187 0.0000e+00
      4.662      0.268     8.6583     81.303     41.435  31.096045     2.6358      6.779   324.2710 4.5330e+00     1.9608      4.557      6.611    13.8610 0.0000e+00
      4.749      0.290     8.8018     82.028     41.956  31.206387     2.4954      6.774   324.0267 4.0580e+00     1.9948      4.653      6.750    13.6989 0.0000e+00
      4.853      0.300     8.8929     82.434     41.969  31.019367     2.2395      6.771   323.6908 3.6302e+00     2.0910      4.762      6.907    13.4407 0.0000e+00
      4.948      0.293     8.8066     81.308     41.448  30.485808     2.1052      6.770   323.6518 3.3089e+00     2.1477      4.860      7.049    12.9565 0.0000e+00
      5.024      0.268     8.4570     77.727     41.141  30.089762     2.0852      6.770   323.8138 3.0832e+00     2.1610      4.932      7.154    12.4776 0.0000e+00
      5.083      0.230     8.0071     73.104     41.319  29.977629     2.0435      6.769   324.0145 2.9289e+00     2.1297      4.987      7.234    12.1567 0.0000e+00
      5.131      0.193     7.6628     69.469     41.633  29.955344     1.9865      6.768   324.1863 2.8333e+00     2.0445      5.036      7.303    11.9257 0.0000e+00
      5.168      0.165     7.4762     67.437     41.867  29.947054     1.9573      6.766   324.1697 2.7643e+00     1.9849      5.071      7.355    11.7761 0.0000e+00
      5.199      0.144     7.4347     66.869     42.001  29.940706     1.9473      6.765   324.1572 2.6913e+00     1.9583      5.097      7.393    11.6209 0.0000e+00
      5.232      0.127     7.5171     67.501     42.083  29.941994     1.9299      6.763   324.3792 2.5973e+00     1.9370      5.129      7.437    11.2772 0.0000e+00
      5.269      0.113     7.6982     69.065     42.158  29.962572     1.8763      6.762   324.6172 2.4950e+00     1.9414      5.169      7.496    10.9295 0.0000e+00
      5.302      0.102     7.9431     71.230     42.232  29.998953     1.7951      6.761   324.5402 2.4259e+00     1.9810      5.205      7.549    10.7320 0.0000e+00
      5.324      0.091     8.1768     73.318     42.242  30.000826     1.7576      6.760   324.4810 2.3907e+00     1.9890      5.224      7.576    10.6229 0.0000e+00
      5.339      0.081     8.2958     74.388     42.217  29.985214     1.7536      6.757   325.1057 2.3584e+00     1.9465      5.235      7.591    10.5636 0.0000e+00
      5.355      0.082     8.2653     74.118     42.236  30.000706     1.7466      6.749   326.1569 2.3152e+00     1.9235      5.250      7.615    10.5271 0.0000e+00
      5.373      0.097     8.1404     72.989     42.239  29.997615     1.7461      6.736   326.8655 2.2728e+00     1.9550      5.272      7.647    10.5090 0.0000e+00
      5.387      0.124     7.9877     71.591     42.189  29.947845     1.7563      6.722   327.2211 2.2418e+00     1.9925      5.283      7.662    10.5066 0.0000e+00
      5.410      0.157     7.8477     70.300     42.157  29.906969     1.7689      6.710   327.4453 2.1637e+00     1.9800      5.293      7.677    10.5106 0.0000e+00
      5.459      0.187     7.7386     69.292     42.148  29.884406     1.8071      6.702   327.5103 2.0119e+00     1.9557      5.345      7.752    10.5159 0.0000e+00
      5.528      0.211     7.6646     68.607     42.138  29.865544     1.8782      6.696   327.4903 1.8641e+00     1.9432      5.423      7.865    10.5121 0.0000e+00
      5.597      0.226     7.6198     68.189     42.156  29.869414     1.9302      6.692   327.3768 1.7521e+00     1.9510      5.492      7.965    10.4913 0.0000e+00
      5.660      0.228     7.5940     67.946     42.163  29.867680     1.9575      6.690   327.2563 1.6501e+00     1.9585      5.553      8.054    10.4672 0.0000e+00
      5.718      0.216     7.5814     67.824     42.137  29.844568     1.9875      6.688   327.2378 1.5582e+00     1.9428      5.610      8.137    10.4479 0.0000e+00
      5.771      0.196     7.5769     67.776     42.142  29.843991     2.0361      6.687   327.2398 1.4875e+00     1.9448      5.662      8.211    10.4341 0.0000e+00
      5.819      0.176     7.5739     67.743     42.169  29.860699     2.0757      6.686   327.3661 1.4321e+00     1.9515      5.709      8.280    10.4239 0.0000e+00
      5.861      0.161     7.5705     67.712     42.163  29.856063     2.0812      6.683   327.5603 1.3828e+00     1.9320      5.749      8.339    10.4161 0.0000e+00
      5.897      0.149     7.5683     67.692     42.158  29.851434     2.1021      6.680   327.6093 1.3432e+00     1.9520      5.784      8.388    10.4112 0.0000e+00
      5.928      0.140     7.5673     67.679     42.185  29.868243     2.1537      6.678   327.7001 1.3062e+00     2.0419      5.813      8.431    10.4060 0.0000e+00
      5.961      0.135     7.5688     67.689     42.190  29.868773     2.1903      6.675   328.0561 1.2562e+00     2.1037      5.843      8.475    10.4019 0.0000e+00
      5.998      0.135     7.5738     67.731     42.175  29.857843     2.2049      6.671   328.6446 1.2096e+00     2.1188      5.883      8.531    10.4029 0.0000e+00
      6.034      0.143     7.5788     67.774     42.183  29.863095     2.2027      6.663   329.2223 1.1746e+00     2.1338      5.921      8.587    10.4027 0.0000e+00
      6.065      0.158     7.5831     67.811     42.192  29.868773     2.1262      6.653   329.5342 1.1323e+00     2.0703      5.948      8.627    10.3984 0.0000e+00
      6.097      0.177     7.5886     67.858     42.186  29.862982     1.9965      6.645   329.6629 1.0743e+00     1.9310      5.974      8.665    10.3955 0.0000e+00
      6.139      0.195     7.5946     67.908     42.180  29.856583     1.9301      6.640   329.8327 1.0075e+00     1.8840      6.014      8.723    10.3949 0.0000e+00
      6.199      0.211     7.5985     67.940     42.180  29.854908     1.9114      6.636   330.0381 9.4807e-01     1.9303      6.075      8.810    10.3948 0.0000e+00
      6.269      0.222     7.6005     67.954     42.165  29.842728     1.7800      6.632   330.1673 8.9642e-01     2.0021      6.149      8.919    10.3943 0.0000e+00
      6.334      0.227     7.6008     67.954     42.158  29.836321     1.5453      6.627   330.1899 8.4795e-01     2.0800      6.215      9.016    10.3920 0.0000e+00
      6.391      0.226     7.5998     67.943     42.166  29.840950     1.4173      6.623   330.0534 7.9752e-01     2.1091      6.268      9.093    10.3897 0.0000e+00
      6.442      0.217     7.5994     67.937     42.160  29.835187     1.4086      6.622   329.8941 7.4270e-01     2.1107      6.319      9.164    10.3875 0.0000e+00
      6.493      0.205     7.5977     67.919     42.155  29.830140     1.3847      6.621   329.9834 6.9085e-01     2.0689      6.367      9.233    10.3854 0.0000e+00
      6.548      0.192     7.5936     67.879     42.175  29.843426     1.3307      6.618   330.1008 6.5486e-01     1.9700      6.420      9.312    10.3843 0.0000e+00
      6.602      0.181     7.5920     67.864     42.212  29.868819     1.3074      6.616   330.0233 6.4345e-01     1.9220      6.479      9.396    10.3831 0.0000e+00
      6.647      0.171     7.5926     67.868     42.234  29.883139     1.3134      6.615   329.9933 6.4198e-01     1.9457      6.523      9.460    10.3811 0.0000e+00
      6.684      0.162     7.5914     67.852     42.247  29.889542     1.3389      6.613   330.1680 6.3110e-01     2.0122      6.554      9.507    10.3784 0.0000e+00
      6.719      0.156     7.5887     67.822     42.242  29.882730     1.3865      6.610   330.4140 6.0862e-01     2.0862      6.589      9.556    10.3769 0.0000e+00
      6.756      0.155     7.5823     67.759     42.220  29.864275     1.4120      6.605   330.4733 5.7715e-01     2.1077      6.626      9.611    10.3767 0.0000e+00
      6.793      0.157     7.5718     67.659     42.213  29.856924     1.4163      6.602   330.3692 5.4132e-01     2.1183      6.661      9.662    10.3765 0.0000e+00
      6.833      0.158     7.5615     67.563     42.217  29.857350     1.3932      6.601   330.2738 5.1747e-01     2.1535      6.698      9.714    10.3731 0.0000e+00
      6.879      0.153     7.5493     67.451     42.236  29.869422     1.3345      6.600   330.1797 5.0879e-01     2.1670      6.744      9.783    10.3683 0.0000e+00
      6.927      0.144     7.5308     67.287     42.244  29.875868     1.2952      6.600   330.1781 4.9684e-01     2.1298      6.797      9.859    10.3654 0.0000e+00
      6.967      0.135     7.5099     67.104     42.237  29.871786     1.2937      6.599   330.3397 4.7760e-01     2.1001      6.838      9.916    10.3619 0.0000e+00
      6.994      0.129     7.4913     66.937     42.253  29.883575     1.2981      6.597   330.4993 4.5956e-01     2.1132      6.860      9.950    10.3580 0.0000e+00
      7.015      0.124     7.4756     66.790     42.358  29.954897     1.2664      6.594   330.5598 4.4566e-01     2.1043      6.879      9.977    10.3566 0.0000e+00
      7.040      0.122     7.4631     66.664     42.573  30.099064     1.2040      6.591   330.4685 4.3783e-01     2.0237      6.901     10.008    10.3578 0.0000e+00
      7.072      0.125     7.4526     66.552     42.773  30.229520     1.1690      6.588   330.2565 4.2678e-01     1.9325      6.933     10.055    10.3604 0.0000e+00
      7.111      0.132     7.4432     66.452     42.922  30.325583     1.1642      6.586   330.0606 4.1383e-01     1.9175      6.976     10.117    10.3617 0.0000e+00
      7.150      0.138     7.4350     66.366     43.087  30.434945     1.1932      6.583   329.9070 4.0774e-01     1.9945      7.014     10.173    10.3585 0.0000e+00
      7.185      0.140     7.4233     66.246     43.241  30.535661     1.2616      6.580   329.7763 3.9176e-01     2.1005      7.047     10.221    10.3481 0.0000e+00
      7.219      0.135     7.4002     66.025     43.331  30.590693     1.3025      6.577   329.5978 3.6556e-01     2.1618      7.078     10.265    10.3333 0.0000e+00
      7.254      0.125     7.3587     65.645     43.341  30.592250     1.3005      6.574   329.3841 3.5161e-01     2.1855      7.113     10.316    10.3236 0.0000e+00
      7.290      0.112     7.2985     65.104     43.291  30.554481     1.2382      6.573   329.1708 3.5664e-01     2.1439      7.151     10.371    10.3171 0.0000e+00
      7.322      0.096     7.2229     64.434     43.231  30.515084     1.1187      6.573   328.9119 3.6128e-01     2.0246      7.182     10.418    10.3064 0.0000e+00
      7.345      0.079     7.1304     63.616     43.200  30.496960     1.0506      6.574   328.7498 3.5413e-01     1.9321      7.205     10.451    10.2955 0.0000e+00
      7.359      0.061     7.0249     62.678     43.148  30.462361     1.0395      6.575   328.7593 3.4863e-01     1.9107      7.219     10.469    10.2881 0.0000e+00
      7.368      0.045     6.9174     61.720     43.079  30.414302     1.0671      6.575   328.7680 3.4713e-01     1.9194      7.226     10.480    10.2859 0.0000e+00
      7.376      0.031     6.8188     60.840     43.093  30.423943     1.1363      6.574   328.6832 3.3934e-01     1.9456      7.233     10.490    10.2898 0.0000e+00
      7.382      0.021     6.7374     60.115     43.132  30.451917     1.1686      6.574   328.5086 3.2143e-01     1.9523      7.241     10.502    10.2956 0.0000e+00
      7.387      0.014     6.6767     59.577     43.104  30.434989     1.1548      6.575   328.3773 3.1176e-01     1.9099      7.245     10.508    10.2980 0.0000e+00
      7.388      0.009     6.6364     59.229     43.058  30.409794     1.1443      6.575   328.2998 3.1975e-01     1.8912      7.246     10.509    10.2980 0.0000e+00
      7.389      0.005     6.6149     59.057     43.029  30.401335     1.1514      6.575   328.1739 3.3437e-01     1.9390      7.246     10.510    10.2975 0.0000e+00
      7.389      0.003     6.6136     59.065     43.005  30.396229     1.1765      6.575   328.0600 3.4281e-01     1.9994      7.247     10.510    10.2975 0.0000e+00
      7.389      0.001     6.6266     59.191     43.018  30.411583     1.1900      6.575   327.9545 3.3503e-01     2.0116      7.247     10.511    10.2993 0.0000e+00
      7.389      0.001     6.6446     59.353     43.085  30.459968     1.1770      6.575   327.8458 3.2409e-01     1.9639      7.247     10.510    10.3073 0.0000e+00
      7.389      0.000     6.6734     59.609     43.104  30.473179     1.1669      6.575   327.7782 3.2543e-01     2.0025      7.247     10.511    10.3245 0.0000e+00
      7.389 1.8829e-08     6.7099     59.943     43.057  30.444296     1.1688      6.574   327.7387 3.3085e-01     2.1421      7.247     10.510    10.3408 0.0000e+00
      7.390 2.0712e-07     6.7380     60.210     43.021  30.428290     1.1714      6.573   327.7135 3.3503e-01     2.1873      7.247     10.511    10.3476 0.0000e+00
      7.390 2.0712e-07     6.7600     60.423     42.976  30.406679     1.1721      6.571   327.7312 3.3692e-01     2.1524      7.247     10.511    10.3471 0.0000e+00
      7.390 1.8829e-08     6.7843     60.644     42.926  30.373537     1.1685      6.570   327.7806 3.3084e-01     2.0865      7.247     10.511    10.3443 0.0000e+00
      7.390 1.7118e-09     6.8073     60.845     42.890  30.345122     1.1639      6.570   327.7943 3.2381e-01     2.0003      7.247     10.511    10.3476 0.0000e+00
      7.390 1.5561e-10     6.8292     61.036     42.854  30.317146     1.1627      6.570   327.7248 3.2047e-01     1.9651      7.248     10.512    10.3626 0.0000e+00
      7.390 1.4147e-11     6.8502     61.223     42.815  30.289315     1.1627      6.570   327.6282 3.1917e-01     1.9667      7.248     10.512    10.3777 0.0000e+00
      7.390 1.2861e-12     6.8659     61.365     42.776  30.262642     1.1909      6.570   327.5726 3.2290e-01     2.0191      7.248     10.512    10.3780 0.0000e+00
      7.390 1.1788e-13     6.8807     61.503     42.752  30.248681     1.2556      6.569   327.4836 3.2892e-01     2.1402      7.247     10.511    10.3723 0.0000e+00
      7.390 2.1257e-14     6.8892     61.583     42.747  30.247526     1.2921      6.569   327.4122 3.2877e-01     2.2108      7.247     10.511    10.3697 0.0000e+00
      7.390 -9.990e-29 -9.990e-29 -9.990e-29 -9.990e-29 -9.990e-29 -9.990e-29 -9.990e-29 -9.990e-29 3.2369e-01 -9.990e-29      7.247     10.511    10.3692 0.0000e+00
      7.390 -9.990e-29 -9.990e-29 -9.990e-29 -9.990e-29 -9.990e-29 -9.990e-29 -9.990e-29 -9.990e-29 3.2399e-01 -9.990e-29      7.247     10.511    10.3695 0.0000e+00
      7.390 -9.990e-29 -9.990e-29 -9.990e-29 -9.990e-29 -9.990e-29 -9.990e-29 -9.990e-29 -9.990e-29 3.3024e-01 -9.990e-29      7.248     10.512    10.3752 0.0000e+00
      7.390 -9.990e-29 -9.990e-29 -9.990e-29 -9.990e-29 -9.990e-29 -9.990e-29 -9.990e-29 -9.990e-29 3.3375e-01 -9.990e-29      7.248     10.512    10.3811 0.0000e+00
