* Sea-Bird SBE19plus  Data File:
* FileName = C:\DATA\061418_bvr50_0004.hex
* Software version 2.6.3.104 SB_Terminal.dll
* Temperature SN = 7809
* Conductivity SN = 7809
* System UpLoad Time = Jun 14 2018 16:25:42
* <ApplicationData>
* <Seaterm232>
* <SoftwareVersion>2.6.3.104</SoftwareVersion>
* <BuildDate>30-Jun-2017</BuildDate>
* </Seaterm232>
* </ApplicationData>
* cast   4 11 Jun 2018 14:53:55 samples 1301 to 1566, avg = 1, stop = mag switch
# nquan = 15
# nvalues = 179                         
# units = specified
# name 0 = depFM: Depth [fresh water, m]
# name 1 = dz/dtM: Descent Rate [m/s]
# name 2 = sbeox0Mg/L: Oxygen, SBE 43 [mg/l]
# name 3 = sbeox0PS: Oxygen, SBE 43 [% saturation]
# name 4 = specc: Specific Conductance [uS/cm]
# name 5 = c0uS/cm: Conductivity [uS/cm]
# name 6 = flECO-AFL: Fluorescence, WET Labs ECO-AFL/FL [mg/m^3]
# name 7 = ph: pH
# name 8 = orp: Oxidation Reduction Potential [mV]
# name 9 = par/sat/log: PAR/Logarithmic, Satlantic
# name 10 = turbWETntu0: Turbidity, WET Labs ECO [NTU]
# name 11 = prdM: Pressure, Strain Gauge [db]
# name 12 = prdE: Pressure, Strain Gauge [psi]
# name 13 = tv290C: Temperature [ITS-90, deg C]
# name 14 = flag:  0.000e+00
# span 0 =     -0.593,      5.417       
# span 1 = -1.863e-07,      0.359       
# span 2 =     6.7124,     8.6780       
# span 3 =     72.553,     91.786       
# span 4 =      0.685,     44.569       
# span 5 =   0.651550,  33.885399       
# span 6 =    -0.1915,     2.6736       
# span 7 =      6.290,      8.008       
# span 8 =  -129.9672,   319.1261       
# span 9 = 1.2824e+00, 4.0626e+02       
# span 10 =    -0.2909,     4.6920      
# span 11 =     -0.582,      5.313      
# span 12 =     -0.845,      7.706      
# span 13 =    12.3287,    24.8327      
# span 14 = 0.0000e+00, 0.0000e+00      
# interval = seconds: 0.25
# start_time = Jun 11 2018 14:53:55 [Instrument's time stamp, header]
# bad_flag = -9.990e-29
# <Sensors count="9" >
#   <sensor Channel="1" >
#     <!-- Count, Temperature -->
#     <TemperatureSensor SensorID="58" >
#       <SerialNumber>7809</SerialNumber>
#       <CalibrationDate>09-Mar-18</CalibrationDate>
#       <A0>1.21093245e-003</A0>
#       <A1>2.84356597e-004</A1>
#       <A2>-1.94507398e-006</A2>
#       <A3>2.12806664e-007</A3>
#       <Slope>1.00000000</Slope>
#       <Offset>0.0000</Offset>
#     </TemperatureSensor>
#   </sensor>
#   <sensor Channel="2" >
#     <!-- Frequency 0, Conductivity -->
#     <ConductivitySensor SensorID="3" >
#       <SerialNumber>7809</SerialNumber>
#       <CalibrationDate>09-Mar-18</CalibrationDate>
#       <UseG_J>1</UseG_J>
#       <!-- Cell const and series R are applicable only for wide range sensors. -->
#       <SeriesR>0.0000</SeriesR>
#       <CellConst>2000.0000</CellConst>
#       <ConductivityType>0</ConductivityType>
#       <Coefficients equation="0" >
#         <A>0.00000000e+000</A>
#         <B>0.00000000e+000</B>
#         <C>0.00000000e+000</C>
#         <D>0.00000000e+000</D>
#         <M>0.0</M>
#         <CPcor>-9.57000000e-008</CPcor>
#       </Coefficients>
#       <Coefficients equation="1" >
#         <G>-1.00672082e+000</G>
#         <H>1.26906489e-001</H>
#         <I>-1.40584351e-004</I>
#         <J>2.47837121e-005</J>
#         <CPcor>-9.57000000e-008</CPcor>
#         <CTcor>3.2500e-006</CTcor>
#         <!-- WBOTC not applicable unless ConductivityType = 1. -->
#         <WBOTC>0.00000000e+000</WBOTC>
#       </Coefficients>
#       <Slope>1.00000000</Slope>
#       <Offset>0.00000</Offset>
#     </ConductivitySensor>
#   </sensor>
#   <sensor Channel="3" >
#     <!-- Count, Pressure, Strain Gauge -->
#     <PressureSensor SensorID="46" >
#       <SerialNumber>7809</SerialNumber>
#       <CalibrationDate>07-Mar-18</CalibrationDate>
#       <PA0>-4.08176359e-002</PA0>
#       <PA1>4.85188419e-004</PA1>
#       <PA2>-3.51168169e-012</PA2>
#       <PTEMPA0>-5.37806900e+001</PTEMPA0>
#       <PTEMPA1>5.36620721e+001</PTEMPA1>
#       <PTEMPA2>4.87214332e-002</PTEMPA2>
#       <PTCA0>5.25213435e+005</PTCA0>
#       <PTCA1>1.79532409e+000</PTCA1>
#       <PTCA2>-2.84353509e-001</PTCA2>
#       <PTCB0>2.51668750e+001</PTCB0>
#       <PTCB1>3.75000000e-004</PTCB1>
#       <PTCB2>0.00000000e+000</PTCB2>
#       <Offset>0.000000</Offset>
#     </PressureSensor>
#   </sensor>
#   <sensor Channel="4" >
#     <!-- A/D voltage 0, pH -->
#     <pH_Sensor SensorID="43" >
#       <SerialNumber>0363</SerialNumber>
#       <CalibrationDate>16-Mar-18</CalibrationDate>
#       <Slope>4.6194</Slope>
#       <Offset>2.5947</Offset>
#     </pH_Sensor>
#   </sensor>
#   <sensor Channel="5" >
#     <!-- A/D voltage 1, Oxidation Reduction Potential -->
#     <OxidationReductionPotentialSensor SensorID="41" >
#       <SerialNumber>0363</SerialNumber>
#       <CalibrationDate>16-Mar-18</CalibrationDate>
#       <B>2.499480</B>
#       <M>-0.496195</M>
#       <Offset>0.0</Offset>
#     </OxidationReductionPotentialSensor>
#   </sensor>
#   <sensor Channel="6" >
#     <!-- A/D voltage 2, Oxygen, SBE 43 -->
#     <OxygenSensor SensorID="38" >
#       <SerialNumber>0434</SerialNumber>
#       <CalibrationDate>13-Mar-18</CalibrationDate>
#       <Use2007Equation>1</Use2007Equation>
#       <CalibrationCoefficients equation="0" >
#         <!-- Coefficients for Owens-Millard equation. -->
#         <Boc>0.0000</Boc>
#         <Soc>0.0000e+000</Soc>
#         <offset>0.0000</offset>
#         <Pcor>0.00e+000</Pcor>
#         <Tcor>0.0000</Tcor>
#         <Tau>0.0</Tau>
#       </CalibrationCoefficients>
#       <CalibrationCoefficients equation="1" >
#         <!-- Coefficients for Sea-Bird equation - SBE calibration in 2007 and later. -->
#         <Soc>4.5718e-001</Soc>
#         <offset>-0.6113</offset>
#         <A>-4.0649e-003</A>
#         <B> 2.0945e-004</B>
#         <C>-3.3182e-006</C>
#         <D0> 2.5826e+000</D0>
#         <D1> 1.92634e-004</D1>
#         <D2>-4.64803e-002</D2>
#         <E> 3.6000e-002</E>
#         <Tau20> 1.2200</Tau20>
#         <H1>-3.3000e-002</H1>
#         <H2> 5.0000e+003</H2>
#         <H3> 1.4500e+003</H3>
#       </CalibrationCoefficients>
#     </OxygenSensor>
#   </sensor>
#   <sensor Channel="7" >
#     <!-- A/D voltage 3, PAR/Logarithmic, Satlantic -->
#     <PARLog_SatlanticSensor SensorID="76" >
#       <SerialNumber>1122</SerialNumber>
#       <CalibrationDate>22-Jun-2017</CalibrationDate>
#       <a0>9.6090e-001</a0>
#       <a1>8.0780e-001</a1>
#       <Im>1.3589e+000</Im>
#       <Multiplier>1.0000e+000</Multiplier>
#     </PARLog_SatlanticSensor>
#   </sensor>
#   <sensor Channel="8" >
#     <!-- A/D voltage 4, Fluorometer, WET Labs ECO-AFL/FL -->
#     <FluoroWetlabECO_AFL_FL_Sensor SensorID="20" >
#       <SerialNumber>FLNTURT-2496</SerialNumber>
#       <CalibrationDate>25-Jan-2017</CalibrationDate>
#       <ScaleFactor>5.30000000e+001</ScaleFactor>
#       <!-- Dark output -->
#       <Vblank>0.0560</Vblank>
#     </FluoroWetlabECO_AFL_FL_Sensor>
#   </sensor>
#   <sensor Channel="9" >
#     <!-- A/D voltage 5, Turbidity Meter, WET Labs, ECO-NTU -->
#     <TurbidityMeter SensorID="67" >
#       <SerialNumber>FLNTURT-2496</SerialNumber>
#       <CalibrationDate>25-Jan-2017</CalibrationDate>
#       <ScaleFactor>176.000000</ScaleFactor>
#       <!-- Dark output -->
#       <DarkVoltage>0.072000</DarkVoltage>
#     </TurbidityMeter>
#   </sensor>
# </Sensors>
# datcnv_date = Jun 14 2018 16:42:55, 7.26.7.114 [datcnv_vars = 14]
# datcnv_in = C:\DATA\061118_fcr30.hex C:\DATA\SBE19plusV2_7809.xmlcon
# datcnv_skipover = 0
# datcnv_ox_hysteresis_correction = yes
# datcnv_ox_tau_correction = yes
# filter_date = Jun 14 2018 16:44:33, 7.26.7.114
# filter_in = C:\DATA\061118_fcr30.cnv
# filter_low_pass_tc_A = 0.030
# filter_low_pass_tc_B = 0.150
# filter_low_pass_A_vars = prdM prdE tv290C
# filter_low_pass_B_vars = depFM dz/dtM sbeox0Mg/L sbeox0PS specc c0uS/cm flECO-AFL ph orp par/sat/log turbWETntu0
# alignctd_date = Jun 14 2018 16:45:24, 7.26.7.114
# alignctd_in = C:\DATA\061118_fcr30.cnv
# alignctd_adv = dz/dtM 1.000, sbeox0Mg/L 1.000, sbeox0PS 1.000, specc 1.000, c0uS/cm 1.000, flECO-AFL 1.000, ph 1.000, orp 1.000, turbWETntu0 1.000                                                                                 
# file_type = ascii
*END*
     -0.592 -1.157e-12     7.5178     86.887      0.699   0.664327    -0.1768      6.304   237.9841 3.8800e+02    -0.1524     -0.580     -0.842    22.5433 0.0000e+00
     -0.592 -1.272e-11     7.5185     86.894      0.685   0.651560    -0.1744      6.306   241.3106 3.8760e+02    -0.1927     -0.581     -0.843    22.5432 0.0000e+00
     -0.592 -1.400e-10     7.5194     86.903      0.696   0.661945    -0.1777      6.309   246.9738 3.8732e+02    -0.1902     -0.581     -0.842    22.5430 0.0000e+00
     -0.592 -1.540e-09     7.5200     86.911      0.697   0.663080    -0.1697      6.312   252.7691 3.8728e+02    -0.1835     -0.580     -0.842    22.5428 0.0000e+00
     -0.592 -1.694e-08     7.5200     86.911      0.700   0.665271    -0.1609      6.314   257.1756 3.8642e+02    -0.2031     -0.581     -0.842    22.5427 0.0000e+00
     -0.593 -1.863e-07     7.5197     86.908      0.725   0.688433    -0.1534      6.316   260.3301 3.8413e+02    -0.2134     -0.581     -0.843    22.5425 0.0000e+00
     -0.593 -1.863e-07     7.5193     86.903      0.725   0.689481    -0.1529      6.318   262.5179 3.8184e+02    -0.2162     -0.581     -0.843    22.5424 0.0000e+00
     -0.593 -1.693e-08     7.5187     86.895      0.713   0.677943    -0.1643      6.319   263.8390 3.8349e+02    -0.2072     -0.580     -0.842    22.5422 0.0000e+00
     -0.593 -1.539e-09     7.5193     86.902      0.711   0.675760    -0.1722      6.321   264.2571 3.8929e+02    -0.1644     -0.581     -0.843    22.5422 0.0000e+00
     -0.592 -1.400e-10     7.5203     86.914      0.697   0.663088    -0.1651      6.322   264.2184 3.9296e+02    -0.1268     -0.581     -0.842    22.5421 0.0000e+00
     -0.592 -1.272e-11     7.5194     86.903      0.685   0.651550    -0.1607      6.323   264.6617 3.9241e+02    -0.1483     -0.581     -0.842    22.5420 0.0000e+00
     -0.593 -1.157e-12     7.5183     86.890      0.697   0.663080    -0.1657      6.323   266.0885 3.9000e+02    -0.1812     -0.581     -0.843    22.5418 0.0000e+00
     -0.593 -1.052e-13     7.5169     86.874      0.711   0.675667    -0.1607      6.322   267.6177 3.8378e+02    -0.1582     -0.581     -0.843    22.5417 0.0000e+00
     -0.593 -9.560e-15     7.5158     86.860      0.712   0.676914    -0.1554      6.322   268.6960 3.7027e+02    -0.1456     -0.581     -0.843    22.5417 0.0000e+00
     -0.593 -8.690e-16     7.5169     86.873      0.713   0.678160    -0.1665      6.321   270.6087 3.5368e+02    -0.1813     -0.581     -0.843    22.5415 0.0000e+00
     -0.592 -7.900e-17     7.5185     86.892      0.727   0.690738    -0.1847      6.321   280.0756 3.4313e+02    -0.1926     -0.581     -0.842    22.5412 0.0000e+00
     -0.592 -7.180e-18     7.5187     86.893      0.739   0.702166    -0.1915      6.321   291.0115 3.3855e+02    -0.1902     -0.581     -0.842    22.5411 0.0000e+00
     -0.592 -6.530e-19     7.5194     86.902      0.725   0.689503    -0.1758      6.317   288.4013 3.2975e+02    -0.2133     -0.581     -0.843    22.5412 0.0000e+00
     -0.593 -5.939e-20     7.5216     86.927      0.699   0.664463    -0.1600      6.312   279.4898 3.1894e+02    -0.2269     -0.581     -0.843    22.5412 0.0000e+00
     -0.593 -5.886e-21     7.5225     86.937      0.687   0.653048    -0.1656      6.308   176.8106 3.2111e+02    -0.2338     -0.581     -0.843    22.5411 0.0000e+00
     -0.593 -5.887e-21     7.5220     86.931      0.714   0.678319    -0.1782      6.303   -24.9782 3.3166e+02    -0.2358     -0.582     -0.844    22.5409 0.0000e+00
     -0.593 -5.941e-20     7.5208     86.916      0.754   0.716367    -0.1749      6.300  -129.9672 3.3326e+02    -0.2506     -0.581     -0.842    22.5407 0.0000e+00
     -0.593 -6.530e-19     7.5195     86.901      0.771   0.732604    -0.1624      6.300  -125.9513 3.2664e+02    -0.2909     -0.581     -0.843    22.5406 0.0000e+00
     -0.593 -7.183e-18     7.5198     86.904      0.787   0.747817    -0.1651      6.303  -112.7945 3.1832e+02    -0.2650     -0.581     -0.843    22.5404 0.0000e+00
     -0.593 -7.901e-17     7.5219     86.929      0.813   0.773477    -0.1706      6.304  -100.8946 3.0959e+02    -0.1514     -0.581     -0.843    22.5399 0.0000e+00
     -0.592 -8.691e-16     7.5261     86.977      0.830   0.789211    -0.1649      6.304   -91.5982 3.0564e+02    -0.0466     -0.581     -0.843    22.5400 0.0000e+00
     -0.592 -9.560e-15     7.5308     87.030      0.853   0.811232    -0.1614      6.304   -82.9908 3.0747e+02    -0.0042     -0.581     -0.842    22.5399 0.0000e+00
     -0.592 -1.052e-13     7.5346     87.075      0.893   0.849498    -0.1642      6.305   -73.6564 3.1262e+02     0.0257     -0.581     -0.842    22.5397 0.0000e+00
     -0.592 -1.157e-12     7.5375     87.109      0.917   0.871406    -0.1710      6.307   -64.0020 3.1635e+02     0.0701     -0.580     -0.842    22.5397 0.0000e+00
     -0.592 -1.272e-11     7.5392     87.129      0.932   0.885882    -0.1792      6.308   -53.9342 3.1336e+02     0.0747     -0.581     -0.843    22.5396 0.0000e+00
     -0.593 -1.400e-10     7.5411     87.150      0.944   0.897697    -0.1813      6.309   -42.2685 3.1098e+02     0.0507     -0.581     -0.843    22.5397 0.0000e+00
     -0.593 -1.540e-09     7.5430     87.172      0.933   0.887430    -0.1774      6.309   -28.5229 3.1758e+02     0.0242     -0.581     -0.843    22.5395 0.0000e+00
     -0.593 -1.694e-08     7.5434     87.176      0.934   0.888575    -0.1691      6.308   -12.9244 3.2414e+02    -0.0015     -0.581     -0.843    22.5393 0.0000e+00
     -0.593 -1.863e-07     7.5422     87.163      0.958   0.911538    -0.1641      6.306     5.5705 3.2249e+02    -0.0159     -0.581     -0.843    22.5393 0.0000e+00
     -0.593 -1.863e-07     7.5408     87.147      0.958   0.911418    -0.1720      6.305    26.4610 3.1921e+02    -0.0282     -0.582     -0.844    22.5394 0.0000e+00
     -0.593 -1.693e-08     7.5399     87.136      0.933   0.887129    -0.1723      6.305    46.7615 3.1877e+02     0.0029     -0.581     -0.843    22.5393 0.0000e+00
     -0.592 -1.539e-09     7.5392     87.128      0.916   0.871520    -0.1678      6.304    65.6062 3.2220e+02    -0.0056     -0.581     -0.843    22.5392 0.0000e+00
     -0.592 -1.400e-10     7.5388     87.123      0.893   0.849520    -0.1728      6.303    84.0392 3.3235e+02    -0.1321     -0.581     -0.843    22.5393 0.0000e+00
     -0.592 -1.272e-11     7.5385     87.120      0.853   0.811358    -0.1686      6.303    99.7922 3.4798e+02    -0.2138     -0.581     -0.843    22.5392 0.0000e+00
     -0.593 -1.156e-12     7.5389     87.124      0.831   0.790584    -0.1624      6.302   109.3781 3.6327e+02    -0.1999     -0.582     -0.844    22.5391 0.0000e+00
     -0.593 -1.040e-13     7.5391     87.126      0.829   0.788582    -0.1711      6.299   113.6433 3.7544e+02    -0.1780     -0.581     -0.843    22.5391 0.0000e+00
     -0.593 2.8265e-15     7.5381     87.115      0.828   0.787154    -0.1825      6.295   115.8279 3.8399e+02    -0.1628     -0.581     -0.843    22.5390 0.0000e+00
     -0.593 1.3538e-13     7.5367     87.099      0.813   0.773314    -0.1807      6.292   118.9281 3.9043e+02    -0.1681     -0.582     -0.844    22.5390 0.0000e+00
     -0.593 1.4987e-12     7.5355     87.084      0.787   0.748066    -0.1767      6.292   122.9925 3.9849e+02    -0.1811     -0.581     -0.843    22.5390 0.0000e+00
     -0.593 1.6486e-11     7.5342     87.069      0.774   0.735531    -0.1797      6.292   113.9494 4.0566e+02    -0.1989     -0.582     -0.844    22.5389 0.0000e+00
     -0.593 1.8135e-10     7.5336     87.062      0.787   0.748576    -0.1811      6.293   100.7040 4.0626e+02    -0.2302     -0.582     -0.845    22.5387 0.0000e+00
     -0.593 1.9948e-09     7.5331     87.056      0.819   0.778974    -0.1746      6.294   107.7349 4.0190e+02    -0.2227     -0.582     -0.844    22.5387 0.0000e+00
     -0.593 2.1943e-08     7.5314     87.036      0.827   0.786013    -0.1659      6.294   118.7704 3.9604e+02    -0.2009     -0.582     -0.845    22.5386 0.0000e+00
     -0.593 2.4138e-07     7.5310     87.031      0.810   0.770263    -0.1679      6.295   122.5400 3.8329e+02    -0.2109     -0.582     -0.844    22.5388 0.0000e+00
     -0.593      0.000     7.5322     87.046      0.819   0.778773    -0.1708      6.295   128.3618 3.6061e+02    -0.2215     -0.582     -0.844    22.5384 0.0000e+00
     -0.593      0.000     7.5322     87.046      0.868   0.825499    -0.1639      6.295   132.8053 3.3789e+02    -0.2061     -0.581     -0.843    22.5387 0.0000e+00
     -0.593      0.000     7.5300     87.036      1.069   1.018165    -0.1581      6.290    93.3246 3.1948e+02    -0.2090     -0.581     -0.843    22.5377 0.0000e+00
     -0.593      0.004     7.5160     87.031      3.044   2.918050    -0.1654      6.336    18.1330 3.0550e+02    -0.2559     -0.582     -0.844    22.5388 0.0000e+00
     -0.593      0.014     7.4735     87.033     10.458  10.097679    -0.1786      6.530    57.3908 3.0373e+02    -0.2540     -0.581     -0.843    22.5370 0.0000e+00
     -0.593      0.033     7.4102     87.039     21.833  21.210967    -0.1802      6.872   210.9248 3.1337e+02    -0.1863     -0.580     -0.842    22.5403 0.0000e+00
     -0.591      0.059     7.3537     87.049     29.577  28.898998    -0.1663      7.276   298.9480 3.2599e+02    -0.1701     -0.582     -0.844    22.5348 0.0000e+00
     -0.581      0.091     7.3146     87.059     31.701  31.134910    -0.1486      7.642   308.9449 3.3487e+02    -0.2102     -0.580     -0.840    22.5495 0.0000e+00
     -0.551      0.129     7.2856     87.058     31.855  31.418686    -0.1315      7.890   302.3705 3.3769e+02    -0.1225     -0.545     -0.791    22.8676 0.0000e+00
     -0.507      0.169     7.2629     87.070     31.830  31.504696     0.0230      7.996   284.3313 3.3775e+02     1.1653     -0.496     -0.721    23.4333 0.0000e+00
     -0.457      0.206     7.2477     87.116     31.774  31.539924     0.3121      8.008   271.6029 3.4227e+02     3.4894     -0.451     -0.653    23.8573 0.0000e+00
     -0.400      0.240     7.2409     87.196     31.698  31.527216     0.4698      7.970   268.8421 3.5448e+02     4.6920     -0.397     -0.576    24.1206 0.0000e+00
     -0.331      0.268     7.2440     87.330     31.611  31.478148     0.5049      7.900   268.5029 3.6673e+02     4.6890     -0.325     -0.471    24.3175 0.0000e+00
     -0.258      0.289     7.2565     87.530     31.568  31.454771     0.7826      7.813   268.8782 3.7111e+02     3.7588     -0.252     -0.365    24.4937 0.0000e+00
     -0.182      0.304     7.2767     87.793     31.540  31.435116     1.3007      7.723   270.1101 3.5419e+02     1.9901     -0.186     -0.269    24.6428 0.0000e+00
     -0.096      0.307     7.3048     88.138     31.470  31.367525     1.5864      7.649   271.1803 2.9595e+02     1.0046     -0.093     -0.135    24.7386 0.0000e+00
     -0.007      0.300     7.3493     88.668     31.441  31.336129     1.6087      7.590   271.7513 2.1707e+02     0.9067     -0.004     -0.006    24.7964 0.0000e+00
      0.076      0.290     7.4235     89.544     31.486  31.373041     1.6071      7.541   272.7115 1.6385e+02     0.8974      0.075      0.108    24.8214 0.0000e+00
      0.151      0.280     7.5159     90.629     31.493  31.369255     1.6121      7.503   273.5833 1.3864e+02     0.8929      0.159      0.231    24.8308 0.0000e+00
      0.206      0.269     7.5895     91.485     31.489  31.353838     1.6231      7.477   274.0327 1.2270e+02     0.8825      0.206      0.299    24.8327 0.0000e+00
      0.258      0.255     7.6165     91.786     31.522  31.377139     1.6206      7.460   274.5314 1.0897e+02     0.8932      0.240      0.348    24.8311 0.0000e+00
      0.330      0.236     7.5853     91.387     31.550  31.396948     1.5912      7.447   275.0530 9.8438e+01     0.9007      0.322      0.466    24.8180 0.0000e+00
      0.408      0.216     7.4990     90.322     31.565  31.402806     1.5612      7.437   275.6074 9.4047e+01     0.9118      0.409      0.593    24.7974 0.0000e+00
      0.469      0.195     7.3715     88.755     31.559  31.384454     1.5522      7.431   276.1585 9.2658e+01     0.9354      0.463      0.672    24.7783 0.0000e+00
      0.512      0.169     7.2220     86.925     31.552  31.365561     1.5469      7.426   276.6405 9.2921e+01     0.9115      0.508      0.738    24.7638 0.0000e+00
      0.540      0.136     7.0781     85.175     31.559  31.364867     1.5611      7.422   277.1330 9.5001e+01     0.8675      0.533      0.772    24.7523 0.0000e+00
      0.563      0.105     6.9606     83.750     31.575  31.376058     1.6052      7.419   277.8973 9.7067e+01     0.8612      0.548      0.795    24.7385 0.0000e+00
      0.590      0.081     6.8753     82.716     31.576  31.373849     1.6389      7.416   278.9124 9.7846e+01     0.8656      0.582      0.844    24.7169 0.0000e+00
      0.613      0.065     6.8217     82.063     31.543  31.338159     1.6468      7.411   279.7700 9.7727e+01     0.8595      0.607      0.880    24.6949 0.0000e+00
      0.624      0.060     6.7916     81.694     31.534  31.325573     1.6362      7.403   280.4366 9.7850e+01     0.8481      0.614      0.891    24.6842 0.0000e+00
      0.629      0.063     6.7726     81.457     31.560  31.348675     1.6211      7.394   281.1216 9.7969e+01     0.8501      0.616      0.894    24.6789 0.0000e+00
      0.635      0.078     6.7552     81.240     31.578  31.363446     1.6208      7.384   282.1162 9.6496e+01     0.8838      0.620      0.899    24.6743 0.0000e+00
      0.650      0.108     6.7377     81.022     31.595  31.377159     1.6324      7.370   283.4277 9.3100e+01     0.9205      0.631      0.916    24.6692 0.0000e+00
      0.679      0.156     6.7213     80.817     31.609  31.387446     1.6416      7.353   284.5892 8.9150e+01     0.9271      0.663      0.961    24.6648 0.0000e+00
      0.719      0.214     6.7139     80.717     31.587  31.360796     1.6397      7.337   285.4916 8.5263e+01     0.9027      0.701      1.017    24.6594 0.0000e+00
      0.775      0.271     6.7235     80.822     31.539  31.308964     1.6280      7.326   286.3360 8.0653e+01     0.8702      0.748      1.086    24.6534 0.0000e+00
      0.858      0.316     6.7460     81.082     31.503  31.268805     1.6285      7.317   287.0550 7.5212e+01     0.8698      0.833      1.207    24.6505 0.0000e+00
      0.965      0.346     6.7732     81.396     31.496  31.256277     1.6655      7.309   287.6457 6.9969e+01     0.8972      0.945      1.371    24.6443 0.0000e+00
      1.075      0.359     6.7967     81.659     31.532  31.284495     1.9272      7.303   288.4887 6.5698e+01     0.8966      1.059      1.536    24.6363 0.0000e+00
      1.175      0.358     6.8120     81.802     31.621  31.355950     2.3853      7.295   289.3316 6.2259e+01     0.8936      1.155      1.676    24.6299 0.0000e+00
      1.262      0.345     6.8186     81.800     31.721  31.421617     2.6279      7.288   289.7486 5.9265e+01     0.9217      1.240      1.799    24.6226 0.0000e+00
      1.340      0.325     6.8142     81.608     31.802  31.443330     2.6453      7.284   289.9180 5.6469e+01     0.9308      1.317      1.910    24.6157 0.0000e+00
      1.413      0.303     6.7985     81.221     31.872  31.427865     2.6052      7.284   289.7446 5.3671e+01     0.9118      1.384      2.006    24.6061 0.0000e+00
      1.491      0.283     6.7741     80.660     31.987  31.425042     2.5192      7.287   289.4590 5.0960e+01     0.8751      1.461      2.118    24.5845 0.0000e+00
      1.571      0.264     6.7466     79.962     32.198  31.472538     2.4703      7.288   289.8204 4.8585e+01     0.8538      1.546      2.243    24.5361 0.0000e+00
      1.639      0.248     6.7239     79.232     32.424  31.493825     2.4638      7.284   290.8451 4.6686e+01     0.8682      1.612      2.338    24.4427 0.0000e+00
      1.694      0.235     6.7124     78.604     32.578  31.428097     2.3858      7.275   292.0396 4.5209e+01     0.8654      1.664      2.413    24.3104 0.0000e+00
      1.742      0.225     6.7131     78.137     32.675  31.312598     2.2344      7.265   293.0789 4.3821e+01     0.8512      1.709      2.479    24.1437 0.0000e+00
      1.792      0.222     6.7241     77.816     32.739  31.176690     2.1499      7.255   293.8602 4.2186e+01     0.8797      1.754      2.545    23.8963 0.0000e+00
      1.847      0.227     6.7416     77.587     32.744  30.991224     2.1358      7.244   294.6036 4.0335e+01     0.9351      1.809      2.624    23.5648 0.0000e+00
      1.907      0.242     6.7660     77.407     32.739  30.784584     2.0271      7.231   295.5284 3.8435e+01     0.9714      1.871      2.713    23.2244 0.0000e+00
      1.970      0.259     6.8066     77.362     32.898  30.710176     1.8194      7.219   296.3518 3.6564e+01     1.0138      1.931      2.800    22.9049 0.0000e+00
      2.036      0.273     6.8707     77.582     33.223  30.789824     1.7014      7.209   296.8153 3.4693e+01     1.0500      1.993      2.892    22.6009 0.0000e+00
      2.110      0.278     6.9567     78.101     33.510  30.858193     1.6840      7.201   297.2606 3.2716e+01     1.0440      2.065      2.996    22.3253 0.0000e+00
      2.190      0.278     7.0552     78.863     33.581  30.774454     1.6826      7.191   297.9499 3.0772e+01     1.0634      2.149      3.116    22.0281 0.0000e+00
      2.270      0.277     7.1561     79.747     33.438  30.539228     1.6850      7.179   298.8693 2.9172e+01     1.1010      2.233      3.239    21.6690 0.0000e+00
      2.338      0.274     7.2555     80.602     33.362  30.363715     1.6860      7.166   299.6871 2.7927e+01     1.1017      2.297      3.331    21.3217 0.0000e+00
      2.397      0.269     7.3453     81.293     33.577  30.430375     1.6855      7.155   300.0077 2.6796e+01     1.1017      2.348      3.406    21.0138 0.0000e+00
      2.459      0.261     7.4099     81.696     33.890  30.582955     1.6785      7.147   299.9924 2.5604e+01     1.1019      2.408      3.492    20.7799 0.0000e+00
      2.529      0.254     7.4308     81.669     33.980  30.557195     1.6838      7.138   300.6206 2.4356e+01     1.1043      2.478      3.594    20.6695 0.0000e+00
      2.603      0.249     7.3976     81.144     33.850  30.372800     1.6938      7.127   302.0971 2.3236e+01     1.1001      2.556      3.707    20.5202 0.0000e+00
      2.670      0.244     7.3272     80.228     33.791  30.258557     1.6807      7.113   303.0458 2.2361e+01     1.0816      2.623      3.804    20.3074 0.0000e+00
      2.726      0.237     7.2505     79.123     33.915  30.255426     1.6813      7.097   303.7450 2.1625e+01     1.0942      2.674      3.878    20.1123 0.0000e+00
      2.778      0.231     7.1834     78.012     34.045  30.207778     1.7839      7.079   305.1303 2.0920e+01     1.1610      2.722      3.947    19.9249 0.0000e+00
      2.835      0.231     7.1279     77.009     34.225  30.190268     1.9464      7.061   306.3736 2.0195e+01     1.2488      2.779      4.031    19.8491 0.0000e+00
      2.895      0.236     7.0872     76.209     34.530  30.297506     2.0199      7.046   306.9909 1.9447e+01     1.2706      2.841      4.122    19.8116 0.0000e+00
      2.952      0.245     7.0687     75.705     34.759  30.361058     2.0203      7.033   307.2596 1.8678e+01     1.2411      2.891      4.193    19.6296 0.0000e+00
      3.014      0.255     7.0737     75.491     34.855  30.323437     2.0610      7.022   307.3846 1.7879e+01     1.2586      2.950      4.279    19.3610 0.0000e+00
      3.085      0.262     7.0922     75.440     35.016  30.350530     2.1537      7.011   307.2982 1.7123e+01     1.2978      3.027      4.390    19.0925 0.0000e+00
      3.155      0.262     7.1136     75.448     35.301  30.497970     2.2137      7.003   306.8170 1.6423e+01     1.2887      3.095      4.490    18.8513 0.0000e+00
      3.225      0.253     7.1188     75.461     35.421  30.581820     2.2163      7.001   306.2988 1.5717e+01     1.2705      3.160      4.584    18.6659 0.0000e+00
      3.296      0.238     7.0920     75.445     35.229  30.538729     2.2130      6.999   306.2810 1.5054e+01     1.2610      3.232      4.687    18.4881 0.0000e+00
      3.362      0.223     7.0533     75.391     34.979  30.485180     2.2017      6.993   306.9455 1.4568e+01     1.2654      3.304      4.793    18.3399 0.0000e+00
      3.412      0.215     7.0433     75.358     34.964  30.506170     2.1708      6.979   307.8812 1.4233e+01     1.2928      3.352      4.862    18.1641 0.0000e+00
      3.449      0.215     7.0843     75.458     35.251  30.602047     2.1432      6.964   308.3882 1.3883e+01     1.2871      3.379      4.901    18.0600 0.0000e+00
      3.489      0.214     7.1688     75.732     35.685  30.691608     2.1344      6.952   308.2576 1.3417e+01     1.2879      3.416      4.955    18.3108 0.0000e+00
      3.546      0.208     7.2534     76.101     36.047  30.763060     2.2119      6.942   307.7642 1.2823e+01     1.3330      3.471      5.034    18.6629 0.0000e+00
      3.620      0.193     7.2867     76.456     36.123  30.830557     2.3723      6.935   307.2410 1.2193e+01     1.3450      3.549      5.147    18.7231 0.0000e+00
      3.692      0.168     7.2788     76.796     35.947  30.872641     2.4651      6.930   306.8354 1.1728e+01     1.3106      3.632      5.267    18.4816 0.0000e+00
      3.739      0.133     7.2814     77.206     35.767  30.891121     2.4701      6.926   306.6463 1.1529e+01     1.2841      3.678      5.335    17.9989 0.0000e+00
      3.756      0.094     7.3153     77.752     35.711  30.927209     2.5153      6.923   306.6757 1.1502e+01     1.3593      3.688      5.349    17.5040 0.0000e+00
      3.758      0.061     7.3684     78.378     35.754  30.991539     2.6173      6.919   306.6739 1.1522e+01     1.4880      3.686      5.345    17.5478 0.0000e+00
      3.755      0.040     7.4194     78.898     35.815  31.033876     2.6736      6.915   306.5382 1.1516e+01     1.5276      3.681      5.339    17.9881 0.0000e+00
      3.757      0.030     7.4510     79.168     35.876  31.058035     2.6717      6.911   306.4118 1.1414e+01     1.5025      3.679      5.336    18.2288 0.0000e+00
      3.770      0.028     7.4565     79.166     35.947  31.093072     2.6218      6.909   306.3507 1.1246e+01     1.4289      3.693      5.355    18.3162 0.0000e+00
      3.789      0.028     7.4332     78.886     36.019  31.139931     2.5299      6.906   306.3157 1.1136e+01     1.3396      3.720      5.395    18.3581 0.0000e+00
      3.801      0.028     7.3800     78.291     36.081  31.180019     2.4796      6.902   306.4182 1.1127e+01     1.3073      3.733      5.415    18.3286 0.0000e+00
      3.802      0.031     7.3018     77.378     36.145  31.196710     2.4733      6.897   306.8157 1.1153e+01     1.2821      3.729      5.408    18.2786 0.0000e+00
      3.799      0.041     7.2179     76.256     36.292  31.214678     2.4817      6.887   307.5082 1.1147e+01     1.2491      3.725      5.401    18.2337 0.0000e+00
      3.800      0.061     7.1598     75.138     36.637  31.270109     2.5076      6.873   308.5962 1.1069e+01     1.2741      3.724      5.401    18.2219 0.0000e+00
      3.813      0.090     7.1443     74.209     37.173  31.358553     2.5196      6.855   309.9044 1.0890e+01     1.3405      3.733      5.415    18.2139 0.0000e+00
      3.842      0.125     7.1578     73.533     37.762  31.457954     2.5172      6.834   311.2804 1.0591e+01     1.3809      3.763      5.458    18.1784 0.0000e+00
      3.883      0.157     7.1754     73.072     38.292  31.582308     2.5149      6.814   312.9294 1.0178e+01     1.3653      3.805      5.519    18.0711 0.0000e+00
      3.935      0.184     7.1910     72.756     38.823  31.782041     2.5284      6.798   314.4413 9.7324e+00     1.3958      3.856      5.593    17.7490 0.0000e+00
      3.993      0.204     7.2177     72.555     39.419  32.030811     2.5609      6.783   315.5361 9.3280e+00     1.5051      3.917      5.682    17.1947 0.0000e+00
      4.048      0.219     7.2661     72.553     39.983  32.239929     2.5868      6.770   316.2721 8.9372e+00     1.5581      3.973      5.761    16.5991 0.0000e+00
      4.101      0.230     7.3431     72.851     40.408  32.341279     2.5930      6.760   316.3715 8.5017e+00     1.5791      4.019      5.829    16.1842 0.0000e+00
      4.157      0.236     7.4521     73.421     40.766  32.366766     2.5250      6.755   316.0494 8.0383e+00     1.9725      4.074      5.908    15.9503 0.0000e+00
      4.219      0.238     7.5879     74.203     41.271  32.484269     2.4087      6.753   315.9910 7.5652e+00     2.7143      4.135      5.998    15.6350 0.0000e+00
      4.288      0.240     7.7403     75.168     41.860  32.681925     2.3542      6.749   316.2670 7.0254e+00     3.1325      4.203      6.096    15.2956 0.0000e+00
      4.356      0.243     7.9077     76.310     42.222  32.723839     2.3252      6.742   316.3750 6.4879e+00     3.1835      4.279      6.206    15.0330 0.0000e+00
      4.414      0.240     8.0876     77.575     42.291  32.546179     2.1220      6.736   316.0929 6.0109e+00     3.1770      4.332      6.283    14.7100 0.0000e+00
      4.466      0.225     8.2435     78.795     42.328  32.439001     1.7723      6.734   315.7820 5.4505e+00     3.1465      4.373      6.342    14.3413 0.0000e+00
      4.529      0.204     8.3344     79.829     42.400  32.571053     1.5893      6.735   315.7135 4.8225e+00     3.1200      4.439      6.439    14.0170 0.0000e+00
      4.595      0.184     8.3688     80.605     42.432  32.809111     1.5825      6.735   316.0389 4.3759e+00     3.1311      4.516      6.549    13.7606 0.0000e+00
      4.641      0.170     8.3828     81.064     42.518  33.031070     1.6342      6.732   316.8765 4.1750e+00     3.0661      4.560      6.614    13.4501 0.0000e+00
      4.667      0.167     8.4062     81.236     42.634  33.095410     1.7363      6.724   317.4952 4.0131e+00     2.8533      4.576      6.637    13.1939 0.0000e+00
      4.691      0.167     8.4596     81.253     42.838  33.015366     1.7976      6.717   317.4116 3.7896e+00     2.6943      4.598      6.669    13.3355 0.0000e+00
      4.723      0.168     8.5201     81.192     43.153  32.952201     1.8053      6.715   316.9836 3.4962e+00     2.6700      4.623      6.705    13.7035 0.0000e+00
      4.774      0.168     8.5306     81.044     43.327  32.966471     1.8294      6.716   316.5357 3.0898e+00     2.6204      4.671      6.774    13.9111 0.0000e+00
      4.844      0.163     8.4858     80.862     43.296  33.060727     1.8685      6.718   316.2983 2.7319e+00     2.5221      4.758      6.900    13.9163 0.0000e+00
      4.901      0.148     8.4216     80.762     43.159  33.202765     1.8827      6.719   316.3500 2.5691e+00     2.5191      4.819      6.990    13.5884 0.0000e+00
      4.931      0.125     8.3504     80.807     42.895  33.350284     1.8824      6.719   316.9034 2.4972e+00     2.5535      4.838      7.017    13.0684 0.0000e+00
      4.948      0.105     8.2912     80.972     42.483  33.383896     1.9015      6.714   317.9993 2.4388e+00     2.5407      4.853      7.038    12.9201 0.0000e+00
      4.959      0.103     8.2922     81.210     42.064  33.164990     1.9295      6.701   318.9303 2.4101e+00     2.5478      4.866      7.057    13.1588 0.0000e+00
      4.967      0.124     8.3731     81.495     41.983  32.863195     1.9355      6.686   319.1261 2.3823e+00     2.5483      4.870      7.063    13.4079 0.0000e+00
      4.984      0.160     8.4993     81.745     42.470  32.783385     1.9295      6.675   318.7318 2.2659e+00     2.5161      4.877      7.072    13.8363 0.0000e+00
      5.030      0.195     8.6150     81.862     43.315  32.961647     1.9385      6.669   318.2072 2.0288e+00     2.4940      4.918      7.133    14.4219 0.0000e+00
      5.108      0.219     8.6780     81.715     44.150  33.239560     2.0082      6.668   317.8598 1.7721e+00     2.4945      5.007      7.262    14.5819 0.0000e+00
      5.195      0.223     8.6548     81.199     44.569  33.411998     2.1104      6.668   317.6290 1.5864e+00     2.4913      5.102      7.399    14.2421 0.0000e+00
      5.268      0.208     8.5420     80.381     44.470  33.458500     2.1538      6.667   317.3956 1.4672e+00     2.4859      5.173      7.502    13.5816 0.0000e+00
      5.319      0.177     8.4005     79.470     44.310  33.547897     2.1475      6.667   317.1881 1.3934e+00     2.4908      5.226      7.579    13.0011 0.0000e+00
      5.349      0.136     8.2891     78.685     44.290  33.667416     2.1258      6.668   316.8413 1.3597e+00     2.4893      5.252      7.617    12.5767 0.0000e+00
      5.364      0.097     8.2191     78.145     44.329  33.760421     2.0934      6.669   316.2990 1.3384e+00     2.4985      5.257      7.625    12.3287 0.0000e+00
      5.380      0.068     8.1866     77.901     44.399  33.846741     2.0682      6.670   315.9664 1.3131e+00     2.5102      5.275      7.651    12.5954 0.0000e+00
      5.398      0.057     8.1793     77.858     44.432  33.885399     2.0600      6.670   315.9175 1.2980e+00     2.5086      5.298      7.683    12.9084 0.0000e+00
      5.409 -9.990e-29 -9.990e-29 -9.990e-29 -9.990e-29 -9.990e-29 -9.990e-29 -9.990e-29 -9.990e-29 1.2930e+00 -9.990e-29      5.306      7.696    13.0278 0.0000e+00
      5.414 -9.990e-29 -9.990e-29 -9.990e-29 -9.990e-29 -9.990e-29 -9.990e-29 -9.990e-29 -9.990e-29 1.2904e+00 -9.990e-29      5.309      7.701    13.0873 0.0000e+00
      5.416 -9.990e-29 -9.990e-29 -9.990e-29 -9.990e-29 -9.990e-29 -9.990e-29 -9.990e-29 -9.990e-29 1.2857e+00 -9.990e-29      5.312      7.704    13.1134 0.0000e+00
      5.417 -9.990e-29 -9.990e-29 -9.990e-29 -9.990e-29 -9.990e-29 -9.990e-29 -9.990e-29 -9.990e-29 1.2824e+00 -9.990e-29      5.313      7.706    13.1472 0.0000e+00
