* Sea-Bird SBE19plus  Data File:
* FileName = C:\R\Reservoirs\Data\DataNotYetUploadedToEDI\Raw_CTD\RawDownloads\062623_fcr50_S8188_0014.hex
* Software version 2.8.0.119
* Temperature SN = 8188
* Conductivity SN = 8188
* System UpLoad Time = Jul 03 2023 16:34:07
* <ApplicationData>
* <Seaterm232>
* <SoftwareVersion>2.8.0.119</SoftwareVersion>
* <BuildDate>07-Nov-2018</BuildDate>
* </Seaterm232>
* </ApplicationData>
* <InstrumentState>
* <HardwareData DeviceType='SBE19plus' SerialNumber='01908188'>
*
*    <Manufacturer>Sea-Bird Electronics, Inc.</Manufacturer>
*
*    <FirmwareVersion>3.1.8</FirmwareVersion>
*
*    <FirmwareDate>Mar  9 2016 16:22:29</FirmwareDate>
*
*    <CommandSetVersion>1.4</CommandSetVersion>
*
*    <PCBAssembly PCBSerialNum='260079' AssemblyNum='41054K'/>
*
*    <PCBAssembly PCBSerialNum='260083' AssemblyNum='41059E'/>
*
*    <PCBAssembly PCBSerialNum='260085' AssemblyNum='41606B'/>
*
*    <PCBAssembly PCBSerialNum='260081' AssemblyNum='41967C'/>
*
*    <MfgDate>30 Mar 2022</MfgDate>
*
*    <InternalSensors>
*
*       <Sensor id='Main Temperature'>
*
*          <type>temperature0</type>
*
*          <SerialNumber>01908188</SerialNumber>
*
*       </Sensor>
*
*       <Sensor id='Main Conductivity'>
*
*          <type>conductivity-0</type>
*
*          <SerialNumber>01908188</SerialNumber>
*
*       </Sensor>
*
*       <Sensor id='Main Pressure'>
*
*          <type>strain-0</type>
*
*          <SerialNumber>12220741</SerialNumber>
*
*       </Sensor>
*
*    </InternalSensors>
*
*    <ExternalSensors>
*
*       <Sensor id='volt 0'>
*
*          <type>CHL</type>
*
*          <SerialNumber>FLNTURT-7096</SerialNumber>
*
*       </Sensor>
*
*       <Sensor id='volt 1'>
*
*          <type>NTU</type>
*
*          <SerialNumber>FLNTURT-7096</SerialNumber>
*
*       </Sensor>
*
*       <Sensor id='volt 2'>
*
*          <type>OXY</type>
*
*          <SerialNumber>43-4269</SerialNumber>
*
*       </Sensor>
*
*       <Sensor id='volt 3'>
*
*          <type>not assigned</type>
*
*          <SerialNumber>not assigned</SerialNumber>
*
*       </Sensor>
*
*       <Sensor id='volt 4'>
*
*          <type>PAR</type>
*
*          <SerialNumber>PARLOGICSW-2209</SerialNumber>
*
*       </Sensor>
*
*       <Sensor id='volt 5'>
*
*          <type>not assigned</type>
*
*          <SerialNumber>not assigned</SerialNumber>
*
*       </Sensor>
*
*       <Sensor id='serial'>
*
*          <type>WETLABS</type>
*
*          <SerialNumber>FL3-7350</SerialNumber>
*
*       </Sensor>
*
*    </ExternalSensors>
*
* </HardwareData>
* <StatusData DeviceType='SBE19plus' SerialNumber='01908188'>
*
*    <DateTime>2023-07-03T16:29:20</DateTime>
*
*    <LoggingState>not logging</LoggingState>
*
*    <EventSummary numEvents='0'/>
*
*    <Power>
*
*       <vMain>12.2</vMain>
*
*       <vLith>8.8</vLith>
*
*       <iMain>61.8</iMain>
*
*       <iPump>48.2</iPump>
*
*       <iExt01>22.4</iExt01>
*
*       <iExt2345>20.3</iExt2345>
*
*       <iSerial>45.4</iSerial>
*
*    </Power>
*
*    <MemorySummary>
*
*       <Bytes>665325</Bytes>
*
*       <Samples>26613</Samples>
*
*       <SamplesFree>2605312</SamplesFree>
*
*       <SampleLength>25</SampleLength>
*
*       <Profiles>25</Profiles>
*
*    </MemorySummary>
*
* </StatusData>
* <ConfigurationData DeviceType='SBE19plus' SerialNumber='01908188'>
*
*    <ProfileMode>
*
*       <ScansToAverage>1</ScansToAverage>
*
*       <MinimumCondFreq>5</MinimumCondFreq>
*
*       <PumpDelay>40</PumpDelay>
*
*       <AutoRun>no</AutoRun>
*
*       <IgnoreSwitch>no</IgnoreSwitch>
*
*    </ProfileMode>
*
*    <Battery>
*
*       <Type>alkaline</Type>
*
*       <CutOff>7.5</CutOff>
*
*    </Battery>
*
*    <DataChannels>
*
*       <ExtVolt0>yes</ExtVolt0>
*
*       <ExtVolt1>yes</ExtVolt1>
*
*       <ExtVolt2>yes</ExtVolt2>
*
*       <ExtVolt3>no</ExtVolt3>
*
*       <ExtVolt4>yes</ExtVolt4>
*
*       <ExtVolt5>no</ExtVolt5>
*
*       <SBE38>no</SBE38>
*
*       <WETLABS>yes</WETLABS>
*
*       <OPTODE>no</OPTODE>
*
*       <SBE63>no</SBE63>
*
*       <SeaFET>no</SeaFET>
*
*       <GTD>no</GTD>
*
*    </DataChannels>
*
*    <EchoCharacters>yes</EchoCharacters>
*
*    <OutputExecutedTag>yes</OutputExecutedTag>
*
*    <OutputFormat>raw HEX</OutputFormat>
*
* </ConfigurationData>
* <CalibrationCoefficients DeviceType='SBE19plus' SerialNumber='01908188'>
*
*    <Calibration format='TEMP1' id='Main Temperature'>
*
*       <SerialNum>01908188</SerialNum>
*
*       <CalDate>21-Aug-22</CalDate>
*
*       <TA0>1.265284e-03</TA0>
*
*       <TA1>2.691806e-04</TA1>
*
*       <TA2>-5.655711e-07</TA2>
*
*       <TA3>1.602369e-07</TA3>
*
*       <TOFFSET>0.000000e+00</TOFFSET>
*
*    </Calibration>
*
*    <Calibration format='WBCOND0' id='Main Conductivity'>
*
*       <SerialNum>01908188</SerialNum>
*
*       <CalDate>21-Aug-22</CalDate>
*
*       <G>-1.009562e+00</G>
*
*       <H>1.439229e-01</H>
*
*       <I>-4.343583e-04</I>
*
*       <J>5.328694e-05</J>
*
*       <CPCOR>-9.570000e-08</CPCOR>
*
*       <CTCOR>3.250000e-06</CTCOR>
*
*       <CSLOPE>1.000000e+00</CSLOPE>
*
*    </Calibration>
*
*    <Calibration format='STRAIN0' id='Main Pressure'>
*
*       <SerialNum>12220741</SerialNum>
*
*       <CalDate>11-Aug-22</CalDate>
*
*       <PA0>1.627942e-01</PA0>
*
*       <PA1>4.835849e-04</PA1>
*
*       <PA2>-3.975488e-12</PA2>
*
*       <PTCA0>5.244803e+05</PTCA0>
*
*       <PTCA1>2.817194e+01</PTCA1>
*
*       <PTCA2>-5.842684e-01</PTCA2>
*
*       <PTCB0>2.522087e+01</PTCB0>
*
*       <PTCB1>5.750000e-04</PTCB1>
*
*       <PTCB2>0.000000e+00</PTCB2>
*
*       <PTEMPA0>-5.709556e+01</PTEMPA0>
*
*       <PTEMPA1>5.248567e+01</PTEMPA1>
*
*       <PTEMPA2>-2.281498e-01</PTEMPA2>
*
*       <POFFSET>-4.700000e-02</POFFSET>
*
*       <PRANGE>1.600000e+02</PRANGE>
*
*    </Calibration>
*
*    <Calibration format='VOLT0' id='Volt 0'>
*
*       <OFFSET>-4.657200e-02</OFFSET>
*
*       <SLOPE>1.248989e+00</SLOPE>
*
*    </Calibration>
*
*    <Calibration format='VOLT0' id='Volt 1'>
*
*       <OFFSET>-4.600800e-02</OFFSET>
*
*       <SLOPE>1.249849e+00</SLOPE>
*
*    </Calibration>
*
*    <Calibration format='VOLT0' id='Volt 2'>
*
*       <OFFSET>-4.668000e-02</OFFSET>
*
*       <SLOPE>1.250379e+00</SLOPE>
*
*    </Calibration>
*
*    <Calibration format='VOLT0' id='Volt 3'>
*
*       <OFFSET>-4.643200e-02</OFFSET>
*
*       <SLOPE>1.251002e+00</SLOPE>
*
*    </Calibration>
*
*    <Calibration format='VOLT0' id='Volt 4'>
*
*       <OFFSET>-4.606100e-02</OFFSET>
*
*       <SLOPE>1.249962e+00</SLOPE>
*
*    </Calibration>
*
*    <Calibration format='VOLT0' id='Volt 5'>
*
*       <OFFSET>-4.642700e-02</OFFSET>
*
*       <SLOPE>1.248530e+00</SLOPE>
*
*    </Calibration>
*
*    <Calibration format='FREQ0' id='external frequency channel'>
*
*       <EXTFREQSF>1.000018e+00</EXTFREQSF>
*
*    </Calibration>
*
* </CalibrationCoefficients>
* <EventCounters DeviceType='SBE19plus' SerialNumber='01908188'>
*
*    <EventSummary numEvents='0'/>
*
* </EventCounters></InstrumentState>
* <Headers>
*
* cast  14 27 Jun 2023 15:15:35 samples 14190 to 15036, avg = 1, stop = mag switch
*
# nquan = 16
# nvalues = 847                         
# units = specified
# name 0 = depFM: Depth [fresh water, m]
# name 1 = dz/dtM: Descent Rate [m/s]
# name 2 = sbeox0Mg/L: Oxygen, SBE 43 [mg/l]
# name 3 = sbeox0PS: Oxygen, SBE 43 [% saturation]
# name 4 = specc: Specific Conductance [uS/cm]
# name 5 = c0uS/cm: Conductivity [uS/cm]
# name 6 = wetCDOM: Fluorescence, WET Labs CDOM [mg/m^3]
# name 7 = flECO-AFL: Fluorescence, WET Labs ECO-AFL/FL [mg/m^3]
# name 8 = flECO-AFL1: Fluorescence, WET Labs ECO-AFL/FL, 2 [mg/m^3]
# name 9 = flECO-AFL2: Fluorescence, WET Labs ECO-AFL/FL, 3 [mg/m^3]
# name 10 = par/sat/log: PAR/Logarithmic, Satlantic
# name 11 = turbWETntu0: Turbidity, WET Labs ECO [NTU]
# name 12 = prdM: Pressure, Strain Gauge [db]
# name 13 = prdE: Pressure, Strain Gauge [psi]
# name 14 = tv290C: Temperature [ITS-90, deg C]
# name 15 = flag:  0.000e+00
# span 0 =     -0.718,      6.696       
# span 1 =     -0.245,      0.168       
# span 2 =     0.0622,    14.6432       
# span 3 =      0.577,    161.615       
# span 4 =      0.439,     47.746       
# span 5 =   0.377055,  47.230262       
# span 6 =    -4.5000,     7.2900       
# span 7 =    -0.9891,     4.2333       
# span 8 =    -2.1300,     0.5112       
# span 9 =    -2.0304,    20.6847       
# span 10 = 1.1595e-01, 5.0113e+02      
# span 11 =    -0.6488,    57.8334      
# span 12 =     -0.705,      6.567      
# span 13 =     -1.022,      9.524      
# span 14 =    10.5909,    24.4905      
# span 15 = 0.0000e+00, 0.0000e+00      
# interval = seconds: 0.25
# start_time = Jun 27 2023 15:15:35 [Instrument's time stamp, header]
# bad_flag = -9.990e-29
# <Sensors count="10" >
#   <sensor Channel="1" >
#     <!-- Count, Temperature -->
#     <TemperatureSensor SensorID="58" >
#       <SerialNumber>8188</SerialNumber>
#       <CalibrationDate>21-Aug-22</CalibrationDate>
#       <A0>1.26528397e-003</A0>
#       <A1>2.69180636e-004</A1>
#       <A2>-5.65571102e-007</A2>
#       <A3>1.60236871e-007</A3>
#       <Slope>1.00000000</Slope>
#       <Offset>0.0000</Offset>
#     </TemperatureSensor>
#   </sensor>
#   <sensor Channel="2" >
#     <!-- Frequency 0, Conductivity -->
#     <ConductivitySensor SensorID="3" >
#       <SerialNumber>8188</SerialNumber>
#       <CalibrationDate>21-Aug-22</CalibrationDate>
#       <UseG_J>1</UseG_J>
#       <!-- Cell const and series R are applicable only for wide range sensors. -->
#       <SeriesR>0.0000</SeriesR>
#       <CellConst>2000.0000</CellConst>
#       <ConductivityType>0</ConductivityType>
#       <Coefficients equation="0" >
#         <A>0.00000000e+000</A>
#         <B>0.00000000e+000</B>
#         <C>0.00000000e+000</C>
#         <D>0.00000000e+000</D>
#         <M>0.0</M>
#         <CPcor>-9.57000000e-008</CPcor>
#       </Coefficients>
#       <Coefficients equation="1" >
#         <G>-1.00956200e+000</G>
#         <H>1.43922862e-001</H>
#         <I>-4.34358337e-004</I>
#         <J>5.32869425e-005</J>
#         <CPcor>-9.57000000e-008</CPcor>
#         <CTcor>3.2500e-006</CTcor>
#         <!-- WBOTC not applicable unless ConductivityType = 1. -->
#         <WBOTC>0.00000000e+000</WBOTC>
#       </Coefficients>
#       <Slope>1.00000000</Slope>
#       <Offset>0.00000</Offset>
#     </ConductivitySensor>
#   </sensor>
#   <sensor Channel="3" >
#     <!-- Count, Pressure, Strain Gauge -->
#     <PressureSensor SensorID="46" >
#       <SerialNumber>8188</SerialNumber>
#       <CalibrationDate>11-Aug-22</CalibrationDate>
#       <PA0>1.62794185e-001</PA0>
#       <PA1>4.83584930e-004</PA1>
#       <PA2>-3.97548787e-012</PA2>
#       <PTEMPA0>-5.70955636e+001</PTEMPA0>
#       <PTEMPA1>5.24856726e+001</PTEMPA1>
#       <PTEMPA2>-2.28149804e-001</PTEMPA2>
#       <PTCA0>5.24480263e+005</PTCA0>
#       <PTCA1>2.81719406e+001</PTCA1>
#       <PTCA2>-5.84268386e-001</PTCA2>
#       <PTCB0>2.52208750e+001</PTCB0>
#       <PTCB1>5.75000000e-004</PTCB1>
#       <PTCB2>0.00000000e+000</PTCB2>
#       <Offset>0.000000</Offset>
#     </PressureSensor>
#   </sensor>
#   <sensor Channel="4" >
#     <!-- A/D voltage 0, Fluorometer, WET Labs ECO-AFL/FL -->
#     <FluoroWetlabECO_AFL_FL_Sensor SensorID="20" >
#       <SerialNumber>FLNTURT-7096</SerialNumber>
#       <CalibrationDate>01-Sep-2022</CalibrationDate>
#       <ScaleFactor>5.00000000e+001</ScaleFactor>
#       <!-- Dark output -->
#       <Vblank>0.0680</Vblank>
#     </FluoroWetlabECO_AFL_FL_Sensor>
#   </sensor>
#   <sensor Channel="5" >
#     <!-- A/D voltage 1, Turbidity Meter, WET Labs, ECO-NTU -->
#     <TurbidityMeter SensorID="67" >
#       <SerialNumber>FLNTURT-7096</SerialNumber>
#       <CalibrationDate>01-Sep-2022</CalibrationDate>
#       <ScaleFactor>197.000000</ScaleFactor>
#       <!-- Dark output -->
#       <DarkVoltage>0.067000</DarkVoltage>
#     </TurbidityMeter>
#   </sensor>
#   <sensor Channel="6" >
#     <!-- A/D voltage 2, Oxygen, SBE 43 -->
#     <OxygenSensor SensorID="38" >
#       <SerialNumber>4269</SerialNumber>
#       <CalibrationDate>16-Aug-22</CalibrationDate>
#       <Use2007Equation>1</Use2007Equation>
#       <CalibrationCoefficients equation="0" >
#         <!-- Coefficients for Owens-Millard equation. -->
#         <Boc>0.0000</Boc>
#         <Soc>0.0000e+000</Soc>
#         <offset>0.0000</offset>
#         <Pcor>0.00e+000</Pcor>
#         <Tcor>0.0000</Tcor>
#         <Tau>0.0</Tau>
#       </CalibrationCoefficients>
#       <CalibrationCoefficients equation="1" >
#         <!-- Coefficients for Sea-Bird equation - SBE calibration in 2007 and later. -->
#         <Soc>4.2506e-001</Soc>
#         <offset>-0.4922</offset>
#         <A>-4.5893e-003</A>
#         <B> 1.8653e-004</B>
#         <C>-2.0781e-006</C>
#         <D0> 2.5826e+000</D0>
#         <D1> 1.92634e-004</D1>
#         <D2>-4.64803e-002</D2>
#         <E> 3.6000e-002</E>
#         <Tau20> 2.3100</Tau20>
#         <H1>-3.3000e-002</H1>
#         <H2> 5.0000e+003</H2>
#         <H3> 1.4500e+003</H3>
#       </CalibrationCoefficients>
#     </OxygenSensor>
#   </sensor>
#   <sensor Channel="7" >
#     <!-- A/D voltage 3, PAR/Logarithmic, Satlantic -->
#     <PARLog_SatlanticSensor SensorID="76" >
#       <SerialNumber>2209</SerialNumber>
#       <CalibrationDate>14-Jan-2022</CalibrationDate>
#       <a0>9.8861e-001</a0>
#       <a1>8.0845e-001</a1>
#       <Im>1.3589e+000</Im>
#       <Multiplier>1.0000e+000</Multiplier>
#     </PARLog_SatlanticSensor>
#   </sensor>
#   <sensor Channel="8" >
#     <!-- Serial RS-232, Fluorometer, WET Labs ECO-AFL/FL, 2 -->
#     <FluoroWetlabECO_AFL_FL_Sensor SensorID="20" >
#       <SerialNumber>FL3-7350</SerialNumber>
#       <CalibrationDate>10-Mar-2022</CalibrationDate>
#       <ScaleFactor>4.26000000e-002</ScaleFactor>
#       <!-- Dark output -->
#       <Vblank>50.0000</Vblank>
#     </FluoroWetlabECO_AFL_FL_Sensor>
#   </sensor>
#   <sensor Channel="9" >
#     <!-- Serial RS-232, Fluorometer, WET Labs ECO-AFL/FL, 3 -->
#     <FluoroWetlabECO_AFL_FL_Sensor SensorID="20" >
#       <SerialNumber>FL3-7350</SerialNumber>
#       <CalibrationDate>10-Mar-2022</CalibrationDate>
#       <ScaleFactor>4.23000000e-002</ScaleFactor>
#       <!-- Dark output -->
#       <Vblank>48.0000</Vblank>
#     </FluoroWetlabECO_AFL_FL_Sensor>
#   </sensor>
#   <sensor Channel="10" >
#     <!-- Serial RS-232, Fluorometer, WET Labs ECO CDOM -->
#     <FluoroWetlabCDOM_Sensor SensorID="19" >
#       <SerialNumber>FL3-7350</SerialNumber>
#       <CalibrationDate>10-Mar-2022</CalibrationDate>
#       <ScaleFactor>0.090</ScaleFactor>
#       <!-- Dark output -->
#       <Vblank>50.000</Vblank>
#     </FluoroWetlabCDOM_Sensor>
#   </sensor>
# </Sensors>
# datcnv_date = Jul 03 2023 16:59:41, 7.26.7.129 [datcnv_vars = 15]
# datcnv_in = C:\R\Reservoirs\Data\DataNotYetUploadedToEDI\Raw_CTD\RawDownloads\062723_fcrXX_S8188014.hex C:\R\Reservoirs\Data\DataNotYetUploadedToEDI\Raw_CTD\RawDownloads\SBE19plusV2_8188_start20221003.xmlcon
# datcnv_skipover = 0
# datcnv_ox_hysteresis_correction = yes
# datcnv_ox_tau_correction = yes
# filter_date = Jul 03 2023 17:00:15, 7.26.7.129
# filter_in = C:\R\Reservoirs\Data\DataNotYetUploadedToEDI\Raw_CTD\RawDownloads\062723_fcrXX_S8188014.cnv
# filter_low_pass_tc_A = 0.500
# filter_low_pass_tc_B = 1.000
# filter_low_pass_A_vars = sbeox0Mg/L sbeox0PS specc c0uS/cm tv290C
# filter_low_pass_B_vars = depFM dz/dtM prdM prdE
# alignctd_date = Jul 03 2023 17:00:42, 7.26.7.129
# alignctd_in = C:\R\Reservoirs\Data\DataNotYetUploadedToEDI\Raw_CTD\RawDownloads\062723_fcrXX_S8188014.cnv
# alignctd_adv = dz/dtM 1.000, sbeox0PS 1.000, specc 1.000, c0uS/cm 1.000, flECO-AFL 1.000, turbWETntu0 1.000                                                                                                                        
# file_type = ascii
*END*
     -0.717 -4.402e-17     8.7205     91.794      0.506   0.433682    -4.5000    -0.1803    -2.1300    -2.0304 3.2520e+02     1.3201     -0.703     -1.020    17.8255 0.0000e+00
     -0.717 -3.424e-17     8.7202     91.793      0.493   0.422585    -4.5000    -0.1842    -2.1300    -2.0304 3.2147e+02     1.3652     -0.703     -1.020    17.8259 0.0000e+00
     -0.717 -2.663e-17     8.7202     91.792      0.482   0.412495    -4.5000    -0.1880    -2.1300    -2.0304 3.2022e+02     1.3351     -0.703     -1.020    17.8264 0.0000e+00
     -0.717 -2.071e-17     8.7204     91.792      0.482   0.412583     0.0900     0.0791     0.0000     0.0423 3.1745e+02     3.4995     -0.703     -1.020    17.8270 0.0000e+00
     -0.717 -1.611e-17     8.7206     91.793      0.489   0.418919     0.0900     0.0447     0.0000     0.0423 3.1621e+02     3.4093     -0.703     -1.020    17.8275 0.0000e+00
     -0.717 -1.253e-17     8.7204     91.792      0.492   0.421329     0.0900     0.0752     0.0000     0.0423 3.1758e+02     3.3191     -0.703     -1.020    17.8281 0.0000e+00
     -0.717 -9.745e-18     8.7202     91.786      0.491   0.420457     0.0900     0.0485     0.0000     0.0423 3.1772e+02     3.3492     -0.703     -1.020    17.8287 0.0000e+00
     -0.717 -7.579e-18     8.7201     91.780      0.490   0.420024     0.0900    -0.1689     0.0000     0.0423 3.2133e+02     2.2820     -0.703     -1.020    17.8293 0.0000e+00
     -0.717 -5.895e-18     8.7200     91.780      0.490   0.419915     0.0900    -0.1918     0.0000     0.0423 3.1890e+02     2.2069     -0.703     -1.020    17.8299 0.0000e+00
     -0.717 -4.585e-18     8.7199     91.786      0.490   0.420099     0.0900    -0.1842     0.0000     0.0423 3.1911e+02     2.3121     -0.703     -1.020    17.8304 0.0000e+00
     -0.717 -3.566e-18     8.7192     91.792      0.491   0.420627     0.0900    -0.1918     0.0000     0.0423 3.1614e+02     2.2670     -0.703     -1.020    17.8310 0.0000e+00
     -0.717 -2.774e-18     8.7185     91.797      0.492   0.421640     0.0900     0.0142     0.0000     0.0423 4.7113e+02     2.7029     -0.703     -1.020    17.8316 0.0000e+00
     -0.717 -2.157e-18     8.7184     91.800      0.494   0.423407     0.0000     0.0218     0.0000     0.0423 4.8453e+02     2.7179     -0.703     -1.020    17.8322 0.0000e+00
     -0.717 -1.678e-18     8.7189     91.803      0.498   0.426399     0.0000     0.0218     0.0000     0.0423 4.9928e+02     2.6728     -0.704     -1.020    17.8328 0.0000e+00
     -0.717 -1.305e-18     8.7194     91.808      0.499   0.427461     0.0000    -0.0049     0.0000     0.0423 5.0113e+02     2.7780     -0.704     -1.020    17.8334 0.0000e+00
     -0.717 -1.015e-18     8.7197     91.811      0.494   0.422922     0.0000    -0.1002     0.0000     0.0423 4.9281e+02     3.0636     -0.704     -1.020    17.8339 0.0000e+00
     -0.717 -7.895e-19     8.7199     91.809      0.485   0.415524     0.0000    -0.0812     0.0426    -0.0423 4.8421e+02     3.1989     -0.704     -1.021    17.8345 0.0000e+00
     -0.717 -6.140e-19     8.7201     91.804      0.476   0.407250     0.0000    -0.1193     0.0426    -0.0423 4.6970e+02     3.0937     -0.704     -1.021    17.8351 0.0000e+00
     -0.717 -4.776e-19     8.7204     91.800      0.467   0.399848     0.0000    -0.0964     0.0426    -0.0423 4.6231e+02     3.0035     -0.704     -1.021    17.8357 0.0000e+00
     -0.717 -3.714e-19     8.7206     91.796      0.462   0.395297     0.0000    -0.1269     0.0426    -0.0423 4.6271e+02     3.1989     -0.704     -1.021    17.8364 0.0000e+00
     -0.717 -2.889e-19     8.7203     91.789      0.458   0.392384     0.0000    -0.1117     0.0000     0.0423 4.6021e+02     3.1538     -0.704     -1.021    17.8370 0.0000e+00
     -0.717 -2.247e-19     8.7197     91.784      0.461   0.394287     0.0000    -0.1346     0.0000     0.0423 4.5901e+02     3.0786     -0.704     -1.021    17.8376 0.0000e+00
     -0.717 -1.748e-19     8.7192     91.780      0.469   0.401513     0.0000    -0.1231     0.0000     0.0423 4.5951e+02     3.1538     -0.704     -1.021    17.8382 0.0000e+00
     -0.717 -1.359e-19     8.7187     91.775      0.476   0.408081     0.0000     0.3652     0.0000     0.0423 4.6001e+02     3.3943     -0.704     -1.021    17.8388 0.0000e+00
     -0.717 -1.057e-19     8.7180     91.770      0.481   0.411787     0.0000     0.3919     0.0000     0.0423 4.6101e+02     3.3792     -0.704     -1.021    17.8394 0.0000e+00
     -0.717 -8.223e-20     8.7174     91.769      0.483   0.413620     0.2700     0.3842     0.0000    -0.0846 4.6221e+02     3.3191     -0.704     -1.021    17.8400 0.0000e+00
     -0.717 -6.396e-20     8.7169     91.768      0.483   0.414069     0.2700     0.3728     0.0000    -0.0846 4.6151e+02     3.2891     -0.704     -1.021    17.8406 0.0000e+00
     -0.718 -4.974e-20     8.7164     91.767      0.482   0.413253     0.2700    -0.0430     0.0000    -0.0846 4.6191e+02     3.6348     -0.704     -1.021    17.8412 0.0000e+00
     -0.718 -3.869e-20     8.7158     91.767      0.480   0.410956     0.2700    -0.0659     0.0000    -0.0846 4.6131e+02     3.6197     -0.704     -1.021    17.8417 0.0000e+00
     -0.718 -3.009e-20     8.7156     91.770      0.475   0.406563     0.3600    -0.0468     0.0000     0.0846 4.6091e+02     3.5446     -0.704     -1.021    17.8423 0.0000e+00
     -0.718 -2.340e-20     8.7154     91.774      0.466   0.398905     0.3600    -0.0430     0.0000     0.0846 4.6101e+02     3.6348     -0.704     -1.021    17.8429 0.0000e+00
     -0.718 -1.820e-20     8.7152     91.774      0.455   0.389892     0.3600    -0.4588     0.0000     0.0846 4.5991e+02     1.5756     -0.704     -1.021    17.8434 0.0000e+00
     -0.718 -1.416e-20     8.7151     91.772      0.449   0.385031     0.3600    -0.4283     0.0000     0.0846 4.5991e+02     1.4554     -0.704     -1.021    17.8440 0.0000e+00
     -0.718 -1.101e-20     8.7153     91.770      0.451   0.386978     0.1800    -0.4207     0.0000     0.0000 4.5971e+02     1.5907     -0.704     -1.021    17.8446 0.0000e+00
     -0.718 -8.564e-21     8.7155     91.769      0.458   0.392299     0.1800    -0.4169     0.0000     0.0000 4.5971e+02     1.5756     -0.704     -1.021    17.8452 0.0000e+00
     -0.718 -6.661e-21     8.7154     91.772      0.460   0.394505     0.1800     0.1363     0.0000     0.0000 4.5951e+02     2.9133     -0.704     -1.021    17.8458 0.0000e+00
     -0.718 -5.181e-21     8.7151     91.776      0.460   0.394183     0.1800     0.1248     0.0000     0.0000 4.6041e+02     2.8231     -0.704     -1.021    17.8464 0.0000e+00
     -0.718 -4.030e-21     8.7148     91.779      0.461   0.395202     0.0900     0.1248     0.0000     0.0000 4.6574e+02     2.8983     -0.704     -1.021    17.8470 0.0000e+00
     -0.718 -3.134e-21     8.7146     91.783      0.464   0.397834     0.0900     0.1286     0.0000     0.0000 4.7960e+02     2.9133     -0.704     -1.021    17.8476 0.0000e+00
     -0.718 -2.438e-21     8.7148     91.786      0.470   0.402781     0.0900    -0.1155     0.0000     0.0000 4.8632e+02     2.2670     -0.704     -1.021    17.8481 0.0000e+00
     -0.718 -1.896e-21     8.7151     91.784      0.476   0.407407     0.0900    -0.1117     0.0000     0.0000 4.9121e+02     2.1768     -0.704     -1.021    17.8487 0.0000e+00
     -0.718 -1.475e-21     8.7153     91.782      0.478   0.408992     0.0900    -0.1231     0.0000     0.0000 4.9099e+02     2.3271     -0.704     -1.021    17.8493 0.0000e+00
     -0.718 -1.147e-21     8.7156     91.784      0.476   0.407959     0.1800    -0.1155     0.0426    -0.0423 4.8950e+02     2.2670     -0.704     -1.021    17.8499 0.0000e+00
     -0.718 -8.921e-22     8.7157     91.787      0.476   0.407986     0.1800    -0.2414     0.0426    -0.0423 4.8865e+02     2.9133     -0.704     -1.021    17.8506 0.0000e+00
     -0.718 -6.938e-22     8.7154     91.789      0.482   0.413034     0.1800    -0.2566     0.0426    -0.0423 4.9078e+02     2.8532     -0.704     -1.021    17.8512 0.0000e+00
     -0.718 -5.396e-22     8.7151     91.789      0.486   0.416543     0.1800    -0.2261     0.0426    -0.0423 4.9121e+02     2.9434     -0.704     -1.021    17.8517 0.0000e+00
     -0.718 -4.197e-22     8.7153     91.788      0.480   0.411537    -0.0900    -0.2376     0.0000     0.0846 4.9078e+02     2.9434     -0.704     -1.021    17.8523 0.0000e+00
     -0.718 -3.264e-22     8.7155     91.782      0.472   0.404592    -0.0900    -0.1651     0.0000     0.0846 4.9163e+02     2.2370     -0.704     -1.021    17.8529 0.0000e+00
     -0.718 -2.539e-22     8.7155     91.773      0.469   0.401764    -0.0900    -0.1651     0.0000     0.0846 4.9110e+02     2.2370     -0.704     -1.021    17.8535 0.0000e+00
     -0.718 -1.975e-22     8.7154     91.765      0.469   0.402298    -0.0900    -0.1918     0.0000     0.0846 4.9174e+02     2.3271     -0.704     -1.021    17.8540 0.0000e+00
     -0.718 -1.536e-22     8.7151     91.760      0.474   0.406336     0.0000    -0.1842     0.0000     0.0000 4.9089e+02     2.3271     -0.704     -1.021    17.8546 0.0000e+00
     -0.718 -1.194e-22     8.7145     91.758      0.480   0.411003     0.0000     0.0142     0.0000     0.0000 4.9035e+02     3.3492     -0.704     -1.021    17.8552 0.0000e+00
     -0.718 -9.287e-23     8.7135     91.758      0.483   0.413587     0.0000     0.0066     0.0000     0.0000 4.8961e+02     3.3041     -0.704     -1.021    17.8558 0.0000e+00
     -0.718 -7.222e-23     8.7126     91.763      0.484   0.414778     0.0000     0.0104     0.0000     0.0000 4.8940e+02     3.4394     -0.704     -1.021    17.8564 0.0000e+00
     -0.718 -5.616e-23     8.7121     91.767      0.484   0.414893     0.2700     0.0180     0.0000     0.0423 4.9035e+02     3.3342     -0.704     -1.021    17.8571 0.0000e+00
     -0.718 -4.365e-23     8.7118     91.771      0.483   0.413964     0.2700     0.1058     0.0000     0.0423 4.9057e+02     4.0857     -0.704     -1.021    17.8577 0.0000e+00
     -0.718 -3.392e-23     8.7117     91.774      0.481   0.411743     0.2700     0.1439     0.0000     0.0423 4.8982e+02     4.0255     -0.704     -1.021    17.8583 0.0000e+00
     -0.718 -2.634e-23     8.7120     91.775      0.476   0.407637     0.2700     0.1363     0.0000     0.0423 4.8971e+02     4.1307     -0.704     -1.021    17.8589 0.0000e+00
     -0.718 -2.043e-23     8.7123     91.775      0.472   0.404505     0.2700     0.1401     0.0000     0.0423 4.8833e+02     4.1758     -0.704     -1.021    17.8595 0.0000e+00
     -0.718 -1.581e-23     8.7125     91.775      0.473   0.405466     0.2700    -0.0659     0.0000     0.0000 4.8823e+02     2.6728     -0.704     -1.021    17.8600 0.0000e+00
     -0.718 -1.221e-23     8.7127     91.775      0.474   0.406822     0.2700    -0.0773     0.0000     0.0000 4.8664e+02     2.6428     -0.704     -1.021    17.8606 0.0000e+00
     -0.718 -9.371e-24     8.7128     91.776      0.472   0.404982     0.2700    -0.0392     0.0000     0.0000 4.8791e+02     2.6879     -0.704     -1.021    17.8612 0.0000e+00
     -0.718 -7.132e-24     8.7127     91.775      0.470   0.403407     0.2700    -0.0697     0.0000     0.0000 4.8823e+02     2.6578     -0.704     -1.021    17.8618 0.0000e+00
     -0.718 -5.345e-24     8.7125     91.770      0.473   0.405634     0.1800    -0.0545     0.0000     0.0423 4.8770e+02     2.4173     -0.704     -1.021    17.8624 0.0000e+00
     -0.718 -3.898e-24     8.7125     91.763      0.476   0.408301     0.1800    -0.0430     0.0000     0.0423 4.8685e+02     2.4323     -0.704     -1.021    17.8630 0.0000e+00
     -0.718 -2.699e-24     8.7125     91.758      0.476   0.408166     0.1800    -0.0468     0.0000     0.0423 4.8622e+02     2.5225     -0.704     -1.021    17.8636 0.0000e+00
     -0.718 -1.671e-24     8.7122     91.756      0.472   0.405192     0.1800    -0.0278     0.0000     0.0423 4.8590e+02     2.4624     -0.704     -1.021    17.8642 0.0000e+00
     -0.718 -7.485e-25     8.7117     91.756      0.464   0.398586     0.1800    -0.0125     0.0000    -0.0846 4.8505e+02     2.8682     -0.704     -1.021    17.8648 0.0000e+00
     -0.718 1.2592e-25     8.7109     91.758      0.455   0.390540     0.1800     0.0066     0.0000    -0.0846 4.8548e+02     2.9434     -0.704     -1.021    17.8653 0.0000e+00
     -0.718 1.0083e-24     8.7103     91.763      0.451   0.386819     0.1800    -0.0087     0.0000    -0.0846 4.8537e+02     2.8983     -0.704     -1.021    17.8659 0.0000e+00
     -0.718 1.9547e-24     8.7100     91.771      0.450   0.386429     0.1800     0.0218     0.0000    -0.0846 4.8484e+02     2.8532     -0.704     -1.021    17.8665 0.0000e+00
     -0.718 3.0252e-24     8.7098     91.779      0.449   0.385312     0.0000    -0.1613     0.0000     0.0423 4.8400e+02     2.4624     -0.704     -1.021    17.8671 0.0000e+00
     -0.718 4.2878e-24     8.7100     91.785      0.447   0.383170     0.0000    -0.1155     0.0000     0.0423 4.8348e+02     2.5225     -0.704     -1.021    17.8677 0.0000e+00
     -0.718 5.8227e-24     8.7104     91.784      0.442   0.379432     0.0000    -0.1269     0.0000     0.0423 4.8369e+02     2.5376     -0.705     -1.022    17.8683 0.0000e+00
     -0.718 7.7273e-24     8.7110     91.780      0.439   0.377055     0.0000    -0.1346     0.0000     0.0423 4.8379e+02     2.4925     -0.705     -1.022    17.8689 0.0000e+00
     -0.718 1.0122e-23     8.7117     91.774      0.442   0.379360     0.0000    -0.0087     0.0000     0.0423 4.8264e+02     2.9133     -0.704     -1.021    17.8695 0.0000e+00
     -0.718 1.3160e-23     8.7121     91.767      0.446   0.383008     0.0000    -0.0011     0.0000     0.0846 4.8117e+02     2.8983     -0.704     -1.021    17.8701 0.0000e+00
     -0.718 1.7034e-23     8.7119     91.757      0.449   0.385017     0.0000     0.0066     0.0000     0.0846 4.8065e+02     2.9434     -0.704     -1.021    17.8707 0.0000e+00
     -0.718 2.1989e-23     8.7114     91.747      0.454   0.389876     0.0000    -0.0163     0.0000     0.0846 4.8096e+02     2.8532     -0.704     -1.021    17.8713 0.0000e+00
     -0.718 2.8340e-23     8.7108     91.739      0.465   0.398882     0.0000    -0.1269     0.0000     0.0846 4.8044e+02     2.5075     -0.704     -1.021    17.8720 0.0000e+00
     -0.718 3.6490e-23     8.7100     91.736      0.474   0.406528     0.0000    -0.1079     0.0426     0.0000 4.8033e+02     2.4925     -0.704     -1.021    17.8726 0.0000e+00
     -0.718 4.6958e-23     8.7089     91.737      0.479   0.410899     0.0000    -0.1117     0.0426     0.0000 4.7898e+02     2.4925     -0.704     -1.021    17.8732 0.0000e+00
     -0.718 6.0406e-23     8.7079     91.739      0.481   0.413159     0.0000    -0.1193     0.0426     0.0000 4.7836e+02     2.5376     -0.704     -1.021    17.8738 0.0000e+00
     -0.718 7.7690e-23     8.7070     91.744      0.482   0.413912     0.0000    -0.2223     0.0426     0.0000 4.7794e+02     2.1167     -0.704     -1.021    17.8743 0.0000e+00
     -0.718 9.9907e-23     8.7065     91.752      0.482   0.413358     0.2700    -0.2299     0.0000     0.0846 4.7794e+02     2.1768     -0.704     -1.021    17.8749 0.0000e+00
     -0.718 1.2847e-22     8.7065     91.761      0.479   0.411351     0.2700    -0.2338     0.0000     0.0846 4.7742e+02     2.2520     -0.704     -1.021    17.8756 0.0000e+00
     -0.718 1.6518e-22     8.7066     91.768      0.474   0.407354     0.2700    -0.2376     0.0000     0.0846 4.7649e+02     2.2370     -0.704     -1.021    17.8762 0.0000e+00
     -0.718 2.1239e-22     8.7070     91.771      0.471   0.404256     0.2700     0.0180     0.0000     0.0846 4.7742e+02     2.7329     -0.704     -1.021    17.8768 0.0000e+00
     -0.718 2.7308e-22     8.7077     91.770      0.472   0.405186     0.2700    -0.0011     0.0000    -0.0423 4.7649e+02     2.7179     -0.704     -1.021    17.8774 0.0000e+00
     -0.718 3.5111e-22     8.7084     91.766      0.473   0.406436     0.2700    -0.0049     0.0000    -0.0423 4.7545e+02     2.7029     -0.704     -1.021    17.8780 0.0000e+00
     -0.718 4.5143e-22     8.7090     91.763      0.471   0.404386     0.2700    -0.0049     0.0000    -0.0423 4.7545e+02     2.6127     -0.704     -1.021    17.8785 0.0000e+00
     -0.718 5.8041e-22     8.7092     91.758      0.464   0.398489     0.2700    -0.3291     0.0000    -0.0423 4.7380e+02     3.1538     -0.704     -1.021    17.8791 0.0000e+00
     -0.718 7.4624e-22     8.7089     91.753      0.456   0.391127     0.2700    -0.3100     0.0000    -0.0423 4.7453e+02     3.0786     -0.704     -1.021    17.8797 0.0000e+00
     -0.718 9.5946e-22     8.7085     91.751      0.452   0.388246     0.0900    -0.3062     0.0000     0.0000 4.7483e+02     3.1538     -0.704     -1.021    17.8803 0.0000e+00
     -0.718 1.2336e-21     8.7080     91.752      0.453   0.389076     0.0900    -0.2910     0.0000     0.0000 4.7411e+02     3.1087     -0.704     -1.021    17.8809 0.0000e+00
     -0.718 1.5860e-21     8.7075     91.752      0.454   0.389885     0.0900     0.0562     0.0000     0.0000 4.7278e+02     3.1688     -0.704     -1.022    17.8815 0.0000e+00
     -0.718 2.0392e-21     8.7069     91.750      0.455   0.390889     0.0900     0.0638     0.0000     0.0000 4.7257e+02     3.2740     -0.704     -1.022    17.8821 0.0000e+00
     -0.718 2.6218e-21     8.7066     91.746      0.457   0.392355     0.0900     0.0447     0.0000     0.0000 4.7867e+02     3.1838     -0.705     -1.022    17.8828 0.0000e+00
     -0.718 3.3709e-21     8.7066     91.739      0.460   0.394675     0.0900     0.0714     0.0000     0.0000 4.7804e+02     3.2139     -0.705     -1.022    17.8834 0.0000e+00
     -0.718 4.3341e-21     8.7065     91.733      0.460   0.394513     0.0900    -0.0583     0.0000     0.0000 4.7236e+02     0.8391     -0.705     -1.022    17.8839 0.0000e+00
     -0.718 5.5724e-21     8.7062     91.734      0.457   0.391825     0.0900    -0.0430     0.0000     0.0000 4.6372e+02     0.7790     -0.704     -1.022    17.8845 0.0000e+00
     -0.718 7.1645e-21     8.7057     91.741      0.459   0.393804     0.3600    -0.0773     0.0000    -0.0423 4.6251e+02     0.8241     -0.704     -1.022    17.8852 0.0000e+00
     -0.718 9.2114e-21     8.7049     91.747      0.462   0.397023     0.3600    -0.0812     0.0000    -0.0423 4.7308e+02     0.7790     -0.704     -1.022    17.8858 0.0000e+00
     -0.718 1.1843e-20     8.7043     91.751      0.459   0.394432     0.3600    -0.2490     0.0000    -0.0423 4.8044e+02     2.4925     -0.704     -1.022    17.8864 0.0000e+00
     -0.718 1.5227e-20     8.7042     91.752      0.458   0.393248     0.3600    -0.2643     0.0000    -0.0423 4.8243e+02     2.4774     -0.704     -1.022    17.8870 0.0000e+00
     -0.718 1.9578e-20     8.7048     91.755      0.463   0.397110     0.3600    -0.2490     0.0000    -0.0423 4.8190e+02     2.4925     -0.704     -1.022    17.8876 0.0000e+00
     -0.718 2.5171e-20     8.7053     91.758      0.465   0.399139     0.0900    -0.2376     0.0000     0.0423 4.7971e+02     2.4774     -0.704     -1.022    17.8882 0.0000e+00
     -0.718 3.2363e-20     8.7055     91.756      0.461   0.395922     0.0900    -0.1155     0.0000     0.0423 4.7919e+02     2.4323     -0.704     -1.022    17.8888 0.0000e+00
     -0.718 4.1610e-20     8.7055     91.752      0.455   0.390556     0.0900    -0.1117     0.0000     0.0423 4.7908e+02     2.4023     -0.704     -1.022    17.8894 0.0000e+00
     -0.718 5.3498e-20     8.7056     91.749      0.454   0.389518     0.0900    -0.1117     0.0000     0.0423 4.7940e+02     2.4624     -0.704     -1.022    17.8900 0.0000e+00
     -0.718 6.8783e-20     8.7059     91.746      0.457   0.392531    -0.0900    -0.1155     0.0426    -0.0423 4.7711e+02     2.5075     -0.704     -1.022    17.8906 0.0000e+00
     -0.718 8.8436e-20     8.7056     91.742      0.457   0.392491    -0.0900    -0.1765     0.0426    -0.0423 4.7278e+02     1.0345     -0.704     -1.022    17.8913 0.0000e+00
     -0.718 1.1370e-19     8.7050     91.736      0.454   0.389385    -0.0900    -0.1575     0.0426    -0.0423 4.7011e+02     1.0646     -0.704     -1.022    17.8919 0.0000e+00
     -0.718 1.4619e-19     8.7046     91.730      0.455   0.390296    -0.0900    -0.1956     0.0426    -0.0423 4.7011e+02     1.0496     -0.704     -1.022    17.8925 0.0000e+00
     -0.718 1.8796e-19     8.7043     91.727      0.461   0.395465     0.3600    -0.1956     0.0426     0.0846 4.7103e+02     1.0345     -0.704     -1.022    17.8931 0.0000e+00
     -0.718 2.4166e-19     8.7039     91.730      0.464   0.398363     0.3600    -0.1193     0.0426     0.0846 4.7154e+02     2.7029     -0.704     -1.022    17.8937 0.0000e+00
     -0.718 3.1071e-19     8.7032     91.733      0.466   0.399762     0.3600    -0.1041     0.0426     0.0846 4.7298e+02     2.7179     -0.704     -1.022    17.8943 0.0000e+00
     -0.718 3.9948e-19     8.7024     91.738      0.471   0.403989     0.3600    -0.1346     0.0426     0.0846 4.7165e+02     2.7780     -0.704     -1.022    17.8950 0.0000e+00
     -0.718 5.1362e-19     8.7021     91.747      0.476   0.408219     0.0000    -0.1041     0.0426     0.0000 4.7134e+02     2.7780     -0.704     -1.022    17.8956 0.0000e+00
     -0.718 6.6036e-19     8.7022     91.755      0.477   0.409623     0.0000    -0.1117     0.0426     0.0000 4.6991e+02     2.5075     -0.704     -1.022    17.8962 0.0000e+00
     -0.718 8.4904e-19     8.7024     91.763      0.476   0.408578     0.0000    -0.1384     0.0426     0.0000 4.6807e+02     2.4925     -0.704     -1.022    17.8969 0.0000e+00
     -0.718 1.0916e-18     8.7028     91.769      0.472   0.404804     0.0000    -0.1346     0.0426     0.0000 4.6665e+02     2.5075     -0.704     -1.022    17.8975 0.0000e+00
     -0.718 1.4035e-18     8.7035     91.770      0.468   0.401250     0.0000    -0.1079     0.0426     0.0000 4.6726e+02     2.4323     -0.704     -1.022    17.8981 0.0000e+00
     -0.718 1.8045e-18     8.7042     91.767      0.467   0.400920     0.1800     0.1439     0.0000     0.0000 4.6817e+02     2.6728     -0.704     -1.022    17.8987 0.0000e+00
     -0.718 2.3201e-18     8.7048     91.760      0.466   0.399775     0.1800     0.1515     0.0000     0.0000 4.6838e+02     2.7179     -0.704     -1.022    17.8993 0.0000e+00
     -0.718 2.9830e-18     8.7053     91.752      0.463   0.397507     0.1800     0.1096     0.0000     0.0000 4.6909e+02     2.7780     -0.704     -1.022    17.8999 0.0000e+00
     -0.718 3.8353e-18     8.7053     91.744      0.463   0.397467     0.1800     0.1363     0.0000     0.0000 4.6889e+02     2.7480     -0.704     -1.022    17.9006 0.0000e+00
     -0.718 4.9310e-18     8.7048     91.735      0.461   0.395689     0.3600     0.1248     0.0000    -0.0423 4.7298e+02     2.8682     -0.704     -1.022    17.9012 0.0000e+00
     -0.718 6.3399e-18     8.7040     91.725      0.456   0.391699     0.3600     0.1286     0.0000    -0.0423 4.7380e+02     2.8832     -0.704     -1.022    17.9018 0.0000e+00
     -0.718 8.1513e-18     8.7031     91.716      0.457   0.392341     0.3600     0.1172     0.0000    -0.0423 4.7422e+02     2.9734     -0.704     -1.022    17.9024 0.0000e+00
     -0.718 1.0480e-17     8.7023     91.710      0.464   0.397788     0.3600     0.1172     0.0000    -0.0423 4.7298e+02     2.8832     -0.704     -1.022    17.9031 0.0000e+00
     -0.718 1.3475e-17     8.7013     91.706      0.468   0.401583     0.3600    -0.2414     0.0000     0.0423 4.7042e+02     1.0045     -0.704     -1.022    17.9037 0.0000e+00
     -0.718 1.7325e-17     8.7003     91.703      0.467   0.400783     0.3600    -0.2376     0.0000     0.0423 4.6838e+02     1.0045     -0.704     -1.022    17.9043 0.0000e+00
     -0.718 2.2274e-17     8.6994     91.705      0.465   0.399130     0.3600    -0.2566     0.0000     0.0423 4.6706e+02     0.9744     -0.704     -1.022    17.9050 0.0000e+00
     -0.718 2.8639e-17     8.6987     91.712      0.466   0.400138     0.3600    -0.2605     0.0000     0.0423 4.6696e+02     1.0195     -0.704     -1.022    17.9056 0.0000e+00
     -0.718 3.6821e-17     8.6981     91.722      0.466   0.400120     0.0900     0.2507     0.0000     0.0000 4.6675e+02     2.9434     -0.704     -1.022    17.9062 0.0000e+00
     -0.718 4.7341e-17     8.6978     91.732      0.465   0.399072     0.0900     0.2507     0.0000     0.0000 4.6564e+02     2.9434     -0.704     -1.022    17.9068 0.0000e+00
     -0.718 6.0867e-17     8.6979     91.741      0.467   0.400669     0.0900     0.2736     0.0000     0.0000 4.6402e+02     3.0185     -0.704     -1.022    17.9075 0.0000e+00
     -0.718 7.8258e-17     8.6984     91.748      0.468   0.401383     0.0900     0.2622     0.0000     0.0000 4.6201e+02     2.8832     -0.704     -1.022    17.9081 0.0000e+00
     -0.718 1.0062e-16     8.6992     91.756      0.468   0.401403     0.0900    -0.2147     0.0000     0.0000 4.6191e+02     1.4704     -0.704     -1.022    17.9087 0.0000e+00
     -0.718 1.2937e-16     8.7000     91.758      0.472   0.404690     0.3600    -0.2261     0.0426     0.0423 4.6111e+02     1.5155     -0.704     -1.022    17.9093 0.0000e+00
     -0.718 1.6633e-16     8.7007     91.753      0.476   0.408165     0.3600    -0.2490     0.0426     0.0423 4.6281e+02     1.5005     -0.704     -1.022    17.9100 0.0000e+00
     -0.718 2.1385e-16     8.7013     91.747      0.476   0.408801     0.3600    -0.2414     0.0426     0.0423 4.6031e+02     1.3652     -0.704     -1.022    17.9106 0.0000e+00
     -0.718 2.7495e-16     8.7019     91.742      0.474   0.406768     0.3600     0.0447     0.0426     0.0423 4.2475e+02     3.0786     -0.704     -1.022    17.9112 0.0000e+00
     -0.718 3.5350e-16     8.7020     91.737      0.473   0.405477     0.2700     0.0829     0.0000     0.0423 4.2419e+02     3.1087     -0.704     -1.022    17.9119 0.0000e+00
     -0.718 4.5451e-16     8.7015     91.733      0.476   0.408539     0.2700     0.0676     0.0000     0.0423 4.2419e+02     3.0786     -0.704     -1.021    17.9125 0.0000e+00
     -0.718 5.8436e-16     8.7008     91.728      0.481   0.412817     0.2700     0.0714     0.0000     0.0423 4.2883e+02     3.1838     -0.704     -1.021    17.9131 0.0000e+00
     -0.718 7.5133e-16     8.7001     91.726      0.484   0.415496     0.2700    -0.0773     0.0000     0.0423 4.1979e+02     2.5225     -0.704     -1.021    17.9138 0.0000e+00
     -0.718 9.6599e-16     8.6995     91.729      0.486   0.417290     0.1800    -0.0354     0.0000     0.0000 4.3521e+02     2.5075     -0.704     -1.021    17.9146 0.0000e+00
     -0.718 1.2420e-15     8.6990     91.735      0.488   0.418680     0.1800    -0.0392     0.0000     0.0000 4.2827e+02     2.4624     -0.704     -1.021    17.9153 0.0000e+00
     -0.718 1.5968e-15     8.6985     91.738      0.489   0.420034     0.1800    -0.0773     0.0000     0.0000 4.3939e+02     2.4023     -0.704     -1.021    17.9162 0.0000e+00
     -0.718 2.0531e-15     8.6981     91.737      0.491   0.421714     0.1800    -0.4703     0.0000     0.0000 4.3968e+02     0.9594     -0.704     -1.021    17.9171 0.0000e+00
     -0.718 2.6397e-15     8.6982     91.735      0.494   0.424168     0.2700    -0.5084     0.0000     0.0846 4.5821e+02     1.0045     -0.704     -1.021    17.9182 0.0000e+00
     -0.718 3.3939e-15     8.6985     91.734      0.499   0.428051     0.2700    -0.4932     0.0000     0.0846 4.6221e+02     0.9594     -0.704     -1.021    17.9197 0.0000e+00
     -0.718 4.3635e-15     8.6984     91.736      0.506   0.434397     0.2700    -0.4970     0.0000     0.0846 4.6574e+02     1.0345     -0.704     -1.021    17.9216 0.0000e+00
     -0.718 5.6103e-15     8.6978     91.741      0.518   0.444900     0.2700    -0.2414     0.0000     0.0846 4.7011e+02     1.8462     -0.704     -1.021    17.9245 0.0000e+00
     -0.718 7.2132e-15     8.6968     91.750      0.533   0.458406     0.2700    -0.2566     0.0000     0.0846 4.7206e+02     1.7560     -0.704     -1.021    17.9288 0.0000e+00
     -0.718 9.2741e-15     8.6955     91.766      0.544   0.468631     0.0000    -0.2490     0.0426     0.0000 4.7494e+02     1.6658     -0.704     -1.021    17.9357 0.0000e+00
     -0.718 1.1924e-14     8.6938     91.790      0.548   0.472371     0.0000    -0.2566     0.0426     0.0000 4.7525e+02     1.7710     -0.704     -1.021    17.9466 0.0000e+00
     -0.718 1.5331e-14     8.6911     91.828      0.548   0.472600     0.0000    -0.0773     0.0426     0.0000 4.7545e+02     3.0486     -0.704     -1.021    17.9644 0.0000e+00
     -0.718 1.9711e-14     8.6867     91.876      0.547   0.471356     0.0000    -0.0659     0.0426     0.0000 4.7473e+02     3.1388     -0.704     -1.021    17.9937 0.0000e+00
     -0.718 2.5343e-14     8.6807     91.924      0.543   0.468307     0.0900    -0.0735     0.0000     0.0423 4.7525e+02     3.1688     -0.704     -1.021    18.0355 0.0000e+00
     -0.718 3.2583e-14     8.6751     91.967      0.536   0.462641     0.0900    -0.0735     0.0000     0.0423 4.7494e+02     3.1388     -0.704     -1.021    18.0801 0.0000e+00
     -0.718 4.1893e-14     8.6726     92.001      0.530   0.456801     0.0900    -0.3711     0.0000     0.0423 4.7597e+02     0.5385     -0.704     -1.021    18.1142 0.0000e+00
     -0.718 5.3862e-14     8.6736     92.021      0.525   0.453183     0.0900    -0.3711     0.0000     0.0423 4.7473e+02     0.5536     -0.704     -1.021    18.1343 0.0000e+00
     -0.718 6.9251e-14     8.6764     92.028      0.522   0.450822     0.2700    -0.3711     0.0000    -0.0423 4.7370e+02     0.4634     -0.704     -1.021    18.1440 0.0000e+00
     -0.718 8.9038e-14     8.6798     92.024      0.520   0.449090     0.2700    -0.3749     0.0000    -0.0423 4.7298e+02     0.5686     -0.704     -1.021    18.1474 0.0000e+00
     -0.718 1.1448e-13     8.6830     92.012      0.518   0.447523     0.2700    -0.6648     0.0000    -0.0423 4.6302e+02     0.6588     -0.704     -1.021    18.1473 0.0000e+00
     -0.718 1.4718e-13     8.6853     91.993      0.516   0.445705     0.2700    -0.6724     0.0000    -0.0423 4.4178e+02     0.5686     -0.704     -1.021    18.1453 0.0000e+00
     -0.718 1.8924e-13     8.6865     91.971      0.513   0.443151     0.1800    -0.6648     0.0000     0.0423 4.3182e+02     0.5235     -0.704     -1.021    18.1424 0.0000e+00
     -0.718 2.4331e-13     8.6867     91.950      0.514   0.443132     0.1800    -0.6724     0.0000     0.0423 4.3079e+02     0.5085     -0.704     -1.021    18.1391 0.0000e+00
     -0.718 3.1282e-13     8.6861     91.932      0.517   0.445646     0.1800    -0.7182     0.0000     0.0423 4.3257e+02     0.4784     -0.704     -1.021    18.1356 0.0000e+00
     -0.718 4.0220e-13     8.6850     91.917      0.514   0.443453     0.1800    -0.7259     0.0000     0.0423 4.3787e+02     0.5536     -0.704     -1.021    18.1322 0.0000e+00
     -0.718 5.1711e-13     8.6836     91.905      0.506   0.435969     0.1800    -0.7411     0.0000     0.0423 4.4092e+02     0.5836     -0.704     -1.021    18.1288 0.0000e+00
     -0.718 6.6486e-13     8.6821     91.895      0.498   0.429106     0.0900    -0.7411     0.0000     0.0423 4.4016e+02     0.5836     -0.704     -1.022    18.1255 0.0000e+00
     -0.718 8.5482e-13     8.6810     91.889      0.493   0.424988     0.0900    -0.1269     0.0000     0.0423 4.4063e+02     2.9434     -0.704     -1.022    18.1223 0.0000e+00
     -0.718 1.0991e-12     8.6802     91.887      0.490   0.422518     0.0900    -0.1269     0.0000     0.0423 4.4217e+02     2.8983     -0.704     -1.022    18.1192 0.0000e+00
     -0.718 1.4131e-12     8.6795     91.893      0.489   0.421036     0.0900    -0.1155     0.0000     0.0423 4.4284e+02     2.8682     -0.704     -1.022    18.1162 0.0000e+00
     -0.718 1.8168e-12     8.6791     91.902      0.488   0.420148     0.0000    -0.1269     0.0000     0.0423 4.4429e+02     2.8983     -0.704     -1.022    18.1134 0.0000e+00
     -0.718 2.3359e-12     8.6790     91.910      0.487   0.419616     0.0000     0.1935     0.0000     0.0423 4.4294e+02     3.7851     -0.704     -1.021    18.1106 0.0000e+00
     -0.718 3.0033e-12     8.6794     91.917      0.487   0.419298     0.0000     0.1592     0.0000     0.0423 4.4381e+02     3.8452     -0.704     -1.021    18.1079 0.0000e+00
     -0.718 3.8614e-12     8.6804     91.920      0.486   0.419111     0.0000     0.1706     0.0000     0.0423 4.4429e+02     3.8151     -0.704     -1.022    18.1053 0.0000e+00
     -0.718 4.9646e-12     8.6817     91.918      0.486   0.419003     0.0000     0.2011     0.0000     0.0000 4.4352e+02     3.8151     -0.704     -1.022    18.1027 0.0000e+00
     -0.718 6.3831e-12     8.6829     91.915      0.486   0.418947     0.0000     0.0562     0.0000     0.0000 4.4371e+02     4.1608     -0.704     -1.022    18.1002 0.0000e+00
     -0.718 8.2068e-12     8.6839     91.912      0.486   0.418928     0.0000     0.0791     0.0000     0.0000 4.4419e+02     4.1458     -0.704     -1.022    18.0978 0.0000e+00
     -0.718 1.0552e-11     8.6846     91.908      0.486   0.418939     0.0000     0.0867     0.0000     0.0000 4.4409e+02     4.1007     -0.704     -1.022    18.0954 0.0000e+00
     -0.718 1.3566e-11     8.6848     91.904      0.486   0.418985     0.2700     0.0714     0.0000     0.0423 4.4323e+02     4.1608     -0.704     -1.021    18.0932 0.0000e+00
     -0.718 1.7442e-11     8.6849     91.900      0.486   0.419077     0.2700    -0.1117     0.0000     0.0423 4.4227e+02     2.7931     -0.704     -1.021    18.0910 0.0000e+00
     -0.718 2.2426e-11     8.6850     91.896      0.486   0.419240     0.2700    -0.1422     0.0000     0.0423 4.4217e+02     2.7179     -0.704     -1.021    18.0889 0.0000e+00
     -0.718 2.8833e-11     8.6850     91.892      0.487   0.419518     0.2700    -0.1308     0.0000     0.0423 4.4178e+02     2.8081     -0.704     -1.021    18.0869 0.0000e+00
     -0.718 3.7072e-11     8.6850     91.887      0.487   0.419983     0.2700    -0.1079     0.0000     0.0423 4.4275e+02     2.7179     -0.704     -1.021    18.0849 0.0000e+00
     -0.718 4.7663e-11     8.6849     91.881      0.488   0.420762     0.4500    -0.0964     0.0426     0.0000 4.4294e+02     2.8231     -0.704     -1.021    18.0830 0.0000e+00
     -0.718 6.1282e-11     8.6849     91.873      0.490   0.422060     0.4500    -0.0697     0.0426     0.0000 4.4371e+02     2.6879     -0.704     -1.021    18.0811 0.0000e+00
     -0.718 7.8791e-11     8.6849     91.868      0.492   0.424226     0.4500    -0.0773     0.0426     0.0000 4.4390e+02     2.8532     -0.704     -1.021    18.0793 0.0000e+00
     -0.718 1.0130e-10     8.6847     91.872      0.497   0.427835     0.4500    -0.0278     0.0426     0.0000 4.4506e+02     2.7630     -0.704     -1.021    18.0776 0.0000e+00
     -0.718 1.3025e-10     8.6844     91.882      0.499   0.429896     0.0000    -0.1269     0.0000     0.0000 4.4438e+02     2.2370     -0.704     -1.021    18.0759 0.0000e+00
     -0.718 1.6746e-10     8.6839     91.890      0.495   0.427005     0.0000    -0.1384     0.0000     0.0000 4.4467e+02     2.1317     -0.704     -1.021    18.0743 0.0000e+00
     -0.718 2.1530e-10     8.6837     91.895      0.490   0.422345     0.0000    -0.1193     0.0000     0.0000 4.4448e+02     2.2971     -0.704     -1.021    18.0728 0.0000e+00
     -0.718 2.7682e-10     8.6844     91.898      0.486   0.418627     0.0000    -0.1422     0.0000     0.0000 4.4323e+02     2.2370     -0.704     -1.021    18.0713 0.0000e+00
     -0.718 3.5591e-10     8.6856     91.901      0.481   0.414859     0.1800    -0.1384     0.0000     0.0000 4.4265e+02     2.4624     -0.704     -1.021    18.0698 0.0000e+00
     -0.718 4.5760e-10     8.6867     91.905      0.476   0.410038     0.1800    -0.1193     0.0000     0.0000 4.4092e+02     2.4925     -0.704     -1.021    18.0684 0.0000e+00
     -0.718 5.8834e-10     8.6874     91.905      0.472   0.406832     0.1800    -0.1117     0.0000     0.0000 4.3949e+02     2.5676     -0.704     -1.021    18.0670 0.0000e+00
     -0.718 7.5644e-10     8.6879     91.902      0.474   0.408339     0.1800    -0.1308     0.0000     0.0000 4.4016e+02     2.5075     -0.704     -1.021    18.0657 0.0000e+00
     -0.718 9.7257e-10     8.6884     91.900      0.477   0.411009     0.1800     0.0485     0.0426     0.0846 4.4227e+02     3.1989     -0.704     -1.021    18.0645 0.0000e+00
     -0.718 1.2504e-09     8.6889     91.904      0.478   0.411598     0.1800     0.0752     0.0426     0.0846 4.4217e+02     3.0636     -0.704     -1.021    18.0632 0.0000e+00
     -0.718 1.6077e-09     8.6892     91.910      0.481   0.414218     0.1800     0.0676     0.0426     0.0846 4.4198e+02     3.2289     -0.704     -1.021    18.0621 0.0000e+00
     -0.718 2.0671e-09     8.6890     91.915      0.487   0.419567     0.1800     0.0447     0.0426     0.0846 4.4265e+02     3.1087     -0.704     -1.021    18.0609 0.0000e+00
     -0.718 2.6576e-09     8.6890     91.915      0.489   0.421163     0.1800    -0.1384     0.0426     0.0846 4.4332e+02     2.7630     -0.704     -1.021    18.0598 0.0000e+00
     -0.718 3.4170e-09     8.6896     91.912      0.487   0.419433     0.0900    -0.1498     0.0000     0.0846 4.4448e+02     2.7480     -0.704     -1.021    18.0587 0.0000e+00
     -0.718 4.3932e-09     8.6904     91.910      0.485   0.417868     0.0900    -0.1117     0.0000     0.0846 4.4429e+02     2.8081     -0.704     -1.021    18.0577 0.0000e+00
     -0.718 5.6485e-09     8.6910     91.908      0.483   0.416052     0.0900    -0.1613     0.0000     0.0846 4.4342e+02     2.7931     -0.704     -1.021    18.0567 0.0000e+00
     -0.718 7.2623e-09     8.6912     91.907      0.480   0.413500     0.0900    -0.1346     0.0000     0.0846 4.4313e+02     4.1458     -0.704     -1.021    18.0558 0.0000e+00
     -0.718 9.3373e-09     8.6911     91.906      0.475   0.409532     0.0900    -0.1117     0.0000     0.0000 4.4429e+02     4.1157     -0.704     -1.021    18.0549 0.0000e+00
     -0.718 1.2005e-08     8.6911     91.904      0.472   0.407044     0.0900    -0.1002     0.0000     0.0000 4.4467e+02     4.1007     -0.704     -1.021    18.0540 0.0000e+00
     -0.718 1.5435e-08     8.6911     91.903      0.475   0.409326     0.0900    -0.1231     0.0000     0.0000 4.4429e+02     4.1157     -0.704     -1.021    18.0532 0.0000e+00
     -0.718 1.9845e-08     8.6911     91.903      0.479   0.413033     0.0900    -0.1422     0.0000     0.0000 4.4342e+02     2.2971     -0.704     -1.021    18.0524 0.0000e+00
     -0.718 2.5515e-08     8.6911     91.902      0.482   0.415199     0.0000    -0.1269     0.0000     0.0423 4.4409e+02     2.2370     -0.704     -1.021    18.0516 0.0000e+00
     -0.718 3.2805e-08     8.6910     91.902      0.483   0.416402     0.0000    -0.1498     0.0000     0.0423 4.4467e+02     2.2820     -0.704     -1.021    18.0509 0.0000e+00
     -0.718 4.2178e-08     8.6910     91.904      0.484   0.416962     0.0000    -0.1346     0.0000     0.0423 4.4458e+02     2.2219     -0.704     -1.021    18.0502 0.0000e+00
     -0.718 5.4229e-08     8.6912     91.903      0.484   0.417029     0.0000     0.0714     0.0000     0.0423 4.4516e+02     2.8532     -0.704     -1.021    18.0496 0.0000e+00
     -0.718 6.9723e-08     8.6913     91.899      0.483   0.416621     0.0000     0.0638     0.0426     0.0846 4.4458e+02     2.7780     -0.704     -1.021    18.0489 0.0000e+00
     -0.718 8.9644e-08     8.6914     91.894      0.482   0.415629     0.0000     0.0180     0.0426     0.0846 4.4409e+02     2.7931     -0.704     -1.021    18.0482 0.0000e+00
     -0.718 1.1526e-07     8.6916     91.889      0.480   0.413788     0.0000     0.0485     0.0426     0.0846 4.4361e+02     2.7329     -0.704     -1.021    18.0476 0.0000e+00
     -0.718 1.4819e-07     8.6917     91.883      0.477   0.410608     0.0000    -0.1460     0.0426     0.0846 4.4323e+02     2.3121     -0.704     -1.021    18.0471 0.0000e+00
     -0.718 1.9053e-07     8.6914     91.880      0.470   0.405240     0.0000    -0.1041     0.0426     0.0846 4.4429e+02     2.2670     -0.704     -1.021    18.0465 0.0000e+00
     -0.718 2.4496e-07     8.6910     91.878      0.465   0.400208     0.0000    -0.1269     0.0000    -0.0423 4.4400e+02     2.2670     -0.704     -1.021    18.0460 0.0000e+00
     -0.718 3.1495e-07     8.6906     91.877      0.462   0.398123     0.0000    -0.1422     0.0000    -0.0423 4.4409e+02     2.3271     -0.704     -1.021    18.0455 0.0000e+00
     -0.718 4.0494e-07     8.6902     91.878      0.463   0.398430     0.0000     0.2507     0.0000    -0.0423 4.4400e+02     3.2440     -0.704     -1.021    18.0450 0.0000e+00
     -0.718 5.2063e-07     8.6900     91.882      0.470   0.405164     0.0000     0.2622     0.0000    -0.0423 4.4400e+02     3.1388     -0.704     -1.021    18.0445 0.0000e+00
     -0.718 6.6938e-07     8.6899     91.889      0.483   0.416168     0.0000     0.2507     0.0000     0.0846 4.4294e+02     3.1989     -0.704     -1.021    18.0441 0.0000e+00
     -0.718 8.6064e-07     8.6898     91.894      0.490   0.422512     0.0000     0.2431     0.0000     0.0846 4.4092e+02     3.1688     -0.704     -1.021    18.0436 0.0000e+00
     -0.718      0.000     8.6899     91.898      0.494   0.425890     0.0000    -0.4893     0.0000     0.0846 4.3540e+02     1.9965     -0.704     -1.021    18.0432 0.0000e+00
     -0.718      0.000     8.6904     91.905      0.496   0.427201     0.0000    -0.5008     0.0000     0.0846 4.2162e+02     2.0416     -0.704     -1.021    18.0428 0.0000e+00
     -0.718      0.000     8.6912     91.912      0.491   0.422841     0.0900    -0.5084     0.0000    -0.0423 4.1906e+02     1.9814     -0.704     -1.021    18.0425 0.0000e+00
     -0.718      0.000     8.6917     91.916      0.482   0.415601     0.0900    -0.4855     0.0000    -0.0423 4.3968e+02     2.0265     -0.704     -1.021    18.0421 0.0000e+00
     -0.718      0.000     8.6921     91.914      0.478   0.411459     0.0900     0.4338     0.0000    -0.0423 4.2336e+02     3.6949     -0.704     -1.021    18.0418 0.0000e+00
     -0.717      0.000     8.6928     91.909      0.480   0.413264     0.0900     0.4338     0.0000    -0.0423 4.1553e+02     3.6047     -0.704     -1.020    18.0415 0.0000e+00
     -0.717      0.000     8.6935     91.904      0.485   0.417545     0.1800     0.4300     0.0000     0.0846 4.1211e+02     3.6197     -0.704     -1.020    18.0412 0.0000e+00
     -0.717      0.000     8.6940     91.899      0.489   0.421489     0.1800     0.4376     0.0000     0.0846 3.1422e+02     3.5596     -0.704     -1.020    18.0410 0.0000e+00
     -0.718      0.000     8.6938     91.893      0.490   0.422192     0.1800    -0.9853     0.0000     0.0846 2.9324e+02    -0.4234     -0.704     -1.021    18.0408 0.0000e+00
     -0.718      0.000     8.6934     91.888      0.483   0.415889     0.1800    -0.9814     0.0000     0.0846 2.7925e+02    -0.4835     -0.704     -1.021    18.0405 0.0000e+00
     -0.718      0.000     8.6929     91.885      0.474   0.408806     0.1800    -0.9891     0.0000     0.0846 2.6668e+02    -0.4084     -0.704     -1.021    18.0403 0.0000e+00
     -0.717      0.000     8.6925     91.887      0.472   0.406963     0.3600    -0.9814     0.0426     0.0846 2.6483e+02    -0.2731     -0.704     -1.020    18.0400 0.0000e+00
     -0.717      0.000     8.6920     91.895      0.471   0.405916     0.3600    -0.0011     0.0426     0.0846 2.7515e+02     2.1167     -0.704     -1.020    18.0398 0.0000e+00
     -0.717      0.000     8.6916     91.904      0.471   0.405384     0.3600    -0.0125     0.0426     0.0846 3.4216e+02     2.0566     -0.704     -1.020    18.0396 0.0000e+00
     -0.717      0.000     8.6913     91.910      0.476   0.409180     0.3600    -0.0125     0.0426     0.0846 3.7153e+02     1.9965     -0.704     -1.020    18.0395 0.0000e+00
     -0.717      0.000     8.6916     91.915      0.482   0.414361     0.0900     0.0142     0.0000    -0.0423 3.6944e+02     2.0716     -0.704     -1.020    18.0393 0.0000e+00
     -0.717      0.000     8.6923     91.919      0.486   0.418356     0.0900    -0.0506     0.0000    -0.0423 3.6904e+02     1.3351     -0.704     -1.020    18.0392 0.0000e+00
     -0.718      0.000     8.6932     91.924      0.490   0.422230     0.0900    -0.0545     0.0000    -0.0423 3.7364e+02     1.3502     -0.704     -1.020    18.0391 0.0000e+00
     -0.718      0.000     8.6938     91.924      0.496   0.427016     0.0900    -0.0697     0.0000    -0.0423 3.7575e+02     1.1999     -0.704     -1.021    18.0390 0.0000e+00
     -0.718      0.000     8.6942     91.919      0.504   0.433989     0.1800    -0.0201     0.0000     0.0423 3.7331e+02     1.3351     -0.704     -1.021    18.0389 0.0000e+00
     -0.718      0.000     8.6947     91.912      0.521   0.448964     0.1800    -0.1079     0.0000     0.0423 3.7584e+02     1.0796     -0.704     -1.021    18.0389 0.0000e+00
     -0.718      0.000     8.6951     91.900      0.562   0.483843     0.1800    -0.1308     0.0000     0.0423 3.4179e+02     0.9594     -0.704     -1.020    18.0389 0.0000e+00
     -0.717      0.000     8.6951     91.886      0.636   0.547927     0.1800    -0.1231     0.0000     0.0423 2.9350e+02     1.1247     -0.704     -1.020    18.0389 0.0000e+00
     -0.717      0.000     8.6946     91.869      0.755   0.650395     0.1800    -0.1269     0.0426    -0.0423 2.6477e+02     1.0195     -0.704     -1.020    18.0389 0.0000e+00
     -0.717      0.000     8.6939     91.850      0.942   0.810665     0.1800    -0.0850     0.0426    -0.0423 2.7006e+02     2.0866     -0.704     -1.020    18.0390 0.0000e+00
     -0.717      0.001     8.6928     91.828      1.162   1.000298     0.1800    -0.0506     0.0426    -0.0423 2.7402e+02     2.0115     -0.703     -1.020    18.0390 0.0000e+00
     -0.716      0.001     8.6914     91.798      1.312   1.129486     0.1800    -0.0430     0.0426    -0.0423 2.6242e+02     2.0716     -0.703     -1.019    18.0391 0.0000e+00
     -0.716      0.001     8.6898     91.745      1.344   1.157547     0.1800    -0.0697     0.0426    -0.0423 2.4021e+02     1.8913     -0.703     -1.019    18.0392 0.0000e+00
     -0.716      0.001     8.6880     91.654      1.295   1.115689     2.0700    -0.0773     0.0000    -0.0846 2.3622e+02     1.0646     -0.703     -1.018    18.0394 0.0000e+00
     -0.716      0.002     8.6859     91.505      1.221   1.052067     2.0700    -0.0659     0.0000    -0.0846 1.8750e+02     0.4033     -0.702     -1.018    18.0396 0.0000e+00
     -0.715      0.002     8.6830     91.256      1.162   1.001121     2.0700    -0.0621     0.0000    -0.0846 1.4011e+02     0.3432     -0.702     -1.017    18.0399 0.0000e+00
     -0.715      0.003     8.6779     90.840      1.128   0.972991     2.0700    -0.0506     0.0000    -0.0846 1.2218e+02     0.2981     -0.701     -1.017    18.0404 0.0000e+00
     -0.714      0.003     8.6692     90.163      1.123   0.970062     0.6300    -0.0621     0.0000     0.0000 1.2683e+02     0.3432     -0.700     -1.016    18.0411 0.0000e+00
     -0.713      0.004     8.6549     89.135      1.155   0.999460     0.6300    -0.1155     0.0000     0.0000 1.3736e+02    -0.3933     -0.699     -1.014    18.0420 0.0000e+00
     -0.712      0.006     8.6312     87.731      1.245   1.080888     0.6300    -0.1155     0.0000     0.0000 1.2054e+02    -0.4985     -0.698     -1.013    18.0434 0.0000e+00
     -0.710      0.007     8.5915     86.026      1.419   1.236059     0.6300    -0.1269     0.0000     0.0000 1.2694e+02    -0.3783     -0.697     -1.010    18.0453 0.0000e+00
     -0.709      0.009     8.5270     84.172      1.669   1.460880     0.0000    -0.1117    -0.0426     0.0423 1.2000e+02    -0.4685     -0.695     -1.008    18.0482 0.0000e+00
     -0.706      0.012     8.4291     82.345      1.973   1.738191     0.0000    -0.1079    -0.0426     0.0423 1.0244e+02    -0.4234     -0.693     -1.004    18.0522 0.0000e+00
     -0.703      0.016     8.2955     80.723      2.375   2.110309     0.0000    -0.1117    -0.0426     0.0423 1.4757e+02    -0.4534     -0.690     -1.000    18.0579 0.0000e+00
     -0.699      0.020     8.1330     79.469      3.035   2.721941     0.0000    -0.1346    -0.0426     0.0423 2.3679e+02    -0.4084     -0.686     -0.994    18.0659 0.0000e+00
     -0.694      0.026     7.9559     78.691      4.197   3.795502     0.0000    -0.1498     0.0000    -0.0846 2.6930e+02    -0.4835     -0.681     -0.987    18.0777 0.0000e+00
     -0.687      0.033     7.7804     78.415      6.210   5.648910     0.0000    -0.1346     0.0000    -0.0846 2.5796e+02    -0.1829     -0.675     -0.978    18.0956 0.0000e+00
     -0.679      0.042     7.6229     78.582      9.633   8.798156     0.0000    -0.1346     0.0000    -0.0846 3.0112e+02    -0.1378     -0.666     -0.966    18.1242 0.0000e+00
     -0.668      0.055     7.4974     79.076     15.404  14.102810     0.0000    -0.1575     0.0000    -0.0846 3.2939e+02    -0.1528     -0.656     -0.950    18.1706 0.0000e+00
     -0.654      0.070     7.4125     79.761     23.771  21.859904     0.0000    -0.1346     0.0000    -0.0846 3.4786e+02    -0.2280     -0.642     -0.930    18.2469 0.0000e+00
     -0.636      0.088     7.3676     80.503     32.624  30.277414     1.0800     0.4872     0.0426     1.3959 3.5021e+02    17.5827     -0.624     -0.905    18.3734 0.0000e+00
     -0.613      0.107     7.3523     81.183     39.287  36.916395     1.0800     0.4949     0.0426     1.3959 3.4530e+02    17.6729     -0.601     -0.872    18.5836 0.0000e+00
     -0.583      0.126     7.3471     81.747     43.301  41.206468     1.0800     0.4834     0.0426     1.3959 3.2329e+02    17.5527     -0.572     -0.830    18.9335 0.0000e+00
     -0.547      0.144     7.3277     82.231     45.559  43.833987     1.0800     0.4796     0.0426     1.3959 3.3561e+02    17.5977     -0.536     -0.778    19.5025 0.0000e+00
     -0.505      0.157     7.2801     82.725     46.768  45.392644     5.3100     2.2535     0.3834    14.3820 2.9401e+02    23.9705     -0.495     -0.718    20.3018 0.0000e+00
     -0.460      0.166     7.2135     83.335     47.354  46.256489     5.3100     2.2458     0.3834    14.3820 2.5445e+02    23.9555     -0.451     -0.655    21.1999 0.0000e+00
     -0.414      0.168     7.1457     84.155     47.602  46.701472     5.3100     2.2535     0.3834    14.3820 2.0386e+02    24.0757     -0.406     -0.589    22.0407 0.0000e+00
     -0.368      0.163     7.0904     85.246     47.690  46.915620     5.3100     2.2497     0.3834    14.3820 2.0681e+02    24.0306     -0.361     -0.523    22.7471 0.0000e+00
     -0.324      0.153     7.0578     86.635     47.710  47.009547     6.6600     3.2567     0.4260    16.8777 2.0364e+02    21.2050     -0.318     -0.461    23.2963 0.0000e+00
     -0.285      0.139     7.0557     88.337     47.714  47.055859     6.6600     3.2567     0.4260    16.8777 2.0538e+02    21.1148     -0.280     -0.405    23.6936 0.0000e+00
     -0.251      0.123     7.0886     90.396     47.712  47.080777     6.6600     3.2300     0.4260    16.8777 2.1062e+02    21.1449     -0.246     -0.357    23.9616 0.0000e+00
     -0.223      0.106     7.1573     92.939     47.704  47.094906     6.6600     3.2300     0.4260    16.8777 2.0157e+02    21.1298     -0.219     -0.317    24.1301 0.0000e+00
     -0.199      0.089     7.2602     96.165     47.704  47.117870     6.6600     3.0851     0.4260    16.8777 1.7249e+02    21.2952     -0.195     -0.283    24.2293 0.0000e+00
     -0.180      0.075     7.3948    100.190     47.722  47.159754     6.7500     3.1156     0.4686    18.6120 1.5741e+02    21.3553     -0.176     -0.256    24.2861 0.0000e+00
     -0.164      0.063     7.5620    105.062     47.746  47.209931     6.7500     3.1309     0.4686    18.6120 1.5872e+02    21.4004     -0.161     -0.232    24.3218 0.0000e+00
     -0.150      0.053     7.7707    110.826     47.742  47.230262     6.7500     3.1385     0.4686    18.6120 1.5055e+02    21.3102     -0.147     -0.213    24.3494 0.0000e+00
     -0.138      0.045     8.0363    117.276     47.696  47.202390     6.7500     3.2949     0.4686    18.6120 1.5256e+02    21.8813     -0.136     -0.197    24.3754 0.0000e+00
     -0.128      0.038     8.3684    123.935     47.638  47.154553     6.3900     3.2720     0.4260    17.1738 1.6904e+02    21.9715     -0.126     -0.182    24.4026 0.0000e+00
     -0.119      0.031     8.7707    130.321     47.561  47.081921     6.3900     3.2949     0.4260    17.1738 1.6580e+02    21.8964     -0.117     -0.169    24.4310 0.0000e+00
     -0.111      0.022     9.2475    135.958     47.491  47.010702     6.3900     3.2987     0.4260    17.1738 1.2210e+02    21.7912     -0.109     -0.158    24.4571 0.0000e+00
     -0.105      0.013     9.7826    140.442     47.476  46.989276     6.3900     3.3712     0.4260    17.1738 1.2427e+02    21.7010     -0.103     -0.149    24.4762 0.0000e+00
     -0.102      0.004    10.3364    143.549     47.461  46.964374     6.5700     3.3864     0.4260    17.9352 1.2086e+02    21.6108     -0.100     -0.144    24.4867 0.0000e+00
     -0.103     -0.004    10.8685    145.180     47.435  46.925391     6.5700     3.3597     0.4260    17.9352 1.5467e+02    21.5958     -0.101     -0.146    24.4905 0.0000e+00
     -0.107     -0.011    11.3393    145.393     47.445  46.921379     6.5700     3.3559     0.4260    17.9352 2.5617e+02    21.6258     -0.105     -0.153    24.4887 0.0000e+00
     -0.113     -0.015    11.7149    144.460     47.476  46.937397     6.5700     3.4551     0.4260    17.9352 2.7786e+02    21.4605     -0.111     -0.161    24.4818 0.0000e+00
     -0.119     -0.017    11.9764    142.729     47.494  46.940065     6.5700     3.4437     0.4260    18.2736 2.3602e+02    21.4004     -0.116     -0.169    24.4709 0.0000e+00
     -0.123     -0.015    12.1155    140.490     47.485  46.914242     6.5700     3.4322     0.4260    18.2736 2.5885e+02    21.3252     -0.121     -0.175    24.4571 0.0000e+00
     -0.127     -0.013    12.1366    137.992     47.444  46.857004     6.5700     3.4322     0.4260    18.2736 2.6483e+02    21.4154     -0.125     -0.181    24.4422 0.0000e+00
     -0.130     -0.010    12.0620    135.477     47.385  46.782810     6.5700     3.6153     0.4260    18.2736 2.7259e+02    23.5046     -0.128     -0.185    24.4271 0.0000e+00
     -0.132     -0.007    11.9210    133.153     47.323  46.707542     6.5700     3.6115     0.4260    18.2736 2.5434e+02    23.5797     -0.129     -0.188    24.4108 0.0000e+00
     -0.132     -0.005    11.7378    131.144     47.255  46.628964     6.6600     3.6153     0.4260    18.1890 2.3540e+02    23.5797     -0.130     -0.189    24.3932 0.0000e+00
     -0.133     -0.004    11.5329    129.484     47.177  46.541973     6.6600     3.6077     0.4260    18.1890 2.3479e+02    23.5347     -0.131     -0.189    24.3754 0.0000e+00
     -0.134     -0.003    11.3262    128.172     47.094  46.451113     6.6600     3.3750     0.4260    18.1890 2.4426e+02    21.3703     -0.131     -0.190    24.3588 0.0000e+00
     -0.135     -0.003    11.1350    127.200     47.014  46.363859     6.6600     3.3674     0.4260    18.1890 2.8205e+02    21.3403     -0.132     -0.192    24.3443 0.0000e+00
     -0.136     -0.003    10.9695    126.516     46.940  46.284685     6.6600     3.3369     0.4260    18.1467 2.8995e+02    21.3252     -0.133     -0.193    24.3321 0.0000e+00
     -0.136     -0.003    10.8328    126.003     46.876  46.218237     6.6600     3.3521     0.4260    18.1467 2.4241e+02    21.4154     -0.134     -0.194    24.3216 0.0000e+00
     -0.137     -0.003    10.7250    125.508     46.829  46.170575     6.6600     3.4360     0.4260    18.1467 2.6299e+02    21.6859     -0.134     -0.195    24.3121 0.0000e+00
     -0.138     -0.003    10.6454    124.901     46.789  46.130969     6.6600     3.4360     0.4260    18.1467 2.8551e+02    21.5807     -0.135     -0.196    24.3033 0.0000e+00
     -0.138     -0.003    10.5896    124.094     46.742  46.084896     6.6600     3.4055     0.4260    18.5697 2.8588e+02    21.6409     -0.136     -0.197    24.2964 0.0000e+00
     -0.139     -0.003    10.5474    123.036     46.691  46.031959     6.6600     3.4399     0.4260    18.5697 2.8514e+02    21.6559     -0.136     -0.198    24.2924 0.0000e+00
     -0.139     -0.003    10.5063    121.712     46.636  45.973893     6.6600     3.6039     0.4260    18.5697 2.8563e+02    24.7671     -0.137     -0.199    24.2912 0.0000e+00
     -0.140     -0.003    10.4555    120.153     46.579  45.911067     6.6600     3.6420     0.4260    18.5697 2.5628e+02    24.7972     -0.137     -0.199    24.2913 0.0000e+00
     -0.141     -0.004    10.3880    118.448     46.521  45.846540     6.5700     3.6115     0.4260    18.1467 2.5307e+02    24.8423     -0.138     -0.200    24.2909 0.0000e+00
     -0.142     -0.004    10.2998    116.737     46.464  45.782920     6.5700     3.6039     0.4260    18.1467 2.7408e+02    24.8122     -0.139     -0.202    24.2886 0.0000e+00
     -0.143     -0.005    10.1899    115.166     46.394  45.707206     6.5700     3.5657     0.4260    18.1467 2.7737e+02    22.1218     -0.141     -0.204    24.2839 0.0000e+00
     -0.144     -0.005    10.0606    113.856     46.288  45.595242     6.5700     3.5886     0.4260    18.1467 2.7762e+02    22.1369     -0.142     -0.206    24.2772 0.0000e+00
     -0.146     -0.006     9.9193    112.869     46.142  45.442930     6.5700     3.5581     0.4260    18.1467 2.7907e+02    22.1218     -0.144     -0.208    24.2692 0.0000e+00
     -0.147     -0.006     9.7774    112.192     45.997  45.290895     6.4800     3.5429     0.4260    17.9775 2.7925e+02    22.0467     -0.145     -0.210    24.2611 0.0000e+00
     -0.149     -0.007     9.6473    111.759     45.881  45.165963     6.4800     3.5505     0.4260    17.9775 2.7907e+02    22.8583     -0.146     -0.212    24.2534 0.0000e+00
     -0.150     -0.007     9.5389    111.489     45.767  45.042743     6.4800     3.5505     0.4260    17.9775 2.7955e+02    22.8583     -0.148     -0.214    24.2457 0.0000e+00
     -0.152     -0.007     9.4578    111.301     45.653  44.918097     6.4800     3.5505     0.4260    17.9775 2.7888e+02    22.8282     -0.150     -0.217    24.2369 0.0000e+00
     -0.155     -0.007     9.4029    111.099     45.561  44.814266     6.6600     3.5581     0.4260    18.0198 2.7961e+02    22.7982     -0.152     -0.220    24.2264 0.0000e+00
     -0.157     -0.007     9.3686    110.796     45.495  44.735264     6.6600     3.6497     0.4260    18.0198 2.8004e+02    21.8513     -0.154     -0.223    24.2149 0.0000e+00
     -0.159     -0.006     9.3482    110.349     45.448  44.673891     6.6600     3.6001     0.4260    18.0198 2.8089e+02    21.7912     -0.155     -0.226    24.2026 0.0000e+00
     -0.160     -0.005     9.3347    109.778     45.407  44.617745     6.6600     3.6230     0.4260    18.0198 2.8065e+02    21.7310     -0.157     -0.227    24.1894 0.0000e+00
     -0.161     -0.004     9.3203    109.145     45.354  44.551851     6.6600     3.6153     0.4260    17.8929 2.8089e+02    21.8964     -0.158     -0.229    24.1750 0.0000e+00
     -0.161     -0.003     9.2975    108.521     45.288  44.474489     6.6600     3.6726     0.4260    17.8929 2.8047e+02    21.0397     -0.158     -0.230    24.1592 0.0000e+00
     -0.162     -0.003     9.2630    107.970     45.223  44.400693     6.6600     3.6726     0.4260    17.8929 2.8065e+02    21.1449     -0.159     -0.231    24.1422 0.0000e+00
     -0.163     -0.002     9.2180    107.549     45.166  44.334559     6.6600     3.6726     0.4260    17.8929 2.8047e+02    21.0847     -0.160     -0.232    24.1251 0.0000e+00
     -0.163     -0.002     9.1675    107.307     45.113  44.272322     6.6600     3.6535     0.4260    17.8929 2.7998e+02    21.1148     -0.160     -0.232    24.1094 0.0000e+00
     -0.164     -0.001     9.1174    107.262     45.065  44.213235     6.5700     3.5467     0.4260    18.3159 2.7998e+02    21.5657     -0.160     -0.233    24.0960 0.0000e+00
     -0.164     -0.001     9.0731    107.372     45.020  44.155410     6.5700     3.5390     0.4260    18.3159 2.8071e+02    21.6559     -0.160     -0.233    24.0846 0.0000e+00
     -0.164     -0.000     9.0395    107.567     44.978  44.099278     6.5700     3.5429     0.4260    18.3159 2.8053e+02    21.7160     -0.161     -0.233    24.0739 0.0000e+00
     -0.164     -0.000     9.0212    107.781     44.936  44.041758     6.5700     3.5505     0.4260    18.3159 2.7980e+02    21.6409     -0.161     -0.233    24.0622 0.0000e+00
     -0.164      0.000     9.0196    107.960     44.889  43.979397     6.6600     3.5505     0.4260    18.0621 2.8101e+02    21.4906     -0.161     -0.233    24.0489 0.0000e+00
     -0.164      0.000     9.0314    108.060     44.841  43.915379     6.6600     3.5619     0.4260    18.0621 2.8089e+02    21.4605     -0.161     -0.233    24.0338 0.0000e+00
     -0.164      0.001     9.0507    108.054     44.786  43.844518     6.6600     3.5772     0.4260    18.0621 2.8150e+02    21.3703     -0.161     -0.233    24.0172 0.0000e+00
     -0.164      0.002     9.0717    107.958     44.713  43.755845     6.6600     3.5581     0.4260    18.0621 2.8285e+02    21.3553     -0.160     -0.233    23.9995 0.0000e+00
     -0.163      0.004     9.0898    107.820     44.636  43.659393     6.5700     3.5085     0.4686    17.6814 2.8594e+02    21.4755     -0.160     -0.232    23.9813 0.0000e+00
     -0.163      0.008     9.1014    107.709     44.567  43.569068     6.5700     3.4933     0.4686    17.6814 2.9159e+02    21.3252     -0.159     -0.231    23.9626 0.0000e+00
     -0.161      0.013     9.1041    107.713     44.507  43.486539     6.5700     3.5085     0.4686    17.6814 2.9280e+02    21.3853     -0.158     -0.229    23.9436 0.0000e+00
     -0.158      0.021     9.0994    107.934     44.452  43.413570     6.5700     3.4627     0.4686    17.6814 2.9651e+02    21.3102     -0.155     -0.225    23.9236 0.0000e+00
     -0.153      0.029     9.0917    108.454     44.405  43.354478     6.4800     3.3597     0.4260    17.2584 2.9426e+02    22.0918     -0.150     -0.218    23.9009 0.0000e+00
     -0.145      0.039     9.0868    109.345     44.368  43.309354     6.4800     3.3407     0.4260    17.2584 2.8819e+02    22.1218     -0.142     -0.207    23.8747 0.0000e+00
     -0.133      0.047     9.0916    110.692     44.327  43.270127     6.4800     3.3750     0.4260    17.2584 2.6743e+02    22.0918     -0.131     -0.190    23.8482 0.0000e+00
     -0.118      0.055     9.1140    112.511     44.288  43.244167     6.4800     3.3750     0.4260    17.2584 1.9233e+02    22.2120     -0.116     -0.168    23.8263 0.0000e+00
     -0.102      0.061     9.1605    114.675     44.275  43.252289     6.4800     3.6268     0.4260    17.2584 1.7309e+02    21.6258     -0.100     -0.145    23.8108 0.0000e+00
     -0.085      0.066     9.2372    116.985     44.274  43.276848     6.6600     3.6230     0.4686    17.8083 1.6534e+02    21.5958     -0.083     -0.121    23.8016 0.0000e+00
     -0.068      0.069     9.3508    119.255     44.241  43.268922     6.6600     3.5963     0.4686    17.8083 1.5207e+02    21.5807     -0.067     -0.097    23.8023 0.0000e+00
     -0.050      0.071     9.5019    121.306     44.186  43.234322     6.6600     3.6192     0.4686    17.8083 1.4306e+02    21.6258     -0.049     -0.072    23.8161 0.0000e+00
     -0.032      0.073     9.6802    122.952     44.161  43.223259     6.6600     3.5810     0.4686    17.8083 1.3781e+02    21.4154     -0.032     -0.046    23.8401 0.0000e+00
     -0.014      0.075     9.8699    124.045     44.172  43.240711     6.9300     3.5429     0.4686    20.0925 1.2894e+02    21.4004     -0.013     -0.019    23.8685 0.0000e+00
      0.006      0.077    10.0564    124.543     44.206  43.273499     6.9300     3.5657     0.4686    20.0925 1.1487e+02    21.3102      0.006      0.009    23.8957 0.0000e+00
      0.027      0.080    10.2253    124.548     44.273  43.332348     6.9300     3.5429     0.4686    20.0925 1.0338e+02    21.4154      0.026      0.038    23.9175 0.0000e+00
      0.047      0.082    10.3612    124.293     44.360  43.405214     6.9300     3.6649     0.4686    20.0925 9.7678e+01    21.6409      0.046      0.067    23.9325 0.0000e+00
      0.068      0.086    10.4521    124.094     44.414  43.438221     7.2900     3.6649     0.4686    20.6847 9.8960e+01    21.6559      0.066      0.096    23.9399 0.0000e+00
      0.089      0.091    10.4943    124.296     44.427  43.422337     7.2900     3.6840     0.4686    20.6847 9.9305e+01    21.8062      0.087      0.126    23.9391 0.0000e+00
      0.112      0.096    10.4962    125.156     44.425  43.388988     7.2900     3.6726     0.4686    20.6847 9.5329e+01    21.5958      0.110      0.159    23.9316 0.0000e+00
      0.137      0.102    10.4774    126.697     44.398  43.335222     7.2900     4.2143     0.4686    20.6847 7.3544e+01    21.6108      0.135      0.195    23.9181 0.0000e+00
      0.165      0.107    10.4651    128.676     44.357  43.276418     7.1100     4.2295     0.4686    19.4580 5.7382e+01    21.7160      0.162      0.235    23.8959 0.0000e+00
      0.195      0.112    10.4885    130.713     44.333  43.238502     7.1100     4.2219     0.4686    19.4580 5.1485e+01    21.6258      0.191      0.277    23.8638 0.0000e+00
      0.224      0.115    10.5682    132.454     44.332  43.223251     7.1100     4.2333     0.4686    19.4580 4.6476e+01    21.5958      0.220      0.319    23.8279 0.0000e+00
      0.254      0.118    10.7045    133.626     44.345  43.216692     7.1100     4.0922     0.4686    19.4580 4.2765e+01    16.9064      0.249      0.361    23.7974 0.0000e+00
      0.284      0.119    10.8760    134.041     44.374  43.215095     7.1100     4.1151     0.4686    19.4580 3.6105e+01    16.9815      0.279      0.404    23.7761 0.0000e+00
      0.315      0.121    11.0514    133.631     44.415  43.210106     6.6600     4.0769     0.3834    16.9623 3.2956e+01    16.8462      0.309      0.447    23.7604 0.0000e+00
      0.346      0.124    11.2018    132.493     44.442  43.176620     6.6600     4.1036     0.3834    16.9623 2.9505e+01    16.9064      0.339      0.491    23.7444 0.0000e+00
      0.377      0.126    11.3053    130.871     44.464  43.135421     6.6600     3.5009     0.3834    16.9623 2.7458e+01    13.7801      0.370      0.536    23.7223 0.0000e+00
      0.409      0.129    11.3474    129.018     44.482  43.101273     6.6600     3.5009     0.3834    16.9623 2.5128e+01    13.9755      0.401      0.582    23.6886 0.0000e+00
      0.443      0.130    11.3232    127.069     44.492  43.072994     5.8500     3.4742     0.2556    10.7865 1.9937e+01    13.9003      0.434      0.630    23.6380 0.0000e+00
      0.477      0.130    11.2408    125.056     44.518  43.066816     5.8500     3.4933     0.2556    10.7865 1.7168e+01    13.8703      0.468      0.678    23.5707 0.0000e+00
      0.512      0.129    11.1178    122.999     44.560  43.077128     5.8500     2.3870     0.2556    10.7865 1.3571e+01     9.2711      0.502      0.728    23.5001 0.0000e+00
      0.546      0.126    10.9723    120.935     44.610  43.090832     5.8500     2.3755     0.2556    10.7865 1.1666e+01     9.2560      0.535      0.776    23.4423 0.0000e+00
      0.578      0.122    10.8152    118.898     44.659  43.095730     5.4900     2.3870     0.2130     8.7561 1.0366e+01     9.2861      0.567      0.822    23.4001 0.0000e+00
      0.608      0.117    10.6507    116.930     44.708  43.089164     5.4900     2.3946     0.2130     8.7561 9.4532e+00     9.3612      0.597      0.865    23.3654 0.0000e+00
      0.637      0.111    10.4823    115.077     44.775  43.085232     5.4900     2.1352     0.2130     8.7561 8.7191e+00     8.5646      0.625      0.906    23.3311 0.0000e+00
      0.664      0.106    10.3138    113.408     44.852  43.078919     5.4900     2.1505     0.2130     8.7561 7.8658e+00     8.5797      0.651      0.944    23.2926 0.0000e+00
      0.690      0.101    10.1490    112.010     44.935  43.068539     5.4900     2.1238     0.2130     8.7561 7.0071e+00     8.7149      0.677      0.981    23.2453 0.0000e+00
      0.715      0.098     9.9924    110.949     45.029  43.057263     5.3100     2.1238     0.2130     7.6140 6.5321e+00     8.6999      0.701      1.017    23.1846 0.0000e+00
      0.739      0.095     9.8483    110.249     45.133  43.044061     5.3100     2.0742     0.2130     7.6140 6.1438e+00     7.3171      0.725      1.051    23.1085 0.0000e+00
      0.762      0.094     9.7220    109.916     45.256  43.043239     5.3100     2.0780     0.2130     7.6140 5.9857e+00     7.5125      0.748      1.084    23.0189 0.0000e+00
      0.786      0.094     9.6207    109.954     45.378  43.040703     5.3100     2.0665     0.2130     7.6140 5.7287e+00     7.3923      0.770      1.117    22.9187 0.0000e+00
      0.809      0.094     9.5503    110.356     45.465  43.002090     5.2200     2.0971     0.2130     6.6411 5.0284e+00     7.4524      0.793      1.151    22.8063 0.0000e+00
      0.834      0.094     9.5132    111.113     45.499  42.901252     5.2200     2.0627     0.2130     6.6411 4.5679e+00     6.5055      0.817      1.186    22.6813 0.0000e+00
      0.858      0.094     9.5088    112.204     45.450  42.707329     5.2200     2.0894     0.2130     6.6411 4.1128e+00     6.5055      0.842      1.221    22.5504 0.0000e+00
      0.883      0.093     9.5366    113.606     45.295  42.392380     5.2200     2.0665     0.2130     6.6411 3.8174e+00     6.5055      0.866      1.256    22.4192 0.0000e+00
      0.907      0.091     9.5973    115.330     45.003  41.925904     5.0400     2.0856     0.1278     4.9914 3.5394e+00     6.4003      0.890      1.290    22.2838 0.0000e+00
      0.930      0.089     9.6915    117.383     44.493  41.244916     5.0400     1.7003     0.1278     4.9914 3.2794e+00     5.3332      0.912      1.323    22.1361 0.0000e+00
      0.952      0.086     9.8190    119.726     43.816  40.405538     5.0400     1.7080     0.1278     4.9914 3.1584e+00     5.3933      0.934      1.354    21.9706 0.0000e+00
      0.974      0.083     9.9798    122.304     43.115  39.548443     5.0400     1.7080     0.1278     4.9914 2.9444e+00     5.3031      0.955      1.384    21.7789 0.0000e+00
      0.994      0.081    10.1756    125.048     42.346  38.643164     4.8600     1.6927     0.1704     2.8764 2.7128e+00     5.3332      0.975      1.414    21.5594 0.0000e+00
      1.014      0.078    10.4052    127.838     41.570  37.745406     4.8600     1.4447     0.1704     2.8764 2.5957e+00     3.8151      0.995      1.442    21.3233 0.0000e+00
      1.034      0.076    10.6643    130.511     40.965  37.013891     4.8600     1.4638     0.1704     2.8764 2.4072e+00     3.8151      1.014      1.470    21.0782 0.0000e+00
      1.053      0.074    10.9467    132.893     40.512  36.435768     4.8600     1.4562     0.1704     2.8764 2.2735e+00     3.8602      1.033      1.498    20.8324 0.0000e+00
      1.072      0.072    11.2441    134.805     40.198  36.001443     4.8600     1.4524     0.1704     2.8764 2.1355e+00     3.8903      1.051      1.524    20.5967 0.0000e+00
      1.090      0.070    11.5457    136.081     40.036  35.723829     4.6800     1.3837     0.1278     1.9881 1.9817e+00     3.4243      1.069      1.550    20.3704 0.0000e+00
      1.108      0.067    11.8371    136.614     39.977  35.556615     4.6800     1.3799     0.1278     1.9881 1.9770e+00     3.4694      1.086      1.575    20.1522 0.0000e+00
      1.124      0.065    12.1006    136.384     39.980  35.463131     4.6800     1.3990     0.1278     1.9881 1.9595e+00     3.4093      1.103      1.599    19.9484 0.0000e+00
      1.140      0.064    12.3182    135.480     40.015  35.414481     4.6800     1.3875     0.1278     1.9881 1.9835e+00     3.4243      1.118      1.622    19.7642 0.0000e+00
      1.156      0.064    12.4735    134.071     40.059  35.389769     4.6800     1.4295     0.0852     1.4382 1.9633e+00     3.1538      1.134      1.644    19.6023 0.0000e+00
      1.172      0.065    12.5559    132.360     40.100  35.374479     4.6800     1.4219     0.0852     1.4382 1.9809e+00     3.1688      1.149      1.666    19.4625 0.0000e+00
      1.188      0.067    12.5635    130.543     40.124  35.352651     4.6800     1.4333     0.0852     1.4382 2.0134e+00     3.0786      1.164      1.689    19.3435 0.0000e+00
      1.205      0.069    12.5039    128.798     40.142  35.326384     4.6800     1.4791     0.0852     1.4382 1.9173e+00     3.1838      1.181      1.713    19.2456 0.0000e+00
      1.223      0.071    12.3929    127.275     40.172  35.304519     4.5900     0.9069     0.0852     1.0575 1.8014e+00     2.5526      1.199      1.739    19.1668 0.0000e+00
      1.242      0.072    12.2501    126.052     40.219  35.289144     4.5900     0.8916     0.0852     1.0575 1.6702e+00     2.4925      1.218      1.767    19.1035 0.0000e+00
      1.262      0.072    12.0947    125.121     40.283  35.280118     4.5900     0.8878     0.0852     1.0575 1.5878e+00     2.4474      1.237      1.795    19.0500 0.0000e+00
      1.281      0.071    11.9457    124.419     40.350  35.271071     4.5900     0.9259     0.0852     1.0575 1.5375e+00     2.4624      1.256      1.822    18.9975 0.0000e+00
      1.299      0.070    11.8186    123.863     40.410  35.255625     4.4100     0.6703     0.0852     0.6768 1.5048e+00     2.3572      1.274      1.848    18.9381 0.0000e+00
      1.316      0.068    11.7218    123.362     40.458  35.233620     4.4100     0.6894     0.0852     0.6768 1.4811e+00     2.1317      1.291      1.872    18.8675 0.0000e+00
      1.333      0.067    11.6543    122.789     40.494  35.207108     4.4100     0.6551     0.0852     0.6768 1.4321e+00     2.1768      1.307      1.896    18.7870 0.0000e+00
      1.349      0.066    11.6089    121.950     40.514  35.172976     4.4100     0.6703     0.0852     0.6768 1.3894e+00     2.2520      1.323      1.919    18.7023 0.0000e+00
      1.365      0.066    11.5766    120.629     40.515  35.124102     4.4100     0.6665     0.0852     0.6768 1.3278e+00     1.9965      1.339      1.942    18.6187 0.0000e+00
      1.382      0.066    11.5482    118.615     40.494  35.055375     4.4100     0.7085     0.0852     0.5922 1.2515e+00     2.0866      1.356      1.966    18.5398 0.0000e+00
      1.399      0.065    11.5112    115.699     40.455  34.970249     4.4100     0.6703     0.0852     0.5922 1.2284e+00     2.0416      1.372      1.990    18.4682 0.0000e+00
      1.416      0.064    11.4472    111.838     40.414  34.885631     4.4100     0.6970     0.0852     0.5922 1.1846e+00     2.0566      1.389      2.014    18.4039 0.0000e+00
      1.433      0.062    11.3370    107.166     40.386  34.818564     4.4100     0.6131     0.0852     0.5922 1.1559e+00     1.8161      1.405      2.038    18.3428 0.0000e+00
      1.448      0.061    11.1614    101.751     40.373  34.772947     4.5000     0.6055     0.0426     0.5076 1.1571e+00     1.7860      1.421      2.060    18.2803 0.0000e+00
      1.463      0.060    10.9007     95.524     40.369  34.742554     4.5000     0.6322     0.0426     0.5076 1.1384e+00     1.7109      1.435      2.082    18.2164 0.0000e+00
      1.478      0.059    10.5497     88.332     40.365  34.717300     4.5000     0.6131     0.0426     0.5076 1.1337e+00     1.7710      1.449      2.102    18.1554 0.0000e+00
      1.492      0.059    10.1197     80.143     40.354  34.688470     4.5000     0.6551     0.0426     0.5076 1.1173e+00     1.8011      1.463      2.122    18.1025 0.0000e+00
      1.507      0.059     9.6166     71.209     40.330  34.648375     4.4100     0.6932     0.0426     0.4653 1.0738e+00     1.7860      1.478      2.143    18.0596 0.0000e+00
      1.522      0.060     9.0341     61.973     40.285  34.588304     4.4100     0.6894     0.0426     0.4653 1.0731e+00     1.7860      1.493      2.165    18.0260 0.0000e+00
      1.538      0.061     8.3582     52.902     40.223  34.508080     4.4100     0.6856     0.0426     0.4653 1.0434e+00     1.7860      1.508      2.187    17.9991 0.0000e+00
      1.553      0.062     7.5866     44.452     40.157  34.419978     4.4100     0.6093     0.0426     0.4653 1.0225e+00     1.6658      1.523      2.210    17.9754 0.0000e+00
      1.570      0.062     6.7435     37.046     40.099  34.336148     4.4100     0.6360     0.0426     0.3807 9.8076e-01     1.6207      1.539      2.232    17.9518 0.0000e+00
      1.586      0.064     5.8713     30.965     40.048  34.258000     4.4100     0.6208     0.0426     0.3807 1.0049e+00     1.6508      1.555      2.255    17.9248 0.0000e+00
      1.601      0.066     5.0146     26.271     39.987  34.168654     4.4100     0.6131     0.0426     0.3807 9.8012e-01     1.4704      1.570      2.277    17.8913 0.0000e+00
      1.617      0.070     4.2164     22.814     39.901  34.054186     4.4100     0.4911     0.0426     0.3807 9.7460e-01     1.3953      1.586      2.300    17.8520 0.0000e+00
      1.634      0.075     3.5166     20.338     39.815  33.931599     4.4100     0.4796     0.0426     0.3807 9.6030e-01     1.6508      1.603      2.324    17.8097 0.0000e+00
      1.653      0.080     2.9419     18.590     39.751  33.821671     4.3200     0.4949     0.0426     0.2538 8.9794e-01     1.4404      1.621      2.352    17.7662 0.0000e+00
      1.675      0.085     2.4983     17.415     39.708  33.724793     4.3200     0.4758     0.0426     0.2538 9.1667e-01     1.5606      1.643      2.383    17.7203 0.0000e+00
      1.699      0.090     2.1720     16.778     39.674  33.634929     4.3200     0.4605     0.0426     0.2538 8.4237e-01     1.0796      1.666      2.417    17.6680 0.0000e+00
      1.724      0.093     1.9389     16.660     39.642  33.549898     4.3200     0.4376     0.0426     0.2538 7.8698e-01     1.0947      1.691      2.452    17.6064 0.0000e+00
      1.749      0.094     1.7751     16.986     39.605  33.466826     4.2300     0.4224     0.0426     0.2538 7.5089e-01     1.0947      1.715      2.487    17.5365 0.0000e+00
      1.773      0.096     1.6658     17.652     39.558  33.379400     4.2300     0.4300     0.0426     0.2538 7.4813e-01     1.0496      1.738      2.521    17.4612 0.0000e+00
      1.796      0.097     1.6079     18.540     39.503  33.284110     4.2300     0.4529     0.0426     0.2538 7.5597e-01     1.0646      1.761      2.555    17.3842 0.0000e+00
      1.820      0.098     1.5994     19.518     39.444  33.179307     4.2300     0.4491     0.0426     0.2538 7.4117e-01     1.0646      1.785      2.589    17.3113 0.0000e+00
      1.846      0.099     1.6333     20.465     39.386  33.066748     4.1400     0.4376     0.0852     0.2538 7.0642e-01     1.0045      1.810      2.625    17.2460 0.0000e+00
      1.872      0.101     1.6997     21.296     39.344  32.959980     4.1400     0.4643     0.0852     0.2538 6.9666e-01     1.0496      1.836      2.662    17.1854 0.0000e+00
      1.898      0.102     1.7877     21.979     39.321  32.864194     4.1400     0.3613     0.0852     0.2538 6.5796e-01     1.3051      1.862      2.700    17.1231 0.0000e+00
      1.925      0.104     1.8849     22.513     39.296  32.761765     4.1400     0.3690     0.0852     0.2538 6.6443e-01     1.3351      1.888      2.737    17.0536 0.0000e+00
      1.951      0.105     1.9796     22.882     39.267  32.655080     4.0500     0.3728     0.0426     0.1692 6.7417e-01     1.2901      1.913      2.775    16.9732 0.0000e+00
      1.977      0.106     2.0638     23.051     39.253  32.559252     4.0500     0.3575     0.0426     0.1692 6.3493e-01     1.3502      1.939      2.812    16.8824 0.0000e+00
      2.004      0.108     2.1343     22.980     39.246  32.466545     4.0500     0.3690     0.0426     0.1692 6.3811e-01     1.5155      1.966      2.851    16.7845 0.0000e+00
      2.032      0.110     2.1906     22.658     39.259  32.381941     4.0500     0.3652     0.0426     0.1692 6.0005e-01     1.5305      1.993      2.890    16.6818 0.0000e+00
      2.060      0.112     2.2312     22.098     39.305  32.316537     4.0500     0.3690     0.0426     0.1692 5.9732e-01     1.5155      2.021      2.931    16.5762 0.0000e+00
      2.090      0.113     2.2524     21.321     39.367  32.260809     3.9600     0.3613     0.0426     0.1692 5.9693e-01     1.5606      2.049      2.972    16.4696 0.0000e+00
      2.119      0.113     2.2504     20.355     39.440  32.217714     3.9600     0.3156     0.0426     0.1692 5.7653e-01     2.0716      2.078      3.014    16.3591 0.0000e+00
      2.149      0.113     2.2241     19.240     39.525  32.193578     3.9600     0.3118     0.0426     0.1692 5.5986e-01     2.0416      2.107      3.056    16.2383 0.0000e+00
      2.178      0.112     2.1747     18.011     39.609  32.174041     3.9600     0.3346     0.0426     0.1692 5.6181e-01     2.0115      2.136      3.097    16.1071 0.0000e+00
      2.206      0.111     2.1038     16.682     39.698  32.149930     3.8700     0.3346     0.0426     0.1692 5.4191e-01     2.1017      2.163      3.137    15.9724 0.0000e+00
      2.233      0.110     2.0136     15.259     39.824  32.138577     3.8700     0.3079     0.0426     0.1692 5.6389e-01     2.2370      2.190      3.176    15.8429 0.0000e+00
      2.261      0.109     1.9077     13.761     40.034  32.172595     3.8700     0.2927     0.0426     0.1692 5.4015e-01     2.2370      2.217      3.215    15.7252 0.0000e+00
      2.288      0.109     1.7895     12.232     40.358  32.272931     3.8700     0.3041     0.0426     0.1692 5.1426e-01     2.2670      2.243      3.254    15.6143 0.0000e+00
      2.316      0.109     1.6610     10.729     40.756  32.406929     3.8700     0.2927     0.0852     0.1692 4.9734e-01     2.3722      2.271      3.293    15.4948 0.0000e+00
      2.344      0.110     1.5232      9.322     41.112  32.501402     3.8700     0.3003     0.0852     0.1692 5.6487e-01     3.3342      2.298      3.333    15.3541 0.0000e+00
      2.372      0.110     1.3779      8.080     41.372  32.541926     3.8700     0.3156     0.0852     0.1692 5.3780e-01     3.3642      2.326      3.374    15.1874 0.0000e+00
      2.401      0.111     1.2292      7.035     41.540  32.547221     3.8700     0.3079     0.0852     0.1692 5.0452e-01     3.4394      2.354      3.414    14.9913 0.0000e+00
      2.429      0.111     1.0828      6.196     41.606  32.516714     3.8700     0.2851     0.0852     0.1692 4.8024e-01     3.3342      2.382      3.454    14.7664 0.0000e+00
      2.457      0.112     0.9454      5.561     41.593  32.471970     3.8700     0.3041     0.1278     0.1269 4.7774e-01     4.5817      2.409      3.494    14.5357 0.0000e+00
      2.485      0.113     0.8231      5.127     41.568  32.452545     3.8700     0.2965     0.1278     0.1269 4.6727e-01     4.6267      2.437      3.534    14.3339 0.0000e+00
      2.513      0.114     0.7195      4.874     41.605  32.492867     3.8700     0.3346     0.1278     0.1269 4.7083e-01     4.5817      2.465      3.575    14.1785 0.0000e+00
      2.543      0.116     0.6355      4.765     41.751  32.603692     3.8700     0.3346     0.1278     0.1269 4.3854e-01     4.5516      2.493      3.616    14.0779 0.0000e+00
      2.572      0.117     0.5714      4.757     42.022  32.778931     3.8700     0.6360     0.0426     0.1692 4.6686e-01     3.6498      2.523      3.659    14.0353 0.0000e+00
      2.603      0.118     0.5272      4.779     42.382  32.980163     3.8700     0.6436     0.0426     0.1692 4.2163e-01     3.5897      2.553      3.702    14.0353 0.0000e+00
      2.634      0.119     0.5012      4.756     42.747  33.150148     3.8700     0.6284     0.0426     0.1692 4.3342e-01     3.6197      2.583      3.746    14.0490 0.0000e+00
      2.665      0.119     0.4903      4.619     43.073  33.278762     3.8700     0.6284     0.0426     0.1692 4.2282e-01     3.6197      2.613      3.790    14.0466 0.0000e+00
      2.695      0.119     0.4899      4.328     43.332  33.362669     4.0500     0.3919     0.1704     0.2538 3.9682e-01     4.4915      2.643      3.833    14.0044 0.0000e+00
      2.725      0.119     0.4933      3.899     43.475  33.378688     4.0500     0.3842     0.1704     0.2538 3.9424e-01     4.5967      2.672      3.876    13.9109 0.0000e+00
      2.755      0.118     0.4922      3.406     43.507  33.340990     4.0500     0.3766     0.1704     0.2538 3.9994e-01     4.5967      2.701      3.918    13.7782 0.0000e+00
      2.785      0.118     0.4794      2.957     43.486  33.289028     4.0500     0.3575     0.1704     0.2538 3.4923e-01     4.5065      2.731      3.961    13.6334 0.0000e+00
      2.815      0.118     0.4505      2.666     43.455  33.240634     3.9600     0.3194     0.1704     0.2115 3.5504e-01     5.0626      2.761      4.004    13.4980 0.0000e+00
      2.845      0.117     0.4068      2.603     43.436  33.200725     3.9600     0.3346     0.1704     0.2115 3.7560e-01     5.0175      2.790      4.047    13.3885 0.0000e+00
      2.875      0.116     0.3560      2.771     43.444  33.178462     3.9600     0.3118     0.1704     0.2115 3.6418e-01     5.0025      2.819      4.089    13.3160 0.0000e+00
      2.905      0.115     0.3094      3.124     43.476  33.173848     3.9600     0.3194     0.1704     0.2115 3.2190e-01     4.9574      2.849      4.132    13.2740 0.0000e+00
      2.934      0.113     0.2792      3.585     43.522  33.181690     3.9600     0.3919     0.1704     0.2115 3.2471e-01     4.6267      2.877      4.174    13.2448 0.0000e+00
      2.963      0.111     0.2729      4.074     43.597  33.215960     3.9600     0.3575     0.1278     0.3384 3.2471e-01     4.5666      2.905      4.214    13.2156 0.0000e+00
      2.991      0.109     0.2908      4.523     43.741  33.305600     3.9600     0.3728     0.1278     0.3384 3.0125e-01     4.5516      2.933      4.254    13.1831 0.0000e+00
      3.017      0.107     0.3282      4.891     43.974  33.460651     3.9600     0.3842     0.1278     0.3384 3.0481e-01     4.5967      2.959      4.292    13.1495 0.0000e+00
      3.044      0.106     0.3769      5.159     44.262  33.651168     3.9600     0.3652     0.1278     0.3384 3.0581e-01     5.0326      2.985      4.329    13.1183 0.0000e+00
      3.070      0.105     0.4285      5.331     44.575  33.852700     4.0500     0.3766     0.1278     0.2961 2.9858e-01     5.1227      3.011      4.367    13.0924 0.0000e+00
      3.097      0.104     0.4759      5.405     44.906  34.059577     4.0500     0.3995     0.1278     0.2961 3.0382e-01     5.0175      3.037      4.405    13.0699 0.0000e+00
      3.124      0.104     0.5148      5.363     45.200  34.231905     4.0500     0.3766     0.1278     0.2961 2.7112e-01     4.9875      3.064      4.443    13.0448 0.0000e+00
      3.151      0.102     0.5434      5.180     45.403  34.332457     4.0500     0.3041     0.1278     0.2961 3.0283e-01     5.9494      3.090      4.482    13.0124 0.0000e+00
      3.177      0.100     0.5620      4.842     45.526  34.374182     4.0500     0.3118     0.1278     0.1692 2.6866e-01     5.9344      3.116      4.519    12.9715 0.0000e+00
      3.203      0.097     0.5704      4.363     45.597  34.380087     4.0500     0.3194     0.1278     0.1692 2.5662e-01     5.9795      3.141      4.556    12.9222 0.0000e+00
      3.227      0.094     0.5666      3.781     45.642  34.367589     4.0500     0.3194     0.1278     0.1692 2.4459e-01     6.0245      3.165      4.591    12.8661 0.0000e+00
      3.250      0.091     0.5478      3.145     45.679  34.345237     4.0500     0.3079     0.1278     0.1692 2.2026e-01     6.4304      3.188      4.623    12.8072 0.0000e+00
      3.272      0.089     0.5126      2.503     45.703  34.307069     4.1400     0.2278     0.1704     0.2115 2.4100e-01     6.5055      3.209      4.655    12.7501 0.0000e+00
      3.294      0.087     0.4623      1.907     45.712  34.250828     4.1400     0.2660     0.1704     0.2115 2.3276e-01     6.4754      3.231      4.686    12.6974 0.0000e+00
      3.316      0.086     0.4009      1.401     45.703  34.177357     4.1400     0.2584     0.1704     0.2115 2.3607e-01     6.5205      3.252      4.717    12.6467 0.0000e+00
      3.338      0.086     0.3337      1.017     45.694  34.100728     4.1400     0.2622     0.1704     0.2115 2.2364e-01     6.4153      3.274      4.748    12.5921 0.0000e+00
      3.360      0.086     0.2659      0.758     45.714  34.044075     4.1400     0.1821     0.1704     0.2115 2.1979e-01     6.6859      3.295      4.779    12.5299 0.0000e+00
      3.382      0.085     0.2028      0.614     45.770  34.014071     4.1400     0.1897     0.1704     0.1692 2.4480e-01     6.7310      3.317      4.811    12.4612 0.0000e+00
      3.404      0.084     0.1492      0.577     45.851  34.006674     4.1400     0.1782     0.1704     0.1692 2.1329e-01     6.7009      3.338      4.842    12.3882 0.0000e+00
      3.426      0.083     0.1084      0.655     45.941  34.011986     4.1400     0.1744     0.1704     0.1692 1.7529e-01     6.8362      3.360      4.873    12.3116 0.0000e+00
      3.447      0.082     0.0810      0.859     46.022  34.015581     4.1400     0.1859     0.1704     0.1692 1.9452e-01     6.2350      3.380      4.903    12.2332 0.0000e+00
      3.468      0.081     0.0658      1.205     46.075  34.002570     4.0500     0.1897     0.1278     0.1692 2.0259e-01     6.2650      3.401      4.932    12.1556 0.0000e+00
      3.488      0.080     0.0622      1.705     46.093  33.961562     4.0500     0.1897     0.1278     0.1692 2.1680e-01     6.2500      3.420      4.961    12.0820 0.0000e+00
      3.508      0.079     0.0708      2.369     46.078  33.889541     4.0500     0.1668     0.1278     0.1692 1.9905e-01     6.2199      3.440      4.989    12.0144 0.0000e+00
      3.528      0.080     0.0931      3.213     46.032  33.787106     4.0500     0.1286     0.1278     0.1692 1.7518e-01     6.4754      3.459      5.017    11.9533 0.0000e+00
      3.548      0.081     0.1308      4.257     45.967  33.664564     4.0500     0.1401     0.1704     0.1269 1.7906e-01     6.4905      3.479      5.046    11.8964 0.0000e+00
      3.568      0.082     0.1853      5.537     45.918  33.552607     4.0500     0.1439     0.1704     0.1269 1.8467e-01     6.4153      3.499      5.075    11.8376 0.0000e+00
      3.590      0.082     0.2578      7.136     45.917  33.482769     4.0500     0.1134     0.1704     0.1269 1.8984e-01     6.4604      3.520      5.106    11.7713 0.0000e+00
      3.612      0.083     0.3502      9.191     45.938  33.444345     4.0500     0.1248     0.1704     0.1269 1.7906e-01     6.2650      3.542      5.137    11.6967 0.0000e+00
      3.633      0.083     0.4646     11.886     45.919  33.391439     3.8700     0.1248     0.1704     0.1692 1.7261e-01     6.1748      3.563      5.168    11.6153 0.0000e+00
      3.654      0.084     0.6052     15.407     45.842  33.302022     3.8700     0.1019     0.1704     0.1692 1.5283e-01     6.0847      3.584      5.198    11.5319 0.0000e+00
      3.675      0.084     0.7809     19.844     45.739  33.187896     3.8700     0.1325     0.1704     0.1692 1.6780e-01     6.3101      3.604      5.227    11.4568 0.0000e+00
      3.695      0.086     1.0067     25.096     45.640  33.068136     3.8700     0.1248     0.1704     0.1692 1.5300e-01     5.9644      3.624      5.256    11.3988 0.0000e+00
      3.717      0.088     1.3028     30.879     45.571  32.962292     3.8700     0.1058     0.1704     0.1692 1.6689e-01     5.9494      3.645      5.287    11.3563 0.0000e+00
      3.740      0.091     1.6901     36.820     45.543  32.885704     3.8700     0.1363     0.1278     0.1269 1.5527e-01     5.9945      3.668      5.319    11.3190 0.0000e+00
      3.764      0.093     2.1787     42.586     45.551  32.839730     3.8700     0.1210     0.1278     0.1269 1.6063e-01     5.9795      3.691      5.354    11.2766 0.0000e+00
      3.789      0.094     2.7583     47.975     45.576  32.814088     3.8700     0.1134     0.1278     0.1269 1.5872e-01     5.4684      3.716      5.389    11.2239 0.0000e+00
      3.814      0.095     3.3977     52.932     45.595  32.792037     3.8700     0.1210     0.1278     0.1269 1.5588e-01     5.5135      3.740      5.424    11.1631 0.0000e+00
      3.838      0.095     4.0560     57.517     45.589  32.759775     3.8700     0.1210     0.1278     0.1692 1.6725e-01     5.6338      3.764      5.459    11.1014 0.0000e+00
      3.862      0.094     4.6960     61.850     45.569  32.722560     3.8700     0.1058     0.1278     0.1692 1.3517e-01     5.4684      3.787      5.493    11.0447 0.0000e+00
      3.886      0.093     5.2947     66.031     45.552  32.690270     3.8700     0.1096     0.1278     0.1692 1.2205e-01     5.5135      3.810      5.526    10.9964 0.0000e+00
      3.909      0.093     5.8458     70.067     45.548  32.668157     3.8700     0.1058     0.1278     0.1692 1.1612e-01     5.5135      3.833      5.560    10.9573 0.0000e+00
      3.933      0.093     6.3556     73.851     45.561  32.658244     3.8700     0.1058     0.1278     0.1269 1.5313e-01     5.5135      3.857      5.594    10.9265 0.0000e+00
      3.956      0.094     6.8376     77.192     45.581  32.653927     3.8700     0.1325     0.1278     0.1269 1.5524e-01     5.4835      3.880      5.627    10.9015 0.0000e+00
      3.980      0.094     7.3029     79.885     45.597  32.650094     3.8700     0.1210     0.1278     0.1269 1.1868e-01     5.3031      3.904      5.661    10.8798 0.0000e+00
      4.005      0.094     7.7526     81.813     45.604  32.641759     3.8700     0.1325     0.1278     0.1269 1.3198e-01     5.2730      3.927      5.696    10.8589 0.0000e+00
      4.029      0.094     8.1750     83.012     45.597  32.626702     3.7800     0.1286     0.0852     0.1692 1.2637e-01     5.3632      3.951      5.731    10.8377 0.0000e+00
      4.053      0.094     8.5484     83.647     45.579  32.604867     3.7800     0.1134     0.0852     0.1692 1.1610e-01     5.2430      3.975      5.765    10.8176 0.0000e+00
      4.077      0.094     8.8498     83.949     45.554  32.578352     3.7800     0.1248     0.0852     0.1692 1.1749e-01     5.2129      3.999      5.799    10.8002 0.0000e+00
      4.101      0.093     9.0661     84.119     45.530  32.551968     3.7800     0.1286     0.0852     0.1692 1.1605e-01     5.2730      4.022      5.833    10.7862 0.0000e+00
      4.124      0.093     9.2011     84.278     45.508  32.526600     3.7800     0.1401     0.0852     0.1692 1.1617e-01     5.2881      4.045      5.866    10.7748 0.0000e+00
      4.148      0.093     9.2735     84.481     45.499  32.511325     3.8700     0.0981     0.1278     0.1269 1.1615e-01     5.2730      4.068      5.900    10.7650 0.0000e+00
      4.171      0.093     9.3090     84.735     45.502  32.506031     3.8700     0.1019     0.1278     0.1269 1.1623e-01     5.2430      4.091      5.933    10.7553 0.0000e+00
      4.195      0.094     9.3299     85.005     45.501  32.497423     3.8700     0.1134     0.1278     0.1269 1.1605e-01     5.3031      4.114      5.967    10.7450 0.0000e+00
      4.219      0.096     9.3498     85.245     45.503  32.491128     3.8700     0.1363     0.1278     0.1269 1.1610e-01     5.1829      4.137      6.000    10.7345 0.0000e+00
      4.243      0.098     9.3745     85.404     45.525  32.497347     3.7800     0.1134     0.1278     0.1269 1.1610e-01     5.2730      4.161      6.035    10.7248 0.0000e+00
      4.268      0.100     9.4045     85.457     45.551  32.505857     3.7800     0.1592     0.1278     0.1269 1.1625e-01     4.9273      4.186      6.071    10.7163 0.0000e+00
      4.294      0.102     9.4363     85.408     45.564  32.507045     3.7800     0.1134     0.1278     0.1269 1.1796e-01     5.1227      4.211      6.108    10.7083 0.0000e+00
      4.321      0.103     9.4648     85.285     45.571  32.505190     3.7800     0.1401     0.1278     0.1269 1.1605e-01     5.0175      4.238      6.146    10.6993 0.0000e+00
      4.348      0.103     9.4848     85.118     45.577  32.503755     3.7800     0.1210     0.1278     0.1269 1.1617e-01     5.0175      4.264      6.185    10.6889 0.0000e+00
      4.375      0.102     9.4930     84.929     45.580  32.502359     3.7800     0.1286     0.1278     0.1269 1.1620e-01     5.1227      4.290      6.222    10.6784 0.0000e+00
      4.400      0.101     9.4896     84.730     45.581  32.500629     3.7800     0.1134     0.1278     0.1269 1.1628e-01     5.0776      4.315      6.259    10.6691 0.0000e+00
      4.426      0.099     9.4775     84.529     45.580  32.498103     3.7800     0.1286     0.1278     0.1269 1.1617e-01     4.9724      4.340      6.295    10.6615 0.0000e+00
      4.451      0.098     9.4603     84.324     45.575  32.494108     3.7800     0.1325     0.1278     0.1269 1.1623e-01     5.0025      4.365      6.330    10.6557 0.0000e+00
      4.475      0.097     9.4403     84.105     45.566  32.487578     3.7800     0.1325     0.1278     0.0846 1.1612e-01     5.1077      4.389      6.365    10.6514 0.0000e+00
      4.499      0.097     9.4187     83.860     45.551  32.476773     3.7800     0.1134     0.1278     0.0846 1.1623e-01     5.0326      4.412      6.400    10.6486 0.0000e+00
      4.523      0.097     9.3967     83.578     45.533  32.462772     3.7800     0.1210     0.1278     0.0846 1.1612e-01     4.9574      4.436      6.434    10.6471 0.0000e+00
      4.547      0.098     9.3740     83.254     45.519  32.449761     3.7800     0.1286     0.1278     0.0846 1.1620e-01     5.0476      4.459      6.468    10.6466 0.0000e+00
      4.572      0.099     9.3497     82.887     45.513  32.442193     3.7800     0.1058     0.0852     0.0846 1.1623e-01     5.0626      4.484      6.504    10.6466 0.0000e+00
      4.598      0.101     9.3225     82.477     45.512  32.438049     3.7800     0.1134     0.0852     0.0846 1.1602e-01     4.9273      4.509      6.541    10.6462 0.0000e+00
      4.625      0.102     9.2915     82.040     45.508  32.432264     3.7800     0.1058     0.0852     0.0846 1.1612e-01     5.1077      4.535      6.578    10.6447 0.0000e+00
      4.652      0.103     9.2561     81.598     45.506  32.427254     3.7800     0.1439     0.0852     0.0846 1.1617e-01     4.9875      4.561      6.616    10.6420 0.0000e+00
      4.678      0.103     9.2160     81.173     45.504  32.421684     3.7800     0.2049     0.1278     0.1269 1.1623e-01     5.2730      4.587      6.654    10.6385 0.0000e+00
      4.705      0.103     9.1712     80.789     45.498  32.414069     3.7800     0.1935     0.1278     0.1269 1.1623e-01     5.3332      4.613      6.692    10.6347 0.0000e+00
      4.731      0.102     9.1234     80.470     45.492  32.406338     3.7800     0.2049     0.1278     0.1269 1.1615e-01     5.3332      4.639      6.729    10.6308 0.0000e+00
      4.757      0.101     9.0751     80.224     45.488  32.400390     3.7800     0.2011     0.1278     0.1269 1.1607e-01     5.2580      4.665      6.766    10.6268 0.0000e+00
      4.782      0.100     9.0288     80.053     45.494  32.402560     3.7800     0.0981     0.1704     0.0846 1.1612e-01     5.0626      4.690      6.802    10.6227 0.0000e+00
      4.808      0.100     8.9869     79.954     45.506  32.409466     3.7800     0.1248     0.1704     0.0846 1.1600e-01     5.0476      4.715      6.838    10.6186 0.0000e+00
      4.833      0.100     8.9522     79.913     45.516  32.415027     3.7800     0.1248     0.1704     0.0846 1.1607e-01     4.9724      4.740      6.874    10.6149 0.0000e+00
      4.858      0.100     8.9255     79.907     45.520  32.416767     3.7800     0.1019     0.1704     0.0846 1.1605e-01     5.1378      4.764      6.910    10.6118 0.0000e+00
      4.884      0.101     8.9070     79.919     45.513  32.411189     3.7800     0.1210     0.1704     0.0846 1.1605e-01     5.2730      4.789      6.946    10.6094 0.0000e+00
      4.910      0.101     8.8964     79.926     45.510  32.408686     3.7800     0.1210     0.0852     0.1692 1.1607e-01     5.2580      4.814      6.983    10.6076 0.0000e+00
      4.936      0.101     8.8921     79.905     45.516  32.412553     3.7800     0.1363     0.0852     0.1692 1.1610e-01     5.3031      4.840      7.020    10.6061 0.0000e+00
      4.962      0.101     8.8916     79.850     45.521  32.415899     3.7800     0.1325     0.0852     0.1692 1.1623e-01     5.3031      4.866      7.057    10.6050 0.0000e+00
      4.987      0.100     8.8932     79.772     45.527  32.419617     3.7800     0.1210     0.0852     0.1692 1.1643e-01     5.2580      4.891      7.094    10.6041 0.0000e+00
      5.012      0.099     8.8941     79.672     45.529  32.420736     3.7800     0.1325     0.0852     0.0846 1.1630e-01     5.3031      4.915      7.129    10.6034 0.0000e+00
      5.038      0.099     8.8918     79.555     45.533  32.423518     3.7800     0.1248     0.0852     0.0846 1.1607e-01     5.2430      4.940      7.165    10.6030 0.0000e+00
      5.063      0.098     8.8858     79.439     45.547  32.432662     3.7800     0.1019     0.0852     0.0846 1.1620e-01     5.2129      4.965      7.201    10.6027 0.0000e+00
      5.088      0.098     8.8771     79.338     45.556  32.438728     3.7800     0.1172     0.0852     0.0846 1.1623e-01     4.9574      4.989      7.237    10.6024 0.0000e+00
      5.113      0.098     8.8661     79.259     45.553  32.435410     3.7800     0.1325     0.0852     0.1692 1.1605e-01     5.0626      5.014      7.272    10.6020 0.0000e+00
      5.138      0.098     8.8532     79.203     45.540  32.425784     3.7800     0.1172     0.0852     0.1692 1.1620e-01     5.0476      5.038      7.308    10.6015 0.0000e+00
      5.163      0.098     8.8404     79.165     45.526  32.415205     3.7800     0.1363     0.0852     0.1692 1.1617e-01     5.0776      5.063      7.343    10.6010 0.0000e+00
      5.188      0.097     8.8292     79.139     45.512  32.404813     3.7800     0.1096     0.0852     0.1692 1.1610e-01     5.0025      5.088      7.379    10.6005 0.0000e+00
      5.213      0.095     8.8206     79.120     45.500  32.395795     3.7800     0.1096     0.1278     0.1692 1.1605e-01     5.1077      5.112      7.415    10.5997 0.0000e+00
      5.238      0.093     8.8146     79.105     45.498  32.393670     3.7800     0.1019     0.1278     0.1692 1.1615e-01     5.0776      5.137      7.450    10.5989 0.0000e+00
      5.262      0.089     8.8105     79.084     45.504  32.397870     3.7800     0.1134     0.1278     0.1692 1.1612e-01     5.0326      5.160      7.484    10.5982 0.0000e+00
      5.284      0.085     8.8077     79.057     45.510  32.401593     3.7800     0.1515     0.1278     0.1692 1.1610e-01     5.3031      5.182      7.516    10.5975 0.0000e+00
      5.306      0.081     8.8058     79.033     45.511  32.401873     3.7800     0.2011     0.1278     0.1692 1.1610e-01     5.4083      5.203      7.546    10.5969 0.0000e+00
      5.325      0.078     8.8042     79.019     45.512  32.402744     3.7800     0.1897     0.1278     0.1692 1.1635e-01     5.1378      5.222      7.574    10.5964 0.0000e+00
      5.344      0.076     8.8020     79.013     45.514  32.404439     3.7800     0.1935     0.1278     0.1692 1.1617e-01     5.1829      5.240      7.600    10.5959 0.0000e+00
      5.361      0.076     8.7990     79.005     45.513  32.403448     3.7800     0.0829     0.1278     0.1692 1.1617e-01     5.1378      5.258      7.626    10.5956 0.0000e+00
      5.380      0.077     8.7964     78.993     45.513  32.403468     3.7800     0.1172     0.1278     0.1692 1.1623e-01     5.0476      5.276      7.652    10.5955 0.0000e+00
      5.399      0.079     8.7948     78.977     45.515  32.404505     3.7800     0.1172     0.1278     0.1269 1.1628e-01     5.0776      5.295      7.679    10.5956 0.0000e+00
      5.420      0.081     8.7941     78.957     45.514  32.402874     3.7800     0.1477     0.1278     0.1269 1.1612e-01     4.9724      5.315      7.709    10.5957 0.0000e+00
      5.442      0.083     8.7932     78.934     45.514  32.402102     3.7800     0.1821     0.1278     0.1269 1.1612e-01     5.2430      5.336      7.739    10.5957 0.0000e+00
      5.464      0.084     8.7919     78.910     45.514  32.401981     3.7800     0.1554     0.1278     0.1269 1.1617e-01     5.2279      5.358      7.771    10.5953 0.0000e+00
      5.485      0.085     8.7902     78.887     45.510  32.398520     3.7800     0.2011     0.1278     0.1269 1.1612e-01     5.3782      5.379      7.802    10.5947 0.0000e+00
      5.507      0.085     8.7882     78.861     45.511  32.398716     3.7800     0.2011     0.1278     0.1269 1.1623e-01     5.3332      5.400      7.832    10.5939 0.0000e+00
      5.528      0.085     8.7857     78.833     45.516  32.402621     3.7800     0.1859     0.1278     0.1269 1.1595e-01     5.0025      5.421      7.863    10.5933 0.0000e+00
      5.550      0.085     8.7832     78.800     45.512  32.399396     3.7800     0.2164     0.1278     0.1269 1.1612e-01     4.9875      5.443      7.894    10.5927 0.0000e+00
      5.572      0.085     8.7807     78.760     45.507  32.396102     3.7800     0.1973     0.0852     0.1269 1.1623e-01     5.1378      5.464      7.925    10.5923 0.0000e+00
      5.593      0.085     8.7779     78.711     45.518  32.403741     3.7800     0.1897     0.0852     0.1269 1.1610e-01     5.0326      5.485      7.956    10.5921 0.0000e+00
      5.615      0.085     8.7748     78.646     45.536  32.416430     3.7800     0.1744     0.0852     0.1269 1.1623e-01     5.0476      5.506      7.986    10.5920 0.0000e+00
      5.636      0.084     8.7712     78.554     45.549  32.425670     3.7800     0.1744     0.0852     0.1269 1.1623e-01     4.9875      5.527      8.017    10.5918 0.0000e+00
      5.658      0.083     8.7668     78.428     45.555  32.429966     3.7800     0.1935     0.0852     0.1269 1.1600e-01     5.0476      5.549      8.048    10.5916 0.0000e+00
      5.680      0.080     8.7614     78.266     45.561  32.434422     3.7800     0.2011     0.0852     0.0846 1.1597e-01     5.0776      5.570      8.079    10.5915 0.0000e+00
      5.701      0.077     8.7541     78.068     45.568  32.440229     3.7800     0.1592     0.0852     0.0846 1.1628e-01     5.2881      5.591      8.109    10.5915 0.0000e+00
      5.721      0.073     8.7438     77.838     45.569  32.441012     3.7800     0.1706     0.0852     0.0846 1.1623e-01     5.1979      5.610      8.137    10.5916 0.0000e+00
      5.739      0.068     8.7298     77.587     45.564  32.436981     3.7800     0.2240     0.0852     0.0846 1.1630e-01     5.3482      5.628      8.163    10.5919 0.0000e+00
      5.755      0.064     8.7116     77.341     45.561  32.434982     3.7800     0.1630     0.1278     0.1692 1.1628e-01     5.2129      5.644      8.186    10.5922 0.0000e+00
      5.770      0.061     8.6895     77.133     45.566  32.438442     3.7800     0.1134     0.1278     0.1692 1.1605e-01     5.0476      5.658      8.207    10.5925 0.0000e+00
      5.784      0.058     8.6638     76.987     45.574  32.444323     3.7800     0.1286     0.1278     0.1692 1.1630e-01     4.9724      5.672      8.228    10.5927 0.0000e+00
      5.799      0.056     8.6359     76.917     45.582  32.450234     3.7800     0.1210     0.1278     0.1692 1.1607e-01     5.0927      5.687      8.248    10.5929 0.0000e+00
      5.813      0.055     8.6085     76.918     45.586  32.453790     3.7800     0.0981     0.1278     0.2115 1.1615e-01     5.0175      5.701      8.268    10.5930 0.0000e+00
      5.827      0.054     8.5854     76.971     45.583  32.451979     3.7800     0.1210     0.1278     0.2115 1.1628e-01     5.2279      5.714      8.288    10.5930 0.0000e+00
      5.841      0.054     8.5691     77.054     45.576  32.448278     3.7800     0.1096     0.1278     0.2115 1.1600e-01     5.1829      5.728      8.307    10.5929 0.0000e+00
      5.854      0.056     8.5613     77.145     45.571  32.445660     3.7800     0.1096     0.1278     0.2115 1.1630e-01     5.3031      5.741      8.327    10.5930 0.0000e+00
      5.868      0.058     8.5613     77.227     45.567  32.443429     3.7800     0.1134     0.1278     0.1692 1.1612e-01     5.2881      5.754      8.346    10.5933 0.0000e+00
      5.882      0.063     8.5671     77.289     45.564  32.440988     3.7800     0.1019     0.1278     0.1692 1.1612e-01     5.1227      5.768      8.366    10.5940 0.0000e+00
      5.897      0.068     8.5761     77.335     45.559  32.437688     3.7800     0.1210     0.1278     0.1692 1.1623e-01     5.0626      5.783      8.388    10.5949 0.0000e+00
      5.915      0.075     8.5861     77.375     45.559  32.436608     3.7800     0.1515     0.1278     0.1692 1.1623e-01     4.9574      5.801      8.413    10.5959 0.0000e+00
      5.936      0.081     8.5950     77.420     45.561  32.437461     3.7800     0.1210     0.1278     0.1692 1.1633e-01     5.0626      5.821      8.443    10.5967 0.0000e+00
      5.958      0.088     8.6019     77.480     45.555  32.432553     3.7800     0.2011     0.0852     0.1692 1.1597e-01     5.2430      5.843      8.475    10.5971 0.0000e+00
      5.982      0.093     8.6071     77.551     45.545  32.424536     3.7800     0.2011     0.0852     0.1692 1.1623e-01     5.3332      5.866      8.508    10.5969 0.0000e+00
      6.007      0.098     8.6117     77.621     45.538  32.419192     3.7800     0.1897     0.0852     0.1692 1.1602e-01     5.3031      5.891      8.543    10.5962 0.0000e+00
      6.032      0.101     8.6169     77.676     45.533  32.415096     3.7800     0.1782     0.0852     0.1692 1.1612e-01     5.2730      5.916      8.580    10.5953 0.0000e+00
      6.059      0.103     8.6237     77.701     45.527  32.411157     3.7800     0.1248     0.1278     0.1269 1.1623e-01     5.0476      5.942      8.617    10.5945 0.0000e+00
      6.086      0.104     8.6317     77.688     45.521  32.406324     3.7800     0.1134     0.1278     0.1269 1.1612e-01     5.0776      5.968      8.656    10.5937 0.0000e+00
      6.114      0.105     8.6396     77.639     45.516  32.403268     3.7800     0.1248     0.1278     0.1269 1.1617e-01     5.0776      5.996      8.696    10.5932 0.0000e+00
      6.141      0.105     8.6458     77.570     45.519  32.405135     3.7800     0.0943     0.1278     0.1269 1.1617e-01     5.1077      6.022      8.734    10.5929 0.0000e+00
      6.167      0.105     8.6485     77.496     45.529  32.412423     3.7800     0.1286     0.0852     0.0846 1.1617e-01     5.3332      6.048      8.771    10.5928 0.0000e+00
      6.193      0.105     8.6471     77.429     45.544  32.423114     3.7800     0.1325     0.0852     0.0846 1.1600e-01     5.3181      6.073      8.808    10.5927 0.0000e+00
      6.219      0.106     8.6417     77.372     45.556  32.432139     3.7800     0.1134     0.0852     0.0846 1.1623e-01     5.3181      6.099      8.846    10.5926 0.0000e+00
      6.246      0.106     8.6340     77.327     45.564  32.437943     3.7800     0.1363     0.0852     0.0846 1.1612e-01     5.3482      6.126      8.885    10.5927 0.0000e+00
      6.274      0.107     8.6258     77.288     45.570  32.442075     3.7800     0.1286     0.1278     0.0846 1.1605e-01     5.3332      6.153      8.924    10.5928 0.0000e+00
      6.302      0.107     8.6182     77.252     45.575  32.445636     3.7800     0.1210     0.1278     0.0846 1.1630e-01     5.3632      6.180      8.963    10.5930 0.0000e+00
      6.329      0.106     8.6118     77.221     45.580  32.449576     3.7800     0.1172     0.1278     0.0846 1.1595e-01     5.2430      6.207      9.002    10.5933 0.0000e+00
      6.357      0.105     8.6068     77.196     45.583  32.450986     3.7800     0.1172     0.1278     0.0846 1.1617e-01     5.2430      6.233      9.041    10.5935 0.0000e+00
      6.383      0.102     8.6024     77.194     45.576  32.446279     3.7800     0.1363     0.1278     0.0846 1.1605e-01     5.2279      6.260      9.079    10.5936 0.0000e+00
      6.409      0.100     8.5985     77.233     45.565  32.438163     3.7800     0.0981     0.1278     0.1692 1.1600e-01     5.1528      6.285      9.116    10.5936 0.0000e+00
      6.434      0.098     8.5950     77.314     45.557  32.432393     3.7800     0.1286     0.1278     0.1692 1.1607e-01     5.3031      6.310      9.152    10.5935 0.0000e+00
      6.459      0.096     8.5923     77.426     45.556  32.431392     3.7800     0.1248     0.1278     0.1692 1.1617e-01     5.2580      6.334      9.186    10.5932 0.0000e+00
      6.482      0.094     8.5922     77.549     45.555  32.430931     3.7800     0.1286     0.1278     0.1692 1.1630e-01     5.5286      6.357      9.220    10.5929 0.0000e+00
      6.506      0.092     8.5965     77.659     45.549  32.426928     3.7800     0.1325     0.0852     0.1269 1.1612e-01     5.6638      6.380      9.253    10.5926 0.0000e+00
      6.529      0.090     8.6056     77.732     45.543  32.422275     3.7800     0.1325     0.0852     0.1269 1.1623e-01     5.5887      6.403      9.286    10.5925 0.0000e+00
      6.552      0.086     8.6181     77.751     45.539  32.419693     3.7800     0.1058     0.0852     0.1269 1.1617e-01     5.5286      6.426      9.320    10.5925 0.0000e+00
      6.575      0.082     8.6317     77.715     45.538  32.418492     3.7800     0.1668     0.0852     0.1269 1.1615e-01     7.9033      6.448      9.352    10.5927 0.0000e+00
      6.596      0.076     8.6439     77.644     45.538  32.418353     3.8700     0.1859     0.1278     0.1692 1.1597e-01     7.9634      6.469      9.382    10.5928 0.0000e+00
      6.615      0.069     8.6521     77.565     45.540  32.419237     3.8700     0.1744     0.1278     0.1692 1.1600e-01     7.8131      6.487      9.409    10.5928 0.0000e+00
      6.631      0.061     8.6542     77.501     45.543  32.421382     3.8700     0.1935     0.1278     0.1692 1.1617e-01     7.9183      6.503      9.432    10.5927 0.0000e+00
      6.646      0.053     8.6503     77.460     45.544  32.421399     3.8700     0.5063     0.1278     0.1692 1.1610e-01    27.1569      6.518      9.453    10.5924 0.0000e+00
      6.658      0.046     8.6424     77.444     45.535  32.415330     3.8700     0.4872     0.1278     0.1692 1.1605e-01    27.1569      6.530      9.471    10.5920 0.0000e+00
      6.669      0.038     8.6337     77.448     45.522  32.405520     3.7800     0.5139     0.1278     0.0846 1.1617e-01    27.1870      6.540      9.486    10.5916 0.0000e+00
      6.678      0.031     8.6266     77.458     45.510  32.397271     3.7800     0.4949     0.1278     0.0846 1.1623e-01    27.1719      6.549      9.498    10.5913 0.0000e+00
      6.685      0.025     8.6222     77.452     45.508  32.396307     3.7800     0.8420     0.1278     0.0846 1.1605e-01    51.2653      6.555      9.508    10.5911 0.0000e+00
      6.690      0.018     8.6204     77.420     45.522  32.406331     3.7800     0.8420     0.1278     0.0846 1.1605e-01    51.2502      6.560      9.515    10.5909 0.0000e+00
      6.693      0.012     8.6208     77.377     45.543  32.422094     3.8700     0.8229     0.2130     0.2115 1.1612e-01    51.1901      6.564      9.520    10.5910 0.0000e+00
      6.695      0.006     8.6219     77.343     45.561  32.435918     3.8700     0.8420     0.2130     0.2115 1.1602e-01    51.0849      6.566      9.523    10.5912 0.0000e+00
      6.696      0.001     8.6211     77.333     45.575  32.447529     3.8700     0.9145     0.2130     0.2115 1.1623e-01    57.6681      6.567      9.524    10.5916 0.0000e+00
      6.696     -0.005     8.6174     77.358     45.584  32.456064     3.8700     0.8802     0.2130     0.2115 1.1612e-01    57.7282      6.567      9.524    10.5921 0.0000e+00
      6.694     -0.011     8.6125     77.418     45.581  32.455876     3.9600     0.8840     0.2982     0.3807 1.1617e-01    57.8334      6.565      9.521    10.5929 0.0000e+00
      6.691     -0.018     8.6085     77.508     45.565  32.446915     3.9600     0.8878     0.2982     0.3807 1.1595e-01    57.6681      6.562      9.516    10.5940 0.0000e+00
      6.686     -0.026     8.6071     77.618     45.550  32.438675     3.9600     0.9221     0.2982     0.3807 1.1597e-01    56.7963      6.557      9.509    10.5956 0.0000e+00
      6.679     -0.036     8.6094     77.736     45.548  32.440839     3.9600     0.9221     0.2982     0.3807 1.1615e-01    56.6911      6.550      9.499    10.5977 0.0000e+00
      6.669     -0.048     8.6156     77.846     45.561  32.453984     3.8700     0.8840     0.2982     0.5499 1.1617e-01    56.6911      6.540      9.486    10.6000 0.0000e+00
      6.657     -0.063     8.6251     77.933     45.576  32.469734     3.8700     0.9259     0.2982     0.5499 1.1610e-01    56.6911      6.528      9.468    10.6026 0.0000e+00
      6.640     -0.080     8.6368     77.986     45.587  32.484369     3.8700     0.4224     0.2982     0.5499 1.1628e-01    26.4204      6.512      9.444    10.6055 0.0000e+00
      6.619     -0.097     8.6493     77.998     45.605  32.505752     3.8700     0.4300     0.2982     0.5499 1.1625e-01    26.4204      6.491      9.414    10.6088 0.0000e+00
      6.591     -0.114     8.6606     77.969     45.626  32.531664     3.8700     0.4415     0.2982     0.5499 1.1610e-01    26.4054      6.464      9.375    10.6131 0.0000e+00
      6.558     -0.128     8.6692     77.906     45.628  32.545251     3.8700     0.3995     0.2556     0.1269 1.1630e-01    26.4806      6.431      9.328    10.6188 0.0000e+00
      6.520     -0.139     8.6736     77.825     45.610  32.542218     3.8700     0.1248     0.2556     0.1269 1.1610e-01     5.9494      6.394      9.273    10.6263 0.0000e+00
      6.480     -0.145     8.6729     77.738     45.588  32.533637     3.8700     0.1134     0.2556     0.1269 1.1612e-01     5.9945      6.354      9.216    10.6362 0.0000e+00
      6.440     -0.148     8.6672     77.650     45.572  32.525140     3.8700     0.0981     0.2556     0.1269 1.1612e-01     6.0245      6.315      9.160    10.6481 0.0000e+00
      6.402     -0.148     8.6576     77.560     45.561  32.518424     3.7800     0.1210     0.0852     0.1269 1.1623e-01     5.9945      6.279      9.106    10.6608 0.0000e+00
      6.367     -0.149     8.6464     77.468     45.557  32.515658     3.7800     0.1286     0.0852     0.1269 1.1610e-01     7.2270      6.244      9.055    10.6718 0.0000e+00
      6.331     -0.149     8.6354     77.376     45.556  32.516103     3.7800     0.0981     0.0852     0.1269 1.1610e-01     7.1518      6.208      9.004    10.6792 0.0000e+00
      6.293     -0.151     8.6249     77.297     45.560  32.519878     3.7800     0.1477     0.0852     0.1269 1.1605e-01     7.1518      6.171      8.951    10.6827 0.0000e+00
      6.253     -0.155     8.6147     77.244     45.558  32.520070     3.7800     0.1439     0.0852     0.1692 1.1612e-01     7.1518      6.132      8.895    10.6838 0.0000e+00
      6.213     -0.159     8.6043     77.220     45.547  32.512769     3.7800     0.1210     0.0852     0.1692 1.1602e-01     5.4684      6.093      8.837    10.6843 0.0000e+00
      6.172     -0.164     8.5940     77.223     45.534  32.503948     3.7800     0.1325     0.0852     0.1692 1.1605e-01     5.5135      6.052      8.778    10.6850 0.0000e+00
      6.130     -0.169     8.5850     77.260     45.523  32.495218     3.7800     0.1210     0.0852     0.1692 1.1617e-01     5.5736      6.012      8.719    10.6861 0.0000e+00
      6.087     -0.174     8.5788     77.331     45.517  32.488210     3.7800     0.1286     0.1278     0.0846 1.1623e-01     5.5135      5.969      8.658    10.6876 0.0000e+00
      6.042     -0.177     8.5759     77.426     45.522  32.488976     3.7800     0.1134     0.1278     0.0846 1.1623e-01     5.3632      5.925      8.594    10.6889 0.0000e+00
      5.995     -0.178     8.5762     77.524     45.533  32.493760     3.7800     0.1325     0.1278     0.0846 1.1605e-01     5.3332      5.879      8.527    10.6891 0.0000e+00
      5.947     -0.177     8.5805     77.606     45.541  32.495917     3.7800     0.1172     0.1278     0.0846 1.1605e-01     5.2580      5.832      8.459    10.6878 0.0000e+00
      5.900     -0.173     8.5890     77.662     45.551  32.499982     3.7800     0.1096     0.1278     0.0846 1.1615e-01     5.2730      5.786      8.392    10.6852 0.0000e+00
      5.856     -0.168     8.6001     77.694     45.559  32.503079     3.7800     0.1286     0.1278     0.2115 1.1615e-01     5.1829      5.743      8.329    10.6819 0.0000e+00
      5.814     -0.162     8.6117     77.714     45.557  32.498112     3.7800     0.1401     0.1278     0.2115 1.1617e-01     5.2279      5.702      8.270    10.6784 0.0000e+00
      5.775     -0.157     8.6216     77.723     45.553  32.491677     3.7800     0.1248     0.1278     0.2115 1.1607e-01     5.3782      5.664      8.214    10.6749 0.0000e+00
      5.738     -0.156     8.6284     77.719     45.555  32.489981     3.7800     0.1363     0.1278     0.2115 1.1600e-01     5.2730      5.627      8.161    10.6716 0.0000e+00
      5.701     -0.159     8.6327     77.704     45.556  32.488610     3.7800     0.1058     0.1278     0.1692 1.1617e-01     5.6338      5.591      8.109    10.6682 0.0000e+00
      5.663     -0.164     8.6355     77.685     45.550  32.483237     3.7800     0.1134     0.1278     0.1692 1.1623e-01     5.7991      5.553      8.054    10.6647 0.0000e+00
      5.621     -0.171     8.6372     77.669     45.541  32.476392     3.7800     0.1477     0.1278     0.1692 1.1605e-01     5.7841      5.512      7.994    10.6612 0.0000e+00
      5.574     -0.178     8.6375     77.657     45.538  32.474168     3.7800     0.1286     0.1278     0.1692 1.1605e-01     5.9043      5.467      7.928    10.6580 0.0000e+00
      5.525     -0.183     8.6363     77.639     45.539  32.475974     3.7800     0.1210     0.1278     0.1692 1.1610e-01     5.5586      5.418      7.859    10.6555 0.0000e+00
      5.475     -0.185     8.6345     77.612     45.536  32.474369     3.7800     0.1210     0.1278     0.1692 1.1607e-01     5.4684      5.369      7.788    10.6539 0.0000e+00
      5.427     -0.183     8.6328     77.582     45.523  32.464966     3.7800     0.1019     0.1278     0.1692 1.1617e-01     5.4985      5.322      7.718    10.6533 0.0000e+00
      5.380     -0.179     8.6314     77.554     45.502  32.449218     3.7800     0.1363     0.1278     0.1692 1.1602e-01     5.4384      5.276      7.652    10.6536 0.0000e+00
      5.335     -0.173     8.6293     77.530     45.483  32.434807     3.7800     0.1134     0.1278     0.1269 1.1612e-01     5.3482      5.232      7.589    10.6543 0.0000e+00
      5.292     -0.166     8.6262     77.518     45.479  32.429772     3.7800     0.1210     0.1278     0.1269 1.1620e-01     5.3181      5.190      7.527    10.6550 0.0000e+00
      5.250     -0.160     8.6229     77.525     45.486  32.432770     3.7800     0.1286     0.1278     0.1269 1.1625e-01     5.2730      5.149      7.468    10.6550 0.0000e+00
      5.211     -0.156     8.6199     77.548     45.501  32.440639     3.7800     0.1363     0.1278     0.1269 1.1623e-01     5.2279      5.110      7.411    10.6544 0.0000e+00
      5.173     -0.155     8.6175     77.576     45.520  32.451518     3.7800     0.1210     0.1278     0.1269 1.1625e-01     5.3031      5.073      7.358    10.6532 0.0000e+00
      5.137     -0.157     8.6165     77.593     45.535  32.460386     3.7800     0.1210     0.1278     0.0846 1.1617e-01     5.2730      5.038      7.307    10.6512 0.0000e+00
      5.099     -0.162     8.6178     77.593     45.543  32.465648     3.7800     0.1515     0.1278     0.0846 1.1605e-01     5.3482      5.001      7.253    10.6484 0.0000e+00
      5.058     -0.168     8.6210     77.586     45.547  32.468707     3.7800     0.1363     0.1278     0.0846 1.1623e-01     5.3782      4.960      7.194    10.6455 0.0000e+00
      5.012     -0.174     8.6247     77.573     45.548  32.470378     3.7800     0.1172     0.1278     0.0846 1.1602e-01     5.3782      4.915      7.129    10.6430 0.0000e+00
      4.964     -0.179     8.6269     77.550     45.547  32.471108     3.8700     0.1325     0.1278     0.2115 1.1607e-01     5.2881      4.868      7.061    10.6412 0.0000e+00
      4.916     -0.182     8.6270     77.523     45.546  32.471091     3.8700     0.1134     0.1278     0.2115 1.1607e-01     5.4083      4.821      6.992    10.6405 0.0000e+00
      4.869     -0.182     8.6261     77.510     45.543  32.470322     3.8700     0.1554     0.1278     0.2115 1.1620e-01     5.2730      4.775      6.926    10.6409 0.0000e+00
      4.824     -0.181     8.6245     77.519     45.540  32.468598     3.8700     0.1019     0.1278     0.2115 1.1605e-01     5.2881      4.730      6.861    10.6420 0.0000e+00
      4.778     -0.177     8.6216     77.547     45.535  32.465457     3.8700     0.1248     0.1278     0.2115 1.1623e-01     5.2279      4.686      6.796    10.6433 0.0000e+00
      4.732     -0.172     8.6185     77.584     45.527  32.460063     3.8700     0.1096     0.1278     0.2115 1.1600e-01     5.3031      4.641      6.731    10.6443 0.0000e+00
      4.687     -0.166     8.6168     77.621     45.516  32.450976     3.8700     0.1325     0.1278     0.2115 1.1620e-01     5.3031      4.597      6.667    10.6452 0.0000e+00
      4.645     -0.161     8.6176     77.652     45.509  32.443696     3.8700     0.1897     0.1278     0.2115 1.1617e-01     5.3482      4.555      6.606    10.6460 0.0000e+00
      4.606     -0.158     8.6207     77.676     45.513  32.444202     3.8700     0.1973     0.1278     0.1692 1.1620e-01     5.3482      4.517      6.551    10.6466 0.0000e+00
      4.569     -0.157     8.6248     77.695     45.522  32.448667     3.8700     0.1935     0.1278     0.1692 1.1617e-01     5.2730      4.481      6.499    10.6467 0.0000e+00
      4.532     -0.158     8.6291     77.721     45.532  32.454322     3.8700     0.1859     0.1278     0.1692 1.1625e-01     5.3031      4.445      6.446    10.6455 0.0000e+00
      4.493     -0.160     8.6330     77.765     45.538  32.458714     3.8700     0.1210     0.1278     0.1692 1.1602e-01     5.6187      4.406      6.390    10.6431 0.0000e+00
      4.450     -0.162     8.6362     77.826     45.543  32.463015     3.8700     0.1172     0.1278     0.1692 1.1615e-01     5.4985      4.364      6.329    10.6402 0.0000e+00
      4.405     -0.164     8.6389     77.891     45.555  32.472332     3.8700     0.1134     0.1704     0.1692 1.1610e-01     5.4384      4.320      6.265    10.6379 0.0000e+00
      4.361     -0.163     8.6420     77.947     45.568  32.481228     3.8700     0.1363     0.1704     0.1692 1.1605e-01     5.5135      4.276      6.203    10.6366 0.0000e+00
      4.319     -0.161     8.6470     77.985     45.573  32.484155     3.8700     0.2088     0.1704     0.1692 1.1605e-01     5.8141      4.235      6.143    10.6365 0.0000e+00
      4.279     -0.158     8.6536     78.000     45.571  32.481894     3.8700     0.2088     0.1704     0.1692 1.1617e-01     5.7690      4.197      6.087    10.6372 0.0000e+00
      4.242     -0.154     8.6607     77.990     45.566  32.477803     3.8700     0.1935     0.1278     0.2115 1.1635e-01     5.8592      4.159      6.033    10.6379 0.0000e+00
      4.203     -0.150     8.6669     77.952     45.562  32.474749     3.8700     0.1935     0.1278     0.2115 1.1620e-01     5.6638      4.122      5.978    10.6379 0.0000e+00
      4.164     -0.145     8.6712     77.892     45.554  32.467960     3.8700     0.1439     0.1278     0.2115 1.1612e-01     6.9264      4.083      5.922    10.6373 0.0000e+00
      4.125     -0.142     8.6731     77.813     45.544  32.459584     3.8700     0.1210     0.1278     0.2115 1.1628e-01     7.0917      4.045      5.867    10.6364 0.0000e+00
      4.089     -0.140     8.6720     77.718     45.545  32.459271     3.7800     0.1210     0.1704     0.1269 1.1617e-01     6.9564      4.010      5.816    10.6357 0.0000e+00
      4.057     -0.139     8.6680     77.615     45.558  32.466936     3.7800     0.1019     0.1704     0.1269 1.1623e-01     6.9564      3.978      5.770    10.6351 0.0000e+00
      4.025     -0.141     8.6615     77.518     45.567  32.472741     3.7800     0.2049     0.1704     0.1269 1.1600e-01     8.1889      3.947      5.725    10.6343 0.0000e+00
      3.991     -0.144     8.6530     77.438     45.563  32.470315     3.7800     0.1592     0.1704     0.1269 1.1600e-01     8.1137      3.914      5.676    10.6330 0.0000e+00
      3.953     -0.147     8.6427     77.381     45.557  32.466930     3.7800     0.1859     0.1704     0.1269 1.1612e-01     8.2189      3.876      5.622    10.6313 0.0000e+00
      3.911     -0.150     8.6315     77.343     45.555  32.465645     3.7800     0.2164     0.1278     0.2115 1.2886e-01     8.1588      3.836      5.563    10.6300 0.0000e+00
      3.869     -0.151     8.6208     77.322     45.545  32.458196     3.7800     0.2088     0.1278     0.2115 1.3853e-01     8.1438      3.795      5.504    10.6294 0.0000e+00
      3.830     -0.151     8.6118     77.320     45.530  32.446557     3.7800     0.1897     0.1278     0.2115 1.2800e-01     8.0837      3.756      5.448    10.6298 0.0000e+00
      3.794     -0.150     8.6054     77.330     45.522  32.439507     3.7800     0.2011     0.1278     0.2115 1.2607e-01     8.0236      3.720      5.396    10.6306 0.0000e+00
      3.759     -0.150     8.6010     77.340     45.518  32.435165     3.7800     0.1859     0.1278     0.2538 1.1628e-01     8.0837      3.686      5.346    10.6311 0.0000e+00
      3.722     -0.151     8.5988     77.343     45.515  32.432373     3.7800     0.1706     0.1278     0.2538 1.2018e-01     8.3091      3.651      5.295    10.6308 0.0000e+00
      3.683     -0.154     8.5988     77.340     45.512  32.430388     3.7800     0.1973     0.1278     0.2538 1.5514e-01     8.4594      3.612      5.239    10.6296 0.0000e+00
      3.642     -0.156     8.6003     77.342     45.503  32.424718     3.7800     0.1782     0.1278     0.2538 1.6725e-01     8.2640      3.571      5.180    10.6280 0.0000e+00
      3.599     -0.157     8.6017     77.352     45.504  32.425734     3.7800     0.2011     0.1704     0.2115 1.7033e-01     8.3692      3.530      5.119    10.6266 0.0000e+00
      3.558     -0.159     8.6021     77.360     45.526  32.441628     3.7800     0.1935     0.1704     0.2115 1.7037e-01     8.3392      3.489      5.061    10.6259 0.0000e+00
      3.519     -0.160     8.6018     77.351     45.553  32.460796     3.7800     0.1859     0.1704     0.2115 1.4127e-01     8.3091      3.451      5.005    10.6260 0.0000e+00
      3.481     -0.163     8.6018     77.317     45.564  32.468546     3.7800     0.1897     0.1704     0.2115 1.5521e-01     8.4444      3.414      4.951    10.6267 0.0000e+00
      3.441     -0.166     8.6028     77.265     45.554  32.462986     3.7800     0.1821     0.1704     0.1692 1.7899e-01     8.4143      3.375      4.894    10.6272 0.0000e+00
      3.398     -0.170     8.6038     77.210     45.539  32.454513     3.7800     0.1859     0.1704     0.1692 1.9583e-01     8.3542      3.333      4.833    10.6271 0.0000e+00
      3.352     -0.173     8.6028     77.159     45.527  32.448791     3.7800     0.1935     0.1704     0.1692 2.7642e-01     8.4594      3.287      4.767    10.6269 0.0000e+00
      3.304     -0.175     8.5989     77.114     45.523  32.448253     3.7800     0.2011     0.1704     0.1692 2.4769e-01     8.4444      3.241      4.700    10.6272 0.0000e+00
      3.258     -0.176     8.5929     77.065     45.533  32.456716     3.7800     0.1973     0.1704     0.1692 2.4796e-01     8.3843      3.195      4.634    10.6286 0.0000e+00
      3.213     -0.175     8.5863     76.997     45.549  32.468517     3.7800     0.1859     0.1704     0.1269 2.6848e-01     8.8652      3.152      4.571    10.6312 0.0000e+00
      3.171     -0.175     8.5801     76.893     45.556  32.474921     3.7800     0.1782     0.1704     0.1269 2.5390e-01     8.7901      3.110      4.510    10.6342 0.0000e+00
      3.129     -0.175     8.5746     76.746     45.557  32.477635     3.7800     0.1897     0.1704     0.1269 2.8298e-01     8.8352      3.068      4.450    10.6366 0.0000e+00
      3.084     -0.175     8.5688     76.568     45.559  32.481344     3.7800     0.2011     0.1704     0.1269 2.9255e-01     8.8352      3.025      4.387    10.6380 0.0000e+00
      3.038     -0.177     8.5611     76.378     45.559  32.483077     3.7800     0.1897     0.1704     0.1692 3.2190e-01     9.3161      2.980      4.321    10.6391 0.0000e+00
      2.991     -0.179     8.5492     76.191     45.557  32.483296     3.7800     0.1744     0.1704     0.1692 3.3394e-01     9.4063      2.934      4.255    10.6406 0.0000e+00
      2.945     -0.181     8.5324     76.017     45.559  32.486020     3.7800     0.2088     0.1704     0.1692 3.2513e-01     9.3161      2.889      4.189    10.6426 0.0000e+00
      2.900     -0.183     8.5122     75.864     45.559  32.488015     3.7800     0.1592     0.1704     0.1692 3.1883e-01     9.2861      2.844      4.125    10.6447 0.0000e+00
      2.855     -0.186     8.4907     75.738     45.552  32.485852     3.7800     0.1782     0.1704     0.2538 3.4239e-01     8.8953      2.800      4.060    10.6466 0.0000e+00
      2.807     -0.189     8.4696     75.631     45.542  32.482916     3.7800     0.2011     0.1704     0.2538 3.4261e-01     8.7600      2.753      3.993    10.6484 0.0000e+00
      2.758     -0.192     8.4499     75.529     45.531  32.482384     3.7800     0.1859     0.1704     0.2538 3.5892e-01     8.8953      2.705      3.923    10.6501 0.0000e+00
      2.707     -0.194     8.4325     75.430     45.518  32.484113     3.7800     0.1821     0.1704     0.2538 3.8235e-01     8.8352      2.655      3.851    10.6523 0.0000e+00
      2.656     -0.196     8.4178     75.323     45.506  32.492527     3.7800     0.1782     0.1278     0.2538 4.0090e-01     9.6167      2.605      3.778    10.6555 0.0000e+00
      2.606     -0.196     8.4050     75.205     45.496  32.513828     3.7800     0.2011     0.1278     0.2538 3.8485e-01     9.5566      2.556      3.707    10.6605 0.0000e+00
      2.557     -0.196     8.3922     75.089     45.475  32.541817     3.7800     0.2240     0.1278     0.2538 4.0589e-01     9.6017      2.507      3.637    10.6682 0.0000e+00
      2.507     -0.193     8.3788     74.986     45.426  32.564156     3.7800     0.1706     0.1278     0.2538 4.5951e-01     9.6318      2.459      3.566    10.6802 0.0000e+00
      2.457     -0.190     8.3632     74.897     45.351  32.578882     3.7800     0.1782     0.1278     0.2538 4.6554e-01     8.9404      2.410      3.495    10.6996 0.0000e+00
      2.407     -0.186     8.3442     74.808     45.249  32.585965     3.7800     0.1935     0.1704     0.2538 4.7453e-01     9.0907      2.360      3.423    10.7308 0.0000e+00
      2.359     -0.183     8.3222     74.670     45.122  32.583335     3.7800     0.1821     0.1704     0.2538 5.0441e-01     9.1208      2.313      3.355    10.7781 0.0000e+00
      2.314     -0.182     8.2986     74.403     44.990  32.574255     3.7800     0.1935     0.1704     0.2538 5.0474e-01     8.9554      2.270      3.292    10.8417 0.0000e+00
      2.272     -0.183     8.2742     73.912     44.875  32.564229     3.7800     0.1744     0.1704     0.2538 4.7433e-01     8.5496      2.228      3.231    10.9178 0.0000e+00
      2.228     -0.187     8.2476     73.080     44.786  32.558507     3.8700     0.1973     0.1704     0.2538 4.9004e-01     8.6698      2.185      3.169    11.0064 0.0000e+00
      2.181     -0.192     8.2139     71.788     44.721  32.559526     3.8700     0.1744     0.1704     0.2538 5.0661e-01     8.7149      2.139      3.102    11.1054 0.0000e+00
      2.129     -0.198     8.1667     69.962     44.656  32.559637     3.8700     0.1668     0.1704     0.2538 6.1832e-01     8.6398      2.088      3.028    11.2009 0.0000e+00
      2.075     -0.203     8.0979     67.610     44.559  32.550947     3.8700     0.2927     0.1704     0.2538 6.3286e-01     5.5887      2.035      2.951    11.2824 0.0000e+00
      2.020     -0.208     7.9952     64.834     44.421  32.539061     3.7800     0.3118     0.1704     0.1269 6.6270e-01     5.4985      1.981      2.874    11.3483 0.0000e+00
      1.967     -0.210     7.8450     61.838     44.235  32.528733     3.7800     0.3423     0.1704     0.1269 6.6443e-01     5.4985      1.930      2.799    11.4021 0.0000e+00
      1.915     -0.210     7.6372     58.875     44.001  32.517213     3.7800     0.3003     0.1704     0.1269 6.8317e-01     5.4684      1.878      2.724    11.4560 0.0000e+00
      1.862     -0.207     7.3700     56.186     43.757  32.509358     3.7800     0.3156     0.1704     0.1269 7.8783e-01     3.0636      1.826      2.648    11.5262 0.0000e+00
      1.807     -0.202     7.0529     53.932     43.557  32.511004     3.8700     0.3079     0.1278     0.2115 8.9853e-01     3.1688      1.772      2.570    11.6272 0.0000e+00
      1.753     -0.194     6.7064     52.138     43.437  32.522597     3.8700     0.2927     0.1278     0.2115 1.0001e+00     3.1688      1.719      2.493    11.7709 0.0000e+00
      1.702     -0.186     6.3593     50.690     43.393  32.535353     3.8700     0.3118     0.1278     0.2115 1.0391e+00     3.2289      1.670      2.421    11.9541 0.0000e+00
      1.657     -0.179     6.0417     49.386     43.387  32.540789     3.8700     0.3575     0.1278     0.2115 1.0384e+00     2.4624      1.626      2.357    12.1510 0.0000e+00
      1.616     -0.174     5.7757     48.006     43.371  32.544311     3.8700     0.3652     0.1278     0.2115 1.0416e+00     2.5376      1.585      2.299    12.3228 0.0000e+00
      1.576     -0.173     5.5677     46.409     43.302  32.546855     3.9600     0.3804     0.1278     0.2115 1.0619e+00     2.5225      1.546      2.242    12.4381 0.0000e+00
      1.535     -0.175     5.4057     44.601     43.170  32.553060     3.9600     0.3728     0.1278     0.2115 1.1173e+00     2.5526      1.506      2.184    12.4892 0.0000e+00
      1.491     -0.179     5.2648     42.744     42.995  32.568546     3.9600     0.3995     0.1278     0.2115 1.1792e+00     2.5977      1.462      2.120    12.5005 0.0000e+00
      1.442     -0.184     5.1159     41.075     42.794  32.589528     3.9600     0.3804     0.1278     0.2115 1.3411e+00     2.4774      1.415      2.052    12.5186 0.0000e+00
      1.392     -0.188     4.9393     39.804     42.594  32.617649     4.0500     0.3804     0.0852     0.2961 1.5173e+00     2.5526      1.365      1.980    12.5825 0.0000e+00
      1.342     -0.191     4.7347     39.049     42.409  32.656455     4.0500     0.3728     0.0852     0.2961 1.7271e+00     2.5225      1.316      1.908    12.7052 0.0000e+00
      1.293     -0.192     4.5206     38.784     42.228  32.700456     4.0500     0.3728     0.0852     0.2961 1.7140e+00     2.2971      1.268      1.839    12.8784 0.0000e+00
      1.245     -0.192     4.3243     38.828     42.043  32.741591     4.0500     0.5139     0.0852     0.2961 1.7792e+00     2.0566      1.221      1.771    13.0811 0.0000e+00
      1.198     -0.192     4.1702     38.903     41.866  32.780935     4.0500     0.5063     0.0852     0.3384 1.9379e+00     2.0716      1.175      1.704    13.2928 0.0000e+00
      1.149     -0.192     4.0710     38.745     41.721  32.825027     4.0500     0.4720     0.0852     0.3384 2.2188e+00     2.1768      1.127      1.634    13.5059 0.0000e+00
      1.099     -0.192     4.0232     38.196     41.612  32.879688     4.0500     0.5139     0.0852     0.3384 2.6759e+00     2.0416      1.078      1.563    13.7224 0.0000e+00
      1.049     -0.192     4.0079     37.234     41.521  32.943656     4.0500     0.5712     0.0852     0.3384 3.2666e+00     2.2971      1.028      1.491    13.9415 0.0000e+00
      0.999     -0.192     3.9972     35.933     41.436  33.014189     4.1400     0.5445     0.0852     0.4653 3.5897e+00     2.2370      0.980      1.422    14.1516 0.0000e+00
      0.952     -0.191     3.9650     34.430     41.347  33.086338     4.1400     0.5521     0.0852     0.4653 3.4905e+00     2.2670      0.933      1.354    14.3396 0.0000e+00
      0.905     -0.190     3.8951     32.893     41.236  33.145681     4.1400     0.5368     0.0852     0.4653 3.9956e+00     2.2219      0.887      1.287    14.5083 0.0000e+00
      0.856     -0.189     3.7843     31.479     41.115  33.194189     4.1400     0.6703     0.0852     0.4653 5.3835e+00     2.5526      0.839      1.217    14.6711 0.0000e+00
      0.806     -0.187     3.6395     30.310     41.022  33.254704     4.1400     0.6856     0.0852     0.4653 7.4031e+00     2.4624      0.791      1.147    14.8370 0.0000e+00
      0.757     -0.185     3.4747     29.469     40.954  33.335444     4.5000     0.6894     0.0852     1.0152 9.6546e+00     2.5225      0.743      1.077    15.0101 0.0000e+00
      0.710     -0.184     3.3068     28.980     40.875  33.422299     4.5000     0.6627     0.0852     1.0152 1.0141e+01     2.5376      0.697      1.011    15.1906 0.0000e+00
      0.666     -0.183     3.1522     28.842     40.766  33.504768     4.5000     0.9641     0.0852     1.0152 9.2701e+00     2.7179      0.653      0.947    15.3675 0.0000e+00
      0.622     -0.182     3.0239     29.045     40.629  33.585047     4.5000     0.9641     0.0852     1.0152 9.6483e+00     2.7480      0.610      0.885    15.5327 0.0000e+00
      0.575     -0.180     2.9287     29.574     40.471  33.664747     4.6800     0.9641     0.0852     1.4382 1.4149e+01     2.6728      0.564      0.819    15.6987 0.0000e+00
      0.526     -0.176     2.8680     30.411     40.302  33.745325     4.6800     0.9641     0.0852     1.4382 2.3753e+01     2.7179      0.516      0.749    15.8843 0.0000e+00
      0.478     -0.170     2.8405     31.553     40.126  33.822534     4.6800     1.6660     0.0852     1.4382 3.6540e+01     4.8071      0.469      0.680    16.0961 0.0000e+00
      0.433     -0.163     2.8452     33.024     39.926  33.869444     4.6800     1.6278     0.0852     1.4382 3.8798e+01     4.7770      0.425      0.616    16.3339 0.0000e+00
      0.394     -0.155     2.8801     34.880     39.729  33.880752     4.8600     1.6317     0.1278     2.8341 3.4834e+01     4.8221      0.386      0.561    16.5948 0.0000e+00
      0.359     -0.145     2.9437     37.194     39.598  33.895129     4.8600     1.6355     0.1278     2.8341 3.1892e+01     4.7770      0.352      0.511    16.8694 0.0000e+00
      0.325     -0.136     3.0358     40.023     39.545  33.936217     4.8600     1.7575     0.1278     2.8341 3.5306e+01     5.5286      0.319      0.463    17.1490 0.0000e+00
      0.291     -0.125     3.1594     43.379     39.543  34.007050     4.8600     1.7728     0.1278     2.8341 5.2834e+01     5.5286      0.285      0.414    17.4182 0.0000e+00
      0.256     -0.113     3.3216     47.150     39.567  34.106713     4.8600     1.7881     0.1278     2.8341 8.1417e+01     5.4684      0.252      0.365    17.6420 0.0000e+00
      0.226     -0.100     3.5307     51.078     39.612  34.234059     5.5800     1.7652     0.2130    10.4058 9.9456e+01     5.5586      0.221      0.321    17.7988 0.0000e+00
      0.202     -0.084     3.7910     54.863     39.708  34.415131     5.5800     2.0284     0.2130    10.4058 8.6018e+01     6.2801      0.198      0.287    17.9054 0.0000e+00
      0.184     -0.068     4.1012     58.290     39.898  34.698216     5.5800     2.0093     0.2130    10.4058 7.4234e+01     6.1899      0.181      0.262    17.9954 0.0000e+00
      0.172     -0.052     4.4486     61.286     40.226  35.140981     5.5800     2.0017     0.2130    10.4058 7.4267e+01     6.1899      0.168      0.244    18.0932 0.0000e+00
      0.162     -0.039     4.8084     63.938     40.696  35.762479     6.4800     2.0322     0.3408    16.2855 7.6345e+01     6.2801      0.158      0.230    18.2030 0.0000e+00
      0.154     -0.028     5.1521     66.490     41.209  36.470986     6.4800     1.5248     0.3408    16.2855 8.0362e+01     5.0476      0.151      0.219    18.3232 0.0000e+00
      0.148     -0.021     5.4578     69.355     41.588  37.081121     6.4800     1.5172     0.3408    16.2855 8.3169e+01     5.1077      0.145      0.210    18.4672 0.0000e+00
      0.144     -0.016     5.7156     73.122     41.720  37.448598     6.4800     1.5363     0.3408    16.2855 7.4509e+01     5.0476      0.141      0.205    18.6589 0.0000e+00
      0.143     -0.014     5.9316     78.474     41.616  37.550602     6.7500     1.5477     0.3834    19.5003 6.3016e+01     5.0476      0.140      0.203    18.9149 0.0000e+00
      0.141     -0.014     6.1291     86.001     41.369  37.457918     6.7500     2.1352     0.3834    19.5003 5.4977e+01     6.4604      0.138      0.201    19.2280 0.0000e+00
      0.139     -0.016     6.3504     95.946     41.131  37.314199     6.7500     2.1238     0.3834    19.5003 5.9141e+01     6.4454      0.136      0.197    19.5620 0.0000e+00
      0.134     -0.021     6.6552    107.979     40.980  37.209867     6.7500     2.1505     0.3834    19.5003 6.7612e+01     6.4754      0.132      0.191    19.8675 0.0000e+00
      0.128     -0.028     7.1100    121.181     40.846  37.099272     6.9300     2.1581     0.4260    19.0773 6.6954e+01     6.5205      0.126      0.183    20.1068 0.0000e+00
      0.122     -0.037     7.7700    134.251     40.635  36.899444     6.9300     2.4824     0.4260    19.0773 5.5868e+01     7.1668      0.119      0.173    20.2663 0.0000e+00
      0.113     -0.047     8.6565    145.810     40.390  36.642264     6.9300     2.4976     0.4260    19.0773 4.9586e+01     7.2119      0.111      0.161    20.3542 0.0000e+00
      0.101     -0.058     9.7377    154.688     40.301  36.506724     6.9300     2.5281     0.4260    19.0773 5.2513e+01     7.2570      0.099      0.144    20.3940 0.0000e+00
      0.084     -0.066    10.9284    160.077     40.525  36.662652     6.9300     2.5129     0.4260    19.0773 6.9837e+01     7.2270      0.082      0.119    20.4071 0.0000e+00
      0.062     -0.072    12.1128    161.615     41.129  37.213018     6.6600     2.7799     0.3834    16.8777 1.0970e+02    10.0677      0.061      0.089    20.3957 0.0000e+00
      0.040     -0.074    13.1700    159.457     42.020  38.112461     6.6600     2.7685     0.3834    16.8777 1.2928e+02    10.1278      0.039      0.057    20.3518 0.0000e+00
      0.019     -0.074    13.9936    154.328     42.839  39.040295     6.6600     2.7494     0.3834    16.8777 1.4356e+02    10.0075      0.019      0.027    20.2817 0.0000e+00
      0.001     -0.072    14.5010    147.449     43.275  39.667543     6.6600     2.7875     0.3834    16.8777 1.2590e+02    10.0226      0.001      0.002    20.2204 0.0000e+00
     -0.014     -0.070    14.6432    140.258     43.319  39.921795     7.0200     3.3292     0.4260    19.6272 1.2133e+02    10.6839     -0.014     -0.020    20.2209 0.0000e+00
     -0.029     -0.070    14.4207    134.121     43.163  39.940202     7.0200     3.3063     0.4260    19.6272 1.0982e+02    10.6689     -0.028     -0.041    20.3293 0.0000e+00
     -0.044     -0.075    13.9007    130.155     42.998  39.898043     7.0200     3.3102     0.4260    19.6272 1.0392e+02    10.7139     -0.043     -0.062    20.5470 0.0000e+00
     -0.061     -0.084    13.2123    129.039     42.815  39.797948     7.0200     3.3140     0.4260    19.6272 1.0643e+02    10.7741     -0.060     -0.087    20.8170 0.0000e+00
     -0.081     -0.099    12.5050    130.814     42.489  39.530026     7.1100     3.9320     0.4260    19.3734 1.0669e+02    14.5316     -0.079     -0.114    21.0682 0.0000e+00
     -0.104     -0.119    11.9100    134.885     42.006  39.076319     7.1100     3.9358     0.4260    19.3734 1.0390e+02    14.5767     -0.102     -0.148    21.2600 0.0000e+00
     -0.132     -0.143    11.5251    140.244     41.512  38.575334     7.1100     3.9281     0.4260    19.3734 1.2722e+02    14.5166     -0.130     -0.188    21.3891 0.0000e+00
     -0.168     -0.170    11.4051    145.716     41.178  38.204459     7.1100     3.9320     0.4260    19.3734 1.3178e+02    14.4565     -0.164     -0.239    21.4707 0.0000e+00
     -0.211     -0.196    11.5509    150.201     41.031  38.009386     6.9300     3.2682     0.4260    19.9233 2.1459e+02    11.6458     -0.207     -0.301    21.5112 0.0000e+00
     -0.263     -0.220    11.9106    152.874     40.991  37.926207     6.9300     3.2949     0.4260    19.9233 2.8341e+02    11.7059     -0.258     -0.375    21.5055 0.0000e+00
     -0.322     -0.237    12.3951    153.312     41.016  37.910953     6.9300     3.2529     0.4260    19.9233 3.8989e+02    11.6759     -0.316     -0.458    21.4559 0.0000e+00
     -0.383     -0.245    12.8963    151.580     41.133  37.973422     6.9300     3.2567     0.4260    19.9233 3.9493e+02    11.6759     -0.376     -0.545    21.3824 0.0000e+00
     -0.444     -0.244    13.3103    148.201     41.329  38.098580     6.9300     2.0742     0.4260    19.9233 3.7234e+02    10.6989     -0.435     -0.631    21.3113 0.0000e+00
     -0.499     -0.237    13.5600    143.999     41.529  38.226702     6.6600     2.0780     0.5112    17.5545 3.0145e+02    10.6689     -0.489     -0.710    21.2565 0.0000e+00
     -0.544     -0.226    13.6097    139.900     41.674  38.314701     6.6600     2.0742     0.5112    17.5545 2.4016e+02    10.6989     -0.534     -0.774    21.2101 0.0000e+00
     -0.579     -0.217    13.4690    136.809     41.752  38.356329     6.6600     2.1047     0.5112    17.5545 1.7898e+02    10.7290     -0.568     -0.824    21.1554 0.0000e+00
     -0.604     -0.213    13.1850    135.626     41.774  38.366647     6.6600    -0.1155     0.5112    17.5545 1.5690e+02    -0.6488     -0.593     -0.860    21.0884 0.0000e+00
     -0.623 -9.990e-29    12.8277 -9.990e-29 -9.990e-29 -9.990e-29     0.9000 -9.990e-29     0.1704     3.2148 1.5213e+02 -9.990e-29     -0.611     -0.887    21.0211 0.0000e+00
     -0.636 -9.990e-29    12.4759 -9.990e-29 -9.990e-29 -9.990e-29     0.9000 -9.990e-29     0.1704     3.2148 1.3526e+02 -9.990e-29     -0.624     -0.904    20.9659 0.0000e+00
     -0.643 -9.990e-29    12.2090 -9.990e-29 -9.990e-29 -9.990e-29     0.9000 -9.990e-29     0.1704     3.2148 1.2530e+02 -9.990e-29     -0.631     -0.915    20.9300 0.0000e+00
     -0.645 -9.990e-29    12.1064 -9.990e-29 -9.990e-29 -9.990e-29     0.9000 -9.990e-29     0.1704     3.2148 1.2047e+02 -9.990e-29     -0.633     -0.918    20.9175 0.0000e+00
