* Sea-Bird SBE19plus  Data File:
* FileName = C:\R\Reservoirs\Data\DataNotYetUploadedToEDI\Raw_CTD\RawDownloads\062623_fcr50_S8188_0019.hex
* Software version 2.8.0.119
* Temperature SN = 8188
* Conductivity SN = 8188
* System UpLoad Time = Jul 03 2023 16:35:11
* <ApplicationData>
* <Seaterm232>
* <SoftwareVersion>2.8.0.119</SoftwareVersion>
* <BuildDate>07-Nov-2018</BuildDate>
* </Seaterm232>
* </ApplicationData>
* <InstrumentState>
* <HardwareData DeviceType='SBE19plus' SerialNumber='01908188'>
*
*    <Manufacturer>Sea-Bird Electronics, Inc.</Manufacturer>
*
*    <FirmwareVersion>3.1.8</FirmwareVersion>
*
*    <FirmwareDate>Mar  9 2016 16:22:29</FirmwareDate>
*
*    <CommandSetVersion>1.4</CommandSetVersion>
*
*    <PCBAssembly PCBSerialNum='260079' AssemblyNum='41054K'/>
*
*    <PCBAssembly PCBSerialNum='260083' AssemblyNum='41059E'/>
*
*    <PCBAssembly PCBSerialNum='260085' AssemblyNum='41606B'/>
*
*    <PCBAssembly PCBSerialNum='260081' AssemblyNum='41967C'/>
*
*    <MfgDate>30 Mar 2022</MfgDate>
*
*    <InternalSensors>
*
*       <Sensor id='Main Temperature'>
*
*          <type>temperature0</type>
*
*          <SerialNumber>01908188</SerialNumber>
*
*       </Sensor>
*
*       <Sensor id='Main Conductivity'>
*
*          <type>conductivity-0</type>
*
*          <SerialNumber>01908188</SerialNumber>
*
*       </Sensor>
*
*       <Sensor id='Main Pressure'>
*
*          <type>strain-0</type>
*
*          <SerialNumber>12220741</SerialNumber>
*
*       </Sensor>
*
*    </InternalSensors>
*
*    <ExternalSensors>
*
*       <Sensor id='volt 0'>
*
*          <type>CHL</type>
*
*          <SerialNumber>FLNTURT-7096</SerialNumber>
*
*       </Sensor>
*
*       <Sensor id='volt 1'>
*
*          <type>NTU</type>
*
*          <SerialNumber>FLNTURT-7096</SerialNumber>
*
*       </Sensor>
*
*       <Sensor id='volt 2'>
*
*          <type>OXY</type>
*
*          <SerialNumber>43-4269</SerialNumber>
*
*       </Sensor>
*
*       <Sensor id='volt 3'>
*
*          <type>not assigned</type>
*
*          <SerialNumber>not assigned</SerialNumber>
*
*       </Sensor>
*
*       <Sensor id='volt 4'>
*
*          <type>PAR</type>
*
*          <SerialNumber>PARLOGICSW-2209</SerialNumber>
*
*       </Sensor>
*
*       <Sensor id='volt 5'>
*
*          <type>not assigned</type>
*
*          <SerialNumber>not assigned</SerialNumber>
*
*       </Sensor>
*
*       <Sensor id='serial'>
*
*          <type>WETLABS</type>
*
*          <SerialNumber>FL3-7350</SerialNumber>
*
*       </Sensor>
*
*    </ExternalSensors>
*
* </HardwareData>
* <StatusData DeviceType='SBE19plus' SerialNumber='01908188'>
*
*    <DateTime>2023-07-03T16:29:20</DateTime>
*
*    <LoggingState>not logging</LoggingState>
*
*    <EventSummary numEvents='0'/>
*
*    <Power>
*
*       <vMain>12.2</vMain>
*
*       <vLith>8.8</vLith>
*
*       <iMain>61.8</iMain>
*
*       <iPump>48.2</iPump>
*
*       <iExt01>22.4</iExt01>
*
*       <iExt2345>20.3</iExt2345>
*
*       <iSerial>45.4</iSerial>
*
*    </Power>
*
*    <MemorySummary>
*
*       <Bytes>665325</Bytes>
*
*       <Samples>26613</Samples>
*
*       <SamplesFree>2605312</SamplesFree>
*
*       <SampleLength>25</SampleLength>
*
*       <Profiles>25</Profiles>
*
*    </MemorySummary>
*
* </StatusData>
* <ConfigurationData DeviceType='SBE19plus' SerialNumber='01908188'>
*
*    <ProfileMode>
*
*       <ScansToAverage>1</ScansToAverage>
*
*       <MinimumCondFreq>5</MinimumCondFreq>
*
*       <PumpDelay>40</PumpDelay>
*
*       <AutoRun>no</AutoRun>
*
*       <IgnoreSwitch>no</IgnoreSwitch>
*
*    </ProfileMode>
*
*    <Battery>
*
*       <Type>alkaline</Type>
*
*       <CutOff>7.5</CutOff>
*
*    </Battery>
*
*    <DataChannels>
*
*       <ExtVolt0>yes</ExtVolt0>
*
*       <ExtVolt1>yes</ExtVolt1>
*
*       <ExtVolt2>yes</ExtVolt2>
*
*       <ExtVolt3>no</ExtVolt3>
*
*       <ExtVolt4>yes</ExtVolt4>
*
*       <ExtVolt5>no</ExtVolt5>
*
*       <SBE38>no</SBE38>
*
*       <WETLABS>yes</WETLABS>
*
*       <OPTODE>no</OPTODE>
*
*       <SBE63>no</SBE63>
*
*       <SeaFET>no</SeaFET>
*
*       <GTD>no</GTD>
*
*    </DataChannels>
*
*    <EchoCharacters>yes</EchoCharacters>
*
*    <OutputExecutedTag>yes</OutputExecutedTag>
*
*    <OutputFormat>raw HEX</OutputFormat>
*
* </ConfigurationData>
* <CalibrationCoefficients DeviceType='SBE19plus' SerialNumber='01908188'>
*
*    <Calibration format='TEMP1' id='Main Temperature'>
*
*       <SerialNum>01908188</SerialNum>
*
*       <CalDate>21-Aug-22</CalDate>
*
*       <TA0>1.265284e-03</TA0>
*
*       <TA1>2.691806e-04</TA1>
*
*       <TA2>-5.655711e-07</TA2>
*
*       <TA3>1.602369e-07</TA3>
*
*       <TOFFSET>0.000000e+00</TOFFSET>
*
*    </Calibration>
*
*    <Calibration format='WBCOND0' id='Main Conductivity'>
*
*       <SerialNum>01908188</SerialNum>
*
*       <CalDate>21-Aug-22</CalDate>
*
*       <G>-1.009562e+00</G>
*
*       <H>1.439229e-01</H>
*
*       <I>-4.343583e-04</I>
*
*       <J>5.328694e-05</J>
*
*       <CPCOR>-9.570000e-08</CPCOR>
*
*       <CTCOR>3.250000e-06</CTCOR>
*
*       <CSLOPE>1.000000e+00</CSLOPE>
*
*    </Calibration>
*
*    <Calibration format='STRAIN0' id='Main Pressure'>
*
*       <SerialNum>12220741</SerialNum>
*
*       <CalDate>11-Aug-22</CalDate>
*
*       <PA0>1.627942e-01</PA0>
*
*       <PA1>4.835849e-04</PA1>
*
*       <PA2>-3.975488e-12</PA2>
*
*       <PTCA0>5.244803e+05</PTCA0>
*
*       <PTCA1>2.817194e+01</PTCA1>
*
*       <PTCA2>-5.842684e-01</PTCA2>
*
*       <PTCB0>2.522087e+01</PTCB0>
*
*       <PTCB1>5.750000e-04</PTCB1>
*
*       <PTCB2>0.000000e+00</PTCB2>
*
*       <PTEMPA0>-5.709556e+01</PTEMPA0>
*
*       <PTEMPA1>5.248567e+01</PTEMPA1>
*
*       <PTEMPA2>-2.281498e-01</PTEMPA2>
*
*       <POFFSET>-4.700000e-02</POFFSET>
*
*       <PRANGE>1.600000e+02</PRANGE>
*
*    </Calibration>
*
*    <Calibration format='VOLT0' id='Volt 0'>
*
*       <OFFSET>-4.657200e-02</OFFSET>
*
*       <SLOPE>1.248989e+00</SLOPE>
*
*    </Calibration>
*
*    <Calibration format='VOLT0' id='Volt 1'>
*
*       <OFFSET>-4.600800e-02</OFFSET>
*
*       <SLOPE>1.249849e+00</SLOPE>
*
*    </Calibration>
*
*    <Calibration format='VOLT0' id='Volt 2'>
*
*       <OFFSET>-4.668000e-02</OFFSET>
*
*       <SLOPE>1.250379e+00</SLOPE>
*
*    </Calibration>
*
*    <Calibration format='VOLT0' id='Volt 3'>
*
*       <OFFSET>-4.643200e-02</OFFSET>
*
*       <SLOPE>1.251002e+00</SLOPE>
*
*    </Calibration>
*
*    <Calibration format='VOLT0' id='Volt 4'>
*
*       <OFFSET>-4.606100e-02</OFFSET>
*
*       <SLOPE>1.249962e+00</SLOPE>
*
*    </Calibration>
*
*    <Calibration format='VOLT0' id='Volt 5'>
*
*       <OFFSET>-4.642700e-02</OFFSET>
*
*       <SLOPE>1.248530e+00</SLOPE>
*
*    </Calibration>
*
*    <Calibration format='FREQ0' id='external frequency channel'>
*
*       <EXTFREQSF>1.000018e+00</EXTFREQSF>
*
*    </Calibration>
*
* </CalibrationCoefficients>
* <EventCounters DeviceType='SBE19plus' SerialNumber='01908188'>
*
*    <EventSummary numEvents='0'/>
*
* </EventCounters></InstrumentState>
* <Headers>
*
* cast  19 27 Jun 2023 15:59:08 samples 17905 to 18646, avg = 1, stop = mag switch
*
# nquan = 16
# nvalues = 742                         
# units = specified
# name 0 = depFM: Depth [fresh water, m]
# name 1 = dz/dtM: Descent Rate [m/s]
# name 2 = sbeox0Mg/L: Oxygen, SBE 43 [mg/l]
# name 3 = sbeox0PS: Oxygen, SBE 43 [% saturation]
# name 4 = specc: Specific Conductance [uS/cm]
# name 5 = c0uS/cm: Conductivity [uS/cm]
# name 6 = wetCDOM: Fluorescence, WET Labs CDOM [mg/m^3]
# name 7 = flECO-AFL: Fluorescence, WET Labs ECO-AFL/FL [mg/m^3]
# name 8 = flECO-AFL1: Fluorescence, WET Labs ECO-AFL/FL, 2 [mg/m^3]
# name 9 = flECO-AFL2: Fluorescence, WET Labs ECO-AFL/FL, 3 [mg/m^3]
# name 10 = par/sat/log: PAR/Logarithmic, Satlantic
# name 11 = turbWETntu0: Turbidity, WET Labs ECO [NTU]
# name 12 = prdM: Pressure, Strain Gauge [db]
# name 13 = prdE: Pressure, Strain Gauge [psi]
# name 14 = tv290C: Temperature [ITS-90, deg C]
# name 15 = flag:  0.000e+00
# span 0 =     -0.723,      9.088       
# span 1 =     -0.282,      0.425       
# span 2 =    -0.0387,    17.8639       
# span 3 =     -0.366,    210.446       
# span 4 =      1.660,     55.235       
# span 5 =   1.453874,  48.107112       
# span 6 =    -4.5000,    13.4100       
# span 7 =    -0.1651,     3.9434       
# span 8 =    -2.1300,     1.7892       
# span 9 =    -2.0304,    20.8116       
# span 10 = 1.1587e-01, 4.9722e+02      
# span 11 =    -0.4835,   172.0174      
# span 12 =     -0.709,      8.912      
# span 13 =     -1.028,     12.927      
# span 14 =    10.6065,    24.4167      
# span 15 = 0.0000e+00, 0.0000e+00      
# interval = seconds: 0.25
# start_time = Jun 27 2023 15:59:08 [Instrument's time stamp, header]
# bad_flag = -9.990e-29
# <Sensors count="10" >
#   <sensor Channel="1" >
#     <!-- Count, Temperature -->
#     <TemperatureSensor SensorID="58" >
#       <SerialNumber>8188</SerialNumber>
#       <CalibrationDate>21-Aug-22</CalibrationDate>
#       <A0>1.26528397e-003</A0>
#       <A1>2.69180636e-004</A1>
#       <A2>-5.65571102e-007</A2>
#       <A3>1.60236871e-007</A3>
#       <Slope>1.00000000</Slope>
#       <Offset>0.0000</Offset>
#     </TemperatureSensor>
#   </sensor>
#   <sensor Channel="2" >
#     <!-- Frequency 0, Conductivity -->
#     <ConductivitySensor SensorID="3" >
#       <SerialNumber>8188</SerialNumber>
#       <CalibrationDate>21-Aug-22</CalibrationDate>
#       <UseG_J>1</UseG_J>
#       <!-- Cell const and series R are applicable only for wide range sensors. -->
#       <SeriesR>0.0000</SeriesR>
#       <CellConst>2000.0000</CellConst>
#       <ConductivityType>0</ConductivityType>
#       <Coefficients equation="0" >
#         <A>0.00000000e+000</A>
#         <B>0.00000000e+000</B>
#         <C>0.00000000e+000</C>
#         <D>0.00000000e+000</D>
#         <M>0.0</M>
#         <CPcor>-9.57000000e-008</CPcor>
#       </Coefficients>
#       <Coefficients equation="1" >
#         <G>-1.00956200e+000</G>
#         <H>1.43922862e-001</H>
#         <I>-4.34358337e-004</I>
#         <J>5.32869425e-005</J>
#         <CPcor>-9.57000000e-008</CPcor>
#         <CTcor>3.2500e-006</CTcor>
#         <!-- WBOTC not applicable unless ConductivityType = 1. -->
#         <WBOTC>0.00000000e+000</WBOTC>
#       </Coefficients>
#       <Slope>1.00000000</Slope>
#       <Offset>0.00000</Offset>
#     </ConductivitySensor>
#   </sensor>
#   <sensor Channel="3" >
#     <!-- Count, Pressure, Strain Gauge -->
#     <PressureSensor SensorID="46" >
#       <SerialNumber>8188</SerialNumber>
#       <CalibrationDate>11-Aug-22</CalibrationDate>
#       <PA0>1.62794185e-001</PA0>
#       <PA1>4.83584930e-004</PA1>
#       <PA2>-3.97548787e-012</PA2>
#       <PTEMPA0>-5.70955636e+001</PTEMPA0>
#       <PTEMPA1>5.24856726e+001</PTEMPA1>
#       <PTEMPA2>-2.28149804e-001</PTEMPA2>
#       <PTCA0>5.24480263e+005</PTCA0>
#       <PTCA1>2.81719406e+001</PTCA1>
#       <PTCA2>-5.84268386e-001</PTCA2>
#       <PTCB0>2.52208750e+001</PTCB0>
#       <PTCB1>5.75000000e-004</PTCB1>
#       <PTCB2>0.00000000e+000</PTCB2>
#       <Offset>0.000000</Offset>
#     </PressureSensor>
#   </sensor>
#   <sensor Channel="4" >
#     <!-- A/D voltage 0, Fluorometer, WET Labs ECO-AFL/FL -->
#     <FluoroWetlabECO_AFL_FL_Sensor SensorID="20" >
#       <SerialNumber>FLNTURT-7096</SerialNumber>
#       <CalibrationDate>01-Sep-2022</CalibrationDate>
#       <ScaleFactor>5.00000000e+001</ScaleFactor>
#       <!-- Dark output -->
#       <Vblank>0.0680</Vblank>
#     </FluoroWetlabECO_AFL_FL_Sensor>
#   </sensor>
#   <sensor Channel="5" >
#     <!-- A/D voltage 1, Turbidity Meter, WET Labs, ECO-NTU -->
#     <TurbidityMeter SensorID="67" >
#       <SerialNumber>FLNTURT-7096</SerialNumber>
#       <CalibrationDate>01-Sep-2022</CalibrationDate>
#       <ScaleFactor>197.000000</ScaleFactor>
#       <!-- Dark output -->
#       <DarkVoltage>0.067000</DarkVoltage>
#     </TurbidityMeter>
#   </sensor>
#   <sensor Channel="6" >
#     <!-- A/D voltage 2, Oxygen, SBE 43 -->
#     <OxygenSensor SensorID="38" >
#       <SerialNumber>4269</SerialNumber>
#       <CalibrationDate>16-Aug-22</CalibrationDate>
#       <Use2007Equation>1</Use2007Equation>
#       <CalibrationCoefficients equation="0" >
#         <!-- Coefficients for Owens-Millard equation. -->
#         <Boc>0.0000</Boc>
#         <Soc>0.0000e+000</Soc>
#         <offset>0.0000</offset>
#         <Pcor>0.00e+000</Pcor>
#         <Tcor>0.0000</Tcor>
#         <Tau>0.0</Tau>
#       </CalibrationCoefficients>
#       <CalibrationCoefficients equation="1" >
#         <!-- Coefficients for Sea-Bird equation - SBE calibration in 2007 and later. -->
#         <Soc>4.2506e-001</Soc>
#         <offset>-0.4922</offset>
#         <A>-4.5893e-003</A>
#         <B> 1.8653e-004</B>
#         <C>-2.0781e-006</C>
#         <D0> 2.5826e+000</D0>
#         <D1> 1.92634e-004</D1>
#         <D2>-4.64803e-002</D2>
#         <E> 3.6000e-002</E>
#         <Tau20> 2.3100</Tau20>
#         <H1>-3.3000e-002</H1>
#         <H2> 5.0000e+003</H2>
#         <H3> 1.4500e+003</H3>
#       </CalibrationCoefficients>
#     </OxygenSensor>
#   </sensor>
#   <sensor Channel="7" >
#     <!-- A/D voltage 3, PAR/Logarithmic, Satlantic -->
#     <PARLog_SatlanticSensor SensorID="76" >
#       <SerialNumber>2209</SerialNumber>
#       <CalibrationDate>14-Jan-2022</CalibrationDate>
#       <a0>9.8861e-001</a0>
#       <a1>8.0845e-001</a1>
#       <Im>1.3589e+000</Im>
#       <Multiplier>1.0000e+000</Multiplier>
#     </PARLog_SatlanticSensor>
#   </sensor>
#   <sensor Channel="8" >
#     <!-- Serial RS-232, Fluorometer, WET Labs ECO-AFL/FL, 2 -->
#     <FluoroWetlabECO_AFL_FL_Sensor SensorID="20" >
#       <SerialNumber>FL3-7350</SerialNumber>
#       <CalibrationDate>10-Mar-2022</CalibrationDate>
#       <ScaleFactor>4.26000000e-002</ScaleFactor>
#       <!-- Dark output -->
#       <Vblank>50.0000</Vblank>
#     </FluoroWetlabECO_AFL_FL_Sensor>
#   </sensor>
#   <sensor Channel="9" >
#     <!-- Serial RS-232, Fluorometer, WET Labs ECO-AFL/FL, 3 -->
#     <FluoroWetlabECO_AFL_FL_Sensor SensorID="20" >
#       <SerialNumber>FL3-7350</SerialNumber>
#       <CalibrationDate>10-Mar-2022</CalibrationDate>
#       <ScaleFactor>4.23000000e-002</ScaleFactor>
#       <!-- Dark output -->
#       <Vblank>48.0000</Vblank>
#     </FluoroWetlabECO_AFL_FL_Sensor>
#   </sensor>
#   <sensor Channel="10" >
#     <!-- Serial RS-232, Fluorometer, WET Labs ECO CDOM -->
#     <FluoroWetlabCDOM_Sensor SensorID="19" >
#       <SerialNumber>FL3-7350</SerialNumber>
#       <CalibrationDate>10-Mar-2022</CalibrationDate>
#       <ScaleFactor>0.090</ScaleFactor>
#       <!-- Dark output -->
#       <Vblank>50.000</Vblank>
#     </FluoroWetlabCDOM_Sensor>
#   </sensor>
# </Sensors>
# datcnv_date = Jul 03 2023 16:59:44, 7.26.7.129 [datcnv_vars = 15]
# datcnv_in = C:\R\Reservoirs\Data\DataNotYetUploadedToEDI\Raw_CTD\RawDownloads\062723_fcrXX_S8188019.hex C:\R\Reservoirs\Data\DataNotYetUploadedToEDI\Raw_CTD\RawDownloads\SBE19plusV2_8188_start20221003.xmlcon
# datcnv_skipover = 0
# datcnv_ox_hysteresis_correction = yes
# datcnv_ox_tau_correction = yes
# filter_date = Jul 03 2023 17:00:15, 7.26.7.129
# filter_in = C:\R\Reservoirs\Data\DataNotYetUploadedToEDI\Raw_CTD\RawDownloads\062723_fcrXX_S8188019.cnv
# filter_low_pass_tc_A = 0.500
# filter_low_pass_tc_B = 1.000
# filter_low_pass_A_vars = sbeox0Mg/L sbeox0PS specc c0uS/cm tv290C
# filter_low_pass_B_vars = depFM dz/dtM prdM prdE
# alignctd_date = Jul 03 2023 17:00:42, 7.26.7.129
# alignctd_in = C:\R\Reservoirs\Data\DataNotYetUploadedToEDI\Raw_CTD\RawDownloads\062723_fcrXX_S8188019.cnv
# alignctd_adv = dz/dtM 1.000, sbeox0PS 1.000, specc 1.000, c0uS/cm 1.000, flECO-AFL 1.000, turbWETntu0 1.000                                                                                                                        
# file_type = ascii
*END*
     -0.721 8.0857e-07     8.5984     92.228      1.660   1.453874    -4.5000    -0.1308    -2.1300    -2.0304 3.0793e+02    -0.3783     -0.708     -1.026    18.7635 0.0000e+00
     -0.722      0.000     8.5976     92.229      1.693   1.482376    -4.5000    -0.1117    -2.1300    -2.0304 2.9748e+02    -0.3182     -0.708     -1.026    18.7636 0.0000e+00
     -0.722      0.000     8.5968     92.234      1.755   1.537468    -4.5000    -0.1079    -2.1300    -2.0304 2.9229e+02    -0.4084     -0.708     -1.026    18.7641 0.0000e+00
     -0.722      0.000     8.5958     92.243      1.867   1.635818     0.0000    -0.1231     0.0000    -0.0846 3.1973e+02    -0.4384     -0.708     -1.026    18.7658 0.0000e+00
     -0.722      0.000     8.5949     92.252      2.051   1.797723     0.0000    -0.1117     0.0000    -0.0846 3.5923e+02    -0.4084     -0.708     -1.026    18.7692 0.0000e+00
     -0.722      0.000     8.5941     92.261      2.355   2.064378     0.0000    -0.1117     0.0000    -0.0846 3.8795e+02    -0.2581     -0.708     -1.027    18.7746 0.0000e+00
     -0.722      0.000     8.5933     92.267      2.858   2.504914     0.0000    -0.1002     0.0000    -0.0846 3.9032e+02    -0.4384     -0.708     -1.027    18.7818 0.0000e+00
     -0.722      0.000     8.5926     92.269      3.686   3.230878     0.0000    -0.1269     0.0000    -0.0846 3.8770e+02    -0.4534     -0.708     -1.027    18.7904 0.0000e+00
     -0.722      0.000     8.5918     92.268      4.807   4.214396     0.0000    -0.1155     0.0000    -0.0423 3.8585e+02    -0.4084     -0.708     -1.027    18.7996 0.0000e+00
     -0.722      0.000     8.5911     92.262      5.868   5.144290     0.0000    -0.1117     0.0000    -0.0423 3.7177e+02    -0.3783     -0.708     -1.027    18.8084 0.0000e+00
     -0.722      0.000     8.5904     92.254      6.539   5.732627     0.0000    -0.1041     0.0000    -0.0423 3.2442e+02    -0.4084     -0.708     -1.027    18.8157 0.0000e+00
     -0.722      0.000     8.5896     92.248      6.807   5.968197     0.0000    -0.0964     0.0000    -0.0423 2.7629e+02    -0.3633     -0.708     -1.027    18.8214 0.0000e+00
     -0.722      0.000     8.5888     92.246      6.947   6.091808     0.0000    -0.1384     0.0000     0.0423 2.6621e+02    -0.3182     -0.708     -1.027    18.8256 0.0000e+00
     -0.722      0.000     8.5877     92.245      7.006   6.144321     0.0000    -0.1079     0.0000     0.0423 2.6117e+02    -0.3182     -0.708     -1.027    18.8287 0.0000e+00
     -0.722      0.000     8.5864     92.245      6.719   5.894501     0.0000    -0.1269     0.0000     0.0423 2.4941e+02    -0.4234     -0.708     -1.027    18.8314 0.0000e+00
     -0.722      0.000     8.5853     92.250      6.160   5.406270     0.0000    -0.1117     0.0000     0.0423 2.9159e+02    -0.4835     -0.708     -1.027    18.8351 0.0000e+00
     -0.722      0.000     8.5840     92.257      5.589   4.907392     0.0000    -0.0964    -0.0426    -0.0846 3.0653e+02    -0.4234     -0.708     -1.027    18.8413 0.0000e+00
     -0.723      0.000     8.5821     92.261      5.108   4.486321     0.0000    -0.0850    -0.0426    -0.0846 2.9007e+02    -0.3633     -0.709     -1.028    18.8516 0.0000e+00
     -0.723      0.000     8.5795     92.264      4.688   4.119758     0.0000    -0.1346    -0.0426    -0.0846 2.9273e+02    -0.4234     -0.709     -1.028    18.8668 0.0000e+00
     -0.723      0.000     8.5766     92.268      4.277   3.759390     0.0000    -0.1384    -0.0426    -0.0846 2.8175e+02    -0.1829     -0.709     -1.028    18.8859 0.0000e+00
     -0.723      0.000     8.5738     92.271      3.889   3.419854     0.0000    -0.1041     0.0000     0.0846 2.8254e+02    -0.0927     -0.709     -1.028    18.9060 0.0000e+00
     -0.723      0.000     8.5709     92.274      3.585   3.152979     0.0000    -0.1193     0.0000     0.0846 2.9127e+02    -0.1979     -0.709     -1.028    18.9247 0.0000e+00
     -0.723      0.000     8.5683     92.275      3.401   2.992397     0.0000    -0.1079     0.0000     0.0846 3.0112e+02    -0.1979     -0.709     -1.028    18.9416 0.0000e+00
     -0.723      0.000     8.5660     92.278      3.272   2.879468     0.0000    -0.1041     0.0000     0.0846 3.0914e+02    -0.1378     -0.709     -1.028    18.9568 0.0000e+00
     -0.723      0.000     8.5639     92.283      3.096   2.724757     0.0000    -0.0697     0.0000     0.0846 3.3249e+02    -0.2430     -0.709     -1.028    18.9705 0.0000e+00
     -0.723      0.000     8.5621     92.285      2.879   2.534464     0.0000    -0.1231    -0.0426    -0.0423 3.3126e+02    -0.1829     -0.709     -1.027    18.9827 0.0000e+00
     -0.723      0.001     8.5604     92.286      2.697   2.374504     0.0000    -0.1002    -0.0426    -0.0423 3.3112e+02    -0.2581     -0.709     -1.027    18.9932 0.0000e+00
     -0.722      0.001     8.5591     92.290      2.600   2.289224     0.0000    -0.1002    -0.0426    -0.0423 3.5450e+02    -0.0627     -0.708     -1.027    19.0020 0.0000e+00
     -0.722      0.001     8.5583     92.293      2.622   2.309265     0.0000    -0.1269    -0.0426    -0.0423 3.6457e+02    -0.2130     -0.708     -1.027    19.0091 0.0000e+00
     -0.722      0.001     8.5576     92.295      2.761   2.432064     0.0000    -0.1155     0.0000    -0.1692 3.7969e+02    -0.1829     -0.708     -1.027    19.0146 0.0000e+00
     -0.722      0.002     8.5570     92.299      2.890   2.546026     0.0000    -0.1155     0.0000    -0.1692 3.9846e+02    -0.1528     -0.708     -1.026    19.0187 0.0000e+00
     -0.721      0.002     8.5568     92.304      2.868   2.527309     0.0000    -0.1079     0.0000    -0.1692 3.8972e+02    -0.0627     -0.707     -1.026    19.0219 0.0000e+00
     -0.721      0.003     8.5567     92.312      2.726   2.402561     0.0000    -0.1231     0.0000    -0.1692 3.8484e+02    -0.1679     -0.707     -1.025    19.0243 0.0000e+00
     -0.720      0.003     8.5566     92.321      2.559   2.257156     0.0000    -0.1269    -0.0426    -0.1269 3.9159e+02    -0.1829     -0.706     -1.024    19.0260 0.0000e+00
     -0.719      0.004     8.5567     92.326      2.416   2.133386     0.0000    -0.1231    -0.0426    -0.1269 3.9587e+02    -0.1528     -0.705     -1.023    19.0271 0.0000e+00
     -0.718      0.005     8.5571     92.325      2.321   2.053610     0.0000    -0.1269    -0.0426    -0.1269 4.0325e+02     0.1177     -0.704     -1.021    19.0277 0.0000e+00
     -0.717      0.007     8.5578     92.322      2.288   2.032144     0.0000    -0.1155    -0.0426    -0.1269 4.1399e+02     0.0576     -0.703     -1.019    19.0285 0.0000e+00
     -0.715      0.009     8.5583     92.323      2.353   2.100831     0.0000    -0.1193     0.0426    -0.1692 4.1408e+02     0.1027     -0.701     -1.017    19.0302 0.0000e+00
     -0.713      0.011     8.5583     92.325      2.578   2.317531     0.0000    -0.1117     0.0426    -0.1692 4.1743e+02     0.1929     -0.699     -1.014    19.0334 0.0000e+00
     -0.710      0.015     8.5573     92.329      3.047   2.761781     0.0000     0.0180     0.0426    -0.1692 4.2355e+02     1.3351     -0.696     -1.010    19.0388 0.0000e+00
     -0.706      0.019     8.5556     92.334      3.898   3.563909     0.0000     0.0218     0.0426    -0.1692 3.9424e+02     1.4404     -0.693     -1.004    19.0474 0.0000e+00
     -0.701      0.024     8.5534     92.342      5.374   4.951658     0.0000     0.0142     0.0426    -0.1692 3.9553e+02     1.2600     -0.688     -0.998    19.0608 0.0000e+00
     -0.695      0.031     8.5502     92.356      7.887   7.310912     0.0000    -0.0049     0.0000     0.0846 3.9855e+02     1.3051     -0.682     -0.989    19.0822 0.0000e+00
     -0.687      0.040     8.5448     92.380     12.067  11.235213     0.0000     1.8758     0.0000     0.0846 4.0997e+02    21.8663     -0.674     -0.978    19.1173 0.0000e+00
     -0.677      0.051     8.5356     92.415     18.505  17.308321     0.0000     1.8873     0.0000     0.0846 4.1870e+02    21.9114     -0.664     -0.963    19.1760 0.0000e+00
     -0.664      0.066     8.5202     92.465     26.831  25.262603     0.0000     1.8873     0.0000     0.0846 4.2244e+02    21.9264     -0.651     -0.944    19.2746 0.0000e+00
     -0.647      0.083     8.4945     92.539     34.923  33.163884     0.0000     1.9025     0.0000     0.0000 4.4535e+02    21.9565     -0.635     -0.920    19.4402 0.0000e+00
     -0.625      0.102     8.4514     92.640     40.662  38.969146     0.0000     2.1314     0.0000     0.0000 4.6111e+02    24.0757     -0.613     -0.889    19.7177 0.0000e+00
     -0.598      0.121     8.3800     92.779     44.046  42.568746     0.0000     2.1390     0.0000     0.0000 4.5951e+02    24.0607     -0.586     -0.850    20.1739 0.0000e+00
     -0.563      0.139     8.2783     92.978     46.006  44.770016     0.0000     2.1276     0.0000     0.0000 4.6534e+02    24.0607     -0.552     -0.800    20.8278 0.0000e+00
     -0.522      0.152     8.1640     93.254     47.079  46.054951     4.9500     2.1734     0.2982     9.3906 4.7103e+02    23.9555     -0.512     -0.742    21.5819 0.0000e+00
     -0.477      0.160     8.0592     93.615     47.578  46.718650     4.9500     2.4022     0.2982     9.3906 4.1961e+02    22.7831     -0.468     -0.679    22.3014 0.0000e+00
     -0.431      0.160     7.9766     94.045     47.728  46.983687     4.9500     2.3870     0.2982     9.3906 3.4778e+02    22.7982     -0.423     -0.614    22.9099 0.0000e+00
     -0.387      0.154     7.9201     94.517     47.713  47.041624     4.9500     2.3946     0.2982     9.3906 3.2015e+02    22.8583     -0.380     -0.551    23.3875 0.0000e+00
     -0.347      0.142     7.8895     94.992     47.660  47.030776     6.6600     2.3832     0.4686    16.5393 2.9703e+02    22.8583     -0.341     -0.494    23.7413 0.0000e+00
     -0.313      0.126     7.8823     95.438     47.616  47.007699     6.6600     2.6159     0.4686    16.5393 2.8995e+02    22.4074     -0.307     -0.445    23.9892 0.0000e+00
     -0.283      0.109     7.8937     95.830     47.599  46.997945     6.6600     2.6464     0.4686    16.5393 2.8297e+02    22.2872     -0.278     -0.402    24.1528 0.0000e+00
     -0.258      0.092     7.9179     96.156     47.628  47.026654     6.6600     2.6426     0.4686    16.5393 2.7515e+02    22.4074     -0.253     -0.367    24.2537 0.0000e+00
     -0.238      0.076     7.9489     96.426     47.694  47.093556     6.6600     2.6235     0.4686    16.5393 2.1506e+02    22.3322     -0.233     -0.338    24.3120 0.0000e+00
     -0.221      0.062     7.9816     96.681     47.784  47.188746     6.4800     2.2764     0.4260    17.0892 2.4225e+02    21.2350     -0.217     -0.315    24.3425 0.0000e+00
     -0.208      0.050     8.0125     96.998     47.891  47.307886     6.4800     2.2802     0.4260    17.0892 2.5981e+02    21.1599     -0.205     -0.297    24.3549 0.0000e+00
     -0.198      0.040     8.0393     97.502     48.002  47.431224     6.4800     2.2916     0.4260    17.0892 2.7563e+02    21.1298     -0.195     -0.282    24.3583 0.0000e+00
     -0.190      0.032     8.0613     98.374     48.099  47.538148     6.4800     2.2954     0.4260    17.0892 2.8077e+02    21.0397     -0.187     -0.271    24.3613 0.0000e+00
     -0.183      0.025     8.0813     99.892     48.178  47.621502     6.3900     2.2725     0.4260    17.1738 2.8750e+02    20.8593     -0.180     -0.261    24.3697 0.0000e+00
     -0.177      0.020     8.1058    102.345     48.234  47.675770     6.3900     2.2725     0.4260    17.1738 2.8514e+02    20.9795     -0.174     -0.253    24.3840 0.0000e+00
     -0.173      0.016     8.1455    105.832     48.266  47.701553     6.3900     2.2497     0.4260    17.1738 2.8439e+02    20.9495     -0.170     -0.247    24.3995 0.0000e+00
     -0.170      0.012     8.2166    110.211     48.274  47.703742     6.3900     2.2649     0.4260    17.1738 2.9026e+02    20.9495     -0.167     -0.242    24.4114 0.0000e+00
     -0.168      0.009     8.3426    115.152     48.265  47.692829     6.7500     2.3107     0.4260    19.3311 2.9664e+02    20.9194     -0.165     -0.240    24.4167 0.0000e+00
     -0.167      0.007     8.5478    120.155     48.255  47.683740     6.7500     2.3336     0.4260    19.3311 2.9903e+02    20.9194     -0.164     -0.237    24.4150 0.0000e+00
     -0.166      0.006     8.8400    124.656     48.249  47.678013     6.7500     2.3450     0.4260    19.3311 3.0086e+02    20.7992     -0.163     -0.236    24.4090 0.0000e+00
     -0.164      0.006     9.2066    128.153     48.235  47.660251     6.7500     2.3488     0.4260    19.3311 3.0079e+02    20.9044     -0.161     -0.234    24.4035 0.0000e+00
     -0.163      0.005     9.6197    130.292     48.196  47.611845     6.7500     2.3679     0.4260    19.3311 3.0060e+02    21.3703     -0.160     -0.232    24.4013 0.0000e+00
     -0.161      0.005    10.0375    130.944     48.134  47.537723     6.7500     2.4137     0.4260    19.6695 2.9929e+02    21.3853     -0.158     -0.230    24.4019 0.0000e+00
     -0.160      0.005    10.4134    130.209     48.069  47.459731     6.7500     2.4137     0.4260    19.6695 2.9851e+02    21.4455     -0.157     -0.228    24.4021 0.0000e+00
     -0.159      0.005    10.7064    128.346     48.007  47.384815     6.7500     2.3794     0.4260    19.6695 2.9580e+02    21.5356     -0.156     -0.226    24.3981 0.0000e+00
     -0.157      0.004    10.8870    125.696     47.967  47.330647     6.7500     2.3870     0.4260    19.6695 2.9567e+02    20.8142     -0.154     -0.224    24.3883 0.0000e+00
     -0.156      0.003    10.9441    122.620     47.976  47.326378     6.9300     2.3679     0.4686    19.4580 2.9452e+02    20.9795     -0.153     -0.222    24.3749 0.0000e+00
     -0.155      0.003    10.8856    119.431     48.023  47.358980     6.9300     2.4175     0.4686    19.4580 2.9426e+02    21.0547     -0.152     -0.221    24.3604 0.0000e+00
     -0.154      0.002    10.7326    116.368     48.079  47.393550     6.9300     2.3870     0.4686    19.4580 2.9793e+02    20.9795     -0.151     -0.220    24.3457 0.0000e+00
     -0.154      0.001    10.5137    113.590     48.124  47.409582     6.9300     2.5014     0.4686    19.4580 3.0653e+02    21.3403     -0.151     -0.220    24.3314 0.0000e+00
     -0.155      0.000    10.2589    111.192     48.145  47.391534     6.8400     2.5129     0.4686    19.7541 3.0954e+02    21.3703     -0.152     -0.220    24.3177 0.0000e+00
     -0.155     -0.001     9.9948    109.230     48.136  47.334591     6.8400     2.5243     0.4686    19.7541 3.1164e+02    21.5657     -0.152     -0.221    24.3025 0.0000e+00
     -0.155     -0.001     9.7422    107.739     48.111  47.257253     6.8400     2.5052     0.4686    19.7541 3.1402e+02    21.4755     -0.152     -0.221    24.2819 0.0000e+00
     -0.156     -0.001     9.5148    106.744     48.088  47.182490     6.8400     2.5854     0.4686    19.7541 3.1745e+02    20.9795     -0.153     -0.222    24.2519 0.0000e+00
     -0.156      0.000     9.3209    106.251     48.061  47.108198     7.0200     2.5854     0.4686    19.4580 3.2238e+02    20.9194     -0.153     -0.222    24.2115 0.0000e+00
     -0.157      0.001     9.1650    106.223     48.015  47.022490     7.0200     2.5777     0.4686    19.4580 3.2818e+02    20.9946     -0.154     -0.223    24.1618 0.0000e+00
     -0.157      0.003     9.0492    106.595     47.952  46.926286     7.0200     2.5586     0.4686    19.4580 3.3004e+02    20.8142     -0.154     -0.223    24.1069 0.0000e+00
     -0.156      0.005     8.9750    107.289     47.894  46.843472     7.0200     2.6044     0.4686    19.4580 3.2818e+02    21.6409     -0.153     -0.222    24.0524 0.0000e+00
     -0.155      0.008     8.9420    108.250     47.866  46.795559     7.0200     2.5815     0.4686    19.4580 3.2946e+02    21.6859     -0.152     -0.220    24.0028 0.0000e+00
     -0.152      0.011     8.9469    109.445     47.854  46.767786     6.8400     2.5777     0.4686    19.3311 3.2911e+02    21.7160     -0.149     -0.216    23.9603 0.0000e+00
     -0.149      0.013     8.9843    110.824     47.839  46.738876     6.8400     2.5739     0.4686    19.3311 3.2804e+02    21.5657     -0.146     -0.212    23.9252 0.0000e+00
     -0.146      0.016     9.0475    112.290     47.817  46.703102     6.8400     2.5968     0.4686    19.3311 3.2463e+02    21.4906     -0.143     -0.207    23.8976 0.0000e+00
     -0.141      0.018     9.1322    113.724     47.795  46.664795     6.8400     2.5510     0.4686    19.3311 3.2358e+02    21.4004     -0.138     -0.200    23.8765 0.0000e+00
     -0.136      0.019     9.2360    115.034     47.793  46.643462     6.8400     2.5930     0.4260    20.2194 2.4199e+02    21.3853     -0.133     -0.193    23.8596 0.0000e+00
     -0.130      0.019     9.3551    116.182     47.824  46.649267     6.8400     2.5663     0.4260    20.2194 2.1812e+02    21.3703     -0.128     -0.185    23.8446 0.0000e+00
     -0.125      0.018     9.4816    117.159     47.857  46.650070     6.8400     2.8638     0.4260    20.2194 1.9528e+02    22.2120     -0.122     -0.177    23.8292 0.0000e+00
     -0.120      0.017     9.6057    117.955     47.855  46.610414     6.8400     2.8829     0.4260    20.2194 1.9996e+02    22.0767     -0.117     -0.171    23.8121 0.0000e+00
     -0.116      0.014     9.7201    118.529     47.837  46.551430     6.8400     2.8715     0.4260    19.6272 1.9191e+02    22.1068     -0.113     -0.165    23.7920 0.0000e+00
     -0.113      0.010     9.8217    118.844     47.843  46.512869     6.8400     2.8943     0.4260    19.6272 1.7965e+02    22.0467     -0.110     -0.160    23.7665 0.0000e+00
     -0.110      0.006     9.9105    118.918     47.871  46.494355     6.8400     3.0622     0.4260    19.6272 1.6469e+02    21.4455     -0.108     -0.157    23.7338 0.0000e+00
     -0.109      0.002     9.9851    118.823     47.905  46.483021     6.8400     3.0584     0.4260    19.6272 1.6813e+02    21.5206     -0.106     -0.155    23.6946 0.0000e+00
     -0.109     -0.002    10.0419    118.632     47.934  46.471881     6.8400     3.0736     0.4260    18.8658 1.9154e+02    21.5807     -0.107     -0.155    23.6511 0.0000e+00
     -0.111     -0.006    10.0773    118.389     47.951  46.457960     6.8400     3.0622     0.4260    18.8658 2.0730e+02    21.4605     -0.108     -0.157    23.6046 0.0000e+00
     -0.113     -0.009    10.0926    118.111     47.953  46.437546     6.8400     3.0622     0.4260    18.8658 2.1614e+02    21.1599     -0.111     -0.161    23.5566 0.0000e+00
     -0.116     -0.011    10.0932    117.813     47.926  46.397269     6.8400     3.0813     0.4260    18.8658 2.3875e+02    21.1148     -0.114     -0.165    23.5103 0.0000e+00
     -0.119     -0.012    10.0847    117.521     47.867  46.330349     6.8400     3.0660     0.4260    18.8658 2.7188e+02    21.1749     -0.117     -0.170    23.4694 0.0000e+00
     -0.123     -0.012    10.0701    117.271     47.775  46.234795     6.7500     3.0736     0.4260    19.3311 2.9554e+02    21.1599     -0.120     -0.175    23.4372 0.0000e+00
     -0.126     -0.012    10.0508    117.097     47.656  46.114848     6.7500     3.0698     0.4260    19.3311 2.8938e+02    20.6639     -0.124     -0.179    23.4147 0.0000e+00
     -0.129     -0.012    10.0282    117.031     47.548  46.007876     6.7500     3.0393     0.4260    19.3311 2.6848e+02    20.6038     -0.127     -0.184    23.3998 0.0000e+00
     -0.132     -0.012    10.0052    117.099     47.476  45.936871     6.7500     3.0889     0.4260    19.3311 3.1022e+02    20.6940     -0.129     -0.188    23.3898 0.0000e+00
     -0.135     -0.012     9.9853    117.317     47.402  45.865067     6.7500     3.0622     0.4260    18.9504 2.5689e+02    20.7390     -0.132     -0.192    23.3828 0.0000e+00
     -0.138     -0.011     9.9715    117.655     47.292  45.759445     6.7500     2.8409     0.4260    18.9504 2.9599e+02    20.5887     -0.135     -0.196    23.3777 0.0000e+00
     -0.141     -0.010     9.9664    117.997     47.161  45.633451     6.7500     2.8104     0.4260    18.9504 2.8800e+02    20.6338     -0.138     -0.201    23.3745 0.0000e+00
     -0.144     -0.009     9.9725    118.157     47.041  45.516894     6.7500     2.8066     0.4260    18.9504 3.0099e+02    20.6940     -0.141     -0.205    23.3732 0.0000e+00
     -0.146     -0.007     9.9910    117.963     46.942  45.420303     6.7500     2.8142     0.4260    19.5003 3.0158e+02    20.7390     -0.144     -0.208    23.3734 0.0000e+00
     -0.148     -0.005    10.0196    117.315     46.864  45.343680     6.7500     2.8943     0.4260    19.5003 3.0814e+02    21.1900     -0.145     -0.210    23.3742 0.0000e+00
     -0.149     -0.002    10.0487    116.202     46.807  45.286407     6.7500     2.8982     0.4260    19.5003 3.0125e+02    21.1900     -0.146     -0.211    23.3746 0.0000e+00
     -0.149     -0.000    10.0623    114.687     46.766  45.243117     6.7500     2.8715     0.4260    19.5003 2.9337e+02    21.1749     -0.146     -0.211    23.3743 0.0000e+00
     -0.148      0.001    10.0460    112.885     46.736  45.210192     6.7500     2.8905     0.4260    19.5003 2.9574e+02    21.2651     -0.145     -0.211    23.3736 0.0000e+00
     -0.147      0.003     9.9910    110.947     46.712  45.182816     6.8400     2.9935     0.4260    19.4157 2.8900e+02    21.1749     -0.145     -0.210    23.3721 0.0000e+00
     -0.146      0.003     9.8967    109.037     46.687  45.153686     6.8400     3.0279     0.4260    19.4157 2.8445e+02    21.1749     -0.144     -0.208    23.3696 0.0000e+00
     -0.145      0.004     9.7683    107.289     46.660  45.122961     6.8400     2.9897     0.4260    19.4157 2.5203e+02    21.2050     -0.142     -0.206    23.3662 0.0000e+00
     -0.144      0.004     9.6155    105.779     46.636  45.094337     6.8400     3.0126     0.4260    19.4157 2.4549e+02    21.1449     -0.141     -0.205    23.3621 0.0000e+00
     -0.143      0.003     9.4512    104.531     46.611  45.064142     6.8400     2.9516     0.3834    20.1771 2.6598e+02    21.4304     -0.140     -0.203    23.3575 0.0000e+00
     -0.142      0.003     9.2894    103.534     46.584  45.032250     6.8400     2.9363     0.3834    20.1771 2.8688e+02    21.4004     -0.139     -0.202    23.3525 0.0000e+00
     -0.142      0.002     9.1414    102.749     46.559  45.002045     6.8400     2.9249     0.3834    20.1771 2.9503e+02    21.4154     -0.139     -0.201    23.3472 0.0000e+00
     -0.141      0.002     9.0137    102.124     46.537  44.973397     6.8400     2.9363     0.3834    20.1771 3.2196e+02    21.5056     -0.138     -0.201    23.3415 0.0000e+00
     -0.141      0.001     8.9084    101.604     46.517  44.946592     6.8400     2.9058     0.4260    19.2465 3.2911e+02    21.4304     -0.138     -0.200    23.3355 0.0000e+00
     -0.140      0.001     8.8245    101.146     46.499  44.922408     6.8400     2.9783     0.4260    19.2465 3.2105e+02    21.4154     -0.138     -0.200    23.3290 0.0000e+00
     -0.140      0.001     8.7588    100.711     46.482  44.898359     6.8400     2.9363     0.4260    19.2465 2.6697e+02    21.4455     -0.138     -0.199    23.3220 0.0000e+00
     -0.140      0.000     8.7068    100.267     46.461  44.871993     6.8400     2.9401     0.4260    19.2465 2.6015e+02    21.4605     -0.137     -0.199    23.3145 0.0000e+00
     -0.140      0.000     8.6637     99.810     46.443  44.848168     6.8400     2.9287     0.4260    19.2465 2.4828e+02    21.3553     -0.137     -0.199    23.3069 0.0000e+00
     -0.140     -0.001     8.6259     99.347     46.429  44.828455     6.8400     2.9210     0.4260    19.2465 2.0144e+02    21.7912     -0.137     -0.199    23.2992 0.0000e+00
     -0.140     -0.002     8.5900     98.882     46.418  44.811561     6.8400     2.9592     0.4260    19.2465 2.9324e+02    21.7912     -0.138     -0.200    23.2916 0.0000e+00
     -0.141     -0.002     8.5533     98.424     46.408  44.796943     6.8400     2.9668     0.4260    19.2465 2.9051e+02    21.6409     -0.138     -0.200    23.2843 0.0000e+00
     -0.141     -0.003     8.5154     97.984     46.395  44.780703     6.8400     2.9439     0.4260    19.2465 2.5484e+02    21.6859     -0.139     -0.201    23.2773 0.0000e+00
     -0.142     -0.004     8.4769     97.582     46.380  44.762472     6.7500     3.0050     0.4260    19.2465 2.8762e+02    21.1148     -0.140     -0.202    23.2708 0.0000e+00
     -0.143     -0.004     8.4383     97.236     46.361  44.741352     6.7500     2.9973     0.4260    19.2465 2.5379e+02    21.1749     -0.141     -0.204    23.2647 0.0000e+00
     -0.145     -0.004     8.4001     96.945     46.337  44.713693     6.7500     2.9859     0.4260    19.2465 2.8114e+02    21.1298     -0.142     -0.206    23.2593 0.0000e+00
     -0.146     -0.004     8.3632     96.685     46.307  44.680043     6.7500     3.0012     0.4260    19.2465 2.8150e+02    21.1900     -0.143     -0.208    23.2548 0.0000e+00
     -0.147     -0.003     8.3295     96.427     46.276  44.645299     6.6600     2.6998     0.3834    18.9927 2.8576e+02    21.2050     -0.144     -0.210    23.2511 0.0000e+00
     -0.148     -0.002     8.3006     96.149     46.252  44.616047     6.6600     2.6998     0.3834    18.9927 2.8365e+02    21.1449     -0.145     -0.210    23.2472 0.0000e+00
     -0.148     -0.001     8.2765     95.838     46.234  44.592411     6.6600     2.6960     0.3834    18.9927 2.8163e+02    21.2651     -0.145     -0.211    23.2425 0.0000e+00
     -0.148      0.000     8.2552     95.490     46.216  44.568088     6.6600     2.7036     0.3834    18.9927 2.7961e+02    21.2200     -0.145     -0.211    23.2373 0.0000e+00
     -0.148      0.001     8.2340     95.103     46.198  44.544518     6.7500     2.8142     0.4686    19.1619 2.7792e+02    22.6178     -0.145     -0.210    23.2317 0.0000e+00
     -0.147      0.002     8.2111     94.685     46.184  44.523341     6.7500     2.7990     0.4686    19.1619 2.7491e+02    22.6629     -0.144     -0.209    23.2257 0.0000e+00
     -0.147      0.002     8.1856     94.260     46.170  44.502871     6.7500     2.8142     0.4686    19.1619 2.7295e+02    22.6328     -0.144     -0.208    23.2192 0.0000e+00
     -0.146      0.002     8.1570     93.851     46.164  44.489537     6.7500     2.7875     0.4686    19.1619 2.7141e+02    22.5727     -0.143     -0.207    23.2120 0.0000e+00
     -0.145      0.002     8.1251     93.472     46.169  44.487710     6.9300     2.7494     0.4686    19.2042 2.7182e+02    21.6559     -0.142     -0.206    23.2044 0.0000e+00
     -0.145      0.002     8.0906     93.147     46.185  44.496901     6.9300     2.7303     0.4686    19.2042 2.7749e+02    21.6559     -0.142     -0.205    23.1965 0.0000e+00
     -0.144      0.002     8.0555     92.906     46.209  44.515599     6.9300     2.7456     0.4686    19.2042 2.6368e+02    21.6709     -0.141     -0.205    23.1886 0.0000e+00
     -0.144      0.001     8.0216     92.793     46.239  44.540864     6.9300     2.7379     0.4686    19.2042 2.4586e+02    21.5958     -0.141     -0.204    23.1810 0.0000e+00
     -0.143      0.001     7.9903     92.875     46.283  44.583395     6.9300     2.6922     0.4686    19.2042 2.6322e+02    21.5958     -0.140     -0.204    23.1739 0.0000e+00
     -0.143      0.001     7.9634     93.261     46.371  44.670386     6.8400     2.6731     0.4260    19.5426 2.7082e+02    21.6559     -0.140     -0.203    23.1675 0.0000e+00
     -0.143      0.001     7.9436     94.133     46.533  44.832959     6.8400     2.6731     0.4260    19.5426 2.5550e+02    21.6108     -0.140     -0.203    23.1622 0.0000e+00
     -0.143      0.001     7.9344     95.764     46.820  45.122392     6.8400     2.6845     0.4260    19.5426 2.6529e+02    21.4906     -0.140     -0.203    23.1585 0.0000e+00
     -0.143      0.002     7.9413     98.601     47.304  45.611904     6.8400     2.7799     0.4260    19.5426 2.5981e+02    22.2721     -0.140     -0.203    23.1575 0.0000e+00
     -0.142      0.002     7.9737    103.395     47.916  46.239830     6.8400     2.7685     0.4260    19.2042 2.6328e+02    22.1068     -0.139     -0.202    23.1599 0.0000e+00
     -0.142      0.003     8.0467    111.170     48.435  46.791187     6.8400     2.7418     0.4260    19.2042 2.6276e+02    22.0767     -0.139     -0.201    23.1667 0.0000e+00
     -0.141      0.003     8.1834    122.657     48.762  47.161351     6.8400     2.7723     0.4260    19.2042 2.6185e+02    22.1068     -0.138     -0.200    23.1795 0.0000e+00
     -0.140      0.004     8.4211    137.516     48.950  47.391568     6.8400     2.7570     0.4260    19.2042 2.7348e+02    23.8954     -0.137     -0.199    23.2030 0.0000e+00
     -0.139      0.004     8.8228    154.342     49.058  47.535307     6.9300     2.7723     0.4260    19.7118 2.5302e+02    23.8052     -0.136     -0.198    23.2422 0.0000e+00
     -0.138      0.004     9.4758    171.298     49.121  47.626934     6.9300     2.7379     0.4260    19.7118 2.7998e+02    23.7751     -0.135     -0.196    23.2951 0.0000e+00
     -0.137      0.005    10.4436    186.604     49.154  47.682959     6.9300     2.7799     0.4260    19.7118 2.2815e+02    23.8353     -0.134     -0.195    23.3513 0.0000e+00
     -0.136      0.005    11.6984    198.781     49.167  47.714359     6.9300     2.9134     0.4260    19.7118 2.2383e+02    23.0988     -0.133     -0.193    23.4012 0.0000e+00
     -0.135      0.005    13.1210    206.838     49.172  47.733471     6.9300     2.8676     0.4260    19.7118 2.3306e+02    23.1138     -0.132     -0.191    23.4416 0.0000e+00
     -0.133      0.006    14.5554    210.446     49.180  47.753319     6.9300     2.8905     0.5112    20.8116 2.1030e+02    23.0537     -0.130     -0.189    23.4731 0.0000e+00
     -0.132      0.006    15.8503    210.045     49.202  47.787122     6.9300     2.8867     0.5112    20.8116 2.1260e+02    23.0837     -0.129     -0.187    23.4976 0.0000e+00
     -0.130      0.007    16.8801    206.724     49.248  47.847857     6.9300     3.0012     0.5112    20.8116 2.0258e+02    23.5647     -0.127     -0.185    23.5165 0.0000e+00
     -0.129      0.008    17.5607    201.774     49.317  47.941813     6.9300     2.9935     0.5112    20.8116 2.2136e+02    23.5948     -0.126     -0.183    23.5314 0.0000e+00
     -0.127      0.009    17.8639    196.282     49.378  48.044501     6.9300     2.9935     0.4686    19.8810 2.3700e+02    23.6399     -0.124     -0.181    23.5438 0.0000e+00
     -0.125      0.011    17.8266    190.990     49.388  48.106021     6.9300     3.0088     0.4686    19.8810 2.7059e+02    23.6549     -0.122     -0.178    23.5562 0.0000e+00
     -0.122      0.014    17.5402    186.258     49.343  48.107112     6.9300     3.1881     0.4686    19.8810 2.7420e+02    24.8122     -0.119     -0.173    23.5726 0.0000e+00
     -0.118      0.016    17.1121    182.130     49.286  48.075814     6.9300     3.1766     0.4686    19.8810 1.8898e+02    24.8272     -0.115     -0.168    23.5999 0.0000e+00
     -0.113      0.017    16.6332    178.530     49.255  48.049361     6.9300     3.2186     0.3834    19.9656 1.7370e+02    24.7371     -0.111     -0.161    23.6435 0.0000e+00
     -0.108      0.019    16.1687    175.414     49.249  48.036550     6.9300     3.2033     0.3834    19.9656 1.8019e+02    24.7972     -0.106     -0.153    23.6967 0.0000e+00
     -0.103      0.020    15.7543    172.788     49.250  48.026039     6.9300     3.1270     0.3834    19.9656 1.8503e+02    22.3773     -0.101     -0.147    23.7418 0.0000e+00
     -0.098      0.020    15.3976    170.672     49.248  48.011059     6.9300     3.1385     0.3834    19.9656 1.8407e+02    22.4675     -0.096     -0.140    23.7662 0.0000e+00
     -0.093      0.021    15.0916    169.068     49.232  47.979688     6.9300     3.1232     0.4686    20.0925 1.5193e+02    22.2872     -0.091     -0.133    23.7703 0.0000e+00
     -0.088      0.024    14.8298    167.952     49.173  47.897800     6.9300     3.1499     0.4686    20.0925 1.4222e+02    22.2571     -0.086     -0.125    23.7629 0.0000e+00
     -0.083      0.029    14.6108    167.240     49.051  47.733648     6.9300     3.1805     0.4686    20.0925 1.4475e+02    21.9565     -0.081     -0.118    23.7514 0.0000e+00
     -0.077      0.036    14.4355    166.769     48.916  47.520747     6.9300     3.2148     0.4686    20.0925 2.2510e+02    21.8513     -0.075     -0.110    23.7378 0.0000e+00
     -0.069      0.045    14.3041    166.382     48.844  47.335090     6.9300     3.1576     0.4686    20.0925 2.1873e+02    21.9114     -0.067     -0.098    23.7216 0.0000e+00
     -0.057      0.054    14.2163    166.072     48.827  47.190574     6.8400     3.2072     0.4686    19.2888 1.6000e+02    21.9264     -0.055     -0.081    23.6973 0.0000e+00
     -0.040      0.063    14.1684    166.033     48.795  47.040728     6.8400     3.6192     0.4686    19.2888 1.0820e+02    23.5497     -0.039     -0.057    23.6507 0.0000e+00
     -0.021      0.072    14.1509    166.478     48.719  46.857475     6.8400     3.6230     0.4686    19.2888 1.0096e+02    23.5948     -0.020     -0.029    23.5671 0.0000e+00
     -0.000      0.079    14.1497    167.429     48.605  46.641486     6.8400     3.6382     0.4686    19.2888 8.8791e+01    23.7000      0.000      0.000    23.4488 0.0000e+00
      0.021      0.084    14.1583    168.743     48.475  46.410461     6.9300     3.6077     0.4686    20.1771 8.6055e+01    23.5948      0.021      0.030    23.3182 0.0000e+00
      0.043      0.089    14.1883    170.224     48.366  46.197903     6.9300     3.8175     0.4686    20.1771 7.6162e+01    23.8353      0.042      0.061    23.1953 0.0000e+00
      0.065      0.092    14.2571    171.698     48.276  46.010535     6.9300     3.7984     0.4686    20.1771 7.0309e+01    23.8803      0.064      0.093    23.0826 0.0000e+00
      0.090      0.094    14.3686    173.029     48.179  45.830090     6.9300     3.7756     0.4686    20.1771 5.3737e+01    23.9254      0.088      0.128    22.9735 0.0000e+00
      0.115      0.096    14.5119    174.092     48.066  45.648077     7.1100     3.7946     0.4686    20.6847 4.4029e+01    23.7601      0.113      0.164    22.8633 0.0000e+00
      0.141      0.097    14.6702    174.786     47.945  45.469456     7.1100     3.8938     0.4686    20.6847 3.8329e+01    23.1138      0.138      0.201    22.7523 0.0000e+00
      0.166      0.097    14.8268    175.091     47.837  45.311982     7.1100     3.9358     0.4686    20.6847 3.5016e+01    22.9785      0.163      0.236    22.6473 0.0000e+00
      0.190      0.097    14.9676    175.089     47.736  45.167345     7.1100     3.9434     0.4686    20.6847 3.5684e+01    23.1890      0.186      0.271    22.5551 0.0000e+00
      0.214      0.097    15.0815    174.885     47.611  45.004897     7.1100     3.9243     0.4686    20.5155 3.2339e+01    23.1589      0.210      0.305    22.4776 0.0000e+00
      0.239      0.097    15.1603    174.553     47.448  44.807079     7.1100     3.8671     0.4686    20.5155 2.8528e+01    24.2260      0.234      0.340    22.4120 0.0000e+00
      0.264      0.098    15.2033    174.121     47.219  44.542932     7.1100     3.8442     0.4686    20.5155 2.6284e+01    24.3763      0.259      0.375    22.3543 0.0000e+00
      0.289      0.099    15.2178    173.566     46.865  44.153905     7.1100     3.8366     0.4686    20.5155 2.2600e+01    24.2711      0.283      0.411    22.3028 0.0000e+00
      0.314      0.100    15.2136    172.842     46.343  43.589755     7.1100     3.8633     0.4686    20.5155 2.0886e+01    24.3162      0.308      0.447    22.2555 0.0000e+00
      0.339      0.102    15.1984    171.873     45.658  42.850621     7.2000     3.7450     0.4686    20.8116 2.1164e+01    22.1218      0.333      0.483    22.2080 0.0000e+00
      0.365      0.104    15.1756    170.540     44.935  42.054418     7.2000     3.7298     0.4686    20.8116 1.9602e+01    22.1218      0.358      0.519    22.1562 0.0000e+00
      0.392      0.106    15.1448    168.678     44.358  41.385052     7.2000     3.7298     0.4686    20.8116 1.6891e+01    22.0166      0.384      0.557    22.0950 0.0000e+00
      0.420      0.108    15.1044    166.095     43.956  40.885904     7.2000     3.7603     0.4686    20.8116 1.4666e+01    22.1519      0.412      0.597    22.0149 0.0000e+00
      0.448      0.109    15.0500    162.641     43.624  40.467443     7.2000     3.3063     0.4260    20.0502 1.2227e+01    16.5456      0.440      0.638    21.9087 0.0000e+00
      0.477      0.109    14.9703    158.313     43.285  40.059676     7.2000     3.3369     0.4260    20.0502 1.0697e+01    16.3953      0.468      0.679    21.7777 0.0000e+00
      0.505      0.109    14.8476    153.332     42.878  39.599424     7.2000     3.2873     0.4260    20.0502 9.7770e+00    16.3352      0.495      0.719    21.6330 0.0000e+00
      0.532      0.109    14.6594    148.067     42.323  39.003570     7.2000     3.3063     0.4260    20.0502 9.4102e+00    16.4555      0.522      0.757    21.4920 0.0000e+00
      0.558      0.110    14.3884    142.848     41.634  38.277632     6.4800     3.0050     0.3834    16.8777 9.1104e+00    16.0346      0.547      0.794    21.3675 0.0000e+00
      0.585      0.112    14.0341    137.823     40.929  37.529107     6.4800     3.0050     0.3834    16.8777 8.7476e+00    16.0647      0.574      0.832    21.2595 0.0000e+00
      0.614      0.115    13.6179    132.932     40.322  36.865401     6.4800     2.9783     0.3834    16.8777 7.2597e+00    16.0346      0.602      0.873    21.1609 0.0000e+00
      0.645      0.119    13.1750    127.906     39.849  36.323431     6.4800     2.9935     0.3834    16.8777 5.7549e+00    15.8843      0.632      0.917    21.0615 0.0000e+00
      0.676      0.122    12.7369    122.329     39.462  35.859676     6.4800     2.9363     0.3834    16.8777 5.2666e+00    12.1418      0.663      0.962    20.9517 0.0000e+00
      0.708      0.125    12.3174    115.825     39.145  35.457415     6.2100     2.9287     0.2982    15.1857 4.7511e+00    12.2621      0.694      1.007    20.8291 0.0000e+00
      0.740      0.127    11.9099    108.288     38.919  35.136124     6.2100     2.9630     0.2982    15.1857 4.7398e+00    12.1268      0.725      1.052    20.6972 0.0000e+00
      0.772      0.129    11.4889     99.908     38.781  34.893302     6.2100     2.9478     0.2982    15.1857 4.0923e+00    12.1869      0.757      1.098    20.5608 0.0000e+00
      0.806      0.130    11.0163     91.033     38.746  34.741429     6.2100     2.5739     0.2982    15.1857 3.4543e+00     7.7680      0.790      1.146    20.4215 0.0000e+00
      0.840      0.131    10.4580     82.043     38.835  34.695452     5.7600     2.5586     0.2556    11.2095 2.9565e+00     7.6628      0.823      1.194    20.2778 0.0000e+00
      0.874      0.130     9.8036     73.277     39.020  34.733204     5.7600     2.5625     0.2556    11.2095 2.5688e+00     7.7380      0.857      1.243    20.1303 0.0000e+00
      0.908      0.129     9.0694     64.926     39.238  34.805333     5.7600     2.5739     0.2556    11.2095 2.2863e+00     7.7680      0.890      1.291    19.9806 0.0000e+00
      0.941      0.126     8.2868     56.972     39.437  34.867694     5.7600     2.0055     0.2556    11.2095 2.0196e+00     4.3111      0.922      1.338    19.8270 0.0000e+00
      0.973      0.123     7.4903     49.300     39.600  34.911166     5.3100     2.0093     0.1704     6.7257 1.7913e+00     4.3562      0.954      1.384    19.6677 0.0000e+00
      1.004      0.120     6.7102     41.852     39.724  34.935455     5.3100     1.9979     0.1704     6.7257 1.6177e+00     4.4314      0.984      1.428    19.5065 0.0000e+00
      1.034      0.116     5.9633     34.735     39.804  34.939112     5.3100     2.0246     0.1704     6.7257 1.4705e+00     4.3412      1.014      1.471    19.3508 0.0000e+00
      1.063      0.113     5.2477     28.231     39.852  34.931033     5.3100     1.4638     0.1704     6.7257 1.3180e+00     3.1688      1.043      1.512    19.2061 0.0000e+00
      1.091      0.111     4.5528     22.703     39.881  34.913022     4.7700     1.4562     0.1278     2.5803 1.2606e+00     3.1838      1.070      1.552    19.0778 0.0000e+00
      1.119      0.110     3.8736     18.483     39.908  34.888200     4.7700     1.4486     0.1278     2.5803 1.1929e+00     3.1989      1.097      1.591    18.9700 0.0000e+00
      1.145      0.111     3.2207     15.787     39.936  34.849946     4.7700     1.4600     0.1278     2.5803 1.1486e+00     3.0636      1.123      1.629    18.8856 0.0000e+00
      1.172      0.114     2.6215     14.631     39.954  34.784096     4.7700     1.3189     0.1278     2.5803 1.1609e+00     2.8532      1.149      1.668    18.8219 0.0000e+00
      1.201      0.117     2.1110     14.797     39.964  34.698832     4.7700     1.3570     0.1278     2.5803 1.1176e+00     2.6879      1.177      1.708    18.7674 0.0000e+00
      1.231      0.121     1.7214     15.873     39.976  34.611022     4.6800     1.3608     0.0852     1.4805 9.9926e-01     2.7480      1.207      1.751    18.7071 0.0000e+00
      1.264      0.125     1.4735     17.380     39.993  34.530913     4.6800     1.3646     0.0852     1.4805 8.7028e-01     2.7630      1.240      1.798    18.6279 0.0000e+00
      1.298      0.128     1.3696     18.917     40.015  34.464863     4.6800     0.9565     0.0852     1.4805 7.6025e-01     2.0115      1.273      1.846    18.5261 0.0000e+00
      1.331      0.129     1.3895     20.231     40.032  34.407138     4.6800     0.9717     0.0852     1.4805 7.3093e-01     2.1317      1.305      1.894    18.4084 0.0000e+00
      1.364      0.128     1.4950     21.222     40.034  34.350264     4.5900     0.9717     0.0852     0.9729 6.5213e-01     1.9814      1.338      1.941    18.2853 0.0000e+00
      1.397      0.126     1.6411     21.923     40.036  34.304817     4.5900     0.9565     0.0852     0.9729 6.4690e-01     2.1317      1.370      1.987    18.1667 0.0000e+00
      1.429      0.124     1.7901     22.452     40.043  34.272539     4.5900     0.8496     0.0852     0.9729 6.3080e-01     1.8462      1.401      2.032    18.0605 0.0000e+00
      1.460      0.122     1.9176     22.941     40.030  34.230961     4.5900     0.8496     0.0852     0.9729 6.0201e-01     1.8612      1.432      2.077    17.9705 0.0000e+00
      1.491      0.121     2.0142     23.487     39.992  34.168993     4.5000     0.8382     0.0426     0.4653 5.8245e-01     1.8462      1.462      2.121    17.8969 0.0000e+00
      1.521      0.120     2.0830     24.132     39.943  34.093875     4.5000     0.8306     0.0426     0.4653 6.1590e-01     1.6658      1.491      2.163    17.8378 0.0000e+00
      1.550      0.121     2.1351     24.849     39.898  34.015281     4.5000     0.6703     0.0426     0.4653 6.3245e-01     1.5456      1.520      2.205    17.7908 0.0000e+00
      1.581      0.122     2.1832     25.563     39.869  33.943936     4.5000     0.6856     0.0426     0.4653 5.7042e-01     1.5456      1.550      2.248    17.7522 0.0000e+00
      1.612      0.122     2.2368     26.183     39.850  33.876658     4.4100     0.7047     0.0852     0.4653 5.1639e-01     1.5907      1.581      2.293    17.7154 0.0000e+00
      1.644      0.123     2.3002     26.634     39.817  33.795502     4.4100     0.6856     0.0852     0.4653 4.9539e-01     1.6357      1.612      2.338    17.6736 0.0000e+00
      1.677      0.123     2.3710     26.874     39.764  33.696649     4.4100     0.5635     0.0852     0.4653 5.1370e-01     1.3502      1.644      2.384    17.6233 0.0000e+00
      1.708      0.123     2.4421     26.887     39.717  33.601263     4.4100     0.5559     0.0852     0.4653 4.8359e-01     1.3351      1.675      2.430    17.5647 0.0000e+00
      1.739      0.121     2.5045     26.686     39.694  33.529455     4.4100     0.5445     0.0852     0.4653 4.7124e-01     1.3502      1.706      2.474    17.5004 0.0000e+00
      1.770      0.120     2.5510     26.314     39.688  33.477915     4.2300     0.5635     0.0426     0.2961 4.7258e-01     1.2600      1.736      2.517    17.4338 0.0000e+00
      1.800      0.119     2.5775     25.832     39.669  33.421016     4.2300     0.4338     0.0426     0.2961 4.5673e-01     1.3502      1.765      2.560    17.3660 0.0000e+00
      1.830      0.120     2.5823     25.308     39.609  33.331703     4.2300     0.4224     0.0426     0.2961 4.7083e-01     1.3051      1.794      2.603    17.2967 0.0000e+00
      1.859      0.122     2.5664     24.807     39.522  33.213882     4.2300     0.4491     0.0426     0.2961 4.8327e-01     1.2750      1.823      2.645    17.2301 0.0000e+00
      1.889      0.125     2.5336     24.369     39.432  33.085640     4.1400     0.4376     0.0000     0.2961 4.8275e-01     1.3051      1.853      2.687    17.1713 0.0000e+00
      1.921      0.130     2.4898     24.008     39.349  32.956346     4.1400     0.4911     0.0000     0.2961 4.8076e-01     1.1999      1.884      2.732    17.1204 0.0000e+00
      1.955      0.134     2.4417     23.712     39.287  32.839044     4.1400     0.5216     0.0000     0.2961 4.3051e-01     1.0646      1.917      2.780    17.0711 0.0000e+00
      1.991      0.138     2.3962     23.453     39.264  32.749979     4.1400     0.4987     0.0000     0.2961 4.0064e-01     1.1097      1.952      2.832    17.0150 0.0000e+00
      2.028      0.141     2.3572     23.202     39.285  32.695101     4.0500     0.5216     0.0852     0.2961 4.2034e-01     1.1097      1.989      2.885    16.9482 0.0000e+00
      2.065      0.143     2.3259     22.927     39.320  32.655811     4.0500     0.4224     0.0852     0.2961 3.8737e-01     1.0496      2.025      2.937    16.8724 0.0000e+00
      2.102      0.143     2.3012     22.578     39.338  32.605787     4.0500     0.4148     0.0852     0.2961 3.7863e-01     1.0947      2.061      2.990    16.7897 0.0000e+00
      2.138      0.144     2.2803     22.099     39.338  32.539610     4.0500     0.4071     0.0852     0.2961 3.7437e-01     1.1097      2.097      3.042    16.7008 0.0000e+00
      2.174      0.146     2.2601     21.453     39.342  32.467355     4.0500     0.4376     0.0852     0.2961 3.2246e-01     1.1097      2.132      3.093    16.6096 0.0000e+00
      2.210      0.150     2.2373     20.627     39.358  32.397473     3.9600     0.3652     0.0426     0.2961 3.6158e-01     1.3051      2.168      3.144    16.5223 0.0000e+00
      2.248      0.155     2.2069     19.619     39.386  32.331129     3.9600     0.3461     0.0426     0.2961 3.6339e-01     1.3051      2.204      3.197    16.4399 0.0000e+00
      2.288      0.162     2.1637     18.441     39.437  32.280331     3.9600     0.4071     0.0426     0.2961 3.5273e-01     1.3502      2.244      3.254    16.3551 0.0000e+00
      2.330      0.169     2.1043     17.123     39.533  32.263212     3.9600     0.3728     0.0426     0.2961 3.2527e-01     1.2450      2.285      3.314    16.2601 0.0000e+00
      2.375      0.176     2.0274     15.710     39.655  32.263323     3.8700     0.3423     0.0426     0.1692 3.1573e-01     2.1167      2.329      3.377    16.1541 0.0000e+00
      2.421      0.182     1.9326     14.252     39.763  32.249007     3.8700     0.3919     0.0426     0.1692 2.9819e-01     2.0566      2.374      3.444    16.0415 0.0000e+00
      2.469      0.184     1.8207     12.778     39.855  32.224363     3.8700     0.3919     0.0426     0.1692 3.3343e-01     2.0416      2.422      3.512    15.9245 0.0000e+00
      2.519      0.182     1.6945     11.294     39.951  32.214497     3.8700     0.3881     0.0426     0.1692 2.6848e-01     2.0866      2.470      3.582    15.8036 0.0000e+00
      2.568      0.177     1.5585      9.801     40.043  32.220735     3.7800     0.3079     0.0000     0.2115 2.4780e-01     2.5225      2.518      3.652    15.6785 0.0000e+00
      2.615      0.168     1.4174      8.321     40.105  32.220975     3.7800     0.3079     0.0000     0.2115 2.4763e-01     2.5676      2.564      3.719    15.5502 0.0000e+00
      2.657      0.159     1.2741      6.896     40.134  32.201420     3.7800     0.3232     0.0000     0.2115 2.4990e-01     2.5225      2.605      3.779    15.4250 0.0000e+00
      2.694      0.150     1.1287      5.583     40.147  32.160815     3.7800     0.3232     0.0000     0.2115 2.4747e-01     2.5376      2.642      3.832    15.3151 0.0000e+00
      2.728      0.143     0.9813      4.439     40.176  32.106157     3.7800     0.3156     0.0426     0.1269 2.6842e-01     2.4925      2.675      3.880    15.2302 0.0000e+00
      2.761      0.140     0.8342      3.505     40.253  32.054550     3.7800     0.3499     0.0426     0.1269 2.6174e-01     2.5225      2.707      3.927    15.1679 0.0000e+00
      2.795      0.140     0.6920      2.808     40.368  32.010049     3.7800     0.3118     0.0426     0.1269 2.3824e-01     2.6879      2.741      3.975    15.1152 0.0000e+00
      2.831      0.141     0.5607      2.331     40.495  31.964743     3.7800     0.3194     0.0426     0.1269 2.3180e-01     2.6127      2.776      4.026    15.0522 0.0000e+00
      2.868      0.144     0.4463      1.998     40.636  31.926344     3.7800     0.3575     0.0426     0.1269 2.3261e-01     3.1538      2.813      4.080    14.9560 0.0000e+00
      2.906      0.145     0.3532      1.720     40.803  31.904410     3.7800     0.3919     0.0852     0.1269 2.2653e-01     3.2289      2.850      4.134    14.8165 0.0000e+00
      2.944      0.144     0.2838      1.424     40.986  31.897048     3.7800     0.3766     0.0852     0.1269 2.1099e-01     3.1538      2.888      4.188    14.6477 0.0000e+00
      2.982      0.142     0.2365      1.078     41.175  31.906247     3.7800     0.3919     0.0852     0.1269 1.9909e-01     3.2139      2.924      4.241    14.4686 0.0000e+00
      3.018      0.140     0.2035      0.695     41.370  31.938415     3.7800     0.3003     0.0852     0.1269 1.7590e-01     3.7400      2.960      4.293    14.2849 0.0000e+00
      3.052      0.137     0.1758      0.311     41.588  31.998167     3.8700     0.3194     0.0852     0.1269 2.0254e-01     3.7851      2.994      4.342    14.0977 0.0000e+00
      3.086      0.136     0.1461     -0.027     41.836  32.077674     3.8700     0.3194     0.0852     0.1269 1.9125e-01     3.6498      3.027      4.390    13.9145 0.0000e+00
      3.119      0.136     0.1108     -0.264     42.102  32.162489     3.8700     0.3079     0.0852     0.1269 1.8488e-01     3.7249      3.059      4.437    13.7474 0.0000e+00
      3.153      0.136     0.0715     -0.366     42.373  32.251462     3.8700     0.3346     0.0852     0.1269 2.0267e-01     4.1007      3.092      4.486    13.6033 0.0000e+00
      3.189      0.137     0.0317     -0.327     42.636  32.342571     3.8700     0.3079     0.0852     0.2115 1.9682e-01     4.0255      3.127      4.536    13.4734 0.0000e+00
      3.225      0.138    -0.0034     -0.169     42.880  32.432385     3.8700     0.3003     0.0852     0.2115 1.6794e-01     4.1157      3.162      4.587    13.3405 0.0000e+00
      3.261      0.138    -0.0281      0.075     43.107  32.523068     3.8700     0.3194     0.0852     0.2115 1.7602e-01     4.0857      3.198      4.638    13.1992 0.0000e+00
      3.296      0.138    -0.0387      0.371     43.304  32.603154     3.8700     0.3156     0.0852     0.2115 1.7268e-01     4.7169      3.233      4.689    13.0590 0.0000e+00
      3.331      0.136    -0.0345      0.686     43.467  32.670236     3.8700     0.3003     0.1278     0.1692 1.3775e-01     4.6869      3.267      4.739    12.9307 0.0000e+00
      3.366      0.134    -0.0177      1.000     43.640  32.754081     3.8700     0.3079     0.1278     0.1692 1.5194e-01     4.5516      3.301      4.788    12.8189 0.0000e+00
      3.400      0.134     0.0083      1.309     43.867  32.884967     3.8700     0.3575     0.1278     0.1692 1.2322e-01     4.5065      3.334      4.836    12.7240 0.0000e+00
      3.433      0.134     0.0397      1.607     44.163  33.068093     3.8700     0.3156     0.1278     0.1692 1.3567e-01     5.0326      3.367      4.883    12.6448 0.0000e+00
      3.466      0.136     0.0733      1.887     44.494  33.275060     3.8700     0.3003     0.1278     0.1692 1.5197e-01     5.0776      3.399      4.930    12.5797 0.0000e+00
      3.499      0.139     0.1068      2.147     44.812  33.471943     3.9600     0.3079     0.1278     0.1692 1.4873e-01     5.1227      3.432      4.978    12.5270 0.0000e+00
      3.535      0.141     0.1398      2.380     45.101  33.647870     3.9600     0.3346     0.1278     0.1692 1.4343e-01     5.0626      3.467      5.029    12.4821 0.0000e+00
      3.573      0.143     0.1717      2.580     45.352  33.794305     3.9600     0.2278     0.1278     0.1692 1.3126e-01     7.0165      3.504      5.083    12.4382 0.0000e+00
      3.612      0.144     0.2018      2.743     45.552  33.900784     3.9600     0.2736     0.1278     0.1692 1.2648e-01     7.0316      3.542      5.138    12.3924 0.0000e+00
      3.650      0.143     0.2297      2.854     45.702  33.967976     4.0500     0.2316     0.1704     0.1692 1.1612e-01     7.0165      3.580      5.192    12.3467 0.0000e+00
      3.687      0.141     0.2549      2.907     45.821  34.009835     4.0500     0.2431     0.1704     0.1692 1.2021e-01     6.9714      3.616      5.244    12.3022 0.0000e+00
      3.722      0.139     0.2766      2.920     45.923  34.033563     4.0500     0.2660     0.1704     0.1692 1.1595e-01     7.4674      3.650      5.294    12.2569 0.0000e+00
      3.755      0.138     0.2943      2.923     45.995  34.023701     4.0500     0.2851     0.1704     0.1692 1.1737e-01     7.4073      3.683      5.342    12.2095 0.0000e+00
      3.789      0.138     0.3065      2.964     46.035  33.975637     4.2300     0.2584     0.2130     0.1692 1.2008e-01     7.5426      3.715      5.389    12.1607 0.0000e+00
      3.823      0.139     0.3127      3.127     46.053  33.898335     4.2300     0.2584     0.2130     0.1692 1.1691e-01     7.5426      3.749      5.438    12.1100 0.0000e+00
      3.859      0.141     0.3145      3.537     46.037  33.789003     4.2300     0.1554     0.2130     0.1692 1.2023e-01     7.1668      3.784      5.489    12.0532 0.0000e+00
      3.897      0.142     0.3156      4.359     45.989  33.656109     4.2300     0.1363     0.2130     0.1692 1.1612e-01     7.2720      3.821      5.542    11.9841 0.0000e+00
      3.934      0.142     0.3209      5.803     45.947  33.531544     4.1400     0.1325     0.2130     0.2115 1.1605e-01     7.3021      3.858      5.596    11.8992 0.0000e+00
      3.971      0.141     0.3397      8.087     45.934  33.435558     4.1400     0.1515     0.2130     0.2115 1.1623e-01     7.2270      3.894      5.648    11.8005 0.0000e+00
      4.007      0.139     0.3856     11.376     45.925  33.354433     4.1400     0.1973     0.2130     0.2115 1.1615e-01     7.4374      3.929      5.699    11.6946 0.0000e+00
      4.042      0.137     0.4767     15.744     45.885  33.262573     4.1400     0.2011     0.2130     0.2115 1.1600e-01     7.3773      3.964      5.749    11.5881 0.0000e+00
      4.076      0.135     0.6361     21.149     45.803  33.147364     4.1400     0.1897     0.2130     0.2115 1.1617e-01     7.5125      3.998      5.798    11.4860 0.0000e+00
      4.110      0.134     0.8879     27.424     45.710  33.023628     4.0500     0.1935     0.1704     0.0846 1.1592e-01     7.4073      4.030      5.846    11.3924 0.0000e+00
      4.143      0.133     1.2504     34.299     45.650  32.921739     4.0500     0.1897     0.1704     0.0846 1.1623e-01     5.7239      4.063      5.893    11.3113 0.0000e+00
      4.176      0.133     1.7320     41.487     45.631  32.852151     4.0500     0.1706     0.1704     0.0846 1.1605e-01     5.7841      4.096      5.940    11.2428 0.0000e+00
      4.211      0.133     2.3287     48.783     45.635  32.806205     4.0500     0.2164     0.1704     0.0846 1.1600e-01     5.7540      4.129      5.989    11.1815 0.0000e+00
      4.245      0.133     3.0226     56.091     45.653  32.779570     3.9600     0.2088     0.1704     0.1269 1.1630e-01     5.7540      4.163      6.038    11.1199 0.0000e+00
      4.279      0.135     3.7844     63.357     45.671  32.761179     3.9600     0.1782     0.1704     0.1269 1.1610e-01     5.3031      4.196      6.086    11.0560 0.0000e+00
      4.313      0.136     4.5821     70.486     45.659  32.726326     3.9600     0.1859     0.1704     0.1269 1.1590e-01     5.4083      4.229      6.134    10.9945 0.0000e+00
      4.347      0.138     5.3926     77.314     45.616  32.673638     3.9600     0.1973     0.1704     0.1269 1.1612e-01     5.3031      4.263      6.183    10.9413 0.0000e+00
      4.383      0.142     6.2048     83.630     45.570  32.620747     3.7800     0.2164     0.0852     0.1269 1.1625e-01     5.3632      4.298      6.234    10.8982 0.0000e+00
      4.419      0.147     7.0127     89.208     45.534  32.575333     3.7800     0.1973     0.0852     0.1269 1.1610e-01     5.0776      4.333      6.285    10.8637 0.0000e+00
      4.456      0.154     7.8056     93.825     45.518  32.545087     3.7800     0.1897     0.0852     0.1269 1.1643e-01     5.0476      4.369      6.338    10.8355 0.0000e+00
      4.494      0.161     8.5654     97.319     45.522  32.529864     3.7800     0.1935     0.0852     0.1269 1.1617e-01     5.0476      4.408      6.393    10.8114 0.0000e+00
      4.536      0.167     9.2690     99.660     45.528  32.517682     3.7800     0.2011     0.1278     0.0846 1.1612e-01     5.0326      4.449      6.452    10.7894 0.0000e+00
      4.582      0.171     9.8913    100.960     45.530  32.505294     3.7800     0.1973     0.1278     0.0846 1.1623e-01     5.0776      4.493      6.517    10.7681 0.0000e+00
      4.629      0.173    10.4077    101.421     45.536  32.497315     3.7800     0.1973     0.1278     0.0846 1.1628e-01     5.1378      4.539      6.584    10.7472 0.0000e+00
      4.676      0.173    10.7997    101.275     45.552  32.499540     3.7800     0.2164     0.1278     0.0846 1.1620e-01     5.0776      4.585      6.650    10.7274 0.0000e+00
      4.720      0.170    11.0637    100.729     45.579  32.512560     3.7800     0.1821     0.1278     0.0846 1.1602e-01     5.0776      4.629      6.714    10.7095 0.0000e+00
      4.762      0.165    11.2118     99.939     45.607  32.527966     3.7800     0.1935     0.0852     0.1269 1.1620e-01     5.0175      4.670      6.774    10.6937 0.0000e+00
      4.803      0.160    11.2662     99.007     45.626  32.537985     3.7800     0.2164     0.0852     0.1269 1.1633e-01     5.0476      4.710      6.831    10.6805 0.0000e+00
      4.842      0.156    11.2524     97.980     45.635  32.541328     3.7800     0.1782     0.0852     0.1269 1.1628e-01     5.0776      4.748      6.887    10.6705 0.0000e+00
      4.881      0.154    11.1934     96.879     45.635  32.538885     3.7800     0.2088     0.0852     0.1269 1.1595e-01     5.0626      4.787      6.942    10.6634 0.0000e+00
      4.920      0.155    11.1070     95.719     45.631  32.533967     3.7800     0.1439     0.1278     0.1692 1.1623e-01     5.2580      4.825      6.997    10.6583 0.0000e+00
      4.958      0.157    11.0044     94.521     45.628  32.529222     3.7800     0.1401     0.1278     0.1692 1.1617e-01     5.4083      4.862      7.052    10.6543 0.0000e+00
      4.997      0.162    10.8910     93.309     45.620  32.519424     3.7800     0.1210     0.1278     0.1692 1.1617e-01     5.2129      4.901      7.108    10.6513 0.0000e+00
      5.038      0.168    10.7692     92.105     45.601  32.501960     3.7800     0.1172     0.1278     0.1692 1.1605e-01     5.4384      4.940      7.165    10.6489 0.0000e+00
      5.081      0.173    10.6408     90.933     45.581  32.484055     3.7800     0.1248     0.1278     0.1692 1.1620e-01     5.2881      4.983      7.227    10.6464 0.0000e+00
      5.128      0.178    10.5084     89.826     45.569  32.472814     3.7800     0.1286     0.1278     0.1692 1.1602e-01     5.2730      5.029      7.293    10.6433 0.0000e+00
      5.176      0.182    10.3746     88.816     45.567  32.469202     3.7800     0.1554     0.1278     0.1692 1.1612e-01     5.3332      5.076      7.362    10.6392 0.0000e+00
      5.225      0.183    10.2418     87.918     45.567  32.468294     3.7800     0.1439     0.1278     0.1692 1.1612e-01     5.3632      5.123      7.431    10.6347 0.0000e+00
      5.272      0.184    10.1125     87.131     45.564  32.465888     3.7800     0.1592     0.0852     0.0846 1.1617e-01     5.3332      5.169      7.498    10.6306 0.0000e+00
      5.317      0.183     9.9901     86.445     45.564  32.465303     3.7800     0.1439     0.0852     0.0846 1.1610e-01     5.3482      5.214      7.563    10.6274 0.0000e+00
      5.363      0.182     9.8782     85.843     45.571  32.470342     3.7800     0.1363     0.0852     0.0846 1.1620e-01     5.3482      5.259      7.628    10.6253 0.0000e+00
      5.410      0.180     9.7786     85.311     45.582  32.478390     3.7800     0.1210     0.0852     0.0846 1.1633e-01     5.3332      5.305      7.694    10.6243 0.0000e+00
      5.456      0.177     9.6912     84.822     45.596  32.487632     3.7800     0.1286     0.0852     0.0846 1.1628e-01     5.2730      5.351      7.760    10.6241 0.0000e+00
      5.502      0.174     9.6148     84.349     45.614  32.500532     3.7800     0.1363     0.1278     0.1269 1.1638e-01     5.4083      5.396      7.826    10.6241 0.0000e+00
      5.547      0.169     9.5479     83.884     45.631  32.512608     3.7800     0.1325     0.1278     0.1269 1.1617e-01     5.3031      5.440      7.889    10.6241 0.0000e+00
      5.590      0.164     9.4888     83.431     45.635  32.515200     3.7800     0.1515     0.1278     0.1269 1.1607e-01     5.2730      5.482      7.950    10.6238 0.0000e+00
      5.631      0.157     9.4344     83.002     45.627  32.508999     3.7800     0.2202     0.1278     0.1269 1.1625e-01     5.2279      5.522      8.008    10.6235 0.0000e+00
      5.670      0.152     9.3819     82.611     45.615  32.500273     3.8700     0.2011     0.1278     0.1269 1.1607e-01     5.4083      5.560      8.064    10.6232 0.0000e+00
      5.707      0.148     9.3302     82.269     45.608  32.494615     3.8700     0.2011     0.1278     0.1269 1.1605e-01     5.3782      5.596      8.116    10.6229 0.0000e+00
      5.742      0.146     9.2799     81.978     45.609  32.494477     3.8700     0.1897     0.1278     0.1269 1.1610e-01     5.3332      5.631      8.167    10.6225 0.0000e+00
      5.777      0.146     9.2323     81.737     45.607  32.491902     3.8700     0.1325     0.1278     0.1269 1.1612e-01     5.2430      5.666      8.217    10.6220 0.0000e+00
      5.814      0.148     9.1889     81.545     45.595  32.482241     3.7800     0.1325     0.1278     0.0846 1.1615e-01     5.4083      5.702      8.269    10.6215 0.0000e+00
      5.852      0.151     9.1511     81.399     45.580  32.470840     3.7800     0.1210     0.1278     0.0846 1.1607e-01     5.3782      5.739      8.323    10.6208 0.0000e+00
      5.892      0.153     9.1188     81.297     45.569  32.462580     3.7800     0.1286     0.1278     0.0846 1.1600e-01     5.3181      5.778      8.380    10.6201 0.0000e+00
      5.932      0.154     9.0923     81.234     45.565  32.459217     3.7800     0.1248     0.1278     0.0846 1.1630e-01     5.2881      5.817      8.437    10.6191 0.0000e+00
      5.972      0.154     9.0712     81.206     45.561  32.455896     3.7800     0.1210     0.1278     0.0846 1.1630e-01     5.3332      5.857      8.495    10.6179 0.0000e+00
      6.012      0.153     9.0552     81.207     45.555  32.451729     3.7800     0.1515     0.1278     0.1269 1.1617e-01     5.3031      5.896      8.551    10.6169 0.0000e+00
      6.051      0.153     9.0440     81.233     45.552  32.449568     3.7800     0.1248     0.1278     0.1269 1.1617e-01     5.3332      5.934      8.606    10.6161 0.0000e+00
      6.088      0.153     9.0370     81.283     45.551  32.448834     3.7800     0.1973     0.1278     0.1269 1.1600e-01     5.2580      5.971      8.660    10.6157 0.0000e+00
      6.125      0.155     9.0340     81.336     45.553  32.449333     3.7800     0.1821     0.1278     0.1269 1.1610e-01     5.2730      6.007      8.713    10.6155 0.0000e+00
      6.164      0.159     9.0341     81.372     45.556  32.451197     3.7800     0.1821     0.0852     0.1269 1.1635e-01     5.2430      6.045      8.768    10.6154 0.0000e+00
      6.205      0.163     9.0370     81.388     45.562  32.454924     3.7800     0.1859     0.0852     0.1269 1.1623e-01     5.3782      6.086      8.826    10.6154 0.0000e+00
      6.249      0.168     9.0426     81.390     45.566  32.457547     3.7800     0.1210     0.0852     0.1269 1.1617e-01     5.2881      6.128      8.888    10.6152 0.0000e+00
      6.293      0.173     9.0486     81.381     45.570  32.459766     3.7800     0.1134     0.0852     0.1269 1.1617e-01     5.3933      6.171      8.951    10.6148 0.0000e+00
      6.338      0.178     9.0527     81.363     45.574  32.462171     3.7800     0.1096     0.1278     0.0846 1.1638e-01     5.3332      6.215      9.014    10.6143 0.0000e+00
      6.383      0.185     9.0546     81.335     45.568  32.457483     3.7800     0.1515     0.1278     0.0846 1.1623e-01     5.2730      6.259      9.078    10.6139 0.0000e+00
      6.428      0.195     9.0549     81.303     45.561  32.452373     3.7800     0.1210     0.1278     0.0846 1.1607e-01     5.3933      6.304      9.144    10.6134 0.0000e+00
      6.477      0.209     9.0540     81.273     45.574  32.461320     3.7800     0.1248     0.1278     0.0846 1.1612e-01     5.2881      6.352      9.212    10.6128 0.0000e+00
      6.529      0.227     9.0521     81.248     45.599  32.478790     3.7800     0.1439     0.0852     0.0846 1.1617e-01     5.3031      6.403      9.287    10.6123 0.0000e+00
      6.588      0.250     9.0491     81.218     45.615  32.489638     3.7800     0.1439     0.0852     0.0846 1.1617e-01     5.3332      6.461      9.371    10.6119 0.0000e+00
      6.654      0.277     9.0456     81.182     45.620  32.492796     3.7800     0.1439     0.0852     0.0846 1.1620e-01     5.1227      6.525      9.464    10.6115 0.0000e+00
      6.727      0.307     9.0424     81.142     45.621  32.493066     3.7800     0.1096     0.0852     0.0846 1.1623e-01     5.1378      6.597      9.568    10.6110 0.0000e+00
      6.808      0.338     9.0397     81.100     45.618  32.490521     3.7800     0.1515     0.0852     0.0846 1.1600e-01     5.0776      6.676      9.683    10.6105 0.0000e+00
      6.898      0.368     9.0365     81.061     45.605  32.480522     3.7800     0.1401     0.1278     0.0423 1.1625e-01     4.9574      6.764      9.811    10.6100 0.0000e+00
      6.997      0.394     9.0326     81.028     45.582  32.464361     3.7800     0.1172     0.1278     0.0423 1.1620e-01     5.0776      6.862      9.952    10.6095 0.0000e+00
      7.106      0.414     9.0282     80.997     45.568  32.453572     3.7800     0.1134     0.1278     0.0423 1.1612e-01     5.4384      6.968     10.107    10.6090 0.0000e+00
      7.220      0.425     9.0236     80.968     45.567  32.453198     3.7800     0.1210     0.1278     0.0423 1.1617e-01     5.3482      7.080     10.269    10.6087 0.0000e+00
      7.335      0.424     9.0193     80.943     45.575  32.459180     3.8700     0.1210     0.1278     0.1692 1.1617e-01     5.3031      7.193     10.433    10.6084 0.0000e+00
      7.449      0.411     9.0157     80.925     45.583  32.465190     3.8700     0.0981     0.1278     0.1692 1.1600e-01     5.4233      7.305     10.595    10.6081 0.0000e+00
      7.557      0.389     9.0123     80.914     45.588  32.468872     3.8700     0.1286     0.1278     0.1692 1.1620e-01     5.3782      7.411     10.748    10.6078 0.0000e+00
      7.655      0.361     9.0091     80.905     45.584  32.467247     3.8700     0.1134     0.1278     0.1692 1.1623e-01     5.3332      7.507     10.889    10.6076 0.0000e+00
      7.742      0.331     9.0064     80.888     45.573  32.459882     3.7800     0.1248     0.1278     0.1269 1.1605e-01     5.3031      7.593     11.012    10.6077 0.0000e+00
      7.819      0.302     9.0043     80.864     45.562  32.452733     3.7800     0.1592     0.1278     0.1269 1.1620e-01     5.2881      7.668     11.121    10.6081 0.0000e+00
      7.888      0.279     9.0029     80.836     45.556  32.447855     3.7800     0.1325     0.1278     0.1269 1.1612e-01     5.2430      7.735     11.219    10.6090 0.0000e+00
      7.952      0.260     9.0016     80.808     45.551  32.443946     3.7800     0.1286     0.1278     0.1269 1.1617e-01     5.2881      7.798     11.311    10.6101 0.0000e+00
      8.015      0.246     8.9996     80.782     45.547  32.439965     3.7800     0.1439     0.1278     0.1692 1.1620e-01     5.1829      7.860     11.400    10.6110 0.0000e+00
      8.076      0.234     8.9968     80.762     45.552  32.442771     3.7800     0.1019     0.1278     0.1692 1.1617e-01     5.4233      7.920     11.487    10.6114 0.0000e+00
      8.136      0.225     8.9938     80.745     45.567  32.453112     3.7800     0.1363     0.1278     0.1692 1.1623e-01     5.2881      7.979     11.572    10.6110 0.0000e+00
      8.193      0.217     8.9908     80.734     45.568  32.453943     3.7800     0.1630     0.1278     0.1692 1.1597e-01     5.4083      8.034     11.653    10.6101 0.0000e+00
      8.246      0.210     8.9882     80.738     45.557  32.445485     3.7800     0.1134     0.1278     0.1692 1.1617e-01     5.3782      8.086     11.728    10.6091 0.0000e+00
      8.296      0.203     8.9860     80.757     45.551  32.441324     3.7800     0.1592     0.1278     0.1692 1.1623e-01     5.2430      8.136     11.800    10.6085 0.0000e+00
      8.347      0.195     8.9842     80.782     45.550  32.440352     3.7800     0.1554     0.1278     0.1692 1.1612e-01     5.5887      8.185     11.872    10.6081 0.0000e+00
      8.397      0.187     8.9831     80.807     45.553  32.442309     3.7800     0.0943     0.1278     0.1692 1.1617e-01     5.5135      8.234     11.943    10.6077 0.0000e+00
      8.446      0.178     8.9837     80.834     45.561  32.447718     3.7800     0.1134     0.1278     0.1692 1.1633e-01     5.5286      8.283     12.013    10.6074 0.0000e+00
      8.492      0.165     8.9858     80.865     45.569  32.454058     3.7800     0.1325     0.1278     0.0846 1.1617e-01     5.5586      8.328     12.079    10.6070 0.0000e+00
      8.534      0.151     8.9887     80.897     45.580  32.463022     3.7800     0.1363     0.1278     0.0846 1.1615e-01     5.3031      8.369     12.138    10.6066 0.0000e+00
      8.570      0.137     8.9915     80.923     45.592  32.473039     3.7800     0.1286     0.1278     0.0846 1.1605e-01     5.3332      8.405     12.190    10.6065 0.0000e+00
      8.601      0.123     8.9945     80.941     45.603  32.482819     3.7800     0.1210     0.1278     0.0846 1.1623e-01     5.3332      8.435     12.234    10.6067 0.0000e+00
      8.629      0.112     8.9978     80.957     45.612  32.491012     3.7800     0.1172     0.1704     0.1269 1.1620e-01     5.2129      8.462     12.273    10.6072 0.0000e+00
      8.653      0.106     9.0011     80.972     45.617  32.495840     3.7800     0.1363     0.1704     0.1269 1.1617e-01     5.2430      8.486     12.308    10.6083 0.0000e+00
      8.677      0.103     9.0037     80.988     45.620  32.498591     3.7800     0.1172     0.1704     0.1269 1.1628e-01     5.3782      8.510     12.342    10.6099 0.0000e+00
      8.702      0.105     9.0053     81.002     45.621  32.499998     3.7800     0.1363     0.1704     0.1269 1.1628e-01     5.2730      8.534     12.377    10.6118 0.0000e+00
      8.728      0.110     9.0066     81.009     45.628  32.504399     3.7800     0.1134     0.1278     0.0846 1.1605e-01     5.2881      8.559     12.414    10.6138 0.0000e+00
      8.757      0.115     9.0079     81.005     45.647  32.516926     3.7800     0.1782     0.1278     0.0846 1.1607e-01     6.1899      8.587     12.454    10.6155 0.0000e+00
      8.788      0.118     9.0095     80.985     45.671  32.532999     3.7800     0.1668     0.1278     0.0846 1.1595e-01     6.2500      8.618     12.499    10.6166 0.0000e+00
      8.821      0.119     9.0110     80.945     45.689  32.545022     3.7800     0.1935     0.1278     0.0846 1.1623e-01     6.2650      8.650     12.546    10.6167 0.0000e+00
      8.854      0.116     9.0118     80.888     45.705  32.556201     3.7800     0.1973     0.1278     0.0846 1.1602e-01     6.2350      8.683     12.593    10.6162 0.0000e+00
      8.885      0.109     9.0116     80.818     45.728  32.573477     3.7800     0.2927     0.1278     0.1692 1.1612e-01    19.9725      8.713     12.637    10.6155 0.0000e+00
      8.913      0.100     9.0096     80.736     45.764  32.601459     3.7800     0.3079     0.1278     0.1692 1.1630e-01    20.0026      8.740     12.676    10.6144 0.0000e+00
      8.937      0.089     9.0054     80.648     45.826  32.647607     3.7800     0.3232     0.1278     0.1692 1.1617e-01    20.0026      8.764     12.711    10.6134 0.0000e+00
      8.957      0.078     8.9991     80.560     45.930  32.724229     3.7800     0.3232     0.1278     0.1692 1.1623e-01    19.9725      8.784     12.740    10.6133 0.0000e+00
      8.975      0.067     8.9910     80.474     46.095  32.843836     3.8700     1.6431     0.2982     0.2961 1.1617e-01   166.2007      8.801     12.765    10.6143 0.0000e+00
      8.990      0.058     8.9815     80.390     46.329  33.012578     3.8700     1.6584     0.2982     0.2961 1.1612e-01   166.1556      8.816     12.787    10.6164 0.0000e+00
      9.003      0.050     8.9713     80.296     46.639  33.235848     3.8700     1.6660     0.2982     0.2961 1.1620e-01   166.2608      8.829     12.806    10.6188 0.0000e+00
      9.015      0.043     8.9609     80.175     46.936  33.450402     3.8700     1.6469     0.2982     0.2961 1.1607e-01   166.1857      8.840     12.822    10.6211 0.0000e+00
      9.025      0.038     8.9508     79.999     47.049  33.533239     3.7800     0.4148     1.7892    12.3093 1.1617e-01   171.8821      8.850     12.836    10.6234 0.0000e+00
      9.034      0.032     8.9409     79.717     46.975  33.482686     3.7800     0.4491     1.7892    12.3093 1.1605e-01   172.0174      8.859     12.848    10.6258 0.0000e+00
      9.041      0.028     8.9299     79.269     46.842  33.390222     3.7800     0.4300     1.7892    12.3093 1.1602e-01   171.7168      8.866     12.859    10.6285 0.0000e+00
      9.048      0.023     8.9160     78.622     46.701  33.292584     3.7800     0.4415     1.7892    12.3093 1.1612e-01   171.8370      8.873     12.868    10.6312 0.0000e+00
      9.053      0.019     8.8960     77.806     46.569  33.201362     3.7800    -0.1269     1.7892    12.3093 1.1628e-01     7.6929      8.878     12.876    10.6336 0.0000e+00
      9.057      0.015     8.8641     76.915     46.468  33.131837     0.1800    -0.1269     0.0852     1.9881 1.1605e-01     7.6478      8.882     12.881    10.6360 0.0000e+00
      9.060      0.012     8.8138     76.083     46.397  33.083292     0.1800    -0.1193     0.0852     1.9881 1.1623e-01     7.6478      8.885     12.886    10.6386 0.0000e+00
      9.062      0.010     8.7413     75.434     46.356  33.054664     0.1800    -0.1231     0.0852     1.9881 1.1623e-01     7.7981      8.887     12.889    10.6415 0.0000e+00
      9.064      0.008     8.6499     75.067     46.328  33.034358     0.1800    -0.1269     0.0852     1.9881 1.1607e-01     6.7761      8.889     12.892    10.6445 0.0000e+00
      9.066      0.006     8.5503     75.032     46.289  33.005077     0.0000    -0.1269     0.0000     0.0423 1.1623e-01     6.7610      8.891     12.894    10.6474 0.0000e+00
      9.067      0.005     8.4573     75.321     46.254  32.978817     0.0000    -0.1117     0.0000     0.0423 1.1623e-01     6.7159      8.892     12.896    10.6495 0.0000e+00
      9.068      0.004     8.3851     75.871     46.241  32.968377     0.0000    -0.0964     0.0000     0.0423 1.1607e-01     6.7610      8.893     12.897    10.6503 0.0000e+00
      9.069      0.003     8.3443     76.575     46.235  32.963052     0.0000    -0.1079     0.0000     0.0423 1.1617e-01     6.2199      8.893     12.898    10.6499 0.0000e+00
      9.069      0.002     8.3406     77.318     46.218  32.949541     0.0000    -0.1651     0.0000     0.0000 1.1628e-01     6.2500      8.894     12.899    10.6487 0.0000e+00
      9.070      0.002     8.3731     78.011     46.184  32.924240     0.0000    -0.1308     0.0000     0.0000 1.1612e-01     6.2500      8.894     12.899    10.6472 0.0000e+00
      9.070      0.001     8.4345     78.611     46.146  32.896246     0.0000    -0.0850     0.0000     0.0000 1.1625e-01     6.2650      8.895     12.900    10.6457 0.0000e+00
      9.070      0.001     8.5131     79.099     46.115  32.873935     0.0000    -0.1155     0.0000     0.0000 1.1638e-01     5.7841      8.895     12.900    10.6445 0.0000e+00
      9.070      0.001     8.5959     79.468     46.096  32.859280     0.0000    -0.1193     0.0000     0.0000 1.1615e-01     5.7390      8.895     12.901    10.6434 0.0000e+00
      9.070      0.001     8.6731     79.731     46.087  32.852332     0.0000    -0.1308     0.0000     0.0000 1.1612e-01     5.8742      8.895     12.901    10.6425 0.0000e+00
      9.070      0.001     8.7400     79.911     46.075  32.843319     0.0000    -0.1079     0.0000     0.0000 1.1628e-01     5.8442      8.895     12.901    10.6416 0.0000e+00
      9.071      0.001     8.7943     80.036     46.057  32.829835     0.0000    -0.1346     0.0000     0.0000 1.1602e-01     5.4534      8.895     12.901    10.6409 0.0000e+00
      9.071      0.000     8.8356     80.130     46.049  32.824129     0.0000    -0.1041     0.0000     0.0000 1.1607e-01     5.4835      8.896     12.902    10.6401 0.0000e+00
      9.071      0.000     8.8649     80.205     46.057  32.828639     0.0000    -0.1079     0.0000     0.0000 1.1623e-01     5.6037      8.896     12.902    10.6394 0.0000e+00
      9.071      0.000     8.8850     80.270     46.058  32.828725     0.0000    -0.1308     0.0000     0.0000 1.1607e-01     5.5586      8.896     12.902    10.6388 0.0000e+00
      9.071      0.001     8.8991     80.328     46.045  32.818468     0.0000    -0.1346     0.0000     0.0000 1.1607e-01     5.0476      8.896     12.902    10.6383 0.0000e+00
      9.071      0.001     8.9097     80.379     46.032  32.808997     0.0000    -0.1193     0.0000     0.0000 1.1628e-01     5.1077      8.896     12.902    10.6377 0.0000e+00
      9.071      0.001     8.9182     80.421     46.015  32.795805     0.0000    -0.1002     0.0000     0.0000 1.1610e-01     5.0626      8.896     12.902    10.6369 0.0000e+00
      9.072      0.001     8.9255     80.446     45.986  32.775374     0.0000    -0.1231     0.0000     0.0000 1.1612e-01     4.9724      8.896     12.902    10.6360 0.0000e+00
      9.072      0.001     8.9322     80.449     45.968  32.762060     0.0000    -0.0964     0.0000     0.0000 1.1607e-01     4.8221      8.896     12.903    10.6350 0.0000e+00
      9.072      0.000     8.9382     80.434     45.964  32.758252     0.0000    -0.1117     0.0000     0.0000 1.1620e-01     4.7921      8.897     12.903    10.6342 0.0000e+00
      9.072      0.000     8.9429     80.417     45.966  32.758975     0.0000    -0.1422     0.0000    -0.0423 1.1600e-01     4.7320      8.897     12.903    10.6336 0.0000e+00
      9.072      0.000     8.9457     80.405     45.974  32.764421     0.0000    -0.1269     0.0000    -0.0423 1.1607e-01     4.9123      8.897     12.903    10.6331 0.0000e+00
      9.072      0.000     8.9461     80.397     45.983  32.770102     0.0000    -0.1041     0.0000    -0.0423 1.1628e-01     4.2961      8.897     12.903    10.6327 0.0000e+00
      9.072      0.000     8.9446     80.397     45.987  32.771591     0.0000    -0.1079     0.0000    -0.0423 1.1628e-01     4.4163      8.897     12.903    10.6321 0.0000e+00
      9.072      0.000     8.9429     80.403     45.993  32.775227     0.0000    -0.1308     0.0000     0.0000 1.1600e-01     4.4013      8.897     12.903    10.6315 0.0000e+00
      9.072      0.000     8.9417     80.420     45.992  32.774057     0.0000    -0.1269     0.0000     0.0000 1.1612e-01     4.4013      8.897     12.903    10.6308 0.0000e+00
      9.072      0.000     8.9410     80.448     45.963  32.751928     0.0000    -0.1079     0.0000     0.0000 1.1620e-01     4.3712      8.897     12.903    10.6300 0.0000e+00
      9.072      0.000     8.9411     80.478     45.923  32.722742     0.0000    -0.1384     0.0000     0.0000 1.1617e-01     4.4013      8.897     12.904    10.6292 0.0000e+00
      9.072      0.000     8.9420     80.503     45.901  32.706439     0.0000    -0.1193     0.0000     0.0000 1.1617e-01     4.3412      8.897     12.904    10.6283 0.0000e+00
      9.072      0.000     8.9441     80.525     45.893  32.700652     0.0000    -0.1308     0.0000     0.0000 1.1633e-01     4.3562      8.897     12.904    10.6273 0.0000e+00
      9.072      0.000     8.9474     80.543     45.891  32.699879     0.0000    -0.1155     0.0000     0.0000 1.1612e-01     4.1307      8.897     12.904    10.6263 0.0000e+00
      9.073      0.000     8.9510     80.556     45.897  32.703912     0.0000    -0.1346     0.0000     0.0000 1.1638e-01     4.0255      8.897     12.904    10.6255 0.0000e+00
      9.073      0.000     8.9539     80.562     45.910  32.713827     0.0000    -0.1269     0.0000     0.0000 1.1605e-01     4.1157      8.897     12.904    10.6250 0.0000e+00
      9.073      0.000     8.9563     80.561     45.930  32.728308     0.0000    -0.1193     0.0000     0.0000 1.1630e-01     4.0556      8.897     12.904    10.6248 0.0000e+00
      9.073      0.000     8.9583     80.555     45.950  32.743295     0.0000    -0.1079     0.0000     0.0000 1.1628e-01     4.0706      8.897     12.904    10.6249 0.0000e+00
      9.073      0.000     8.9597     80.556     45.968  32.756844     0.0000    -0.1079     0.0000     0.0000 1.1617e-01     4.1458      8.897     12.904    10.6251 0.0000e+00
      9.073      0.000     8.9603     80.570     45.986  32.770587     0.0000    -0.1460     0.0000     0.0000 1.1590e-01     4.1157      8.897     12.904    10.6255 0.0000e+00
      9.073      0.000     8.9600     80.592     46.013  32.790169     0.0000    -0.1460     0.0000     0.0423 1.1615e-01     4.1307      8.897     12.905    10.6260 0.0000e+00
      9.073      0.001     8.9592     80.617     46.068  32.830713     0.0000    -0.1384     0.0000     0.0423 1.1623e-01     3.9504      8.897     12.905    10.6267 0.0000e+00
      9.073      0.001     8.9592     80.636     46.153  32.893131     0.0000    -0.1346     0.0000     0.0423 1.1615e-01     3.8752      8.898     12.905    10.6275 0.0000e+00
      9.074      0.001     8.9605     80.641     46.257  32.968323     0.0000    -0.1079     0.0000     0.0423 1.1623e-01     3.9654      8.898     12.905    10.6283 0.0000e+00
      9.074      0.001     8.9628     80.628     46.426  33.090202     0.0000    -0.1079     0.0000     0.0423 1.1612e-01     3.8452      8.898     12.906    10.6293 0.0000e+00
      9.074      0.001     8.9653     80.595     46.728  33.307112     0.0000    -0.1422     0.0000     0.0423 1.1612e-01     3.7099      8.898     12.906    10.6306 0.0000e+00
      9.074      0.002     8.9671     80.537     47.231  33.666995     0.0000    -0.1079     0.0000     0.0423 1.1605e-01     3.5596      8.898     12.907    10.6322 0.0000e+00
      9.075      0.002     8.9673     80.453     48.017  34.228193     0.0000    -0.1117     0.0000     0.0423 1.1610e-01     3.6949      8.899     12.907    10.6338 0.0000e+00
      9.075      0.002     8.9656     80.342     49.065  34.975985     0.0000    -0.1155     0.0000     0.0423 1.1612e-01     3.6348      8.899     12.908    10.6352 0.0000e+00
      9.075      0.003     8.9615     80.197     50.136  35.739433     0.0000    -0.1269     0.0000     0.0846 1.1615e-01     3.4995      8.900     12.908    10.6366 0.0000e+00
      9.076      0.003     8.9548     79.994     51.066  36.401274     0.0000    -0.1193     0.0000     0.0846 1.1617e-01     3.3943      8.900     12.909    10.6381 0.0000e+00
      9.077      0.003     8.9452     79.681     51.935  37.019163     0.0000    -0.1231     0.0000     0.0846 1.1623e-01     3.3642      8.901     12.911    10.6393 0.0000e+00
      9.078      0.004     8.9327     79.187     52.879  37.690526     0.0000    -0.1231     0.0000     0.0846 1.1600e-01     3.4694      8.902     12.912    10.6400 0.0000e+00
      9.079      0.004     8.9166     78.449     54.088  38.550819     0.0000    -0.1269     0.0000     0.0423 1.1615e-01     4.3712      8.903     12.913    10.6398 0.0000e+00
      9.080      0.004     8.8942     77.438     55.156  39.310425     0.0000    -0.1041     0.0000     0.0423 1.1610e-01     4.3562      8.904     12.914    10.6389 0.0000e+00
      9.081      0.004     8.8596     76.149     55.235  39.365629     0.0000    -0.1079     0.0000     0.0423 1.1623e-01     4.4314      8.905     12.916    10.6377 0.0000e+00
      9.082      0.003     8.8049     74.583     54.290  38.691559     0.0000    -0.1079     0.0000     0.0423 1.1620e-01     4.3712      8.906     12.917    10.6363 0.0000e+00
      9.082      0.003     8.7231     72.745     53.025  37.789938     0.0000    -0.1269     0.0000     0.0000 1.1602e-01     3.1388      8.906     12.918    10.6347 0.0000e+00
      9.083      0.003     8.6110     70.672     52.100  37.131466     0.0000    -0.1193     0.0000     0.0000 1.1607e-01     3.1838      8.907     12.919    10.6331 0.0000e+00
      9.084      0.003     8.4679     68.483     51.736  36.873322     0.0000    -0.1079     0.0000     0.0000 1.1617e-01     3.1989      8.908     12.920    10.6319 0.0000e+00
      9.085      0.003     8.2939     66.397     51.469  36.685194     0.0000    -0.1155     0.0000     0.0000 1.1607e-01     3.1538      8.909     12.921    10.6313 0.0000e+00
      9.085      0.002     8.0896     64.680     50.641  36.096995     0.0000    -0.1155     0.0000     0.0000 1.1607e-01     2.1317      8.909     12.922    10.6315 0.0000e+00
      9.086      0.002     7.8589     63.550     49.451  35.250966     0.0000    -0.1193     0.0000     0.0000 1.1612e-01     2.0866      8.910     12.923    10.6325 0.0000e+00
      9.086      0.002     7.6152     63.117     48.473  34.555315     0.0000    -0.1079     0.0000     0.0000 1.1615e-01     2.1017      8.910     12.924    10.6340 0.0000e+00
      9.087      0.002     7.3829     63.385     47.804  34.080025     0.0000    -0.1079     0.0000     0.0000 1.1615e-01     1.9814      8.911     12.924    10.6359 0.0000e+00
      9.087      0.001     7.1917     64.292     47.375  33.775586     0.0000    -0.1117     0.0000     0.0000 1.1617e-01     1.7710      8.911     12.925    10.6380 0.0000e+00
      9.087      0.001     7.0657     65.750     47.123  33.596461     0.0000    -0.1155     0.0000    -0.0423 1.1607e-01     1.8913      8.912     12.926    10.6400 0.0000e+00
      9.088      0.001     7.0173     67.634     46.965  33.484983     0.0000    -0.1269     0.0000    -0.0423 1.1605e-01     1.6658      8.912     12.926    10.6419 0.0000e+00
      9.088      0.001     7.0467     69.777     46.884  33.427267     0.0000    -0.1346     0.0000    -0.0423 1.1620e-01     1.7560      8.912     12.926    10.6435 0.0000e+00
      9.088      0.001     7.1474     72.009     46.858  33.409902     0.0000    -0.1346     0.0000    -0.0423 1.1633e-01     1.5907      8.912     12.927    10.6447 0.0000e+00
      9.088      0.000     7.3094     74.202     46.836  33.394592     0.0000    -0.1384     0.0000     0.0423 1.1612e-01     1.5305      8.912     12.927    10.6456 0.0000e+00
      9.088      0.000     7.5187     76.272     46.792  33.363390     0.0000    -0.1346     0.0000     0.0423 1.1605e-01     1.5305      8.912     12.927    10.6464 0.0000e+00
      9.088      0.000     7.7568     78.146     46.719  33.311937     0.0000    -0.1002     0.0000     0.0423 1.1602e-01     1.5756      8.912     12.927    10.6470 0.0000e+00
      9.088     -0.001     8.0048     79.745     46.652  33.264140     0.0000    -0.1155     0.0000     0.0423 1.1607e-01     1.3201      8.912     12.927    10.6475 0.0000e+00
      9.088     -0.001     8.2485     81.001     46.633  33.250820     0.0000    -0.1384     0.0000    -0.0423 1.1612e-01     1.2600      8.912     12.927    10.6481 0.0000e+00
      9.088     -0.001     8.4785     81.883     46.672  33.278328     0.0000    -0.1346     0.0000    -0.0423 1.1617e-01     1.2600      8.912     12.926    10.6486 0.0000e+00
      9.088     -0.002     8.6868     82.411     46.802  33.369840     0.0000    -0.1193     0.0000    -0.0423 1.1600e-01     1.3201      8.912     12.926    10.6489 0.0000e+00
      9.087     -0.002     8.8646     82.640     47.095  33.577485     0.0000    -0.1079     0.0000    -0.0423 1.1635e-01     1.2149      8.911     12.926    10.6490 0.0000e+00
      9.087     -0.002     9.0042     82.643     47.640  33.964556     0.0000    -0.1155     0.0000    -0.0423 1.1615e-01     1.2750      8.911     12.925    10.6489 0.0000e+00
      9.086     -0.003     9.1024     82.491     48.539  34.604568     0.0000    -0.1308     0.0000     0.0000 1.1610e-01     1.1999      8.910     12.924    10.6483 0.0000e+00
      9.085     -0.004     9.1613     82.229     49.844  35.533523     0.0000    -0.1002     0.0000     0.0000 1.1615e-01     1.3051      8.910     12.923    10.6473 0.0000e+00
      9.084     -0.005     9.1870     81.874     50.928  36.305889     0.0000    -0.1079     0.0000     0.0000 1.1612e-01     1.2149      8.909     12.921    10.6460 0.0000e+00
      9.083     -0.007     9.1876     81.404     50.847  36.248174     0.0000    -0.1002     0.0000     0.0000 1.1600e-01     1.3201      8.907     12.919    10.6447 0.0000e+00
      9.081     -0.009     9.1709     80.746     49.827  35.521310     0.0000    -0.1346     0.0000     0.0000 1.1620e-01     1.3652      8.906     12.917    10.6435 0.0000e+00
      9.079     -0.011     9.1419     79.783     48.713  34.727744     0.0000    -0.1155     0.0000     0.0000 1.1615e-01     1.3051      8.904     12.914    10.6425 0.0000e+00
      9.076     -0.014     9.1025     78.421     47.827  34.097536     0.0000    -0.1269     0.0000     0.0000 1.1623e-01     1.0345      8.901     12.910    10.6418 0.0000e+00
      9.073     -0.017     9.0504     76.698     47.221  33.666611     0.0000    -0.1193     0.0000     0.0000 1.1600e-01     1.0496      8.898     12.905    10.6416 0.0000e+00
      9.068     -0.022     8.9772     74.832     46.809  33.373528     0.0000    -0.1155     0.0000     0.0846 1.1623e-01     1.0947      8.893     12.898    10.6419 0.0000e+00
      9.063     -0.027     8.8700     73.150     46.443  33.112405     0.0000    -0.1117     0.0000     0.0846 1.1628e-01     1.1999      8.888     12.890    10.6429 0.0000e+00
      9.055     -0.034     8.7183     71.964     46.135  32.892824     0.0000    -0.1002     0.0000     0.0846 1.1615e-01     1.8011      8.881     12.880    10.6443 0.0000e+00
      9.047     -0.042     8.5265     71.491     45.933  32.749304     0.0000    -0.1269     0.0000     0.0846 1.1620e-01     1.7860      8.872     12.867    10.6454 0.0000e+00
      9.036     -0.053     8.3189     71.827     45.816  32.667338     0.0000    -0.1155     0.0000     0.0846 1.1617e-01     1.8011      8.861     12.852    10.6459 0.0000e+00
      9.022     -0.066     8.1320     72.924     45.754  32.625068     0.0000    -0.1155     0.0000     0.0846 1.1620e-01     1.7560      8.848     12.832    10.6459 0.0000e+00
      9.005     -0.082     8.0001     74.599     45.724  32.607261     0.0000    -0.0506     0.0000     0.0846 1.1615e-01    78.9959      8.831     12.808    10.6458 0.0000e+00
      8.984     -0.102     7.9475     76.569     45.719  32.609169     0.0000    -0.0583     0.0000     0.0846 1.1612e-01    78.9658      8.810     12.778    10.6463 0.0000e+00
      8.957     -0.125     7.9845     78.539     45.734  32.627341     0.0000    -0.0583     0.0000     0.0846 1.1620e-01    78.8756      8.784     12.740    10.6477 0.0000e+00
      8.923     -0.150     8.1059     80.286     45.749  32.646819     0.0000    -0.0506     0.0000     0.0423 1.1620e-01    78.9207      8.751     12.692    10.6503 0.0000e+00
      8.882     -0.175     8.2912     81.692     45.739  32.649035     0.0000     0.6246     0.0000     0.0423 1.1607e-01   138.1996      8.710     12.632    10.6544 0.0000e+00
      8.832     -0.199     8.5091     82.728     45.713  32.638542     0.0000     0.6055     0.0000     0.0423 1.1612e-01   138.1695      8.661     12.562    10.6600 0.0000e+00
      8.776     -0.219     8.7264     83.415     45.693  32.628383     0.0000     0.6360     0.0000     0.0423 1.1605e-01   138.0192      8.606     12.482    10.6678 0.0000e+00
      8.714     -0.234     8.9184     83.798     45.673  32.615849     0.3600     0.6017     0.0000     0.8460 1.1630e-01   138.1695      8.546     12.395    10.6777 0.0000e+00
      8.650     -0.244     9.0723     83.929     45.654  32.601560     0.3600     0.3156     0.0000     0.8460 1.1617e-01    35.3333      8.483     12.303    10.6883 0.0000e+00
      8.584     -0.249     9.1856     83.865     45.640  32.589625     0.3600     0.3156     0.0000     0.8460 1.1625e-01    35.3634      8.418     12.209    10.6969 0.0000e+00
      8.519     -0.249     9.2610     83.661     45.632  32.580822     0.3600     0.2927     0.0000     0.8460 1.1605e-01    35.2281      8.354     12.117    10.7017 0.0000e+00
      8.455     -0.245     9.3031     83.374     45.637  32.580726     2.1600     0.2965     0.0852     1.5228 1.1623e-01    35.1830      8.292     12.026    10.7033 0.0000e+00
      8.392     -0.238     9.3179     83.052     45.656  32.589310     2.1600     0.1782     0.0852     1.5228 1.1617e-01    10.3683      8.230     11.936    10.7025 0.0000e+00
      8.331     -0.229     9.3113     82.730     45.680  32.600943     2.1600     0.1935     0.0852     1.5228 1.1617e-01    10.3683      8.170     11.849    10.7003 0.0000e+00
      8.273     -0.220     9.2894     82.428     45.702  32.610804     2.1600     0.1554     0.0852     1.5228 1.1623e-01    10.2781      8.113     11.767    10.6970 0.0000e+00
      8.219     -0.213     9.2584     82.156     45.713  32.613603     3.4200     0.1744     0.5112     0.8883 1.1630e-01    10.3081      8.060     11.690    10.6926 0.0000e+00
      8.168     -0.208     9.2238     81.910     45.710  32.606125     3.4200     0.1401     0.5112     0.8883 1.1612e-01     7.6478      8.010     11.618    10.6873 0.0000e+00
      8.118     -0.206     9.1893     81.684     45.694  32.590337     3.4200     0.1134     0.5112     0.8883 1.1617e-01     7.6177      7.961     11.547    10.6815 0.0000e+00
      8.068     -0.209     9.1571     81.473     45.676  32.573908     3.4200     0.1210     0.5112     0.8883 1.1628e-01     7.7981      7.912     11.475    10.6754 0.0000e+00
      8.016     -0.213     9.1281     81.273     45.666  32.564342     3.4200     0.1019     0.5112     0.8883 1.1617e-01     7.7680      7.861     11.401    10.6692 0.0000e+00
      7.961     -0.218     9.1021     81.087     45.656  32.555125     3.7800     0.1401     0.3834     0.6345 1.1607e-01     6.7159      7.807     11.323    10.6635 0.0000e+00
      7.903     -0.222     9.0780     80.920     45.642  32.543800     3.7800     0.1286     0.3834     0.6345 1.1605e-01     6.7310      7.750     11.240    10.6588 0.0000e+00
      7.842     -0.222     9.0553     80.782     45.645  32.543189     3.7800     0.1248     0.3834     0.6345 1.1605e-01     6.7610      7.691     11.154    10.6551 0.0000e+00
      7.783     -0.221     9.0337     80.670     45.663  32.553129     3.7800     0.1325     0.3834     0.6345 1.1635e-01     6.7911      7.632     11.069    10.6525 0.0000e+00
      7.726     -0.219     9.0134     80.581     45.677  32.560429     3.8700     0.1134     0.3834     0.4230 1.1617e-01     9.8422      7.577     10.989    10.6505 0.0000e+00
      7.674     -0.219     8.9953     80.515     45.678  32.559114     3.8700     0.1210     0.3834     0.4230 1.1607e-01     9.7520      7.525     10.914    10.6484 0.0000e+00
      7.623     -0.222     8.9805     80.470     45.671  32.552795     3.8700     0.1286     0.3834     0.4230 1.1610e-01     9.7670      7.475     10.842    10.6458 0.0000e+00
      7.570     -0.228     8.9687     80.442     45.658  32.543745     3.8700     0.1363     0.3834     0.4230 1.1612e-01     9.8873      7.423     10.766    10.6426 0.0000e+00
      7.511     -0.237     8.9594     80.432     45.642  32.533514     3.9600     0.1058     0.2130     0.2961 1.1623e-01     8.3843      7.366     10.684    10.6394 0.0000e+00
      7.447     -0.247     8.9527     80.427     45.632  32.527293     3.9600     0.1286     0.2130     0.2961 1.1605e-01     8.4444      7.303     10.593    10.6369 0.0000e+00
      7.379     -0.255     8.9479     80.421     45.625  32.523424     3.9600     0.1477     0.2130     0.2961 1.1628e-01     8.4143      7.237     10.496    10.6357 0.0000e+00
      7.311     -0.258     8.9448     80.411     45.620  32.520876     3.9600     0.1363     0.2130     0.2961 1.1615e-01     8.4444      7.169     10.399    10.6359 0.0000e+00
      7.243     -0.257     8.9433     80.399     45.622  32.522930     4.0500     0.1286     0.3408     0.3384 1.1607e-01     5.7540      7.103     10.302    10.6371 0.0000e+00
      7.176     -0.253     8.9425     80.391     45.621  32.522212     4.0500     0.1363     0.3408     0.3384 1.1617e-01     5.7540      7.038     10.207    10.6386 0.0000e+00
      7.112     -0.246     8.9415     80.387     45.611  32.514570     4.0500     0.1439     0.3408     0.3384 1.1617e-01     5.7390      6.975     10.116    10.6398 0.0000e+00
      7.050     -0.239     8.9403     80.383     45.605  32.509848     4.0500     0.1210     0.3408     0.3384 1.1610e-01     5.9043      6.914     10.028    10.6405 0.0000e+00
      6.992     -0.235     8.9389     80.381     45.608  32.510747     4.0500     0.1325     0.3408     0.3384 1.1615e-01     5.3332      6.857      9.945    10.6411 0.0000e+00
      6.935     -0.233     8.9379     80.386     45.607  32.509587     4.0500     0.1477     0.2556     0.2538 1.1630e-01     5.2430      6.801      9.864    10.6414 0.0000e+00
      6.878     -0.233     8.9374     80.403     45.602  32.506057     4.0500     0.1363     0.2556     0.2538 1.1600e-01     5.3181      6.745      9.783    10.6411 0.0000e+00
      6.819     -0.235     8.9373     80.429     45.598  32.503177     4.0500     0.1096     0.2556     0.2538 1.1602e-01     5.3332      6.688      9.699    10.6403 0.0000e+00
      6.759     -0.238     8.9373     80.463     45.588  32.496219     4.0500     0.0943     0.2556     0.2538 1.1605e-01     5.3332      6.628      9.613    10.6393 0.0000e+00
      6.697     -0.241     8.9380     80.499     45.576  32.487287     4.1400     0.1325     0.2556     0.2538 1.1623e-01     5.3332      6.567      9.524    10.6385 0.0000e+00
      6.634     -0.243     8.9398     80.541     45.576  32.485882     4.1400     0.1439     0.2556     0.2538 1.1620e-01     5.3181      6.506      9.436    10.6384 0.0000e+00
      6.571     -0.242     8.9427     80.590     45.580  32.487668     4.1400     0.1172     0.2556     0.2538 1.1633e-01     5.2129      6.444      9.346    10.6386 0.0000e+00
      6.508     -0.239     8.9464     80.644     45.579  32.485201     4.1400     0.1363     0.2556     0.2538 1.1617e-01     5.2881      6.382      9.256    10.6386 0.0000e+00
      6.446     -0.236     8.9507     80.700     45.583  32.485744     4.0500     0.1248     0.2556     0.2538 1.1617e-01     5.2881      6.321      9.168    10.6380 0.0000e+00
      6.386     -0.233     8.9555     80.751     45.596  32.493401     4.0500     0.1286     0.2556     0.2538 1.1612e-01     5.4233      6.263      9.084    10.6367 0.0000e+00
      6.329     -0.231     8.9613     80.790     45.604  32.498334     4.0500     0.1019     0.2556     0.2538 1.1615e-01     5.3031      6.207      9.002    10.6350 0.0000e+00
      6.273     -0.230     8.9678     80.813     45.604  32.497896     4.0500     0.1515     0.2556     0.2538 1.1597e-01     5.3632      6.152      8.922    10.6331 0.0000e+00
      6.216     -0.231     8.9744     80.818     45.601  32.495933     3.8700     0.1286     0.1704     0.1269 1.1623e-01     5.3782      6.096      8.841    10.6312 0.0000e+00
      6.157     -0.234     8.9804     80.803     45.595  32.491920     3.8700     0.1286     0.1704     0.1269 1.1612e-01     5.3181      6.038      8.757    10.6295 0.0000e+00
      6.096     -0.236     8.9850     80.771     45.584  32.484788     3.8700     0.1210     0.1704     0.1269 1.1615e-01     5.3332      5.978      8.670    10.6284 0.0000e+00
      6.034     -0.237     8.9876     80.728     45.572  32.476594     3.8700     0.1286     0.1704     0.1269 1.1617e-01     5.4684      5.918      8.582    10.6280 0.0000e+00
      5.972     -0.235     8.9882     80.681     45.562  32.469115     3.8700     0.1401     0.1704     0.1269 1.1633e-01     5.2580      5.857      8.495    10.6281 0.0000e+00
      5.911     -0.230     8.9865     80.642     45.555  32.464317     3.8700     0.1210     0.1704     0.1692 1.1607e-01     5.3782      5.797      8.408    10.6286 0.0000e+00
      5.851     -0.222     8.9827     80.625     45.561  32.468842     3.8700     0.1172     0.1704     0.1692 1.1620e-01     5.3482      5.738      8.323    10.6291 0.0000e+00
      5.795     -0.214     8.9779     80.630     45.572  32.475976     3.8700     0.1515     0.1704     0.1692 1.1628e-01     5.3332      5.683      8.242    10.6294 0.0000e+00
      5.742     -0.206     8.9727     80.654     45.572  32.475738     3.8700     0.1058     0.1704     0.1692 1.1612e-01     5.3031      5.631      8.168    10.6294 0.0000e+00
      5.693     -0.199     8.9684     80.696     45.572  32.475986     3.8700     0.1401     0.0852     0.1269 1.1623e-01     5.3031      5.583      8.098    10.6294 0.0000e+00
      5.646     -0.195     8.9664     80.747     45.585  32.484709     3.8700     0.1286     0.0852     0.1269 1.1612e-01     5.3632      5.537      8.031    10.6293 0.0000e+00
      5.598     -0.194     8.9670     80.788     45.601  32.496310     3.8700     0.1019     0.0852     0.1269 1.1628e-01     5.3482      5.490      7.963    10.6292 0.0000e+00
      5.549     -0.195     8.9698     80.804     45.603  32.498042     3.8700     0.1515     0.0852     0.1269 1.1610e-01     5.2730      5.442      7.893    10.6289 0.0000e+00
      5.499     -0.198     8.9744     80.790     45.598  32.494326     3.9600     0.1554     0.2130     0.1269 1.1623e-01     5.3031      5.393      7.822    10.6288 0.0000e+00
      5.449     -0.201     8.9802     80.755     45.599  32.496055     3.9600     0.1363     0.2130     0.1269 1.1612e-01     5.2881      5.343      7.750    10.6288 0.0000e+00
      5.396     -0.202     8.9847     80.717     45.604  32.499728     3.9600     0.1210     0.2130     0.1269 1.1620e-01     5.3181      5.292      7.675    10.6288 0.0000e+00
      5.342     -0.200     8.9864     80.690     45.612  32.506325     3.9600     0.1172     0.2130     0.1269 1.1628e-01     5.3181      5.239      7.599    10.6289 0.0000e+00
      5.289     -0.198     8.9848     80.675     45.622  32.513644     3.9600     0.1363     0.2130     0.1269 1.1597e-01     5.2881      5.187      7.523    10.6292 0.0000e+00
      5.238     -0.195     8.9808     80.672     45.619  32.511756     3.8700     0.1286     0.1278     0.1269 1.1605e-01     5.3181      5.137      7.451    10.6296 0.0000e+00
      5.191     -0.194     8.9764     80.685     45.608  32.504118     3.8700     0.1096     0.1278     0.1269 1.1623e-01     5.3332      5.091      7.384    10.6303 0.0000e+00
      5.146     -0.195     8.9733     80.705     45.601  32.500575     3.8700     0.1286     0.1278     0.1269 1.1605e-01     5.2881      5.046      7.319    10.6310 0.0000e+00
      5.099     -0.200     8.9715     80.721     45.597  32.500181     3.8700     0.1286     0.1278     0.1269 1.1623e-01     5.4083      5.000      7.253    10.6313 0.0000e+00
      5.048     -0.206     8.9712     80.716     45.591  32.498872     3.8700     0.1286     0.1278     0.1269 1.1617e-01     5.2730      4.951      7.180    10.6315 0.0000e+00
      4.993     -0.214     8.9725     80.677     45.583  32.496299     3.8700     0.1325     0.1278     0.1269 1.1612e-01     5.3332      4.897      7.102    10.6319 0.0000e+00
      4.935     -0.221     8.9745     80.610     45.572  32.491775     3.8700     0.1286     0.1278     0.1269 1.1630e-01     5.3332      4.840      7.020    10.6332 0.0000e+00
      4.876     -0.225     8.9757     80.527     45.568  32.492015     3.8700     0.1363     0.1278     0.1269 1.1607e-01     5.2730      4.782      6.936    10.6357 0.0000e+00
      4.818     -0.225     8.9745     80.435     45.582  32.505005     3.8700     0.1210     0.1278     0.1269 1.1605e-01     5.3332      4.725      6.852    10.6391 0.0000e+00
      4.759     -0.223     8.9695     80.339     45.597  32.518367     3.8700     0.1286     0.1278     0.1269 1.1633e-01     5.3031      4.667      6.770    10.6428 0.0000e+00
      4.702     -0.217     8.9613     80.239     45.602  32.523782     3.8700     0.1286     0.1278     0.1269 1.1612e-01     5.3482      4.611      6.688    10.6463 0.0000e+00
      4.646     -0.211     8.9513     80.133     45.610  32.530615     3.8700     0.1401     0.1278     0.1269 1.1630e-01     5.3782      4.556      6.608    10.6496 0.0000e+00
      4.593     -0.206     8.9404     80.014     45.617  32.536729     3.7800     0.1210     0.1704     0.2538 1.1628e-01     5.2430      4.504      6.533    10.6528 0.0000e+00
      4.544     -0.202     8.9292     79.875     45.620  32.539793     3.7800     0.1019     0.1704     0.2538 1.1625e-01     5.3332      4.456      6.463    10.6555 0.0000e+00
      4.496     -0.199     8.9176     79.716     45.625  32.544584     3.7800     0.1210     0.1704     0.2538 1.1623e-01     5.2580      4.409      6.395    10.6577 0.0000e+00
      4.446     -0.197     8.9055     79.537     45.627  32.548419     3.7800     0.1363     0.1704     0.2538 1.1625e-01     5.3482      4.360      6.324    10.6592 0.0000e+00
      4.395     -0.196     8.8920     79.341     45.623  32.548362     3.7800     0.1134     0.1704     0.2538 1.1605e-01     5.2730      4.310      6.251    10.6603 0.0000e+00
      4.342     -0.193     8.8764     79.133     45.613  32.544397     3.7800     0.0905     0.1278     0.1692 1.1617e-01     5.2279      4.258      6.176    10.6615 0.0000e+00
      4.291     -0.188     8.8583     78.917     45.602  32.539427     3.7800     0.1286     0.1278     0.1692 1.1623e-01     5.2580      4.208      6.103    10.6632 0.0000e+00
      4.243     -0.180     8.8379     78.705     45.599  32.540048     3.7800     0.1134     0.1278     0.1692 1.1587e-01     5.3782      4.161      6.034    10.6656 0.0000e+00
      4.198     -0.169     8.8156     78.501     45.605  32.546426     3.7800     0.1325     0.1278     0.1692 1.1630e-01     5.3332      4.116      5.970    10.6687 0.0000e+00
      4.156     -0.158     8.7917     78.307     45.605  32.548380     3.8700     0.1363     0.1278     0.2115 1.1605e-01     5.3181      4.076      5.911    10.6721 0.0000e+00
      4.118     -0.148     8.7671     78.119     45.595  32.542471     3.8700     0.1515     0.1278     0.2115 1.1617e-01     5.3933      4.038      5.857    10.6753 0.0000e+00
      4.083     -0.139     8.7429     77.925     45.588  32.539005     3.8700     0.1172     0.1278     0.2115 1.1600e-01     5.3782      4.004      5.807    10.6781 0.0000e+00
      4.050     -0.132     8.7198     77.724     45.596  32.544978     3.8700     0.1515     0.1278     0.2115 1.1612e-01     5.3031      3.971      5.760    10.6804 0.0000e+00
      4.018     -0.128     8.6979     77.514     45.613  32.558024     3.8700     0.1973     0.1278     0.1269 1.1623e-01     7.7530      3.940      5.715    10.6822 0.0000e+00
      3.987     -0.127     8.6767     77.293     45.629  32.569739     3.8700     0.1897     0.1278     0.1269 1.1633e-01     7.6628      3.910      5.671    10.6837 0.0000e+00
      3.956     -0.130     8.6550     77.064     45.634  32.575326     3.8700     0.1973     0.1278     0.1269 1.1648e-01     7.5426      3.880      5.627    10.6850 0.0000e+00
      3.925     -0.135     8.6324     76.847     45.636  32.580235     3.8700     0.1821     0.1278     0.1269 1.1617e-01     7.7079      3.849      5.582    10.6858 0.0000e+00
      3.891     -0.142     8.6090     76.657     45.643  32.589736     3.8700     0.1477     0.1278     0.1692 1.1896e-01     9.6017      3.816      5.535    10.6865 0.0000e+00
      3.854     -0.149     8.5843     76.494     45.654  32.602403     3.8700     0.1210     0.1278     0.1692 1.1605e-01     9.5115      3.779      5.481    10.6875 0.0000e+00
      3.813     -0.155     8.5585     76.345     45.662  32.613692     3.8700     0.1286     0.1278     0.1692 1.1671e-01     9.5416      3.739      5.423    10.6895 0.0000e+00
      3.770     -0.161     8.5336     76.195     45.668  32.622654     3.8700     0.1363     0.1278     0.1692 1.1607e-01     9.5717      3.697      5.362    10.6931 0.0000e+00
      3.727     -0.165     8.5116     76.035     45.674  32.631678     3.8700     0.1325     0.1278     0.1692 1.2557e-01     5.6187      3.655      5.301    10.6981 0.0000e+00
      3.686     -0.169     8.4923     75.854     45.683  32.643172     3.8700     0.1096     0.1278     0.1269 1.1635e-01     5.4985      3.614      5.243    10.7037 0.0000e+00
      3.644     -0.172     8.4746     75.641     45.693  32.656239     3.8700     0.1210     0.1278     0.1269 1.2585e-01     5.5736      3.574      5.183    10.7094 0.0000e+00
      3.600     -0.173     8.4570     75.384     45.690  32.662483     3.8700     0.1325     0.1278     0.1269 1.1615e-01     5.6638      3.530      5.121    10.7147 0.0000e+00
      3.554     -0.173     8.4383     75.074     45.674  32.659608     3.8700     0.1210     0.1278     0.1269 1.2648e-01     5.9193      3.485      5.055    10.7195 0.0000e+00
      3.507     -0.170     8.4172     74.698     45.662  32.658731     3.8700     0.1172     0.1278     0.0846 1.5796e-01     6.0245      3.439      4.988    10.7249 0.0000e+00
      3.461     -0.165     8.3921     74.230     45.666  32.667538     3.8700     0.1515     0.1278     0.0846 1.5217e-01     6.0396      3.394      4.923    10.7321 0.0000e+00
      3.419     -0.159     8.3619     73.644     45.682  32.684418     3.8700     0.1172     0.1278     0.0846 1.6084e-01     6.1147      3.353      4.863    10.7412 0.0000e+00
      3.381     -0.154     8.3256     72.941     45.701  32.705951     3.8700     0.1172     0.1278     0.0846 1.6816e-01     5.9344      3.316      4.809    10.7508 0.0000e+00
      3.346     -0.152     8.2823     72.165     45.723  32.733919     3.8700     0.1210     0.1278     0.0846 1.5882e-01     6.1147      3.281      4.759    10.7591 0.0000e+00
      3.311     -0.153     8.2293     71.368     45.744  32.765877     3.8700     0.1592     0.1278     0.0846 1.5511e-01     6.1298      3.247      4.709    10.7656 0.0000e+00
      3.273     -0.156     8.1631     70.570     45.749  32.790547     3.8700     0.1286     0.1278     0.0846 1.6971e-01     6.0696      3.210      4.655    10.7716 0.0000e+00
      3.232     -0.161     8.0837     69.734     45.743  32.808568     3.8700     0.1210     0.1278     0.0846 1.8236e-01     6.1899      3.169      4.597    10.7799 0.0000e+00
      3.188     -0.165     7.9953     68.786     45.742  32.828705     3.8700     0.1134     0.1278     0.1692 1.6740e-01     6.1899      3.126      4.534    10.7932 0.0000e+00
      3.143     -0.167     7.9036     67.651     45.748  32.852370     3.8700     0.1401     0.1278     0.1692 1.5941e-01     6.2951      3.082      4.471    10.8121 0.0000e+00
      3.099     -0.166     7.8111     66.293     45.755  32.877951     3.8700     0.1134     0.1278     0.1692 1.9884e-01     6.2500      3.039      4.408    10.8351 0.0000e+00
      3.056     -0.160     7.7144     64.717     45.762  32.904351     3.8700     0.1019     0.1278     0.1692 1.9927e-01     6.3101      2.997      4.347    10.8589 0.0000e+00
      3.014     -0.150     7.6056     62.961     45.763  32.926728     3.8700     0.1439     0.1278     0.1692 2.3180e-01     6.3402      2.956      4.287    10.8815 0.0000e+00
      2.975     -0.139     7.4765     61.076     45.757  32.939167     3.9600     0.1515     0.1704     0.1269 2.1149e-01     6.2350      2.918      4.232    10.9031 0.0000e+00
      2.941     -0.127     7.3226     59.107     45.745  32.941028     3.9600     0.1592     0.1704     0.1269 2.1441e-01     6.2500      2.884      4.183    10.9255 0.0000e+00
      2.912     -0.116     7.1446     57.108     45.740  32.940727     3.9600     0.1782     0.1704     0.1269 2.5434e-01     6.5055      2.856      4.141    10.9492 0.0000e+00
      2.886     -0.108     6.9470     55.156     45.747  32.946104     3.9600     0.1706     0.1704     0.1269 1.8702e-01     6.5205      2.831      4.105    10.9724 0.0000e+00
      2.863     -0.105     6.7359     53.359     45.752  32.954633     4.0500     0.2011     0.1278     0.1692 2.0614e-01     6.5055      2.808      4.072    10.9915 0.0000e+00
      2.840     -0.106     6.5169     51.851     45.749  32.968588     4.0500     0.1782     0.1278     0.1692 2.2315e-01     6.4754      2.785      4.039    11.0027 0.0000e+00
      2.814     -0.111     6.2959     50.737     45.733  32.983768     4.0500     0.2049     0.1278     0.1692 1.9703e-01     6.7911      2.760      4.003    11.0061 0.0000e+00
      2.785     -0.117     6.0806     50.026     45.694  32.988382     4.0500     0.1935     0.1278     0.1692 2.1675e-01     6.8512      2.732      3.962    11.0067 0.0000e+00
      2.752     -0.121     5.8819     49.604     45.645  32.983661     4.0500     0.1897     0.1278     0.2115 2.6208e-01     6.7159      2.699      3.915    11.0123 0.0000e+00
      2.717     -0.123     5.7135     49.272     45.601  32.976268     4.0500     0.1859     0.1278     0.2115 2.2870e-01     6.7310      2.665      3.865    11.0293 0.0000e+00
      2.683     -0.121     5.5869     48.843     45.567  32.972156     4.0500     0.1935     0.1278     0.2115 2.2930e-01     6.2049      2.631      3.816    11.0588 0.0000e+00
      2.651     -0.116     5.5041     48.196     45.542  32.974188     4.0500     0.1973     0.1278     0.2115 2.4147e-01     6.2049      2.600      3.771    11.0947 0.0000e+00
      2.623     -0.109     5.4533     47.297     45.523  32.982905     4.0500     0.1630     0.1704     0.2115 2.4173e-01     6.2951      2.573      3.732    11.1283 0.0000e+00
      2.597     -0.102     5.4136     46.176     45.508  32.996673     4.0500     0.1935     0.1704     0.2115 2.7094e-01     6.3101      2.547      3.695    11.1550 0.0000e+00
      2.573     -0.093     5.3637     44.920     45.491  33.011242     4.0500     0.2507     0.1704     0.2115 2.8286e-01     5.7841      2.523      3.660    11.1769 0.0000e+00
      2.549     -0.085     5.2900     43.662     45.466  33.022578     4.0500     0.2545     0.1704     0.2115 2.7142e-01     5.8592      2.500      3.626    11.1991 0.0000e+00
      2.528     -0.077     5.1885     42.527     45.424  33.025783     4.0500     0.2355     0.1704     0.2115 2.5970e-01     5.8292      2.479      3.595    11.2240 0.0000e+00
      2.509     -0.068     5.0625     41.569     45.359  33.021711     4.0500     0.2431     0.1278     0.1692 2.8169e-01     5.7089      2.460      3.568    11.2514 0.0000e+00
      2.493     -0.059     4.9215     40.729     45.276  33.013238     4.0500     0.2469     0.1278     0.1692 2.7396e-01     7.6328      2.444      3.545    11.2810 0.0000e+00
      2.479     -0.050     4.7802     39.874     45.177  32.998109     4.0500     0.2660     0.1278     0.1692 2.5606e-01     7.6779      2.431      3.526    11.3130 0.0000e+00
      2.468     -0.042     4.6520     38.841     45.078  32.984172     4.0500     0.2622     0.1278     0.1692 2.9491e-01     7.6328      2.420      3.511    11.3511 0.0000e+00
      2.459     -0.035     4.5423     37.495     45.003  32.983555     4.0500     0.2584     0.1278     0.2115 2.8913e-01     7.7079      2.412      3.498    11.3989 0.0000e+00
      2.452     -0.029     4.4448     35.775     44.965  32.996097     4.0500     0.2240     0.1278     0.2115 3.0415e-01    11.3452      2.404      3.487    11.4561 0.0000e+00
      2.445     -0.024     4.3452     33.691     44.964  33.013264     4.0500     0.1782     0.1278     0.2115 2.8588e-01    11.1649      2.398      3.478    11.5189 0.0000e+00
      2.440     -0.021     4.2264     31.334     44.991  33.027751     4.0500     0.1821     0.1278     0.2115 3.0139e-01    11.1649      2.393      3.471    11.5834 0.0000e+00
      2.436     -0.020     4.0742     28.901     45.040  33.043421     3.9600     0.1859     0.1278     0.2538 3.1539e-01    11.2400      2.388      3.464    11.6436 0.0000e+00
      2.432     -0.019     3.8830     26.702     45.096  33.060489     3.9600     0.1935     0.1278     0.2538 2.5690e-01    10.8642      2.384      3.458    11.6886 0.0000e+00
      2.427     -0.020     3.6548     25.079     45.144  33.071625     3.9600     0.2049     0.1278     0.2538 2.9491e-01     8.9554      2.380      3.452    11.7081 0.0000e+00
      2.423     -0.023     3.3991     24.323     45.183  33.079796     3.9600     0.2164     0.1278     0.2538 2.9832e-01     8.9404      2.375      3.445    11.7018 0.0000e+00
      2.417     -0.028     3.1365     24.597     45.214  33.087180     3.9600     0.1706     0.1278     0.2538 2.5993e-01     8.8803      2.370      3.438    11.6799 0.0000e+00
      2.411     -0.034     2.8996     25.877     45.223  33.083865     3.9600     0.1782     0.1278     0.2115 3.0112e-01     8.8803      2.363      3.428    11.6529 0.0000e+00
      2.402     -0.043     2.7250     27.973     45.204  33.065005     3.9600     0.1935     0.1278     0.2115 2.5001e-01     7.8883      2.355      3.417    11.6265 0.0000e+00
      2.391     -0.053     2.6444     30.578     45.160  33.037452     3.9600     0.2011     0.1278     0.2115 3.2591e-01     7.9334      2.344      3.401    11.6040 0.0000e+00
      2.376     -0.065     2.6753     33.329     45.093  33.005741     3.9600     0.2088     0.1278     0.2115 3.3474e-01     7.8432      2.330      3.380    11.5872 0.0000e+00
      2.358     -0.077     2.8153     35.865     44.999  32.969336     4.0500     0.1859     0.1278     0.1269 3.1925e-01     7.8883      2.312      3.354    11.5760 0.0000e+00
      2.336     -0.090     3.0435     37.904     44.883  32.934373     4.0500     0.1821     0.1278     0.1269 3.3408e-01     9.8422      2.291      3.323    11.5712 0.0000e+00
      2.311     -0.103     3.3264     39.290     44.770  32.915295     4.0500     0.1859     0.1278     0.1269 3.3957e-01     9.8272      2.267      3.288    11.5764 0.0000e+00
      2.284     -0.115     3.6239     39.965     44.673  32.910978     4.0500     0.1897     0.1278     0.1269 3.3707e-01     9.7370      2.240      3.248    11.5954 0.0000e+00
      2.252     -0.127     3.8964     39.924     44.571  32.900471     3.8700     0.1935     0.1278     0.1692 3.5435e-01     9.8121      2.209      3.204    11.6316 0.0000e+00
      2.218     -0.141     4.1128     39.230     44.445  32.873052     3.8700     0.2202     0.1278     0.1692 3.7682e-01    10.3232      2.176      3.155    11.6875 0.0000e+00
      2.182     -0.157     4.2567     38.013     44.295  32.841212     3.8700     0.1973     0.1278     0.1692 3.6072e-01    10.4434      2.140      3.104    11.7591 0.0000e+00
      2.142     -0.174     4.3229     36.450     44.135  32.822208     3.8700     0.1897     0.1278     0.1692 3.6593e-01    10.3232      2.101      3.047    11.8347 0.0000e+00
      2.097     -0.192     4.3124     34.709     43.969  32.816916     3.9600     0.1897     0.1278     0.1692 3.7666e-01    10.2180      2.057      2.983    11.9069 0.0000e+00
      2.045     -0.210     4.2313     32.898     43.793  32.817989     3.9600     0.1935     0.1278     0.1692 3.9365e-01     8.5646      2.006      2.909    11.9814 0.0000e+00
      1.987     -0.226     4.0927     31.080     43.604  32.823735     3.9600     0.1859     0.1278     0.1692 4.6951e-01     8.6097      1.949      2.826    12.0715 0.0000e+00
      1.925     -0.241     3.9154     29.313     43.384  32.831731     3.9600     0.1973     0.1278     0.1692 4.4574e-01     8.6398      1.888      2.738    12.1856 0.0000e+00
      1.861     -0.255     3.7180     27.656     43.128  32.854014     3.9600     0.1897     0.1278     0.1692 4.6242e-01     8.6698      1.825      2.646    12.3215 0.0000e+00
      1.795     -0.265     3.5129     26.161     42.851  32.914354     3.9600     0.2431     0.0852     0.1692 4.9421e-01     5.7690      1.760      2.553    12.4741 0.0000e+00
      1.726     -0.273     3.3072     24.844     42.568  33.018950     3.9600     0.2736     0.0852     0.1692 5.9061e-01     5.7841      1.693      2.455    12.6450 0.0000e+00
      1.655     -0.279     3.1063     23.691     42.274  33.148180     3.9600     0.2431     0.0852     0.1692 6.5142e-01     5.9193      1.622      2.353    12.8468 0.0000e+00
      1.580     -0.282     2.9153     22.703     41.957  33.273149     3.9600     0.2355     0.0852     0.1692 8.3508e-01     5.7991      1.549      2.247    13.1001 0.0000e+00
      1.505     -0.281     2.7391     21.925     41.648  33.389575     4.1400     0.4796     0.0852     0.1269 8.9560e-01     3.3792      1.476      2.141    13.4192 0.0000e+00
      1.432     -0.275     2.5800     21.422     41.386  33.500795     4.1400     0.5101     0.0852     0.1269 1.0803e+00     3.4394      1.404      2.036    13.7994 0.0000e+00
      1.360     -0.268     2.4374     21.256     41.158  33.590932     4.1400     0.5254     0.0852     0.1269 1.2297e+00     3.5596      1.334      1.935    14.2238 0.0000e+00
      1.293     -0.260     2.3125     21.479     40.946  33.648385     4.1400     0.4949     0.0852     0.1269 1.3513e+00     3.4544      1.268      1.839    14.6695 0.0000e+00
      1.231     -0.255     2.2113     22.107     40.762  33.684522     4.3200     1.0785     0.0426     0.3807 1.3661e+00     2.4624      1.207      1.750    15.1014 0.0000e+00
      1.171     -0.255     2.1411     23.110     40.629  33.720869     4.3200     1.0747     0.0426     0.3807 1.3634e+00     2.5225      1.148      1.665    15.4872 0.0000e+00
      1.110     -0.258     2.1079     24.439     40.556  33.777023     4.3200     1.1052     0.0426     0.3807 1.4610e+00     2.5676      1.088      1.579    15.8174 0.0000e+00
      1.045     -0.264     2.1159     26.032     40.516  33.858059     4.3200     1.0747     0.0426     0.3807 1.8518e+00     2.4624      1.025      1.486    16.0960 0.0000e+00
      0.975     -0.271     2.1659     27.816     40.458  33.942019     4.5900     1.1930     0.0852     1.0998 3.1756e+00     2.8832      0.956      1.386    16.3235 0.0000e+00
      0.901     -0.275     2.2547     29.751     40.354  34.009708     4.5900     1.2159     0.0852     1.0998 4.9417e+00     2.9133      0.883      1.281    16.5007 0.0000e+00
      0.827     -0.276     2.3764     31.866     40.212  34.063340     4.5900     1.2120     0.0852     1.0998 6.4559e+00     2.8983      0.811      1.176    16.6437 0.0000e+00
      0.755     -0.272     2.5230     34.265     40.046  34.105343     4.5900     1.2197     0.0852     1.0998 7.2660e+00     2.9434      0.740      1.074    16.7842 0.0000e+00
      0.686     -0.264     2.6860     37.109     39.891  34.142965     4.5900     2.1619     0.0852     1.0998 9.8924e+00     5.7690      0.672      0.975    16.9479 0.0000e+00
      0.618     -0.252     2.8608     40.570     39.776  34.184269     4.7700     2.1390     0.0852     1.3536 1.4267e+01     5.7540      0.606      0.879    17.1402 0.0000e+00
      0.555     -0.239     3.0500     44.733     39.701  34.230371     4.7700     2.1543     0.0852     1.3536 1.8602e+01     5.9043      0.544      0.789    17.3562 0.0000e+00
      0.496     -0.227     3.2641     49.445     39.656  34.285647     4.7700     2.0932     0.0852     1.3536 1.9483e+01     5.7239      0.486      0.705    17.5836 0.0000e+00
      0.441     -0.213     3.5198     54.370     39.614  34.339094     4.7700     2.5739     0.0852     1.3536 2.0606e+01     8.5346      0.433      0.627    17.7953 0.0000e+00
      0.389     -0.199     3.8349     59.170     39.552  34.375260     5.4000     2.5701     0.1704     4.7799 2.5608e+01     8.5646      0.382      0.553    17.9699 0.0000e+00
      0.339     -0.184     4.2171     63.646     39.482  34.399833     5.4000     2.5548     0.1704     4.7799 3.7221e+01     8.6698      0.333      0.482    18.1087 0.0000e+00
      0.292     -0.168     4.6510     67.742     39.426  34.427291     5.4000     2.6006     0.1704     4.7799 5.4041e+01     8.6999      0.287      0.415    18.2268 0.0000e+00
      0.250     -0.153     5.1033     71.427     39.402  34.472881     5.4000     2.7723     0.1704     4.7799 6.4330e+01     9.3763      0.245      0.355    18.3398 0.0000e+00
      0.214     -0.140     5.5422     74.626     39.406  34.540841     6.3000     2.7608     0.2982    13.2399 6.2172e+01     9.4815      0.209      0.304    18.4529 0.0000e+00
      0.183     -0.130     5.9497     77.274     39.418  34.621568     6.3000     2.7723     0.2982    13.2399 5.5844e+01     9.3462      0.180      0.260    18.5608 0.0000e+00
      0.156     -0.127     6.3214     79.402     39.451  34.724710     6.3000     2.7494     0.2982    13.2399 4.9964e+01     9.4063      0.153      0.222    18.6571 0.0000e+00
      0.128     -0.131     6.6550     81.160     39.564  34.893619     6.3000     2.8600     0.2982    13.2399 4.8742e+01     9.7520      0.126      0.182    18.7409 0.0000e+00
      0.098     -0.142     6.9426     82.746     39.798  35.169379     6.2100     2.9058     0.2982    14.2974 4.7922e+01     9.9324      0.096      0.139    18.8213 0.0000e+00
      0.062     -0.157     7.1766     84.324     40.144  35.560171     6.2100     2.8829     0.2982    14.2974 5.0697e+01     9.8272      0.061      0.088    18.9093 0.0000e+00
      0.019     -0.170     7.3608     86.059     40.581  36.065242     6.2100     2.8867     0.2982    14.2974 7.7028e+01     9.7971      0.018      0.027    19.0021 0.0000e+00
     -0.031     -0.178     7.5105     88.273     41.075  36.662820     6.2100     3.3140     0.2982    14.2974 1.7302e+02    16.2300     -0.030     -0.044    19.0886 0.0000e+00
     -0.084     -0.177     7.6438     91.470     41.530  37.266672     6.2100     3.3102     0.2982    14.2974 3.5219e+02    16.2601     -0.083     -0.120    19.1728 0.0000e+00
     -0.136     -0.168     7.7724     96.160     41.838  37.766482     6.2100     3.2987     0.2982    14.6358 3.9587e+02    16.1999     -0.133     -0.193    19.2763 0.0000e+00
     -0.181     -0.151     7.9078    102.668     41.932  38.073702     6.2100     3.3140     0.2982    14.6358 4.4467e+02    16.1398     -0.177     -0.257    19.4197 0.0000e+00
     -0.217     -0.128     8.0777    110.963     41.776  38.123691     6.2100     2.3717     0.2982    14.6358 4.6614e+02    20.8593     -0.213     -0.309    19.6120 0.0000e+00
     -0.245     -0.103     8.3277    120.569     41.366  37.886211     6.2100     2.3984     0.2982    14.6358 4.9571e+02    20.9344     -0.240     -0.349    19.8516 0.0000e+00
     -0.266     -0.080     8.7061    130.636     40.834  37.462348     6.4800     2.3832     0.4686    17.5968 4.9089e+02    20.8893     -0.261     -0.378    20.1216 0.0000e+00
     -0.281     -0.062     9.2460    140.066     40.407  37.063915     6.4800     2.3984     0.4686    17.5968 4.6716e+02    21.0096     -0.275     -0.399    20.3908 0.0000e+00
     -0.290     -0.050     9.9497    147.631     40.179  36.798577     6.4800     3.1995     0.4686    17.5968 4.3502e+02    20.1679     -0.285     -0.413    20.6241 0.0000e+00
     -0.297     -0.047    10.7804    152.202     40.165  36.712422     6.4800     3.1805     0.4686    17.5968 4.0854e+02    20.1679     -0.292     -0.423    20.7911 0.0000e+00
     -0.304     -0.052    11.6684    153.051     40.408  36.879516     6.4800     3.2148     0.3834    17.9352 3.6904e+02    20.2581     -0.298     -0.433    20.8702 0.0000e+00
     -0.313     -0.064    12.5185    150.124     40.789  37.223592     6.4800     3.1766     0.3834    17.9352 3.3256e+02    20.2731     -0.307     -0.446    20.8609 0.0000e+00
     -0.328     -0.082    13.2165    144.120     41.028  37.509594     6.4800     3.2262     0.3834    17.9352 3.0747e+02    17.2070     -0.322     -0.467    20.7913 0.0000e+00
     -0.350     -0.105    13.6522    136.297     40.844  37.469144     6.4800     3.2453     0.3834    17.9352 3.4320e+02    17.2220     -0.343     -0.498    20.7025 0.0000e+00
     -0.379     -0.127    13.7487    128.143     39.940  36.792354     6.4800     3.2377     0.3834    17.9352 3.8686e+02    17.1018     -0.372     -0.539    20.6364 0.0000e+00
     -0.414     -0.146    13.4892    120.939     38.034  35.175943     6.3000     3.2300     0.3834    15.9048 4.5267e+02    17.2070     -0.406     -0.589    20.6361 0.0000e+00
     -0.455     -0.159    12.9306    115.416     34.787  32.276040     6.3000     1.9712     0.3834    15.9048 4.7659e+02    80.5590     -0.446     -0.648    20.7260 0.0000e+00
     -0.500     -0.163    12.1919    111.717     29.498  27.424334     6.3000     1.9597     0.3834    15.9048 4.9722e+02    80.6792     -0.491     -0.712    20.8922 0.0000e+00
     -0.545     -0.160    11.4182    109.637     22.803  21.223446     6.3000     1.9559     0.3834    15.9048 4.5228e+02    80.5740     -0.534     -0.775    21.0942 0.0000e+00
     -0.583     -0.151    10.7344    108.829     17.274  16.087448     6.3900     1.9559     0.3834    17.8506 3.1731e+02    80.5740     -0.572     -0.830    21.2884 0.0000e+00
     -0.613     -0.138    10.2106    108.921     13.929  12.978242     6.3900    -0.1041     0.3834    17.8506 1.9896e+02    -0.4234     -0.602     -0.873    21.4438 0.0000e+00
     -0.636     -0.126     9.8604    109.542     12.080  11.256588     6.3900    -0.1155     0.3834    17.8506 1.5356e+02    -0.3482     -0.624     -0.906    21.5485 0.0000e+00
     -0.654     -0.116     9.6631    110.241     11.592  10.801571     6.3900    -0.1269     0.3834    17.8506 1.0823e+02    -0.4685     -0.641     -0.931    21.6087 0.0000e+00
     -0.667     -0.113     9.5850    110.545     11.722  10.922069    13.4100    -0.1269     0.9372     0.8037 9.2473e+01    -0.3332     -0.654     -0.949    21.6364 0.0000e+00
     -0.676 -9.990e-29     9.5909 -9.990e-29 -9.990e-29 -9.990e-29    13.4100 -9.990e-29     0.9372     0.8037 8.4059e+01 -9.990e-29     -0.663     -0.962    21.6423 0.0000e+00
     -0.682 -9.990e-29     9.6464 -9.990e-29 -9.990e-29 -9.990e-29    13.4100 -9.990e-29     0.9372     0.8037 7.1713e+01 -9.990e-29     -0.669     -0.971    21.6347 0.0000e+00
     -0.686 -9.990e-29     9.7098 -9.990e-29 -9.990e-29 -9.990e-29    13.4100 -9.990e-29     0.9372     0.8037 6.5929e+01 -9.990e-29     -0.673     -0.976    21.6227 0.0000e+00
     -0.687 -9.990e-29     9.7376 -9.990e-29 -9.990e-29 -9.990e-29     0.0000 -9.990e-29    -0.0852     0.4653 6.5075e+01 -9.990e-29     -0.674     -0.978    21.6169 0.0000e+00
