* Sea-Bird SBE19plus  Data File:
* FileName = C:\R\Reservoirs\Data\DataNotYetUploadedToEDI\Raw_CTD\RawDownloads\062623_fcr50_S8188_0010.hex
* Software version 2.8.0.119
* Temperature SN = 8188
* Conductivity SN = 8188
* System UpLoad Time = Jul 03 2023 16:33:13
* <ApplicationData>
* <Seaterm232>
* <SoftwareVersion>2.8.0.119</SoftwareVersion>
* <BuildDate>07-Nov-2018</BuildDate>
* </Seaterm232>
* </ApplicationData>
* <InstrumentState>
* <HardwareData DeviceType='SBE19plus' SerialNumber='01908188'>
*
*    <Manufacturer>Sea-Bird Electronics, Inc.</Manufacturer>
*
*    <FirmwareVersion>3.1.8</FirmwareVersion>
*
*    <FirmwareDate>Mar  9 2016 16:22:29</FirmwareDate>
*
*    <CommandSetVersion>1.4</CommandSetVersion>
*
*    <PCBAssembly PCBSerialNum='260079' AssemblyNum='41054K'/>
*
*    <PCBAssembly PCBSerialNum='260083' AssemblyNum='41059E'/>
*
*    <PCBAssembly PCBSerialNum='260085' AssemblyNum='41606B'/>
*
*    <PCBAssembly PCBSerialNum='260081' AssemblyNum='41967C'/>
*
*    <MfgDate>30 Mar 2022</MfgDate>
*
*    <InternalSensors>
*
*       <Sensor id='Main Temperature'>
*
*          <type>temperature0</type>
*
*          <SerialNumber>01908188</SerialNumber>
*
*       </Sensor>
*
*       <Sensor id='Main Conductivity'>
*
*          <type>conductivity-0</type>
*
*          <SerialNumber>01908188</SerialNumber>
*
*       </Sensor>
*
*       <Sensor id='Main Pressure'>
*
*          <type>strain-0</type>
*
*          <SerialNumber>12220741</SerialNumber>
*
*       </Sensor>
*
*    </InternalSensors>
*
*    <ExternalSensors>
*
*       <Sensor id='volt 0'>
*
*          <type>CHL</type>
*
*          <SerialNumber>FLNTURT-7096</SerialNumber>
*
*       </Sensor>
*
*       <Sensor id='volt 1'>
*
*          <type>NTU</type>
*
*          <SerialNumber>FLNTURT-7096</SerialNumber>
*
*       </Sensor>
*
*       <Sensor id='volt 2'>
*
*          <type>OXY</type>
*
*          <SerialNumber>43-4269</SerialNumber>
*
*       </Sensor>
*
*       <Sensor id='volt 3'>
*
*          <type>not assigned</type>
*
*          <SerialNumber>not assigned</SerialNumber>
*
*       </Sensor>
*
*       <Sensor id='volt 4'>
*
*          <type>PAR</type>
*
*          <SerialNumber>PARLOGICSW-2209</SerialNumber>
*
*       </Sensor>
*
*       <Sensor id='volt 5'>
*
*          <type>not assigned</type>
*
*          <SerialNumber>not assigned</SerialNumber>
*
*       </Sensor>
*
*       <Sensor id='serial'>
*
*          <type>WETLABS</type>
*
*          <SerialNumber>FL3-7350</SerialNumber>
*
*       </Sensor>
*
*    </ExternalSensors>
*
* </HardwareData>
* <StatusData DeviceType='SBE19plus' SerialNumber='01908188'>
*
*    <DateTime>2023-07-03T16:29:20</DateTime>
*
*    <LoggingState>not logging</LoggingState>
*
*    <EventSummary numEvents='0'/>
*
*    <Power>
*
*       <vMain>12.2</vMain>
*
*       <vLith>8.8</vLith>
*
*       <iMain>61.8</iMain>
*
*       <iPump>48.2</iPump>
*
*       <iExt01>22.4</iExt01>
*
*       <iExt2345>20.3</iExt2345>
*
*       <iSerial>45.4</iSerial>
*
*    </Power>
*
*    <MemorySummary>
*
*       <Bytes>665325</Bytes>
*
*       <Samples>26613</Samples>
*
*       <SamplesFree>2605312</SamplesFree>
*
*       <SampleLength>25</SampleLength>
*
*       <Profiles>25</Profiles>
*
*    </MemorySummary>
*
* </StatusData>
* <ConfigurationData DeviceType='SBE19plus' SerialNumber='01908188'>
*
*    <ProfileMode>
*
*       <ScansToAverage>1</ScansToAverage>
*
*       <MinimumCondFreq>5</MinimumCondFreq>
*
*       <PumpDelay>40</PumpDelay>
*
*       <AutoRun>no</AutoRun>
*
*       <IgnoreSwitch>no</IgnoreSwitch>
*
*    </ProfileMode>
*
*    <Battery>
*
*       <Type>alkaline</Type>
*
*       <CutOff>7.5</CutOff>
*
*    </Battery>
*
*    <DataChannels>
*
*       <ExtVolt0>yes</ExtVolt0>
*
*       <ExtVolt1>yes</ExtVolt1>
*
*       <ExtVolt2>yes</ExtVolt2>
*
*       <ExtVolt3>no</ExtVolt3>
*
*       <ExtVolt4>yes</ExtVolt4>
*
*       <ExtVolt5>no</ExtVolt5>
*
*       <SBE38>no</SBE38>
*
*       <WETLABS>yes</WETLABS>
*
*       <OPTODE>no</OPTODE>
*
*       <SBE63>no</SBE63>
*
*       <SeaFET>no</SeaFET>
*
*       <GTD>no</GTD>
*
*    </DataChannels>
*
*    <EchoCharacters>yes</EchoCharacters>
*
*    <OutputExecutedTag>yes</OutputExecutedTag>
*
*    <OutputFormat>raw HEX</OutputFormat>
*
* </ConfigurationData>
* <CalibrationCoefficients DeviceType='SBE19plus' SerialNumber='01908188'>
*
*    <Calibration format='TEMP1' id='Main Temperature'>
*
*       <SerialNum>01908188</SerialNum>
*
*       <CalDate>21-Aug-22</CalDate>
*
*       <TA0>1.265284e-03</TA0>
*
*       <TA1>2.691806e-04</TA1>
*
*       <TA2>-5.655711e-07</TA2>
*
*       <TA3>1.602369e-07</TA3>
*
*       <TOFFSET>0.000000e+00</TOFFSET>
*
*    </Calibration>
*
*    <Calibration format='WBCOND0' id='Main Conductivity'>
*
*       <SerialNum>01908188</SerialNum>
*
*       <CalDate>21-Aug-22</CalDate>
*
*       <G>-1.009562e+00</G>
*
*       <H>1.439229e-01</H>
*
*       <I>-4.343583e-04</I>
*
*       <J>5.328694e-05</J>
*
*       <CPCOR>-9.570000e-08</CPCOR>
*
*       <CTCOR>3.250000e-06</CTCOR>
*
*       <CSLOPE>1.000000e+00</CSLOPE>
*
*    </Calibration>
*
*    <Calibration format='STRAIN0' id='Main Pressure'>
*
*       <SerialNum>12220741</SerialNum>
*
*       <CalDate>11-Aug-22</CalDate>
*
*       <PA0>1.627942e-01</PA0>
*
*       <PA1>4.835849e-04</PA1>
*
*       <PA2>-3.975488e-12</PA2>
*
*       <PTCA0>5.244803e+05</PTCA0>
*
*       <PTCA1>2.817194e+01</PTCA1>
*
*       <PTCA2>-5.842684e-01</PTCA2>
*
*       <PTCB0>2.522087e+01</PTCB0>
*
*       <PTCB1>5.750000e-04</PTCB1>
*
*       <PTCB2>0.000000e+00</PTCB2>
*
*       <PTEMPA0>-5.709556e+01</PTEMPA0>
*
*       <PTEMPA1>5.248567e+01</PTEMPA1>
*
*       <PTEMPA2>-2.281498e-01</PTEMPA2>
*
*       <POFFSET>-4.700000e-02</POFFSET>
*
*       <PRANGE>1.600000e+02</PRANGE>
*
*    </Calibration>
*
*    <Calibration format='VOLT0' id='Volt 0'>
*
*       <OFFSET>-4.657200e-02</OFFSET>
*
*       <SLOPE>1.248989e+00</SLOPE>
*
*    </Calibration>
*
*    <Calibration format='VOLT0' id='Volt 1'>
*
*       <OFFSET>-4.600800e-02</OFFSET>
*
*       <SLOPE>1.249849e+00</SLOPE>
*
*    </Calibration>
*
*    <Calibration format='VOLT0' id='Volt 2'>
*
*       <OFFSET>-4.668000e-02</OFFSET>
*
*       <SLOPE>1.250379e+00</SLOPE>
*
*    </Calibration>
*
*    <Calibration format='VOLT0' id='Volt 3'>
*
*       <OFFSET>-4.643200e-02</OFFSET>
*
*       <SLOPE>1.251002e+00</SLOPE>
*
*    </Calibration>
*
*    <Calibration format='VOLT0' id='Volt 4'>
*
*       <OFFSET>-4.606100e-02</OFFSET>
*
*       <SLOPE>1.249962e+00</SLOPE>
*
*    </Calibration>
*
*    <Calibration format='VOLT0' id='Volt 5'>
*
*       <OFFSET>-4.642700e-02</OFFSET>
*
*       <SLOPE>1.248530e+00</SLOPE>
*
*    </Calibration>
*
*    <Calibration format='FREQ0' id='external frequency channel'>
*
*       <EXTFREQSF>1.000018e+00</EXTFREQSF>
*
*    </Calibration>
*
* </CalibrationCoefficients>
* <EventCounters DeviceType='SBE19plus' SerialNumber='01908188'>
*
*    <EventSummary numEvents='0'/>
*
* </EventCounters></InstrumentState>
* <Headers>
*
* cast  10 27 Jun 2023 13:56:43 samples 11104 to 11902, avg = 1, stop = mag switch
*
# nquan = 16
# nvalues = 799                         
# units = specified
# name 0 = depFM: Depth [fresh water, m]
# name 1 = dz/dtM: Descent Rate [m/s]
# name 2 = sbeox0Mg/L: Oxygen, SBE 43 [mg/l]
# name 3 = sbeox0PS: Oxygen, SBE 43 [% saturation]
# name 4 = specc: Specific Conductance [uS/cm]
# name 5 = c0uS/cm: Conductivity [uS/cm]
# name 6 = wetCDOM: Fluorescence, WET Labs CDOM [mg/m^3]
# name 7 = flECO-AFL: Fluorescence, WET Labs ECO-AFL/FL [mg/m^3]
# name 8 = flECO-AFL1: Fluorescence, WET Labs ECO-AFL/FL, 2 [mg/m^3]
# name 9 = flECO-AFL2: Fluorescence, WET Labs ECO-AFL/FL, 3 [mg/m^3]
# name 10 = par/sat/log: PAR/Logarithmic, Satlantic
# name 11 = turbWETntu0: Turbidity, WET Labs ECO [NTU]
# name 12 = prdM: Pressure, Strain Gauge [db]
# name 13 = prdE: Pressure, Strain Gauge [psi]
# name 14 = tv290C: Temperature [ITS-90, deg C]
# name 15 = flag:  0.000e+00
# span 0 =     -0.724,      8.030       
# span 1 =     -0.460,      0.143       
# span 2 =    -0.8955,    15.3002       
# span 3 =     -9.013,    182.837       
# span 4 =     -3.625,     61.963       
# span 5 =  -3.188353,  48.061474       
# span 6 =    -4.5000,     7.0200       
# span 7 =    -0.1460,     3.7641       
# span 8 =    -2.1300,     1.4484       
# span 9 =    -2.0304,    21.6576       
# span 10 = 1.1587e-01, 1.1632e+03      
# span 11 =    -0.4985,   154.1916      
# span 12 =     -0.710,      7.874      
# span 13 =     -1.029,     11.421      
# span 14 =    10.5158,    24.5655      
# span 15 = 0.0000e+00, 0.0000e+00      
# interval = seconds: 0.25
# start_time = Jun 27 2023 13:56:43 [Instrument's time stamp, header]
# bad_flag = -9.990e-29
# <Sensors count="10" >
#   <sensor Channel="1" >
#     <!-- Count, Temperature -->
#     <TemperatureSensor SensorID="58" >
#       <SerialNumber>8188</SerialNumber>
#       <CalibrationDate>21-Aug-22</CalibrationDate>
#       <A0>1.26528397e-003</A0>
#       <A1>2.69180636e-004</A1>
#       <A2>-5.65571102e-007</A2>
#       <A3>1.60236871e-007</A3>
#       <Slope>1.00000000</Slope>
#       <Offset>0.0000</Offset>
#     </TemperatureSensor>
#   </sensor>
#   <sensor Channel="2" >
#     <!-- Frequency 0, Conductivity -->
#     <ConductivitySensor SensorID="3" >
#       <SerialNumber>8188</SerialNumber>
#       <CalibrationDate>21-Aug-22</CalibrationDate>
#       <UseG_J>1</UseG_J>
#       <!-- Cell const and series R are applicable only for wide range sensors. -->
#       <SeriesR>0.0000</SeriesR>
#       <CellConst>2000.0000</CellConst>
#       <ConductivityType>0</ConductivityType>
#       <Coefficients equation="0" >
#         <A>0.00000000e+000</A>
#         <B>0.00000000e+000</B>
#         <C>0.00000000e+000</C>
#         <D>0.00000000e+000</D>
#         <M>0.0</M>
#         <CPcor>-9.57000000e-008</CPcor>
#       </Coefficients>
#       <Coefficients equation="1" >
#         <G>-1.00956200e+000</G>
#         <H>1.43922862e-001</H>
#         <I>-4.34358337e-004</I>
#         <J>5.32869425e-005</J>
#         <CPcor>-9.57000000e-008</CPcor>
#         <CTcor>3.2500e-006</CTcor>
#         <!-- WBOTC not applicable unless ConductivityType = 1. -->
#         <WBOTC>0.00000000e+000</WBOTC>
#       </Coefficients>
#       <Slope>1.00000000</Slope>
#       <Offset>0.00000</Offset>
#     </ConductivitySensor>
#   </sensor>
#   <sensor Channel="3" >
#     <!-- Count, Pressure, Strain Gauge -->
#     <PressureSensor SensorID="46" >
#       <SerialNumber>8188</SerialNumber>
#       <CalibrationDate>11-Aug-22</CalibrationDate>
#       <PA0>1.62794185e-001</PA0>
#       <PA1>4.83584930e-004</PA1>
#       <PA2>-3.97548787e-012</PA2>
#       <PTEMPA0>-5.70955636e+001</PTEMPA0>
#       <PTEMPA1>5.24856726e+001</PTEMPA1>
#       <PTEMPA2>-2.28149804e-001</PTEMPA2>
#       <PTCA0>5.24480263e+005</PTCA0>
#       <PTCA1>2.81719406e+001</PTCA1>
#       <PTCA2>-5.84268386e-001</PTCA2>
#       <PTCB0>2.52208750e+001</PTCB0>
#       <PTCB1>5.75000000e-004</PTCB1>
#       <PTCB2>0.00000000e+000</PTCB2>
#       <Offset>0.000000</Offset>
#     </PressureSensor>
#   </sensor>
#   <sensor Channel="4" >
#     <!-- A/D voltage 0, Fluorometer, WET Labs ECO-AFL/FL -->
#     <FluoroWetlabECO_AFL_FL_Sensor SensorID="20" >
#       <SerialNumber>FLNTURT-7096</SerialNumber>
#       <CalibrationDate>01-Sep-2022</CalibrationDate>
#       <ScaleFactor>5.00000000e+001</ScaleFactor>
#       <!-- Dark output -->
#       <Vblank>0.0680</Vblank>
#     </FluoroWetlabECO_AFL_FL_Sensor>
#   </sensor>
#   <sensor Channel="5" >
#     <!-- A/D voltage 1, Turbidity Meter, WET Labs, ECO-NTU -->
#     <TurbidityMeter SensorID="67" >
#       <SerialNumber>FLNTURT-7096</SerialNumber>
#       <CalibrationDate>01-Sep-2022</CalibrationDate>
#       <ScaleFactor>197.000000</ScaleFactor>
#       <!-- Dark output -->
#       <DarkVoltage>0.067000</DarkVoltage>
#     </TurbidityMeter>
#   </sensor>
#   <sensor Channel="6" >
#     <!-- A/D voltage 2, Oxygen, SBE 43 -->
#     <OxygenSensor SensorID="38" >
#       <SerialNumber>4269</SerialNumber>
#       <CalibrationDate>16-Aug-22</CalibrationDate>
#       <Use2007Equation>1</Use2007Equation>
#       <CalibrationCoefficients equation="0" >
#         <!-- Coefficients for Owens-Millard equation. -->
#         <Boc>0.0000</Boc>
#         <Soc>0.0000e+000</Soc>
#         <offset>0.0000</offset>
#         <Pcor>0.00e+000</Pcor>
#         <Tcor>0.0000</Tcor>
#         <Tau>0.0</Tau>
#       </CalibrationCoefficients>
#       <CalibrationCoefficients equation="1" >
#         <!-- Coefficients for Sea-Bird equation - SBE calibration in 2007 and later. -->
#         <Soc>4.2506e-001</Soc>
#         <offset>-0.4922</offset>
#         <A>-4.5893e-003</A>
#         <B> 1.8653e-004</B>
#         <C>-2.0781e-006</C>
#         <D0> 2.5826e+000</D0>
#         <D1> 1.92634e-004</D1>
#         <D2>-4.64803e-002</D2>
#         <E> 3.6000e-002</E>
#         <Tau20> 2.3100</Tau20>
#         <H1>-3.3000e-002</H1>
#         <H2> 5.0000e+003</H2>
#         <H3> 1.4500e+003</H3>
#       </CalibrationCoefficients>
#     </OxygenSensor>
#   </sensor>
#   <sensor Channel="7" >
#     <!-- A/D voltage 3, PAR/Logarithmic, Satlantic -->
#     <PARLog_SatlanticSensor SensorID="76" >
#       <SerialNumber>2209</SerialNumber>
#       <CalibrationDate>14-Jan-2022</CalibrationDate>
#       <a0>9.8861e-001</a0>
#       <a1>8.0845e-001</a1>
#       <Im>1.3589e+000</Im>
#       <Multiplier>1.0000e+000</Multiplier>
#     </PARLog_SatlanticSensor>
#   </sensor>
#   <sensor Channel="8" >
#     <!-- Serial RS-232, Fluorometer, WET Labs ECO-AFL/FL, 2 -->
#     <FluoroWetlabECO_AFL_FL_Sensor SensorID="20" >
#       <SerialNumber>FL3-7350</SerialNumber>
#       <CalibrationDate>10-Mar-2022</CalibrationDate>
#       <ScaleFactor>4.26000000e-002</ScaleFactor>
#       <!-- Dark output -->
#       <Vblank>50.0000</Vblank>
#     </FluoroWetlabECO_AFL_FL_Sensor>
#   </sensor>
#   <sensor Channel="9" >
#     <!-- Serial RS-232, Fluorometer, WET Labs ECO-AFL/FL, 3 -->
#     <FluoroWetlabECO_AFL_FL_Sensor SensorID="20" >
#       <SerialNumber>FL3-7350</SerialNumber>
#       <CalibrationDate>10-Mar-2022</CalibrationDate>
#       <ScaleFactor>4.23000000e-002</ScaleFactor>
#       <!-- Dark output -->
#       <Vblank>48.0000</Vblank>
#     </FluoroWetlabECO_AFL_FL_Sensor>
#   </sensor>
#   <sensor Channel="10" >
#     <!-- Serial RS-232, Fluorometer, WET Labs ECO CDOM -->
#     <FluoroWetlabCDOM_Sensor SensorID="19" >
#       <SerialNumber>FL3-7350</SerialNumber>
#       <CalibrationDate>10-Mar-2022</CalibrationDate>
#       <ScaleFactor>0.090</ScaleFactor>
#       <!-- Dark output -->
#       <Vblank>50.000</Vblank>
#     </FluoroWetlabCDOM_Sensor>
#   </sensor>
# </Sensors>
# datcnv_date = Jul 03 2023 16:59:40, 7.26.7.129 [datcnv_vars = 15]
# datcnv_in = C:\R\Reservoirs\Data\DataNotYetUploadedToEDI\Raw_CTD\RawDownloads\062723_fcrXX_S8188010.hex C:\R\Reservoirs\Data\DataNotYetUploadedToEDI\Raw_CTD\RawDownloads\SBE19plusV2_8188_start20221003.xmlcon
# datcnv_skipover = 0
# datcnv_ox_hysteresis_correction = yes
# datcnv_ox_tau_correction = yes
# filter_date = Jul 03 2023 17:00:14, 7.26.7.129
# filter_in = C:\R\Reservoirs\Data\DataNotYetUploadedToEDI\Raw_CTD\RawDownloads\062723_fcrXX_S8188010.cnv
# filter_low_pass_tc_A = 0.500
# filter_low_pass_tc_B = 1.000
# filter_low_pass_A_vars = sbeox0Mg/L sbeox0PS specc c0uS/cm tv290C
# filter_low_pass_B_vars = depFM dz/dtM prdM prdE
# alignctd_date = Jul 03 2023 17:00:42, 7.26.7.129
# alignctd_in = C:\R\Reservoirs\Data\DataNotYetUploadedToEDI\Raw_CTD\RawDownloads\062723_fcrXX_S8188010.cnv
# alignctd_adv = dz/dtM 1.000, sbeox0PS 1.000, specc 1.000, c0uS/cm 1.000, flECO-AFL 1.000, turbWETntu0 1.000                                                                                                                        
# file_type = ascii
*END*
     -0.722 -8.818e-09     8.5524     92.221      0.253   0.222869    -4.5000    -0.0850    -2.1300    -2.0304 5.8017e+02    -0.3182     -0.708     -1.027    19.0184 0.0000e+00
     -0.722 -1.134e-08     8.5519     92.231      0.250   0.219679    -4.5000    -0.1002    -2.1300    -2.0304 5.8472e+02    -0.3633     -0.708     -1.027    19.0176 0.0000e+00
     -0.722 -1.458e-08     8.5514     92.242      0.249   0.218747    -4.5000    -0.1155    -2.1300    -2.0304 5.9150e+02    -0.4835     -0.708     -1.027    19.0165 0.0000e+00
     -0.722 -1.874e-08     8.5513     92.250      0.245   0.215868     0.0000    -0.1079    -0.0426     0.0846 5.9175e+02    -0.4685     -0.708     -1.027    19.0152 0.0000e+00
     -0.722 -2.409e-08     8.5518     92.257      0.239   0.210276     0.0000    -0.1079    -0.0426     0.0846 5.9330e+02    -0.4084     -0.708     -1.028    19.0137 0.0000e+00
     -0.722 -3.098e-08     8.5530     92.263      0.232   0.204433     0.0000    -0.1346    -0.0426     0.0846 5.9407e+02    -0.3783     -0.708     -1.028    19.0122 0.0000e+00
     -0.723 -3.983e-08     8.5543     92.268      0.224   0.196782     0.0000    -0.1193    -0.0426     0.0846 5.9601e+02    -0.3783     -0.709     -1.028    19.0108 0.0000e+00
     -0.723 -5.121e-08     8.5553     92.272      0.215   0.189235     0.0000    -0.1193    -0.0426     0.0846 5.9511e+02    -0.3332     -0.709     -1.028    19.0093 0.0000e+00
     -0.723 -6.584e-08     8.5562     92.270      0.213   0.187690     0.0000    -0.1231     0.0000     0.0000 5.9511e+02    -0.3482     -0.709     -1.028    19.0078 0.0000e+00
     -0.723 -8.465e-08     8.5570     92.266      0.218   0.191733     0.0000    -0.1002     0.0000     0.0000 5.9511e+02    -0.4234     -0.709     -1.028    19.0064 0.0000e+00
     -0.723 -1.088e-07     8.5577     92.265      0.221   0.194535     0.0000    -0.0926     0.0000     0.0000 5.9653e+02    -0.4685     -0.709     -1.028    19.0051 0.0000e+00
     -0.723 -1.399e-07     8.5582     92.268      0.224   0.196842     0.0000    -0.1346     0.0000     0.0000 5.9640e+02    -0.4685     -0.709     -1.028    19.0038 0.0000e+00
     -0.723 -1.799e-07     8.5583     92.272      0.227   0.199271     0.0000    -0.1231    -0.0426     0.0000 5.9614e+02    -0.3332     -0.709     -1.028    19.0026 0.0000e+00
     -0.723 -2.313e-07     8.5582     92.275      0.226   0.198514     0.0000    -0.1079    -0.0426     0.0000 5.9718e+02    -0.2581     -0.709     -1.028    19.0014 0.0000e+00
     -0.723 -2.974e-07     8.5583     92.273      0.225   0.198325     0.0000    -0.1155    -0.0426     0.0000 5.9718e+02    -0.2881     -0.709     -1.028    19.0002 0.0000e+00
     -0.723 -3.824e-07     8.5587     92.270      0.226   0.198652     0.0000    -0.0850    -0.0426     0.0000 5.9770e+02    -0.4835     -0.709     -1.028    18.9991 0.0000e+00
     -0.723 -4.916e-07     8.5594     92.269      0.222   0.195628     0.0000    -0.1117     0.0000     0.0846 5.9809e+02    -0.3182     -0.709     -1.028    18.9979 0.0000e+00
     -0.723 -6.321e-07     8.5598     92.272      0.219   0.192402     0.0000    -0.1155     0.0000     0.0846 5.9861e+02    -0.4084     -0.709     -1.028    18.9968 0.0000e+00
     -0.723 -8.127e-07     8.5598     92.276      0.218   0.192067     0.0000    -0.1079     0.0000     0.0846 5.9601e+02    -0.4084     -0.709     -1.028    18.9957 0.0000e+00
     -0.723     -0.000     8.5597     92.276      0.221   0.194535     0.0000    -0.1155     0.0000     0.0846 5.9420e+02    -0.4835     -0.709     -1.028    18.9946 0.0000e+00
     -0.723     -0.000     8.5598     92.273      0.228   0.200462     0.0000    -0.1079     0.0000     0.0423 5.9356e+02    -0.3933     -0.709     -1.028    18.9936 0.0000e+00
     -0.723     -0.000     8.5603     92.270      0.240   0.211429     0.0000    -0.1117     0.0000     0.0423 5.9137e+02    -0.4835     -0.709     -1.029    18.9926 0.0000e+00
     -0.723     -0.000     8.5608     92.268      0.257   0.226407     0.0000    -0.1193     0.0000     0.0423 5.8842e+02    -0.4234     -0.709     -1.029    18.9916 0.0000e+00
     -0.723     -0.000     8.5610     92.269      0.270   0.237528     0.0000    -0.1079     0.0000     0.0423 5.7853e+02    -0.4084     -0.709     -1.029    18.9907 0.0000e+00
     -0.723     -0.000     8.5609     92.273      0.259   0.227987     0.0000    -0.1155     0.0000     0.0423 5.8118e+02    -0.3332     -0.709     -1.029    18.9899 0.0000e+00
     -0.723     -0.000     8.5607     92.277      0.208   0.183375     0.0000    -0.0850     0.0000     0.1269 5.8067e+02    -0.4084     -0.709     -1.029    18.9892 0.0000e+00
     -0.723     -0.000     8.5607     92.284      0.142   0.125408     0.0000    -0.1002     0.0000     0.1269 5.8067e+02    -0.4835     -0.709     -1.029    18.9885 0.0000e+00
     -0.723      0.000     8.5609     92.292      0.082   0.072237     0.0000    -0.1231     0.0000     0.1269 5.8118e+02    -0.4234     -0.709     -1.029    18.9878 0.0000e+00
     -0.723      0.000     8.5614     92.297      0.006   0.005730     0.0000    -0.1002     0.0000     0.1269 5.7129e+02    -0.4234     -0.709     -1.029    18.9870 0.0000e+00
     -0.723      0.000     8.5620     92.299     -0.096  -0.083941     0.0000    -0.1155     0.0000     0.0423 5.7240e+02    -0.4534     -0.709     -1.029    18.9861 0.0000e+00
     -0.723      0.000     8.5628     92.301     -0.253  -0.222665     0.0000    -0.1155     0.0000     0.0423 5.8549e+02    -0.3933     -0.709     -1.029    18.9851 0.0000e+00
     -0.723      0.000     8.5638     92.300     -0.529  -0.465228     0.0000    -0.1193     0.0000     0.0423 5.9163e+02    -0.3633     -0.709     -1.029    18.9840 0.0000e+00
     -0.723      0.000     8.5644     92.297     -1.039  -0.913878     0.0000    -0.1231     0.0000     0.0423 5.8996e+02    -0.4234     -0.709     -1.029    18.9829 0.0000e+00
     -0.723      0.000     8.5648     92.294     -1.874  -1.648716     0.0000    -0.0926     0.0000    -0.0846 5.8753e+02    -0.3783     -0.709     -1.029    18.9817 0.0000e+00
     -0.723      0.000     8.5651     92.291     -2.925  -2.573109     0.0000    -0.1041     0.0000    -0.0846 5.8472e+02    -0.3783     -0.709     -1.029    18.9804 0.0000e+00
     -0.723      0.000     8.5653     92.290     -3.625  -3.188353     0.0000    -0.1231     0.0000    -0.0846 5.7365e+02    -0.4234     -0.709     -1.029    18.9792 0.0000e+00
     -0.723      0.000     8.5653     92.290     -3.360  -2.954844     0.0000    -0.1231     0.0000    -0.0846 5.6733e+02    -0.3633     -0.709     -1.029    18.9780 0.0000e+00
     -0.723      0.000     8.5652     92.292     -2.407  -2.116667     0.0000    -0.1155     0.0000     0.0846 5.7390e+02    -0.3783     -0.709     -1.029    18.9770 0.0000e+00
     -0.723      0.000     8.5652     92.294     -1.463  -1.286427     0.0000    -0.1193     0.0000     0.0846 5.7590e+02    -0.1979     -0.709     -1.029    18.9761 0.0000e+00
     -0.723      0.000     8.5652     92.295     -0.797  -0.701353     0.0000    -0.0926     0.0000     0.0846 5.7265e+02    -0.3482     -0.709     -1.029    18.9752 0.0000e+00
     -0.724      0.000     8.5654     92.294     -0.373  -0.327999     0.0000    -0.1117     0.0000     0.0846 5.7042e+02    -0.4084     -0.710     -1.029    18.9744 0.0000e+00
     -0.724      0.000     8.5657     92.290     -0.087  -0.076687     0.0000    -0.0888     0.0000     0.0846 5.6634e+02    -0.4234     -0.710     -1.029    18.9735 0.0000e+00
     -0.724      0.000     8.5659     92.283      0.113   0.099827     0.0000    -0.1155     0.0000     0.0000 5.5573e+02    -0.3482     -0.710     -1.029    18.9727 0.0000e+00
     -0.724      0.000     8.5661     92.277      0.199   0.175461     0.0000    -0.0888     0.0000     0.0000 5.2624e+02    -0.4534     -0.710     -1.029    18.9718 0.0000e+00
     -0.724      0.000     8.5662     92.277      0.189   0.166431     0.0000    -0.1346     0.0000     0.0000 5.1571e+02    -0.4534     -0.710     -1.029    18.9710 0.0000e+00
     -0.724      0.000     8.5659     92.283      0.167   0.147435     0.0000    -0.0926     0.0000     0.0000 5.3733e+02    -0.4384     -0.710     -1.029    18.9703 0.0000e+00
     -0.724      0.000     8.5654     92.291      0.160   0.141086     0.0000    -0.0926     0.0000     0.0846 5.4687e+02    -0.2881     -0.710     -1.029    18.9696 0.0000e+00
     -0.724      0.000     8.5649     92.297      0.159   0.139761     0.0000    -0.0964     0.0000     0.0846 5.6425e+02    -0.3482     -0.710     -1.029    18.9691 0.0000e+00
     -0.724      0.001     8.5649     92.301      0.163   0.143105     0.0000    -0.1002     0.0000     0.0846 5.6278e+02    -0.4384     -0.710     -1.029    18.9686 0.0000e+00
     -0.723      0.001     8.5655     92.307      0.173   0.152012     0.0000    -0.1079     0.0000     0.0846 5.6193e+02    -0.4534     -0.709     -1.029    18.9682 0.0000e+00
     -0.723      0.001     8.5663     92.313      0.187   0.164901     0.0000    -0.1346     0.0426     0.0000 5.6022e+02    -0.4234     -0.709     -1.029    18.9679 0.0000e+00
     -0.723      0.001     8.5669     92.317      0.202   0.177302     0.0000    -0.1155     0.0426     0.0000 5.6229e+02    -0.3783     -0.709     -1.029    18.9676 0.0000e+00
     -0.723      0.001     8.5674     92.318      0.201   0.176705     0.0000    -0.1269     0.0426     0.0000 5.6487e+02    -0.2731     -0.709     -1.029    18.9672 0.0000e+00
     -0.723      0.000     8.5679     92.317      0.201   0.176789     0.0000    -0.0964     0.0426     0.0000 5.6022e+02    -0.3783     -0.709     -1.028    18.9669 0.0000e+00
     -0.723      0.000     8.5686     92.316      0.240   0.211188     0.0000    -0.1384    -0.0426     0.0846 5.6046e+02    -0.4534     -0.709     -1.028    18.9664 0.0000e+00
     -0.723      0.000     8.5691     92.315      0.309   0.271281     0.0000    -0.1155    -0.0426     0.0846 5.5937e+02    -0.4384     -0.709     -1.028    18.9659 0.0000e+00
     -0.723      0.000     8.5693     92.314      0.391   0.343438     0.0000    -0.1460    -0.0426     0.0846 5.5998e+02    -0.4084     -0.709     -1.028    18.9653 0.0000e+00
     -0.723      0.000     8.5693     92.312      0.508   0.446899     0.0000    -0.1193    -0.0426     0.0846 5.6168e+02    -0.2881     -0.709     -1.028    18.9648 0.0000e+00
     -0.723      0.000     8.5693     92.309      0.697   0.613209     0.0000    -0.1269    -0.0426     0.0846 5.6010e+02    -0.3933     -0.709     -1.029    18.9642 0.0000e+00
     -0.723      0.000     8.5693     92.306      1.008   0.886718     0.0000    -0.1269     0.0000     0.0423 5.4842e+02    -0.4084     -0.709     -1.029    18.9635 0.0000e+00
     -0.723     -0.001     8.5693     92.306      1.528   1.344314     0.0000    -0.1155     0.0000     0.0423 5.5045e+02    -0.4534     -0.709     -1.029    18.9629 0.0000e+00
     -0.723     -0.001     8.5692     92.307      2.401   2.111979     0.0000    -0.1155     0.0000     0.0423 5.4723e+02    -0.3182     -0.709     -1.029    18.9624 0.0000e+00
     -0.723      0.000     8.5689     92.307      3.854   3.390468     0.0000    -0.1269     0.0000     0.0423 5.4391e+02    -0.4835     -0.709     -1.029    18.9620 0.0000e+00
     -0.724      0.000     8.5687     92.306      6.209   5.461399     0.0000    -0.1231    -0.0426    -0.1269 5.3967e+02    -0.3633     -0.710     -1.029    18.9620 0.0000e+00
     -0.724      0.000     8.5686     92.303      9.030   7.943555     0.0000    -0.1269    -0.0426    -0.1269 5.3651e+02    -0.2581     -0.710     -1.029    18.9624 0.0000e+00
     -0.723      0.000     8.5685     92.299     10.928   9.617954     0.0000    -0.1269    -0.0426    -0.1269 5.8143e+02    -0.4534     -0.709     -1.029    18.9636 0.0000e+00
     -0.723      0.000     8.5681     92.292     11.272   9.928318     0.0000    -0.1269    -0.0426    -0.1269 5.6499e+02    -0.4384     -0.709     -1.029    18.9660 0.0000e+00
     -0.723      0.001     8.5670     92.271     10.661   9.400548     0.0000    -0.1117     0.0000     0.0846 5.8282e+02    -0.4084     -0.709     -1.029    18.9713 0.0000e+00
     -0.723      0.001     8.5646     92.231      9.774   8.627831     0.0000    -0.1269     0.0000     0.0846 6.0633e+02    -0.3182     -0.709     -1.028    18.9837 0.0000e+00
     -0.722      0.002     8.5598     92.174      8.843   7.815547     0.0000    -0.1041     0.0000     0.0846 6.3782e+02    -0.3933     -0.708     -1.028    19.0096 0.0000e+00
     -0.722      0.003     8.5519     92.104      7.998   7.079359     0.0000    -0.1269     0.0000     0.0846 7.1149e+02    -0.3332     -0.708     -1.027    19.0511 0.0000e+00
     -0.721      0.004     8.5414     92.024      7.330   6.499838     0.0000    -0.1193     0.0426    -0.1269 6.9680e+02    -0.4685     -0.707     -1.026    19.1011 0.0000e+00
     -0.720      0.006     8.5291     91.938      6.776   6.025285     0.0000    -0.1079     0.0426    -0.1269 7.2130e+02    -0.4685     -0.706     -1.024    19.1513 0.0000e+00
     -0.718      0.008     8.5157     91.859      6.373   5.691317     0.0000    -0.1269     0.0426    -0.1269 7.3971e+02    -0.2881     -0.704     -1.022    19.1995 0.0000e+00
     -0.716      0.010     8.5010     91.801      6.246   5.614540     0.0000    -0.1193     0.0426    -0.1269 7.7576e+02    -0.4985     -0.702     -1.019    19.2488 0.0000e+00
     -0.714      0.013     8.4842     91.772      6.536   5.928725     0.0000     0.0218     0.0426    -0.1269 7.8817e+02     1.5305     -0.700     -1.015    19.3044 0.0000e+00
     -0.710      0.016     8.4646     91.780      7.394   6.780933     2.6100     0.0295     0.1704     4.9914 7.9990e+02     1.6357     -0.697     -1.011    19.3752 0.0000e+00
     -0.706      0.021     8.4407     91.830      8.826   8.184848     2.6100     0.0142     0.1704     4.9914 8.1641e+02     1.4554     -0.693     -1.005    19.4758 0.0000e+00
     -0.701      0.025     8.4100     91.914     10.609   9.933418     2.6100    -0.0011     0.1704     4.9914 8.5100e+02     1.5606     -0.687     -0.997    19.6304 0.0000e+00
     -0.694      0.029     8.3668     92.015     12.792  12.069699     2.6100     2.2725     0.1704     4.9914 8.5471e+02    20.6489     -0.680     -0.987    19.8776 0.0000e+00
     -0.685      0.033     8.3058     92.114     15.618  14.821151     6.2100     2.2535     0.4260    13.2399 8.6049e+02    20.7240     -0.672     -0.975    20.2557 0.0000e+00
     -0.676      0.037     8.2310     92.201     18.829  17.946227     6.2100     2.2725     0.4260    13.2399 8.4989e+02    20.5587     -0.663     -0.961    20.7437 0.0000e+00
     -0.665      0.041     8.1574     92.273     22.204  21.245559     6.2100     2.2649     0.4260    13.2399 8.5397e+02    20.6489     -0.652     -0.946    21.2478 0.0000e+00
     -0.655      0.043     8.0969     92.332     26.132  25.096373     6.2100     2.3221     0.4260    13.2399 8.6292e+02    20.6639     -0.642     -0.931    21.6837 0.0000e+00
     -0.643      0.046     8.0508     92.379     30.720  29.605131     6.1200     2.3412     0.4260    13.1553 8.7977e+02    20.6940     -0.631     -0.915    22.0308 0.0000e+00
     -0.631      0.049     8.0147     92.419     35.087  33.925134     6.1200     2.3298     0.4260    13.1553 8.7863e+02    20.7240     -0.619     -0.898    22.3095 0.0000e+00
     -0.619      0.051     7.9839     92.461     38.418  37.265887     6.1200     2.3145     0.4260    13.1553 8.8322e+02    20.7390     -0.607     -0.880    22.5486 0.0000e+00
     -0.605      0.054     7.9552     92.516     40.748  39.646775     6.1200     2.3870     0.4260    13.1553 8.9695e+02    20.4835     -0.593     -0.861    22.7688 0.0000e+00
     -0.591      0.056     7.9273     92.589     42.417  41.387724     6.1200     2.3832     0.4260    13.1553 9.0951e+02    20.4384     -0.579     -0.841    22.9792 0.0000e+00
     -0.576      0.058     7.8999     92.686     43.666  42.717232     6.2100     2.3984     0.3834    13.9590 9.1248e+02    20.4384     -0.565     -0.820    23.1835 0.0000e+00
     -0.561      0.061     7.8740     92.821     44.608  43.742184     6.2100     2.4137     0.3834    13.9590 9.2265e+02    20.3934     -0.550     -0.798    23.3797 0.0000e+00
     -0.546      0.064     7.8518     93.013     45.317  44.531827     6.2100     2.4556     0.3834    13.9590 9.2889e+02    20.4535     -0.535     -0.776    23.5602 0.0000e+00
     -0.530      0.067     7.8340     93.293     45.860  45.150114     6.2100     2.4404     0.3834    13.9590 9.2808e+02    20.3483     -0.519     -0.753    23.7216 0.0000e+00
     -0.512      0.071     7.8209     93.708     46.274  45.635113     6.3000     2.4671     0.4686    14.3820 9.2587e+02    20.3934     -0.502     -0.728    23.8656 0.0000e+00
     -0.494      0.075     7.8134     94.341     46.563  45.989343     6.3000     2.4518     0.4686    14.3820 9.2909e+02    20.4384     -0.484     -0.702    23.9938 0.0000e+00
     -0.474      0.078     7.8129     95.331     46.727  46.210175     6.3000     2.4900     0.4686    14.3820 9.3071e+02    21.1449     -0.465     -0.674    24.1068 0.0000e+00
     -0.454      0.082     7.8217     96.900     46.785  46.314886     6.3000     2.4785     0.4686    14.3820 9.3273e+02    21.1749     -0.445     -0.645    24.2064 0.0000e+00
     -0.432      0.083     7.8435     99.238     46.746  46.309606     6.2100     2.4938     0.3408    14.0013 9.3557e+02    21.1449     -0.423     -0.614    24.2944 0.0000e+00
     -0.409      0.083     7.8851    102.353     46.626  46.212742     6.2100     2.5434     0.3408    14.0013 9.4518e+02    21.1749     -0.401     -0.581    24.3717 0.0000e+00
     -0.386      0.081     7.9581    106.080     46.523  46.121320     6.2100     2.5586     0.3408    14.0013 9.4087e+02    21.1148     -0.379     -0.549    24.4371 0.0000e+00
     -0.365      0.077     8.0813    110.025     46.527  46.127871     6.2100     2.5510     0.3408    14.0013 9.3578e+02    21.0847     -0.358     -0.519    24.4887 0.0000e+00
     -0.345      0.071     8.2706    113.610     46.621  46.220270     6.3000     2.5777     0.4260    15.3126 9.0655e+02    21.1749     -0.338     -0.490    24.5260 0.0000e+00
     -0.327      0.063     8.5266    116.319     46.741  46.335971     6.3000     2.5815     0.4260    15.3126 9.0754e+02    21.0998     -0.320     -0.465    24.5497 0.0000e+00
     -0.312      0.054     8.8352    117.844     46.839  46.426565     6.3000     2.6235     0.4260    15.3126 9.1189e+02    20.9044     -0.306     -0.443    24.5617 0.0000e+00
     -0.299      0.046     9.1632    118.105     46.898  46.474600     6.3000     2.6311     0.4260    15.3126 9.1387e+02    20.9795     -0.294     -0.426    24.5655 0.0000e+00
     -0.290      0.037     9.4620    117.237     46.926  46.488921     6.3000     2.6426     0.4260    15.3126 9.1427e+02    20.9795     -0.284     -0.412    24.5649 0.0000e+00
     -0.282      0.030     9.6882    115.541     46.926  46.477307     6.3900     2.6464     0.3834    16.8777 9.1706e+02    20.8593     -0.277     -0.401    24.5615 0.0000e+00
     -0.276      0.025     9.8165    113.383     46.899  46.440625     6.3900     2.6502     0.3834    16.8777 9.1745e+02    20.8893     -0.270     -0.392    24.5544 0.0000e+00
     -0.271      0.020     9.8404    111.121     46.848  46.380982     6.3900     2.6578     0.3834    16.8777 9.1725e+02    20.9344     -0.265     -0.385    24.5428 0.0000e+00
     -0.266      0.017     9.7705    109.031     46.780  46.306252     6.3900     2.6121     0.3834    16.8777 9.1686e+02    20.9946     -0.261     -0.379    24.5288 0.0000e+00
     -0.263      0.014     9.6315    107.234     46.712  46.230192     6.3900     2.6426     0.4260    15.9048 9.1905e+02    20.9645     -0.258     -0.374    24.5157 0.0000e+00
     -0.260      0.012     9.4535    105.721     46.646  46.156297     6.3900     2.7189     0.4260    15.9048 9.1965e+02    21.0847     -0.255     -0.369    24.5049 0.0000e+00
     -0.257      0.011     9.2664    104.444     46.589  46.094585     6.3900     2.6845     0.4260    15.9048 9.2065e+02    21.2200     -0.252     -0.366    24.4961 0.0000e+00
     -0.255      0.009     9.0936    103.349     46.564  46.068229     6.3900     2.6922     0.4260    15.9048 9.2627e+02    21.2050     -0.250     -0.362    24.4876 0.0000e+00
     -0.252      0.008     8.9453    102.371     46.566  46.070201     6.3000     2.6883     0.3834    16.2855 9.3334e+02    21.1749     -0.248     -0.359    24.4784 0.0000e+00
     -0.251      0.007     8.8205    101.468     46.573  46.077249     6.3000     2.7151     0.3834    16.2855 9.3802e+02    20.9795     -0.246     -0.356    24.4698 0.0000e+00
     -0.249      0.006     8.7149    100.637     46.579  46.083327     6.3000     2.7189     0.3834    16.2855 9.4272e+02    20.9194     -0.244     -0.354    24.4641 0.0000e+00
     -0.248      0.006     8.6240     99.896     46.579  46.082128     6.3000     2.7303     0.3834    16.2855 9.4067e+02    20.9795     -0.243     -0.353    24.4620 0.0000e+00
     -0.247      0.006     8.5424     99.273     46.569  46.069371     6.3000     2.7303     0.3834    16.1586 9.3131e+02    20.9044     -0.242     -0.351    24.4619 0.0000e+00
     -0.246      0.006     8.4669     98.787     46.570  46.065432     6.3000     2.6998     0.3834    16.1586 9.2828e+02    20.8893     -0.241     -0.350    24.4623 0.0000e+00
     -0.244      0.007     8.3976     98.455     46.601  46.089075     6.3000     2.6883     0.3834    16.1586 9.5301e+02    20.8893     -0.240     -0.348    24.4622 0.0000e+00
     -0.242      0.007     8.3360     98.323     46.656  46.138678     6.3000     2.7036     0.3834    16.1586 9.7162e+02    20.8743     -0.237     -0.344    24.4609 0.0000e+00
     -0.240      0.007     8.2845     98.455     46.723  46.201708     6.3000     2.6883     0.3834    16.1586 9.7798e+02    20.9495     -0.235     -0.341    24.4577 0.0000e+00
     -0.237      0.007     8.2448     98.890     46.779  46.255344     6.3000     2.7151     0.3834    15.9048 9.8245e+02    20.8142     -0.233     -0.338    24.4522 0.0000e+00
     -0.236      0.006     8.2181     99.604     46.810  46.284165     6.3000     2.7112     0.3834    15.9048 9.8523e+02    20.8893     -0.231     -0.335    24.4454 0.0000e+00
     -0.235      0.004     8.2079    100.499     46.817  46.287930     6.3000     2.6769     0.3834    15.9048 9.8609e+02    20.9495     -0.230     -0.334    24.4396 0.0000e+00
     -0.234      0.003     8.2195    101.457     46.807  46.275571     6.3000     2.6960     0.3834    15.9048 9.8480e+02    20.9795     -0.229     -0.333    24.4362 0.0000e+00
     -0.234      0.002     8.2562    102.390     46.791  46.257660     6.3900     2.6998     0.3834    16.5393 9.8780e+02    21.2050     -0.229     -0.332    24.4341 0.0000e+00
     -0.233      0.001     8.3161    103.277     46.775  46.241312     6.3900     2.7227     0.3834    16.5393 9.8759e+02    21.2651     -0.229     -0.332    24.4320 0.0000e+00
     -0.233      0.001     8.3912    104.169     46.762  46.228111     6.3900     2.7151     0.3834    16.5393 9.9017e+02    21.1449     -0.228     -0.332    24.4293 0.0000e+00
     -0.233      0.001     8.4716    105.155     46.747  46.214537     6.3900     2.7227     0.3834    16.5393 9.9621e+02    21.1449     -0.228     -0.331    24.4264 0.0000e+00
     -0.233      0.001     8.5499    106.312     46.736  46.204896     6.4800     2.6998     0.4686    16.9623 1.0034e+03    20.9495     -0.228     -0.331    24.4243 0.0000e+00
     -0.233      0.001     8.6241    107.681     46.734  46.204545     6.4800     2.6960     0.4686    16.9623 1.0199e+03    20.9495     -0.228     -0.331    24.4235 0.0000e+00
     -0.233      0.001     8.6986    109.253     46.733  46.205463     6.4800     2.7036     0.4686    16.9623 1.0362e+03    20.9044     -0.228     -0.331    24.4237 0.0000e+00
     -0.233      0.001     8.7807    110.956     46.726  46.199969     6.4800     2.7151     0.4686    16.9623 1.0387e+03    20.9795     -0.228     -0.331    24.4247 0.0000e+00
     -0.232      0.002     8.8770    112.673     46.712  46.186598     6.4800     2.7074     0.4686    16.9623 1.0470e+03    21.1148     -0.227     -0.330    24.4262 0.0000e+00
     -0.232      0.003     8.9911    114.280     46.685  46.161785     6.3900     2.7456     0.3834    15.9894 1.0682e+03    21.1599     -0.227     -0.330    24.4280 0.0000e+00
     -0.231      0.004     9.1221    115.678     46.656  46.134764     6.3900     2.7036     0.3834    15.9894 1.0897e+03    21.0847     -0.226     -0.328    24.4298 0.0000e+00
     -0.230      0.005     9.2640    116.810     46.645  46.126072     6.3900     2.7112     0.3834    15.9894 1.0988e+03    21.1298     -0.225     -0.327    24.4312 0.0000e+00
     -0.229      0.006     9.4071    117.666     46.649  46.133391     6.3900     2.7723     0.3834    15.9894 1.1096e+03    20.9495     -0.224     -0.325    24.4324 0.0000e+00
     -0.227      0.008     9.5411    118.249     46.647  46.134894     6.3900     2.7494     0.4260    16.4124 1.1151e+03    20.9795     -0.222     -0.323    24.4337 0.0000e+00
     -0.225      0.010     9.6575    118.554     46.625  46.115130     6.3900     2.7723     0.4260    16.4124 1.1132e+03    20.9344     -0.221     -0.320    24.4355 0.0000e+00
     -0.223      0.013     9.7515    118.584     46.574  46.064867     6.3900     2.7723     0.4260    16.4124 1.1171e+03    20.9344     -0.218     -0.317    24.4383 0.0000e+00
     -0.220      0.016     9.8224    118.387     46.488  45.978627     6.3900     2.6998     0.4260    16.4124 1.1237e+03    20.6940     -0.215     -0.312    24.4419 0.0000e+00
     -0.215      0.021     9.8704    118.072     46.377  45.865116     6.3000     2.7151     0.4260    16.2009 1.1399e+03    20.6940     -0.211     -0.306    24.4453 0.0000e+00
     -0.210      0.027     9.8954    117.798     46.249  45.733695     6.3000     2.7227     0.4260    16.2009 1.1449e+03    20.6188     -0.205     -0.298    24.4477 0.0000e+00
     -0.203      0.034     9.8979    117.733     46.071  45.549318     6.3000     2.7151     0.4260    16.2009 1.1409e+03    20.6639     -0.199     -0.288    24.4479 0.0000e+00
     -0.194      0.041     9.8819    117.992     45.852  45.318299     6.3000     2.6845     0.4260    16.2009 1.1404e+03    21.4755     -0.190     -0.275    24.4458 0.0000e+00
     -0.182      0.048     9.8563    118.609     45.689  45.133586     6.3900     2.7151     0.4260    16.2009 1.1632e+03    21.3403     -0.179     -0.259    24.4417 0.0000e+00
     -0.168      0.053     9.8345    119.548     45.614  45.029141     6.3900     2.7151     0.4260    16.2009 1.0766e+03    21.3703     -0.165     -0.239    24.4362 0.0000e+00
     -0.152      0.057     9.8307    120.667     45.594  44.981073     6.3900     2.6998     0.4260    16.2009 4.6151e+02    21.3102     -0.149     -0.216    24.4276 0.0000e+00
     -0.135      0.058     9.8553    121.706     45.626  44.990431     6.3900     2.6883     0.4260    16.2009 5.1683e+02    21.3703     -0.133     -0.193    24.4118 0.0000e+00
     -0.119      0.056     9.9117    122.381     45.730  45.079523     6.3900     2.6311     0.4260    16.2009 4.8474e+02    21.4304     -0.117     -0.170    24.3859 0.0000e+00
     -0.105      0.052     9.9963    122.525     45.924  45.264181     6.4800     2.6388     0.3408    17.3430 4.6312e+02    21.4755     -0.103     -0.149    24.3531 0.0000e+00
     -0.092      0.047    10.0958    122.181     46.195  45.534205     6.4800     2.6197     0.3408    17.3430 4.4535e+02    21.4154     -0.090     -0.131    24.3218 0.0000e+00
     -0.081      0.042    10.1871    121.646     46.548  45.890270     6.4800     2.6426     0.3408    17.3430 4.4700e+02    21.2952     -0.079     -0.115    24.2978 0.0000e+00
     -0.071      0.036    10.2465    121.487     47.013  46.357977     6.4800     2.7036     0.3408    17.3430 4.9035e+02    24.5116     -0.070     -0.101    24.2823 0.0000e+00
     -0.063      0.032    10.2597    122.508     47.527  46.875785     6.4800     2.7036     0.4260    18.5697 4.7339e+02    24.6018     -0.062     -0.090    24.2758 0.0000e+00
     -0.056      0.028    10.2303    125.606     47.940  47.296429     6.4800     2.7074     0.4260    18.5697 4.2641e+02    24.5266     -0.055     -0.079    24.2787 0.0000e+00
     -0.049      0.026    10.1837    131.368     48.204  47.571570     6.4800     2.7074     0.4260    18.5697 4.5287e+02    24.5116     -0.048     -0.070    24.2874 0.0000e+00
     -0.044      0.023    10.1684    139.605     48.375  47.748820     6.4800     2.6388     0.4260    18.5697 4.6594e+02    21.6258     -0.043     -0.062    24.2975 0.0000e+00
     -0.038      0.022    10.2516    149.367     48.500  47.867520     6.4800     2.6349     0.4260    17.5545 4.3758e+02    21.6709     -0.037     -0.054    24.3087 0.0000e+00
     -0.032      0.020    10.5081    159.374     48.600  47.947433     6.4800     2.6273     0.4260    17.5545 4.2438e+02    21.5958     -0.032     -0.046    24.3230 0.0000e+00
     -0.027      0.018    10.9873    168.416     48.674  47.997976     6.4800     2.6273     0.4260    17.5545 4.1301e+02    21.5958     -0.027     -0.038    24.3382 0.0000e+00
     -0.022      0.016    11.6747    175.592     48.716  48.024697     6.4800     2.6502     0.4260    17.5545 4.1211e+02    22.1519     -0.022     -0.031    24.3470 0.0000e+00
     -0.018      0.014    12.4928    180.397     48.728  48.034722     6.5700     2.6502     0.4260    18.7812 4.1924e+02    22.1819     -0.018     -0.026    24.3422 0.0000e+00
     -0.015      0.011    13.3347    182.723     48.726  48.042614     6.5700     2.6311     0.4260    18.7812 4.0404e+02    22.0316     -0.015     -0.021    24.3235 0.0000e+00
     -0.013      0.009    14.0973    182.837     48.722  48.054443     6.5700     2.6273     0.4260    18.7812 3.9604e+02    22.0467     -0.013     -0.018    24.3003 0.0000e+00
     -0.011      0.007    14.7019    181.298     48.717  48.061474     6.5700     2.6426     0.4260    18.7812 4.2355e+02    21.8513     -0.011     -0.015    24.2847 0.0000e+00
     -0.010      0.006    15.1042    178.748     48.717  48.057657     6.5700     2.6388     0.4260    18.7812 4.4613e+02    21.8813     -0.010     -0.014    24.2827 0.0000e+00
     -0.009      0.006    15.2956    175.710     48.737  48.049904     6.7500     2.6388     0.4686    20.6847 4.8548e+02    21.9865     -0.009     -0.013    24.2930 0.0000e+00
     -0.009      0.008    15.3002    172.583     48.782  48.044072     6.7500     2.6235     0.4686    20.6847 5.1784e+02    21.9264     -0.009     -0.012    24.3093 0.0000e+00
     -0.007      0.011    15.1677    169.698     48.842  48.042566     6.7500     2.6197     0.4686    20.6847 5.2956e+02    21.5958     -0.007     -0.010    24.3213 0.0000e+00
     -0.005      0.014    14.9551    167.351     48.910  48.048942     6.7500     2.6502     0.4686    20.6847 4.6312e+02    21.5507     -0.004     -0.006    24.3172 0.0000e+00
      0.000      0.017    14.7082    165.766     48.970  48.053007     6.7500     2.6426     0.4260    19.4580 3.7177e+02    21.5958      0.000      0.001    24.2891 0.0000e+00
      0.006      0.020    14.4598    165.020     49.007  48.043952     6.7500     2.6197     0.4260    19.4580 3.8694e+02    21.5507      0.006      0.009    24.2386 0.0000e+00
      0.012      0.022    14.2346    165.040     49.027  48.027288     6.7500     2.7151     0.4260    19.4580 4.0229e+02    22.5727      0.012      0.018    24.1762 0.0000e+00
      0.019      0.023    14.0542    165.660     49.033  48.006495     6.7500     2.7151     0.4260    19.4580 3.8401e+02    22.6479      0.018      0.027    24.1141 0.0000e+00
      0.025      0.024    13.9357    166.656     49.034  47.983956     6.9300     2.7036     0.4260    20.7270 3.8110e+02    22.6028      0.024      0.035    24.0588 0.0000e+00
      0.031      0.024    13.8855    167.762     49.041  47.965550     6.9300     2.6922     0.4260    20.7270 3.8093e+02    22.7531      0.030      0.044    24.0119 0.0000e+00
      0.037      0.025    13.8970    168.738     49.058  47.954296     6.9300     2.6807     0.4260    20.7270 3.8418e+02    22.4375      0.036      0.052    23.9750 0.0000e+00
      0.043      0.025    13.9566    169.459     49.086  47.951154     6.9300     2.7112     0.4260    20.7270 3.6181e+02    22.4224      0.042      0.061    23.9476 0.0000e+00
      0.050      0.025    14.0469    169.922     49.118  47.947358     6.8400     2.6922     0.4686    21.1923 3.3191e+02    22.3773      0.049      0.071    23.9239 0.0000e+00
      0.056      0.025    14.1469    170.190     49.144  47.933968     6.8400     2.6922     0.4686    21.1923 3.1436e+02    22.4224      0.055      0.080    23.8983 0.0000e+00
      0.063      0.024    14.2368    170.357     49.163  47.915337     6.8400     2.6807     0.4686    21.1923 3.1821e+02    22.3473      0.062      0.090    23.8699 0.0000e+00
      0.069      0.024    14.3061    170.523     49.181  47.902349     6.8400     2.7189     0.4686    21.1923 3.0693e+02    22.2721      0.068      0.098    23.8383 0.0000e+00
      0.075      0.024    14.3547    170.794     49.188  47.891538     6.8400     2.6883     0.4686    21.1923 3.2203e+02    22.3473      0.073      0.106    23.8026 0.0000e+00
      0.080      0.024    14.3879    171.231     49.183  47.876058     6.9300     2.7227     0.4686    21.6576 3.0901e+02    22.3172      0.079      0.114    23.7636 0.0000e+00
      0.086      0.026    14.4123    171.786     49.183  47.867633     6.9300     2.6883     0.4686    21.6576 3.0441e+02    22.3623      0.085      0.123    23.7255 0.0000e+00
      0.093      0.028    14.4344    172.346     49.196  47.871945     6.9300     2.7074     0.4686    21.6576 3.0158e+02    22.3924      0.091      0.132    23.6954 0.0000e+00
      0.100      0.031    14.4624    172.818     49.208  47.878253     6.9300     2.6883     0.4686    21.6576 3.1607e+02    22.3022      0.098      0.142    23.6766 0.0000e+00
      0.108      0.036    14.5024    173.154     49.206  47.872384     6.9300     2.6883     0.4260    21.4038 3.0263e+02    22.3773      0.106      0.153    23.6656 0.0000e+00
      0.117      0.040    14.5518    173.327     49.173  47.836921     6.9300     2.7646     0.4260    21.4038 2.8576e+02    23.3242      0.115      0.166    23.6570 0.0000e+00
      0.128      0.045    14.6014    173.310     49.097  47.754480     6.9300     2.7608     0.4260    21.4038 2.5567e+02    23.2791      0.125      0.182    23.6491 0.0000e+00
      0.141      0.050    14.6431    173.079     48.968  47.607041     6.9300     2.7608     0.4260    21.4038 2.3130e+02    23.3844      0.138      0.200    23.6427 0.0000e+00
      0.154      0.053    14.6727    172.633     48.789  47.388976     6.8400     2.7761     0.4686    20.9385 2.1557e+02    23.3994      0.151      0.219    23.6386 0.0000e+00
      0.169      0.056    14.6882    172.010     48.585  47.123382     6.8400     2.9592     0.4686    20.9385 1.9621e+02    24.9775      0.165      0.240    23.6353 0.0000e+00
      0.184      0.058    14.6892    171.283     48.364  46.824641     6.8400     2.9439     0.4686    20.9385 1.6369e+02    24.9625      0.181      0.262    23.6264 0.0000e+00
      0.200      0.059    14.6759    170.537     48.086  46.462625     6.8400     2.9516     0.4686    20.9385 1.5473e+02    25.0226      0.196      0.284    23.6031 0.0000e+00
      0.215      0.059    14.6505    169.840     47.741  46.027982     6.8400     2.9363     0.4686    20.9385 1.4272e+02    25.0226      0.211      0.306    23.5574 0.0000e+00
      0.230      0.059    14.6169    169.218     47.349  45.535586     6.9300     3.7336     0.4260    21.2769 1.5046e+02    22.6629      0.226      0.327    23.4872 0.0000e+00
      0.244      0.059    14.5792    168.646     46.932  44.998778     6.9300     3.7641     0.4260    21.2769 1.4799e+02    22.5727      0.240      0.347    23.3992 0.0000e+00
      0.258      0.060    14.5426    168.034     46.559  44.480474     6.9300     3.7412     0.4260    21.2769 1.5170e+02    22.6479      0.254      0.368    23.3013 0.0000e+00
      0.273      0.062    14.5126    167.263     46.309  44.064367     6.9300     3.7298     0.4260    21.2769 1.5167e+02    22.6328      0.268      0.389    23.1940 0.0000e+00
      0.289      0.063    14.4930    166.312     46.188  43.784119     6.8400     3.1690     0.4260    20.0502 1.5124e+02    22.9785      0.284      0.412    23.0720 0.0000e+00
      0.307      0.065    14.4836    165.322     46.088  43.561025     6.8400     3.2148     0.4260    20.0502 1.0467e+02    23.0537      0.301      0.437    22.9276 0.0000e+00
      0.325      0.065    14.4783    164.470     45.905  43.295962     6.8400     3.1576     0.4260    20.0502 1.0021e+02    23.1589      0.319      0.462    22.7552 0.0000e+00
      0.342      0.065    14.4640    163.841     45.675  43.011365     6.8400     3.1805     0.4260    20.0502 9.8317e+01    23.1138      0.335      0.487    22.5654 0.0000e+00
      0.358      0.064    14.4304    163.417     45.479  42.772009     7.0200     3.0813     0.4686    20.0925 8.7793e+01    21.1449      0.351      0.510    22.3885 0.0000e+00
      0.374      0.062    14.3828    163.126     45.322  42.577462     7.0200     3.0660     0.4686    20.0925 8.0730e+01    21.1900      0.367      0.532    22.2497 0.0000e+00
      0.390      0.061    14.3363    162.873     45.176  42.395658     7.0200     3.0508     0.4686    20.0925 7.3864e+01    21.1749      0.382      0.554    22.1499 0.0000e+00
      0.405      0.060    14.3018    162.572     45.024  42.207831     7.0200     3.0851     0.4686    20.0925 6.7759e+01    21.1599      0.397      0.576    22.0761 0.0000e+00
      0.420      0.059    14.2812    162.137     44.856  42.003515     6.6600     2.8333     0.3408    18.2313 6.1500e+01    19.2962      0.412      0.598    22.0169 0.0000e+00
      0.435      0.058    14.2699    161.491     44.665  41.773791     6.6600     2.8066     0.3408    18.2313 5.5796e+01    19.2210      0.427      0.619    21.9654 0.0000e+00
      0.450      0.056    14.2613    160.602     44.470  41.534662     6.6600     2.8219     0.3408    18.2313 5.1867e+01    19.2962      0.441      0.640    21.9162 0.0000e+00
      0.464      0.055    14.2486    159.504     44.303  41.317450     6.6600     2.8371     0.3408    18.2313 5.0313e+01    19.2511      0.455      0.660    21.8663 0.0000e+00
      0.478      0.054    14.2249    158.273     44.179  41.139509     6.6600     2.7570     0.3408    18.2313 4.7127e+01    16.7260      0.469      0.680    21.8137 0.0000e+00
      0.492      0.052    14.1837    156.975     44.104  41.012817     6.3900     2.7608     0.3408    16.8777 4.4888e+01    16.5907      0.482      0.699    21.7566 0.0000e+00
      0.505      0.051    14.1228    155.634     44.061  40.925378     6.3900     2.7646     0.3408    16.8777 4.3364e+01    16.7110      0.495      0.718    21.6931 0.0000e+00
      0.518      0.051    14.0451    154.277     44.017  40.849910     6.3900     2.7646     0.3408    16.8777 4.3185e+01    16.6509      0.507      0.736    21.6237 0.0000e+00
      0.530      0.051    13.9556    152.985     43.949  40.762325     6.3900     2.7646     0.3408    16.8777 4.1000e+01    15.6438      0.520      0.754    21.5535 0.0000e+00
      0.543      0.051    13.8585    151.862     43.834  40.635305     6.2100     2.7646     0.3408    15.4818 3.9436e+01    15.7040      0.532      0.772    21.4890 0.0000e+00
      0.556      0.052    13.7545    150.983     43.670  40.460731     6.2100     2.7379     0.3408    15.4818 3.7221e+01    15.7190      0.545      0.791    21.4356 0.0000e+00
      0.569      0.052    13.6452    150.353     43.490  40.265347     6.2100     2.7456     0.3408    15.4818 3.5630e+01    15.7791      0.558      0.810    21.3959 0.0000e+00
      0.583      0.052    13.5383    149.905     43.349  40.102040     6.2100     2.5739     0.3408    15.4818 3.4615e+01    13.4194      0.572      0.829    21.3679 0.0000e+00
      0.597      0.051    13.4451    149.506     43.263  39.988671     6.0300     2.5548     0.2982    14.5512 3.3309e+01    13.4494      0.585      0.849    21.3451 0.0000e+00
      0.610      0.051    13.3739    149.025     43.163  39.867273     6.0300     2.5930     0.2982    14.5512 3.2515e+01    13.3593      0.598      0.868    21.3196 0.0000e+00
      0.623      0.050    13.3266    148.393     42.992  39.681699     6.0300     2.5777     0.2982    14.5512 3.3302e+01    13.3593      0.611      0.886    21.2869 0.0000e+00
      0.635      0.049    13.2969    147.586     42.751  39.428026     6.0300     2.6235     0.2982    14.5512 3.2650e+01    13.3593      0.623      0.903    21.2483 0.0000e+00
      0.647      0.048    13.2714    146.596     42.462  39.121805     5.7600     2.6388     0.2556    12.9015 3.2409e+01    13.3743      0.635      0.921    21.2098 0.0000e+00
      0.659      0.047    13.2375    145.407     42.141  38.776459     5.7600     2.6159     0.2556    12.9015 3.2171e+01    13.3893      0.646      0.938    21.1756 0.0000e+00
      0.671      0.046    13.1896    143.979     41.789  38.392993     5.7600     2.6159     0.2556    12.9015 3.1713e+01    13.3142      0.658      0.955    21.1429 0.0000e+00
      0.683      0.045    13.1273    142.247     41.398  37.964227     5.7600     2.4175     0.2556    12.9015 3.0490e+01    12.1418      0.670      0.971    21.1055 0.0000e+00
      0.694      0.044    13.0510    140.126     41.008  37.528338     5.7600     2.3717     0.2556    12.9015 2.9776e+01    12.1869      0.681      0.988    21.0582 0.0000e+00
      0.706      0.044    12.9599    137.499     40.680  37.145371     5.5800     2.3717     0.2556    10.1520 2.8903e+01    12.2470      0.692      1.004    20.9986 0.0000e+00
      0.717      0.043    12.8502    134.262     40.400  36.808270     5.5800     2.3870     0.2556    10.1520 2.6943e+01    12.1117      0.703      1.020    20.9266 0.0000e+00
      0.728      0.042    12.7160    130.383     40.122  36.480615     5.5800     2.1543     0.2556    10.1520 2.5708e+01    10.4434      0.714      1.035    20.8426 0.0000e+00
      0.738      0.041    12.5491    125.924     39.840  36.152273     5.5800     2.1619     0.2556    10.1520 2.4212e+01    10.4434      0.724      1.050    20.7472 0.0000e+00
      0.749      0.041    12.3379    121.038     39.572  35.838673     5.4000     2.1428     0.2130     8.8407 2.2669e+01    10.4735      0.734      1.065    20.6451 0.0000e+00
      0.759      0.040    12.0706    115.934     39.351  35.569077     5.4000     2.1543     0.2130     8.8407 2.1270e+01    10.5336      0.744      1.080    20.5453 0.0000e+00
      0.769      0.040    11.7429    110.789     39.173  35.340910     5.4000     1.8949     0.2130     8.8407 1.9950e+01     8.2941      0.754      1.094    20.4519 0.0000e+00
      0.779      0.039    11.3607    105.720     39.016  35.134913     5.4000     1.9025     0.2130     8.8407 1.8361e+01     8.2340      0.764      1.108    20.3625 0.0000e+00
      0.789      0.039    10.9385    100.801     38.884  34.955565     5.2200     1.9178     0.1278     7.0641 1.7079e+01     8.2189      0.774      1.122    20.2742 0.0000e+00
      0.799      0.039    10.4953     96.059     38.785  34.810491     5.2200     1.9292     0.1278     7.0641 1.6039e+01     8.2039      0.784      1.137    20.1861 0.0000e+00
      0.809      0.038    10.0464     91.492     38.711  34.692690     5.2200     2.2229     0.1278     7.0641 1.4929e+01     6.7159      0.794      1.151    20.1003 0.0000e+00
      0.819      0.038     9.6023     87.091     38.652  34.592531     5.2200     2.1924     0.1278     7.0641 1.3972e+01     6.7310      0.803      1.165    20.0188 0.0000e+00
      0.828      0.038     9.1697     82.863     38.613  34.514989     5.2200     2.2115     0.1278     7.0641 1.3162e+01     6.6708      0.813      1.178    19.9416 0.0000e+00
      0.838      0.037     8.7510     78.858     38.596  34.463150     5.1300     2.2229     0.1704     5.2452 1.2129e+01     6.7911      0.822      1.192    19.8696 0.0000e+00
      0.847      0.037     8.3463     75.155     38.590  34.427149     5.1300     1.8453     0.1704     5.2452 1.1473e+01     5.9945      0.831      1.205    19.8035 0.0000e+00
      0.857      0.036     7.9547     71.844     38.587  34.401346     5.1300     1.8224     0.1704     5.2452 1.1013e+01     6.0396      0.840      1.218    19.7429 0.0000e+00
      0.866      0.036     7.5771     69.024     38.599  34.394702     5.1300     1.8377     0.1704     5.2452 1.0384e+01     5.9795      0.849      1.231    19.6880 0.0000e+00
      0.875      0.036     7.2181     66.782     38.638  34.417327     4.9500     1.8415     0.1278     4.2300 9.8753e+00     6.0245      0.858      1.244    19.6404 0.0000e+00
      0.884      0.036     6.8849     65.181     38.694  34.455451     4.9500     1.6317     0.1278     4.2300 9.5565e+00     5.5286      0.867      1.257    19.6014 0.0000e+00
      0.893      0.036     6.5860     64.249     38.753  34.491515     4.9500     1.6507     0.1278     4.2300 9.2661e+00     5.5586      0.876      1.270    19.5711 0.0000e+00
      0.902      0.036     6.3307     63.938     38.818  34.523255     4.9500     1.6355     0.1278     4.2300 8.9378e+00     5.6187      0.885      1.283    19.5491 0.0000e+00
      0.911      0.036     6.1272     64.100     38.891  34.551210     4.8600     1.6774     0.1278     3.2571 8.5968e+00     5.4985      0.894      1.296    19.5334 0.0000e+00
      0.920      0.036     5.9823     64.490     38.969  34.578872     4.8600     1.7881     0.1278     3.2571 8.3374e+00     6.0847      0.903      1.309    19.5189 0.0000e+00
      0.929      0.035     5.8996     64.765     39.045  34.605695     4.8600     1.7652     0.1278     3.2571 7.9707e+00     5.9795      0.911      1.322    19.4977 0.0000e+00
      0.938      0.035     5.8751     64.584     39.111  34.626946     4.8600     1.7575     0.1278     3.2571 7.8011e+00     6.0245      0.920      1.335    19.4635 0.0000e+00
      0.947      0.035     5.8957     63.723     39.166  34.644330     4.8600     1.7499     0.1278     2.7072 7.5937e+00     5.9795      0.929      1.347    19.4167 0.0000e+00
      0.956      0.035     5.9378     62.138     39.212  34.658520     4.8600     1.5821     0.1278     2.7072 7.4774e+00     5.0025      0.938      1.360    19.3635 0.0000e+00
      0.965      0.035     5.9694     59.960     39.249  34.669339     4.8600     1.5783     0.1278     2.7072 7.2094e+00     5.0626      0.946      1.372    19.3108 0.0000e+00
      0.974      0.035     5.9582     57.440     39.281  34.679670     4.8600     1.5859     0.1278     2.7072 7.0790e+00     5.0175      0.955      1.385    19.2637 0.0000e+00
      0.983      0.035     5.8834     54.876     39.309  34.688308     4.8600     1.5973     0.1278     2.7072 6.9449e+00     5.0626      0.963      1.397    19.2235 0.0000e+00
      0.991      0.035     5.7407     52.554     39.329  34.691613     4.7700     1.5859     0.1278     2.4957 6.7412e+00     4.9123      0.972      1.410    19.1898 0.0000e+00
      1.000      0.035     5.5425     50.693     39.345  34.692448     4.7700     1.5935     0.1278     2.4957 6.5108e+00     4.8823      0.981      1.423    19.1617 0.0000e+00
      1.010      0.036     5.3121     49.402     39.368  34.700937     4.7700     1.6164     0.1278     2.4957 6.2434e+00     4.8372      0.990      1.436    19.1382 0.0000e+00
      1.019      0.036     5.0771     48.659     39.399  34.719343     4.7700     1.5859     0.1278     2.4957 5.9275e+00     4.7921      0.999      1.449    19.1178 0.0000e+00
      1.028      0.036     4.8641     48.355     39.428  34.736730     4.7700     1.3341     0.0852     2.2842 5.7799e+00     4.4163      1.008      1.462    19.0992 0.0000e+00
      1.037      0.036     4.6936     48.370     39.449  34.747833     4.7700     1.3646     0.0852     2.2842 5.5848e+00     4.4013      1.017      1.475    19.0825 0.0000e+00
      1.046      0.036     4.5754     48.591     39.469  34.755612     4.7700     1.3532     0.0852     2.2842 5.3045e+00     4.3863      1.026      1.488    19.0683 0.0000e+00
      1.055      0.036     4.5077     48.920     39.489  34.762142     4.7700     1.3303     0.0852     2.2842 5.1758e+00     4.2961      1.035      1.501    19.0567 0.0000e+00
      1.064      0.036     4.4806     49.277     39.516  34.773123     4.7700     1.1892     0.0852     2.1573 4.9439e+00     4.0406      1.044      1.513    19.0466 0.0000e+00
      1.073      0.036     4.4830     49.598     39.553  34.791485     4.7700     1.2197     0.0852     2.1573 4.7667e+00     4.1909      1.053      1.526    19.0362 0.0000e+00
      1.083      0.037     4.5046     49.837     39.593  34.810239     4.7700     1.2044     0.0852     2.1573 4.5195e+00     4.1307      1.062      1.540    19.0242 0.0000e+00
      1.092      0.037     4.5364     49.965     39.627  34.822505     4.7700     1.2349     0.0852     2.1573 4.3575e+00     4.0556      1.071      1.553    19.0102 0.0000e+00
      1.102      0.037     4.5710     49.962     39.651  34.827590     4.7700     1.0862     0.1278     1.9881 4.1767e+00     4.1458      1.080      1.567    18.9944 0.0000e+00
      1.111      0.037     4.6025     49.806     39.671  34.830811     4.7700     1.0785     0.1278     1.9881 4.0393e+00     4.0255      1.090      1.580    18.9763 0.0000e+00
      1.120      0.037     4.6265     49.493     39.687  34.833026     4.7700     1.0785     0.1278     1.9881 3.9353e+00     4.1157      1.099      1.594    18.9558 0.0000e+00
      1.130      0.037     4.6405     49.050     39.700  34.834826     4.7700     1.0938     0.1278     1.9881 3.7647e+00     4.1458      1.108      1.607    18.9340 0.0000e+00
      1.139      0.037     4.6421     48.528     39.725  34.848573     4.7700     0.9717     0.1278     1.9881 3.6416e+00     3.6047      1.117      1.620    18.9131 0.0000e+00
      1.148      0.037     4.6292     47.990     39.760  34.873972     4.6800     0.9565     0.0852     1.7766 3.5594e+00     3.5897      1.126      1.634    18.8950 0.0000e+00
      1.158      0.037     4.6016     47.487     39.793  34.897992     4.6800     0.9908     0.0852     1.7766 3.4229e+00     3.7249      1.136      1.647    18.8800 0.0000e+00
      1.167      0.037     4.5615     47.061     39.821  34.915154     4.6800     0.9450     0.0852     1.7766 3.3624e+00     3.6949      1.145      1.660    18.8676 0.0000e+00
      1.176      0.037     4.5138     46.735     39.841  34.922113     4.6800     1.0442     0.0852     1.7766 3.3246e+00     3.6197      1.154      1.673    18.8579 0.0000e+00
      1.186      0.037     4.4644     46.508     39.856  34.920724     4.6800     1.0289     0.0852     1.7343 3.2959e+00     3.6949      1.163      1.686    18.8507 0.0000e+00
      1.195      0.037     4.4183     46.340     39.872  34.918540     4.6800     1.0175     0.0852     1.7343 3.2187e+00     3.5897      1.172      1.700    18.8442 0.0000e+00
      1.205      0.038     4.3794     46.170     39.893  34.918936     4.6800     1.0442     0.0852     1.7343 3.1812e+00     3.6648      1.181      1.713    18.8353 0.0000e+00
      1.214      0.038     4.3503     45.936     39.915  34.918057     4.6800     0.9259     0.0852     1.7343 3.1832e+00     3.4243      1.191      1.727    18.8221 0.0000e+00
      1.224      0.038     4.3306     45.600     39.936  34.915669     4.6800     0.9297     0.0852     1.5228 3.0518e+00     3.4544      1.201      1.741    18.8045 0.0000e+00
      1.234      0.038     4.3168     45.146     39.964  34.919055     4.6800     0.9107     0.0852     1.5228 3.0274e+00     3.4394      1.210      1.755    18.7837 0.0000e+00
      1.244      0.039     4.3029     44.580     39.993  34.925156     4.6800     0.9069     0.0852     1.5228 3.0215e+00     3.3041      1.220      1.769    18.7608 0.0000e+00
      1.254      0.039     4.2833     43.923     40.015  34.927676     4.6800     0.7085     0.0852     1.5228 2.9772e+00     2.8532      1.229      1.783    18.7362 0.0000e+00
      1.264      0.039     4.2542     43.218     40.038  34.931247     4.6800     0.7238     0.0852     1.5228 2.8302e+00     2.9434      1.239      1.797    18.7101 0.0000e+00
      1.274      0.039     4.2140     42.519     40.064  34.936823     4.6800     0.7161     0.1278     1.2267 2.7935e+00     2.9885      1.249      1.812    18.6842 0.0000e+00
      1.284      0.039     4.1631     41.874     40.081  34.934006     4.6800     0.7123     0.1278     1.2267 2.7069e+00     3.0486      1.259      1.826    18.6603 0.0000e+00
      1.294      0.039     4.1036     41.310     40.083  34.918083     4.6800     0.6856     0.1278     1.2267 2.6614e+00     2.7630      1.269      1.841    18.6389 0.0000e+00
      1.304      0.039     4.0394     40.836     40.081  34.900650     4.6800     0.7085     0.1278     1.2267 2.6178e+00     2.7480      1.279      1.855    18.6185 0.0000e+00
      1.314      0.039     3.9758     40.451     40.084  34.888943     4.6800     0.6932     0.0426     1.1844 2.5856e+00     2.7029      1.289      1.869    18.5973 0.0000e+00
      1.324      0.039     3.9172     40.143     40.087  34.879837     4.6800     0.6818     0.0426     1.1844 2.4907e+00     2.7931      1.299      1.883    18.5751 0.0000e+00
      1.334      0.039     3.8662     39.896     40.091  34.874864     4.6800     0.6856     0.0426     1.1844 2.4388e+00     2.5526      1.309      1.898    18.5531 0.0000e+00
      1.344      0.038     3.8235     39.707     40.100  34.876661     4.6800     0.6780     0.0426     1.1844 2.3931e+00     2.6127      1.318      1.912    18.5326 0.0000e+00
      1.354      0.038     3.7889     39.570     40.117  34.885705     4.5900     0.7276     0.0852     1.0998 2.3417e+00     2.5676      1.328      1.925    18.5148 0.0000e+00
      1.363      0.037     3.7611     39.480     40.138  34.896486     4.5900     0.6856     0.0852     1.0998 2.3493e+00     2.4624      1.337      1.939    18.5005 0.0000e+00
      1.373      0.036     3.7388     39.435     40.150  34.896036     4.5900     0.6818     0.0852     1.0998 2.3340e+00     2.5075      1.346      1.953    18.4897 0.0000e+00
      1.382      0.035     3.7217     39.428     40.148  34.880274     4.5900     0.7047     0.0852     1.0998 2.2863e+00     2.6127      1.355      1.966    18.4820 0.0000e+00
      1.391      0.034     3.7093     39.433     40.142  34.856878     4.5900     0.6894     0.0852     0.9729 2.2562e+00     2.5376      1.364      1.978    18.4752 0.0000e+00
      1.399      0.032     3.7016     39.420     40.139  34.835453     4.5900     0.6703     0.0852     0.9729 2.2553e+00     2.5225      1.372      1.990    18.4663 0.0000e+00
      1.407      0.031     3.6984     39.368     40.142  34.818206     4.5900     0.6360     0.0852     0.9729 2.2006e+00     2.4624      1.380      2.002    18.4529 0.0000e+00
      1.415      0.030     3.6991     39.261     40.139  34.796576     4.5900     0.6436     0.0852     0.9729 2.2348e+00     2.4774      1.387      2.013    18.4346 0.0000e+00
      1.422      0.029     3.7013     39.093     40.129  34.768755     4.5900     0.6360     0.0852     0.9729 2.1891e+00     2.4925      1.395      2.023    18.4125 0.0000e+00
      1.429      0.028     3.7019     38.876     40.121  34.743167     4.5900     0.6284     0.0852     0.8883 2.2049e+00     2.4925      1.402      2.033    18.3885 0.0000e+00
      1.436      0.028     3.6988     38.636     40.117  34.720910     4.5900     0.6322     0.0852     0.8883 2.1920e+00     2.5826      1.408      2.043    18.3643 0.0000e+00
      1.443      0.028     3.6905     38.399     40.114  34.701988     4.5900     0.6093     0.0852     0.8883 2.1791e+00     2.6277      1.415      2.052    18.3403 0.0000e+00
      1.450      0.028     3.6765     38.185     40.117  34.689279     4.5900     0.6093     0.0852     0.8883 2.1360e+00     2.5376      1.422      2.062    18.3166 0.0000e+00
      1.457      0.029     3.6578     38.003     40.122  34.681371     4.5900     0.6436     0.0852     0.8460 2.1645e+00     2.5376      1.429      2.072    18.2932 0.0000e+00
      1.464      0.031     3.6368     37.857     40.133  34.680117     4.5900     0.6551     0.0852     0.8460 2.1421e+00     2.5526      1.436      2.082    18.2707 0.0000e+00
      1.472      0.033     3.6161     37.745     40.148  34.685182     4.5900     0.6360     0.0852     0.8460 2.1495e+00     2.5376      1.443      2.093    18.2498 0.0000e+00
      1.480      0.035     3.5973     37.671     40.159  34.688014     4.5900     0.6131     0.0852     0.8460 2.1184e+00     2.4925      1.452      2.105    18.2312 0.0000e+00
      1.489      0.038     3.5814     37.635     40.163  34.687387     4.5900     0.6436     0.0426     0.9306 2.0828e+00     2.5977      1.461      2.118    18.2152 0.0000e+00
      1.499      0.041     3.5686     37.634     40.168  34.689075     4.5900     0.6322     0.0426     0.9306 2.0594e+00     2.4774      1.470      2.132    18.2019 0.0000e+00
      1.510      0.043     3.5589     37.662     40.170  34.689568     4.5900     0.6131     0.0426     0.9306 1.9904e+00     2.5225      1.481      2.148    18.1917 0.0000e+00
      1.521      0.045     3.5524     37.715     40.163  34.683056     4.5900     0.6208     0.0426     0.9306 1.9899e+00     2.5977      1.492      2.164    18.1843 0.0000e+00
      1.534      0.046     3.5494     37.789     40.149  34.669783     4.6800     0.6360     0.0426     0.8460 1.8909e+00     2.6127      1.505      2.182    18.1794 0.0000e+00
      1.546      0.046     3.5495     37.876     40.131  34.652150     4.6800     0.5712     0.0426     0.8460 1.8664e+00     2.0416      1.517      2.200    18.1762 0.0000e+00
      1.558      0.046     3.5523     37.969     40.115  34.633378     4.6800     0.5445     0.0426     0.8460 1.8717e+00     1.9814      1.529      2.217    18.1742 0.0000e+00
      1.570      0.045     3.5574     38.058     40.102  34.612422     4.6800     0.5559     0.0426     0.8460 1.8765e+00     1.9514      1.540      2.233    18.1731 0.0000e+00
      1.581      0.045     3.5644     38.135     40.091  34.587654     4.6800     0.5521     0.0426     0.8460 1.8430e+00     2.1317      1.551      2.249    18.1721 0.0000e+00
      1.592      0.044     3.5728     38.188     40.093  34.568313     4.5000     0.5521     0.0426     0.5499 1.7831e+00     2.0265      1.562      2.265    18.1695 0.0000e+00
      1.604      0.043     3.5820     38.203     40.104  34.553199     4.5000     0.5483     0.0426     0.5499 1.7789e+00     2.0115      1.573      2.281    18.1631 0.0000e+00
      1.615      0.043     3.5914     38.161     40.104  34.526399     4.5000     0.5712     0.0426     0.5499 1.7566e+00     2.0716      1.584      2.297    18.1507 0.0000e+00
      1.626      0.042     3.6000     38.049     40.092  34.488688     4.5000     0.5521     0.0426     0.5499 1.7558e+00     2.0416      1.594      2.312    18.1316 0.0000e+00
      1.636      0.042     3.6070     37.858     40.071  34.441889     4.5000     0.5178     0.0852     0.5922 1.7058e+00     1.3051      1.604      2.327    18.1060 0.0000e+00
      1.646      0.043     3.6106     37.589     40.035  34.381446     4.5000     0.4911     0.0852     0.5922 1.7218e+00     1.2450      1.614      2.342    18.0755 0.0000e+00
      1.657      0.044     3.6091     37.261     39.975  34.299159     4.5000     0.5063     0.0852     0.5922 1.6925e+00     1.3802      1.625      2.357    18.0422 0.0000e+00
      1.668      0.047     3.6010     36.899     39.884  34.186947     4.5000     0.4987     0.0852     0.5922 1.7226e+00     1.3051      1.636      2.373    18.0073 0.0000e+00
      1.680      0.051     3.5855     36.510     39.792  34.066378     4.4100     0.5139     0.0000     0.4230 1.6980e+00     1.2299      1.647      2.389    17.9711 0.0000e+00
      1.692      0.055     3.5627     36.096     39.731  33.966690     4.4100     0.5292     0.0000     0.4230 1.7140e+00     1.2450      1.660      2.407    17.9341 0.0000e+00
      1.707      0.060     3.5344     35.662     39.701  33.892982     4.4100     0.4834     0.0000     0.4230 1.6720e+00     1.3351      1.674      2.428    17.8956 0.0000e+00
      1.724      0.064     3.5031     35.208     39.677  33.829559     4.4100     0.4911     0.0000     0.4230 1.6086e+00     1.2600      1.690      2.451    17.8524 0.0000e+00
      1.741      0.067     3.4699     34.736     39.631  33.751583     4.2300     0.4224     0.0426     0.2115 1.5590e+00     1.0195      1.708      2.477    17.8005 0.0000e+00
      1.759      0.070     3.4347     34.252     39.570  33.660044     4.2300     0.4376     0.0426     0.2115 1.5867e+00     1.1247      1.725      2.502    17.7408 0.0000e+00
      1.778      0.071     3.3976     33.760     39.525  33.578060     4.2300     0.4567     0.0426     0.2115 1.5638e+00     1.1398      1.743      2.528    17.6804 0.0000e+00
      1.796      0.071     3.3581     33.268     39.490  33.505550     4.2300     0.4224     0.0426     0.2115 1.5090e+00     1.1848      1.761      2.554    17.6264 0.0000e+00
      1.815      0.071     3.3164     32.792     39.450  33.431097     4.2300     0.3613     0.0426     0.2115 1.4792e+00     1.0045      1.779      2.581    17.5776 0.0000e+00
      1.833      0.070     3.2735     32.337     39.402  33.350688     4.2300     0.3842     0.0426     0.2538 1.4830e+00     1.0345      1.797      2.607    17.5271 0.0000e+00
      1.851      0.069     3.2302     31.897     39.341  33.254762     4.2300     0.3652     0.0426     0.2538 1.4676e+00     0.9744      1.815      2.632    17.4723 0.0000e+00
      1.868      0.068     3.1867     31.465     39.275  33.147443     4.2300     0.3652     0.0426     0.2538 1.4184e+00     1.0796      1.832      2.656    17.4179 0.0000e+00
      1.885      0.068     3.1444     31.030     39.234  33.055558     4.2300     0.4071     0.0426     0.2538 1.4187e+00     1.1097      1.849      2.681    17.3673 0.0000e+00
      1.902      0.067     3.1040     30.584     39.231  32.996188     4.1400     0.3804     0.0426     0.2538 1.4101e+00     1.0195      1.865      2.705    17.3166 0.0000e+00
      1.919      0.066     3.0654     30.108     39.252  32.965380     4.1400     0.3728     0.0426     0.2538 1.3275e+00     0.9894      1.882      2.730    17.2602 0.0000e+00
      1.936      0.065     3.0279     29.585     39.275  32.946995     4.1400     0.3919     0.0426     0.2538 1.3080e+00     0.9444      1.899      2.754    17.1949 0.0000e+00
      1.953      0.065     2.9906     29.015     39.282  32.924248     4.1400     0.3842     0.0426     0.2538 1.3200e+00     1.1247      1.915      2.777    17.1219 0.0000e+00
      1.969      0.065     2.9520     28.420     39.266  32.887111     4.0500     0.3728     0.0426     0.2115 1.3143e+00     1.1698      1.931      2.800    17.0495 0.0000e+00
      1.985      0.065     2.9099     27.835     39.242  32.841523     4.0500     0.3537     0.0426     0.2115 1.2788e+00     1.0947      1.946      2.823    16.9872 0.0000e+00
      2.001      0.065     2.8623     27.289     39.223  32.795130     4.0500     0.3804     0.0426     0.2115 1.3001e+00     1.0947      1.962      2.846    16.9394 0.0000e+00
      2.018      0.066     2.8092     26.798     39.194  32.735560     4.0500     0.3690     0.0426     0.2115 1.3472e+00     1.1097      1.979      2.869    16.9037 0.0000e+00
      2.035      0.067     2.7533     26.363     39.152  32.660787     4.0500     0.3728     0.0426     0.1692 1.3214e+00     1.0496      1.995      2.893    16.8734 0.0000e+00
      2.052      0.067     2.6985     25.969     39.122  32.590475     4.0500     0.3842     0.0426     0.1692 1.3475e+00     1.1097      2.012      2.918    16.8407 0.0000e+00
      2.069      0.067     2.6477     25.583     39.111  32.535578     4.0500     0.4071     0.0426     0.1692 1.3188e+00     1.0195      2.029      2.943    16.8020 0.0000e+00
      2.087      0.067     2.6026     25.167     39.119  32.501255     4.0500     0.3919     0.0426     0.1692 1.2964e+00     1.3351      2.047      2.968    16.7571 0.0000e+00
      2.104      0.066     2.5631     24.691     39.154  32.498154     4.0500     0.3690     0.0426     0.1692 1.3318e+00     1.3502      2.064      2.993    16.7055 0.0000e+00
      2.121      0.065     2.5278     24.151     39.202  32.517525     3.9600     0.3842     0.0426     0.2115 1.3499e+00     1.2901      2.080      3.017    16.6483 0.0000e+00
      2.137      0.064     2.4933     23.570     39.234  32.532851     3.9600     0.3690     0.0426     0.2115 1.4246e+00     1.3201      2.096      3.040    16.5902 0.0000e+00
      2.153      0.063     2.4554     22.994     39.241  32.528415     3.9600     0.3232     0.0426     0.2115 1.4702e+00     1.1999      2.111      3.062    16.5375 0.0000e+00
      2.168      0.062     2.4112     22.475     39.223  32.499075     3.9600     0.3232     0.0426     0.2115 1.5328e+00     1.3351      2.126      3.084    16.4967 0.0000e+00
      2.184      0.062     2.3597     22.060     39.192  32.448888     3.9600     0.2965     0.0426     0.1692 1.5740e+00     1.3051      2.142      3.106    16.4709 0.0000e+00
      2.200      0.062     2.3037     21.766     39.167  32.392195     3.9600     0.3308     0.0426     0.1692 1.5805e+00     1.3051      2.157      3.129    16.4561 0.0000e+00
      2.215      0.063     2.2480     21.571     39.163  32.341599     3.9600     0.3041     0.0426     0.1692 1.6223e+00     1.8011      2.172      3.151    16.4436 0.0000e+00
      2.231      0.063     2.1981     21.416     39.186  32.303409     3.9600     0.3118     0.0426     0.1692 1.6269e+00     1.8011      2.188      3.174    16.4245 0.0000e+00
      2.248      0.064     2.1590     21.219     39.231  32.275357     3.9600     0.3194     0.0852     0.1692 1.6583e+00     1.8161      2.204      3.197    16.3932 0.0000e+00
      2.264      0.064     2.1322     20.891     39.288  32.255902     3.9600     0.3041     0.0852     0.1692 1.6347e+00     1.8161      2.220      3.220    16.3477 0.0000e+00
      2.281      0.064     2.1157     20.356     39.353  32.247774     3.9600     0.3156     0.0852     0.1692 1.5713e+00     1.9363      2.237      3.244    16.2880 0.0000e+00
      2.297      0.063     2.1037     19.570     39.411  32.244840     3.9600     0.3118     0.0852     0.1692 1.5764e+00     1.9814      2.253      3.268    16.2149 0.0000e+00
      2.313      0.062     2.0879     18.541     39.452  32.240377     3.9600     0.3232     0.0852     0.1692 1.5183e+00     2.0265      2.269      3.291    16.1320 0.0000e+00
      2.329      0.061     2.0593     17.323     39.479  32.235173     3.8700     0.3118     0.0426     0.0846 1.4769e+00     1.9965      2.284      3.313    16.0471 0.0000e+00
      2.345      0.060     2.0098     16.013     39.499  32.229820     3.8700     0.3308     0.0426     0.0846 1.4370e+00     2.0115      2.299      3.335    15.9694 0.0000e+00
      2.360      0.058     1.9348     14.728     39.518  32.226852     3.8700     0.3194     0.0426     0.0846 1.3596e+00     2.0716      2.314      3.356    15.9056 0.0000e+00
      2.374      0.056     1.8349     13.577     39.540  32.227456     3.8700     0.3156     0.0426     0.0846 1.3321e+00     2.0566      2.328      3.377    15.8573 0.0000e+00
      2.388      0.054     1.7156     12.639     39.560  32.225852     3.7800     0.3156     0.0426     0.2115 1.3160e+00     2.1017      2.342      3.397    15.8221 0.0000e+00
      2.402      0.051     1.5868     11.947     39.584  32.223592     3.7800     0.3118     0.0426     0.2115 1.3094e+00     2.1317      2.355      3.416    15.7951 0.0000e+00
      2.415      0.048     1.4602     11.488     39.622  32.224035     3.7800     0.3118     0.0426     0.2115 1.2771e+00     2.3422      2.368      3.435    15.7715 0.0000e+00
      2.427      0.046     1.3468     11.215     39.672  32.221357     3.7800     0.3194     0.0426     0.2115 1.2868e+00     2.2670      2.380      3.452    15.7489 0.0000e+00
      2.438      0.043     1.2544     11.059     39.728  32.212862     3.8700     0.3003     0.0852     0.2115 1.2669e+00     2.2971      2.391      3.468    15.7263 0.0000e+00
      2.448      0.041     1.1864     10.935     39.786  32.202222     3.8700     0.3079     0.0852     0.2115 1.2209e+00     2.0866      2.401      3.482    15.6996 0.0000e+00
      2.458      0.040     1.1418     10.759     39.851  32.194520     3.8700     0.3118     0.0852     0.2115 1.1379e+00     2.1017      2.410      3.496    15.6612 0.0000e+00
      2.467      0.040     1.1160     10.463     39.930  32.195618     3.8700     0.2965     0.0852     0.2115 1.0423e+00     2.1017      2.419      3.509    15.6063 0.0000e+00
      2.476      0.041     1.1020     10.010     40.028  32.209770     3.7800     0.3156     0.0852     0.2538 9.6679e-01     2.0416      2.428      3.522    15.5391 0.0000e+00
      2.486      0.043     1.0912      9.390     40.143  32.236785     3.7800     0.3232     0.0852     0.2538 9.0992e-01     2.4624      2.438      3.536    15.4667 0.0000e+00
      2.497      0.047     1.0753      8.617     40.287  32.283866     3.7800     0.3194     0.0852     0.2538 8.6895e-01     2.5225      2.449      3.552    15.3914 0.0000e+00
      2.510      0.050     1.0473      7.722     40.470  32.357626     3.7800     0.3232     0.0852     0.2538 8.2033e-01     2.5676      2.461      3.570    15.3129 0.0000e+00
      2.524      0.053     1.0035      6.752     40.660  32.434164     3.7800     0.3156     0.0852     0.2538 8.0374e-01     2.5225      2.475      3.589    15.2325 0.0000e+00
      2.539      0.054     0.9428      5.756     40.819  32.488343     3.7800     0.4491     0.0852     0.2538 7.5384e-01     3.4995      2.490      3.610    15.1510 0.0000e+00
      2.554      0.055     0.8665      4.773     40.951  32.530646     3.7800     0.4605     0.0852     0.2538 7.3380e-01     3.3792      2.504      3.632    15.0667 0.0000e+00
      2.568      0.054     0.7778      3.822     41.081  32.580274     3.7800     0.4338     0.0852     0.2538 7.1382e-01     3.4243      2.518      3.652    14.9769 0.0000e+00
      2.582      0.053     0.6812      2.904     41.215  32.634616     3.7800     0.4415     0.0852     0.2538 7.1382e-01     3.3943      2.532      3.672    14.8834 0.0000e+00
      2.595      0.051     0.5816      2.032     41.332  32.676479     3.8700     0.4300     0.0852     0.6768 7.0980e-01     3.6648      2.545      3.691    14.7946 0.0000e+00
      2.608      0.048     0.4830      1.237     41.428  32.705143     3.8700     0.4262     0.0852     0.6768 6.4438e-01     3.6498      2.557      3.709    14.7179 0.0000e+00
      2.620      0.046     0.3872      0.544     41.513  32.732209     3.8700     0.4376     0.0852     0.6768 6.7961e-01     3.6949      2.569      3.726    14.6516 0.0000e+00
      2.631      0.043     0.2945     -0.037     41.597  32.764893     3.8700     0.4491     0.0852     0.6768 6.6083e-01     3.7249      2.580      3.743    14.5888 0.0000e+00
      2.642      0.041     0.2062     -0.494     41.694  32.811911     3.8700     0.4872     0.0852     0.7614 6.4972e-01     3.6197      2.591      3.758    14.5271 0.0000e+00
      2.652      0.039     0.1255     -0.817     41.809  32.875899     3.8700     0.5063     0.0852     0.7614 6.4916e-01     3.5596      2.600      3.772    14.4699 0.0000e+00
      2.661      0.037     0.0550     -1.001     41.933  32.950155     3.8700     0.4949     0.0852     0.7614 6.7608e-01     3.6348      2.610      3.786    14.4214 0.0000e+00
      2.670      0.036    -0.0042     -1.063     42.058  33.028737     3.8700     0.4987     0.0852     0.7614 6.2629e-01     3.6798      2.618      3.798    14.3810 0.0000e+00
      2.679      0.034    -0.0509     -1.030     42.201  33.124678     3.8700     0.4682     0.0852     0.7191 6.3783e-01     3.7249      2.627      3.811    14.3457 0.0000e+00
      2.688      0.033    -0.0838     -0.929     42.413  33.275443     3.8700     0.4224     0.0852     0.7191 6.4887e-01     3.6197      2.635      3.823    14.3142 0.0000e+00
      2.696      0.032    -0.1026     -0.781     42.747  33.521236     3.8700     0.4262     0.0852     0.7191 6.2006e-01     3.6197      2.644      3.835    14.2867 0.0000e+00
      2.704      0.031    -0.1090     -0.603     43.181  33.836508     3.8700     0.4491     0.0852     0.7191 6.2426e-01     3.5897      2.652      3.846    14.2632 0.0000e+00
      2.712      0.031    -0.1056     -0.404     43.601  34.129076     3.8700     0.4109     0.0852     0.7191 6.2060e-01     3.6648      2.660      3.857    14.2435 0.0000e+00
      2.720      0.030    -0.0952     -0.193     43.937  34.346253     3.9600     0.4148     0.1278     0.4230 6.2561e-01     3.6648      2.667      3.868    14.2260 0.0000e+00
      2.727      0.031    -0.0801      0.023     44.178  34.488515     3.9600     0.4453     0.1278     0.4230 6.2643e-01     3.5897      2.674      3.878    14.2068 0.0000e+00
      2.734      0.033    -0.0618      0.237     44.352  34.581914     3.9600     0.4300     0.1278     0.4230 5.9979e-01     3.6047      2.681      3.889    14.1785 0.0000e+00
      2.742      0.036    -0.0414      0.436     44.501  34.657298     3.9600     0.4224     0.1278     0.4230 6.2371e-01     3.6648      2.689      3.900    14.1365 0.0000e+00
      2.751      0.040    -0.0197      0.612     44.622  34.711001     4.0500     0.4300     0.0852     0.2961 6.1657e-01     3.6197      2.698      3.913    14.0847 0.0000e+00
      2.762      0.044     0.0025      0.766     44.700  34.731597     4.0500     0.4529     0.0852     0.2961 6.1084e-01     3.6498      2.708      3.928    14.0319 0.0000e+00
      2.774      0.047     0.0246      0.899     44.746  34.732499     4.0500     0.4376     0.0852     0.2961 6.2902e-01     3.6197      2.721      3.946    13.9835 0.0000e+00
      2.788      0.051     0.0451      1.010     44.776  34.729788     4.0500     0.4148     0.0852     0.2961 6.0608e-01     3.6949      2.734      3.965    13.9381 0.0000e+00
      2.802      0.054     0.0633      1.106     44.810  34.732644     4.0500     0.3385     0.0852     0.4653 5.8779e-01     3.6348      2.747      3.984    13.8921 0.0000e+00
      2.815      0.057     0.0793      1.193     44.872  34.753711     4.0500     0.3079     0.0852     0.4653 5.7967e-01     3.6498      2.761      4.004    13.8470 0.0000e+00
      2.830      0.059     0.0931      1.270     44.986  34.808510     4.0500     0.3156     0.0852     0.4653 5.4950e-01     3.6648      2.775      4.024    13.8084 0.0000e+00
      2.845      0.062     0.1046      1.339     45.198  34.931456     4.0500     0.3079     0.0852     0.4653 5.9035e-01     3.6197      2.790      4.046    13.7787 0.0000e+00
      2.861      0.066     0.1146      1.404     45.539  35.149393     4.0500     0.3308     0.0852     0.2538 5.9357e-01     3.6949      2.806      4.069    13.7528 0.0000e+00
      2.878      0.070     0.1237      1.463     45.981  35.443195     4.0500     0.3041     0.0852     0.2538 5.5562e-01     3.6197      2.823      4.094    13.7232 0.0000e+00
      2.897      0.073     0.1318      1.515     46.465  35.772377     4.0500     0.3079     0.0852     0.2538 5.6389e-01     3.6648      2.841      4.120    13.6864 0.0000e+00
      2.916      0.076     0.1392      1.564     46.922  36.082119     4.0500     0.3423     0.0852     0.2538 5.6072e-01     3.6648      2.860      4.147    13.6421 0.0000e+00
      2.937      0.079     0.1461      1.609     47.279  36.316374     4.0500     0.3728     0.0852     0.2538 5.1025e-01     3.4694      2.880      4.176    13.5922 0.0000e+00
      2.957      0.081     0.1524      1.648     47.500  36.448481     4.0500     0.3728     0.0852     0.2115 4.9314e-01     3.3943      2.900      4.206    13.5414 0.0000e+00
      2.979      0.082     0.1580      1.679     47.616  36.501782     4.0500     0.4033     0.0852     0.2115 4.8601e-01     3.3943      2.921      4.236    13.4935 0.0000e+00
      3.000      0.082     0.1632      1.700     47.707  36.538026     4.0500     0.3842     0.0852     0.2115 4.4594e-01     3.4394      2.942      4.267    13.4485 0.0000e+00
      3.021      0.082     0.1680      1.712     47.814  36.584704     4.0500     0.2851     0.0852     0.2115 4.3683e-01     3.6648      2.963      4.297    13.4057 0.0000e+00
      3.042      0.082     0.1722      1.722     47.918  36.624551     4.2300     0.3156     0.0852     0.2538 4.3305e-01     3.5897      2.983      4.327    13.3651 0.0000e+00
      3.063      0.081     0.1756      1.735     48.009  36.650366     4.2300     0.3194     0.0852     0.2538 4.3258e-01     3.6348      3.004      4.356    13.3273 0.0000e+00
      3.084      0.081     0.1780      1.750     48.089  36.665071     4.2300     0.3079     0.0852     0.2538 4.4487e-01     3.7099      3.024      4.386    13.2919 0.0000e+00
      3.104      0.080     0.1794      1.764     48.137  36.654759     4.2300     0.3003     0.0852     0.2538 4.1789e-01     4.5666      3.044      4.415    13.2553 0.0000e+00
      3.125      0.079     0.1806      1.772     48.130  36.602814     4.2300     0.3156     0.0852     0.2115 4.3005e-01     4.5366      3.064      4.444    13.2138 0.0000e+00
      3.145      0.079     0.1821      1.777     48.090  36.521131     4.2300     0.3232     0.0852     0.2115 4.2236e-01     4.5366      3.084      4.473    13.1675 0.0000e+00
      3.165      0.078     0.1840      1.785     48.059  36.443386     4.2300     0.3079     0.0852     0.2115 3.9126e-01     4.5366      3.103      4.501    13.1191 0.0000e+00
      3.184      0.076     0.1857      1.792     48.061  36.390436     4.2300     0.2660     0.0852     0.2115 3.8310e-01     5.6187      3.123      4.530    13.0707 0.0000e+00
      3.204      0.075     0.1866      1.795     48.089  36.360045     4.2300     0.2736     0.1278     0.1692 3.9126e-01     5.4985      3.142      4.557    13.0214 0.0000e+00
      3.223      0.073     0.1874      1.796     48.127  36.340145     4.2300     0.2736     0.1278     0.1692 3.9708e-01     5.5436      3.161      4.584    12.9686 0.0000e+00
      3.241      0.071     0.1885      1.796     48.159  36.317505     4.2300     0.2660     0.1278     0.1692 3.7617e-01     5.5736      3.179      4.611    12.9120 0.0000e+00
      3.259      0.069     0.1894      1.801     48.192  36.295990     4.2300     0.2812     0.1278     0.1692 3.7073e-01     6.3702      3.196      4.636    12.8553 0.0000e+00
      3.276      0.067     0.1900      1.812     48.251  36.291648     4.2300     0.2507     0.1278     0.1692 3.4930e-01     6.6708      3.213      4.660    12.8018 0.0000e+00
      3.293      0.066     0.1903      1.819     48.332  36.301339     4.3200     0.2698     0.1704     0.2115 3.5273e-01     6.5055      3.229      4.683    12.7516 0.0000e+00
      3.309      0.065     0.1905      1.822     48.413  36.305860     4.3200     0.2507     0.1704     0.2115 3.5105e-01     6.5205      3.245      4.706    12.7032 0.0000e+00
      3.325      0.065     0.1913      1.828     48.460  36.278684     4.3200     0.1973     0.1704     0.2115 3.6442e-01     7.6779      3.261      4.730    12.6550 0.0000e+00
      3.342      0.066     0.1926      1.838     48.431  36.188795     4.3200     0.2164     0.1704     0.2115 3.5258e-01     7.7380      3.277      4.753    12.6050 0.0000e+00
      3.358      0.066     0.1936      1.852     48.312  36.026085     4.3200     0.2011     0.1704     0.2115 3.5923e-01     7.7680      3.294      4.777    12.5516 0.0000e+00
      3.376      0.066     0.1942      1.876     48.162  35.836291     4.3200     0.1935     0.1704     0.2115 3.3539e-01     7.6628      3.311      4.802    12.4929 0.0000e+00
      3.393      0.066     0.1951      1.917     48.071  35.693574     4.3200     0.1363     0.1704     0.2115 3.4590e-01    10.2330      3.328      4.826    12.4282 0.0000e+00
      3.410      0.064     0.1964      1.986     48.056  35.621271     4.3200     0.1363     0.1704     0.2115 2.9904e-01    10.3833      3.345      4.851    12.3579 0.0000e+00
      3.427      0.062     0.1983      2.105     48.048  35.574353     4.4100     0.1706     0.2556     0.2115 3.3379e-01    10.2330      3.361      4.875    12.2813 0.0000e+00
      3.443      0.060     0.2013      2.294     47.972  35.492771     4.4100     0.1515     0.2556     0.2115 3.3965e-01    10.2931      3.376      4.897    12.1998 0.0000e+00
      3.457      0.058     0.2061      2.575     47.827  35.362695     4.4100     0.1515     0.2556     0.2115 2.8090e-01    10.3532      3.390      4.917    12.1219 0.0000e+00
      3.470      0.058     0.2139      2.957     47.647  35.200933     4.4100     0.1439     0.2556     0.2115 2.9491e-01    10.2180      3.403      4.936    12.0588 0.0000e+00
      3.484      0.060     0.2269      3.436     47.434  35.001979     4.2300     0.1134     0.2556     0.1269 3.3213e-01    10.3532      3.417      4.955    12.0162 0.0000e+00
      3.498      0.065     0.2475      4.014     47.184  34.762289     4.2300     0.1210     0.2556     0.1269 3.1307e-01    10.3081      3.431      4.976    11.9892 0.0000e+00
      3.514      0.071     0.2781      4.721     46.928  34.503108     4.2300     0.1363     0.2556     0.1269 3.1787e-01    10.0677      3.447      4.999    11.9656 0.0000e+00
      3.533      0.078     0.3197      5.620     46.677  34.236518     4.2300     0.1363     0.2556     0.1269 2.9787e-01    10.0827      3.465      5.025    11.9346 0.0000e+00
      3.554      0.086     0.3720      6.825     46.414  33.954799     4.2300     0.1439     0.2556     0.1269 3.0112e-01    10.0526      3.486      5.056    11.8909 0.0000e+00
      3.578      0.093     0.4355      8.501     46.141  33.664020     4.2300     0.1286     0.2556     0.1269 3.1042e-01    10.0677      3.509      5.089    11.8316 0.0000e+00
      3.603      0.099     0.5133     10.853     45.906  33.401500     4.2300     0.1286     0.2556     0.1269 2.7432e-01     8.4745      3.534      5.125    11.7563 0.0000e+00
      3.629      0.103     0.6126     14.094     45.739  33.194269     4.2300     0.1286     0.2556     0.1269 2.7378e-01     8.3843      3.559      5.163    11.6680 0.0000e+00
      3.657      0.105     0.7457     18.407     45.633  33.040531     4.2300     0.1286     0.2556     0.1269 2.5012e-01     8.4143      3.586      5.201    11.5721 0.0000e+00
      3.685      0.106     0.9309     23.909     45.584  32.940872     4.0500     0.1439     0.2130     0.0846 2.6819e-01     8.3392      3.613      5.241    11.4731 0.0000e+00
      3.713      0.106     1.1908     30.594     45.588  32.894460     4.0500     0.1401     0.2130     0.0846 2.2930e-01     6.0696      3.641      5.281    11.3746 0.0000e+00
      3.741      0.103     1.5490     38.282     45.623  32.886934     4.0500     0.1248     0.2130     0.0846 2.4163e-01     6.0095      3.668      5.321    11.2811 0.0000e+00
      3.767      0.099     2.0257     46.619     45.664  32.898465     4.0500     0.1363     0.2130     0.0846 2.5667e-01     5.9043      3.695      5.359    11.1977 0.0000e+00
      3.792      0.094     2.6336     55.126     45.683  32.904404     3.8700     0.1325     0.1278     0.2115 2.2707e-01     6.0546      3.719      5.395    11.1281 0.0000e+00
      3.816      0.089     3.3720     63.257     45.676  32.894452     3.8700     0.1325     0.1278     0.2115 2.2296e-01     5.5586      3.742      5.427    11.0746 0.0000e+00
      3.837      0.084     4.2208     70.457     45.664  32.877838     3.8700     0.1286     0.1278     0.2115 2.2990e-01     5.5286      3.763      5.458    11.0387 0.0000e+00
      3.858      0.079     5.1406     76.248     45.656  32.862014     3.8700     0.1325     0.1278     0.2115 2.3190e-01     5.5736      3.783      5.487    11.0191 0.0000e+00
      3.877      0.075     6.0786     80.345     45.649  32.846719     3.8700     0.1515     0.1278     0.2115 2.0009e-01     5.6338      3.803      5.515    11.0108 0.0000e+00
      3.896      0.073     6.9753     82.709     45.624  32.819954     3.7800     0.1401     0.1278     0.1692 1.7026e-01     5.0025      3.821      5.542    11.0056 0.0000e+00
      3.914      0.071     7.7702     83.539     45.566  32.766660     3.7800     0.1286     0.1278     0.1692 2.1408e-01     5.0476      3.838      5.567    10.9973 0.0000e+00
      3.931      0.070     8.4107     83.177     45.476  32.684506     3.7800     0.1325     0.1278     0.1692 1.7283e-01     5.0476      3.855      5.591    10.9862 0.0000e+00
      3.948      0.071     8.8644     82.003     45.385  32.593173     3.7800     0.1286     0.1278     0.1692 2.0285e-01     5.0626      3.871      5.615    10.9752 0.0000e+00
      3.965      0.072     9.1270     80.393     45.333  32.523750     3.7800     0.1363     0.1278     0.0846 1.7279e-01     4.7921      3.889      5.640    10.9649 0.0000e+00
      3.984      0.073     9.2209     78.703     45.324  32.483467     3.7800     0.1363     0.1278     0.0846 1.9376e-01     4.8221      3.907      5.667    10.9526 0.0000e+00
      4.004      0.074     9.1846     77.246     45.334  32.461581     3.7800     0.1515     0.1278     0.0846 1.7362e-01     4.8221      3.927      5.695    10.9335 0.0000e+00
      4.024      0.074     9.0608     76.261     45.353  32.452254     3.7800     0.1172     0.1278     0.0846 1.9117e-01     4.7470      3.946      5.723    10.9049 0.0000e+00
      4.043      0.074     8.8902     75.882     45.367  32.445077     3.7800     0.1363     0.0852     0.1269 1.5524e-01     4.5967      3.965      5.750    10.8690 0.0000e+00
      4.062      0.073     8.7107     76.118     45.364  32.430214     3.7800     0.1210     0.0852     0.1269 1.7033e-01     4.5666      3.983      5.777    10.8322 0.0000e+00
      4.080      0.071     8.5559     76.881     45.353  32.411624     3.7800     0.1210     0.0852     0.1269 1.7249e-01     4.6418      4.001      5.803    10.8002 0.0000e+00
      4.098      0.070     8.4520     78.011     45.351  32.400190     3.7800     0.1325     0.0852     0.1269 1.4745e-01     4.6418      4.019      5.828    10.7751 0.0000e+00
      4.115      0.069     8.4139     79.301     45.360  32.396825     3.6900     0.1325     0.0852     0.0846 1.4981e-01     4.6267      4.036      5.853    10.7561 0.0000e+00
      4.133      0.068     8.4430     80.543     45.373  32.396670     3.6900     0.1172     0.0852     0.0846 1.2656e-01     4.6869      4.053      5.878    10.7416 0.0000e+00
      4.150      0.068     8.5302     81.574     45.394  32.403643     3.6900     0.1515     0.0852     0.0846 1.5993e-01     4.5215      4.070      5.904    10.7298 0.0000e+00
      4.168      0.067     8.6578     82.298     45.422  32.415643     3.6900     0.1134     0.0852     0.0846 1.1607e-01     4.6117      4.087      5.928    10.7187 0.0000e+00
      4.185      0.067     8.8033     82.707     45.443  32.423988     3.6900     0.1286     0.0852     0.0846 1.2338e-01     4.8372      4.104      5.952    10.7078 0.0000e+00
      4.201      0.067     8.9433     82.863     45.459  32.430903     3.7800     0.1477     0.1278     0.1269 1.3195e-01     4.8372      4.120      5.976    10.6978 0.0000e+00
      4.218      0.068     9.0596     82.854     45.476  32.438233     3.7800     0.1019     0.1278     0.1269 1.1704e-01     4.8672      4.136      5.999    10.6888 0.0000e+00
      4.235      0.067     9.1418     82.764     45.485  32.440011     3.7800     0.1401     0.1278     0.1269 1.4002e-01     4.7921      4.153      6.024    10.6802 0.0000e+00
      4.253      0.067     9.1887     82.643     45.486  32.436711     3.7800     0.1286     0.1278     0.1269 1.1607e-01     4.8672      4.171      6.050    10.6731 0.0000e+00
      4.271      0.065     9.2071     82.519     45.480  32.431412     3.7800     0.1363     0.1278     0.1269 1.1623e-01     4.8221      4.189      6.075    10.6676 0.0000e+00
      4.288      0.062     9.2073     82.406     45.477  32.430623     3.7800     0.1248     0.1278     0.1269 1.2013e-01     4.8522      4.205      6.099    10.6625 0.0000e+00
      4.304      0.059     9.1984     82.298     45.488  32.442056     3.7800     0.1592     0.1278     0.1269 1.1617e-01     4.7921      4.220      6.121    10.6572 0.0000e+00
      4.318      0.056     9.1858     82.168     45.507  32.460836     3.7800     0.1515     0.1278     0.1269 1.1612e-01     4.8221      4.234      6.141    10.6533 0.0000e+00
      4.331      0.053     9.1722     81.975     45.520  32.476132     3.7800     0.1325     0.0852     0.1692 1.1620e-01     4.8522      4.247      6.160    10.6519 0.0000e+00
      4.343      0.052     9.1594     81.682     45.516  32.480140     3.7800     0.1210     0.0852     0.1692 1.1610e-01     4.8973      4.259      6.177    10.6532 0.0000e+00
      4.355      0.052     9.1467     81.257     45.495  32.469969     3.7800     0.1363     0.0852     0.1692 1.2295e-01     4.8823      4.271      6.195    10.6569 0.0000e+00
      4.368      0.054     9.1310     80.681     45.460  32.446867     3.7800     0.1286     0.0852     0.1692 1.1612e-01     4.7620      4.284      6.213    10.6626 0.0000e+00
      4.382      0.057     9.1080     79.953     45.432  32.424477     3.7800     0.1439     0.0852     0.2115 1.1992e-01     4.7620      4.297      6.232    10.6698 0.0000e+00
      4.396      0.061     9.0738     79.109     45.429  32.416631     3.7800     0.1172     0.0852     0.2115 1.1623e-01     4.8221      4.311      6.253    10.6773 0.0000e+00
      4.412      0.065     9.0255     78.219     45.445  32.421235     3.7800     0.1363     0.0852     0.2115 1.1610e-01     4.8823      4.327      6.275    10.6827 0.0000e+00
      4.429      0.070     8.9612     77.378     45.471  32.431597     3.7800     0.1515     0.0852     0.2115 1.1595e-01     5.1227      4.344      6.300    10.6842 0.0000e+00
      4.448      0.074     8.8808     76.686     45.491  32.438597     3.7800     0.1668     0.0852     0.2115 1.1602e-01     5.0626      4.362      6.327    10.6818 0.0000e+00
      4.468      0.077     8.7882     76.224     45.501  32.440142     3.7800     0.1515     0.1278     0.2115 1.1612e-01     5.0175      4.382      6.355    10.6761 0.0000e+00
      4.488      0.079     8.6910     76.035     45.508  32.440603     3.7800     0.1401     0.1278     0.2115 1.1615e-01     5.0175      4.402      6.384    10.6681 0.0000e+00
      4.509      0.081     8.5992     76.117     45.507  32.436143     3.7800     0.1439     0.1278     0.2115 1.1623e-01     5.0025      4.422      6.414    10.6595 0.0000e+00
      4.530      0.081     8.5239     76.421     45.502  32.429534     3.7800     0.1363     0.1278     0.2115 1.1600e-01     5.0776      4.443      6.444    10.6516 0.0000e+00
      4.552      0.081     8.4739     76.869     45.507  32.430893     3.7800     0.1515     0.0852     0.0846 1.1607e-01     5.1227      4.464      6.474    10.6451 0.0000e+00
      4.573      0.079     8.4539     77.380     45.518  32.436623     3.7800     0.1592     0.0852     0.0846 1.1612e-01     5.0626      4.485      6.504    10.6400 0.0000e+00
      4.593      0.076     8.4638     77.878     45.525  32.440332     3.7800     0.1248     0.0852     0.0846 1.1612e-01     5.0476      4.505      6.533    10.6360 0.0000e+00
      4.613      0.073     8.4982     78.310     45.530  32.443007     3.7800     0.1286     0.0852     0.0846 1.1625e-01     5.0476      4.524      6.561    10.6329 0.0000e+00
      4.631      0.071     8.5486     78.650     45.534  32.445362     3.7800     0.1477     0.0852     0.1692 1.1610e-01     5.1077      4.541      6.586    10.6303 0.0000e+00
      4.647      0.071     8.6058     78.896     45.539  32.448025     3.7800     0.1363     0.0852     0.1692 1.1610e-01     5.1077      4.558      6.610    10.6282 0.0000e+00
      4.664      0.072     8.6616     79.060     45.541  32.447746     3.7800     0.1363     0.0852     0.1692 1.1617e-01     5.0927      4.574      6.634    10.6267 0.0000e+00
      4.681      0.076     8.7098     79.162     45.539  32.444450     3.7800     0.1210     0.0852     0.1692 1.1628e-01     4.9574      4.591      6.658    10.6256 0.0000e+00
      4.700      0.080     8.7478     79.210     45.538  32.441219     3.7800     0.1058     0.0852     0.0423 1.1623e-01     5.0626      4.610      6.686    10.6248 0.0000e+00
      4.722      0.086     8.7753     79.209     45.535  32.437191     3.7800     0.1439     0.0852     0.0423 1.1630e-01     5.1227      4.631      6.717    10.6238 0.0000e+00
      4.746      0.091     8.7939     79.173     45.535  32.435253     3.7800     0.1325     0.0852     0.0423 1.1602e-01     5.0025      4.654      6.750    10.6222 0.0000e+00
      4.770      0.096     8.8056     79.113     45.537  32.434886     3.7800     0.1286     0.0852     0.0423 1.1617e-01     5.0927      4.678      6.785    10.6200 0.0000e+00
      4.796      0.100     8.8115     79.034     45.530  32.428074     3.7800     0.1439     0.0852     0.0423 1.1615e-01     5.0626      4.703      6.821    10.6176 0.0000e+00
      4.822      0.102     8.8119     78.951     45.521  32.420919     3.7800     0.1134     0.1278     0.1269 1.1633e-01     4.9875      4.729      6.859    10.6152 0.0000e+00
      4.849      0.104     8.8083     78.884     45.526  32.423395     3.7800     0.1515     0.1278     0.1269 1.1607e-01     5.0326      4.755      6.897    10.6130 0.0000e+00
      4.876      0.104     8.8020     78.842     45.534  32.428243     3.7800     0.1363     0.1278     0.1269 1.1607e-01     5.0776      4.782      6.935    10.6111 0.0000e+00
      4.903      0.105     8.7936     78.823     45.536  32.428832     3.7800     0.1325     0.1278     0.1269 1.1620e-01     5.1528      4.808      6.974    10.6094 0.0000e+00
      4.929      0.104     8.7847     78.819     45.538  32.429282     3.7800     0.1401     0.1278     0.1269 1.1620e-01     5.1378      4.834      7.011    10.6081 0.0000e+00
      4.956      0.104     8.7774     78.827     45.540  32.429711     3.7800     0.1286     0.1278     0.1269 1.1610e-01     5.0626      4.860      7.049    10.6071 0.0000e+00
      4.982      0.104     8.7729     78.844     45.531  32.422313     3.7800     0.1363     0.1278     0.1269 1.1628e-01     5.0927      4.886      7.086    10.6061 0.0000e+00
      5.008      0.104     8.7710     78.867     45.513  32.409076     3.7800     0.1477     0.1278     0.1269 1.1615e-01     5.1378      4.911      7.124    10.6051 0.0000e+00
      5.035      0.105     8.7707     78.887     45.505  32.402312     3.8700     0.1515     0.1278     0.1269 1.1612e-01     5.0476      4.937      7.161    10.6041 0.0000e+00
      5.061      0.106     8.7718     78.890     45.508  32.404178     3.8700     0.1439     0.1278     0.1269 1.1607e-01     5.0326      4.964      7.199    10.6032 0.0000e+00
      5.089      0.106     8.7739     78.872     45.513  32.407251     3.8700     0.1401     0.1278     0.1269 1.1600e-01     5.0476      4.990      7.238    10.6023 0.0000e+00
      5.116      0.107     8.7766     78.840     45.521  32.412348     3.8700     0.1286     0.1278     0.1269 1.1605e-01     5.0626      5.017      7.276    10.6015 0.0000e+00
      5.144      0.107     8.7791     78.795     45.535  32.420831     3.7800     0.1401     0.1278     0.0846 1.1628e-01     5.1227      5.044      7.316    10.6008 0.0000e+00
      5.171      0.106     8.7795     78.736     45.545  32.427039     3.7800     0.1286     0.1278     0.0846 1.1617e-01     5.1378      5.071      7.355    10.6001 0.0000e+00
      5.198      0.104     8.7776     78.668     45.554  32.432629     3.7800     0.1172     0.1278     0.0846 1.1623e-01     5.0476      5.097      7.393    10.5995 0.0000e+00
      5.225      0.102     8.7741     78.600     45.564  32.439091     3.7800     0.1325     0.1278     0.0846 1.1620e-01     5.0927      5.124      7.432    10.5988 0.0000e+00
      5.251      0.100     8.7694     78.534     45.572  32.444187     3.7800     0.1286     0.1278     0.0846 1.1612e-01     5.0476      5.149      7.469    10.5977 0.0000e+00
      5.276      0.098     8.7631     78.472     45.579  32.449277     3.7800     0.1592     0.0852     0.0846 1.1610e-01     5.0476      5.174      7.504    10.5963 0.0000e+00
      5.299      0.097     8.7558     78.422     45.577  32.447795     3.7800     0.1134     0.0852     0.0846 1.1612e-01     5.0175      5.197      7.538    10.5951 0.0000e+00
      5.323      0.099     8.7484     78.383     45.561  32.435388     3.7800     0.1668     0.0852     0.0846 1.1610e-01     5.1378      5.220      7.571    10.5944 0.0000e+00
      5.347      0.101     8.7410     78.351     45.542  32.420628     3.7800     0.1210     0.0852     0.0846 1.1623e-01     5.1077      5.243      7.605    10.5942 0.0000e+00
      5.373      0.104     8.7342     78.319     45.525  32.407499     3.7800     0.1592     0.0852     0.1269 1.1623e-01     5.3031      5.269      7.641    10.5941 0.0000e+00
      5.401      0.107     8.7286     78.281     45.511  32.396463     3.7800     0.1172     0.0852     0.1269 1.1617e-01     5.2430      5.296      7.681    10.5938 0.0000e+00
      5.430      0.108     8.7245     78.243     45.507  32.392495     3.7800     0.1286     0.0852     0.1269 1.1617e-01     5.3031      5.325      7.723    10.5930 0.0000e+00
      5.460      0.107     8.7212     78.216     45.510  32.394538     3.7800     0.1210     0.0852     0.1269 1.1615e-01     5.3332      5.354      7.765    10.5917 0.0000e+00
      5.487      0.105     8.7179     78.205     45.516  32.399177     3.7800     0.1096     0.1278     0.0000 1.1625e-01     5.3181      5.381      7.805    10.5902 0.0000e+00
      5.513      0.101     8.7139     78.210     45.523  32.403688     3.7800     0.0981     0.1278     0.0000 1.1628e-01     5.3632      5.407      7.841    10.5891 0.0000e+00
      5.538      0.097     8.7098     78.232     45.520  32.401352     3.7800     0.1668     0.1278     0.0000 1.1617e-01     5.3782      5.431      7.876    10.5886 0.0000e+00
      5.561      0.093     8.7068     78.264     45.506  32.391548     3.7800     0.1592     0.1278     0.0000 1.1612e-01     5.3332      5.454      7.910    10.5884 0.0000e+00
      5.584      0.089     8.7056     78.299     45.490  32.379582     3.7800     0.1744     0.1278     0.0000 1.1623e-01     5.0776      5.476      7.942    10.5885 0.0000e+00
      5.606      0.085     8.7062     78.326     45.483  32.374143     3.7800     0.1363     0.1278     0.1269 1.1602e-01     5.0626      5.498      7.973    10.5885 0.0000e+00
      5.628      0.081     8.7086     78.332     45.488  32.377743     3.7800     0.1592     0.1278     0.1269 1.1610e-01     5.0476      5.519      8.005    10.5882 0.0000e+00
      5.649      0.077     8.7123     78.318     45.495  32.383420     3.7800     0.1248     0.1278     0.1269 1.1607e-01     5.0326      5.539      8.034    10.5876 0.0000e+00
      5.667      0.073     8.7164     78.291     45.507  32.392688     3.7800     0.1210     0.1278     0.1269 1.1630e-01     5.1378      5.558      8.061    10.5870 0.0000e+00
      5.684      0.070     8.7195     78.255     45.521  32.404059     3.7800     0.1210     0.1278     0.0846 1.1628e-01     5.0927      5.574      8.085    10.5866 0.0000e+00
      5.700      0.070     8.7201     78.211     45.532  32.412642     3.7800     0.1477     0.1278     0.0846 1.1605e-01     5.0476      5.590      8.107    10.5867 0.0000e+00
      5.716      0.073     8.7184     78.163     45.539  32.416767     3.7800     0.1058     0.1278     0.0846 1.1620e-01     4.9875      5.606      8.130    10.5874 0.0000e+00
      5.733      0.078     8.7151     78.121     45.536  32.413573     3.7800     0.1439     0.1278     0.0846 1.1605e-01     5.0476      5.623      8.155    10.5885 0.0000e+00
      5.753      0.086     8.7109     78.097     45.533  32.410130     3.7800     0.1668     0.0852     0.0846 1.1620e-01     5.0776      5.642      8.183    10.5897 0.0000e+00
      5.776      0.094     8.7059     78.093     45.534  32.409479     3.7800     0.1439     0.0852     0.0846 1.1620e-01     5.0025      5.664      8.215    10.5904 0.0000e+00
      5.802      0.102     8.7006     78.107     45.533  32.407487     3.7800     0.1363     0.0852     0.0846 1.1612e-01     5.0476      5.690      8.252    10.5901 0.0000e+00
      5.830      0.108     8.6962     78.138     45.529  32.403621     3.7800     0.1248     0.0852     0.0846 1.1617e-01     5.0776      5.718      8.293    10.5889 0.0000e+00
      5.860      0.112     8.6939     78.182     45.520  32.396852     3.8700     0.1439     0.0852     0.1269 1.1612e-01     5.1829      5.747      8.335    10.5872 0.0000e+00
      5.890      0.114     8.6938     78.222     45.515  32.393294     3.8700     0.1477     0.0852     0.1269 1.1628e-01     5.0476      5.776      8.378    10.5857 0.0000e+00
      5.920      0.114     8.6955     78.243     45.524  32.399920     3.8700     0.1134     0.0852     0.1269 1.1617e-01     5.0776      5.806      8.420    10.5844 0.0000e+00
      5.950      0.111     8.6992     78.244     45.539  32.410577     3.8700     0.1286     0.0852     0.1269 1.1617e-01     5.0476      5.834      8.462    10.5836 0.0000e+00
      5.979      0.106     8.7041     78.236     45.553  32.420185     3.8700     0.1134     0.0852     0.1269 1.1625e-01     5.0927      5.863      8.503    10.5830 0.0000e+00
      6.007      0.099     8.7086     78.222     45.562  32.427346     3.8700     0.1401     0.0852     0.1269 1.1602e-01     5.1378      5.890      8.543    10.5827 0.0000e+00
      6.032      0.092     8.7110     78.202     45.554  32.422086     3.8700     0.1401     0.0852     0.1269 1.1630e-01     5.1378      5.915      8.579    10.5825 0.0000e+00
      6.054      0.084     8.7112     78.182     45.538  32.410926     3.8700     0.1248     0.0852     0.1269 1.1620e-01     5.1077      5.937      8.610    10.5825 0.0000e+00
      6.073      0.077     8.7102     78.164     45.531  32.406731     3.8700     0.1401     0.0852     0.1269 1.1612e-01     5.0476      5.956      8.638    10.5828 0.0000e+00
      6.091      0.072     8.7085     78.153     45.522  32.400461     3.7800     0.1515     0.0852     0.1269 1.1600e-01     5.0776      5.973      8.663    10.5832 0.0000e+00
      6.107      0.069     8.7062     78.147     45.513  32.394404     3.7800     0.1363     0.0852     0.1269 1.1612e-01     5.1378      5.989      8.686    10.5838 0.0000e+00
      6.123      0.068     8.7038     78.134     45.519  32.398828     3.7800     0.1286     0.0852     0.1269 1.1612e-01     5.1077      6.005      8.709    10.5844 0.0000e+00
      6.140      0.069     8.7018     78.115     45.537  32.410951     3.7800     0.1515     0.0852     0.1269 1.1612e-01     5.0776      6.021      8.733    10.5850 0.0000e+00
      6.158      0.071     8.7005     78.101     45.559  32.426085     3.7800     0.1592     0.1278     0.1269 1.1625e-01     5.0927      6.039      8.758    10.5856 0.0000e+00
      6.177      0.074     8.6996     78.098     45.575  32.436385     3.7800     0.1477     0.1278     0.1269 1.1617e-01     5.0626      6.057      8.785    10.5859 0.0000e+00
      6.196      0.076     8.6983     78.104     45.576  32.436675     3.7800     0.1363     0.1278     0.1269 1.1607e-01     5.0927      6.076      8.812    10.5857 0.0000e+00
      6.216      0.079     8.6963     78.118     45.568  32.430994     3.7800     0.1439     0.1278     0.1269 1.1610e-01     5.0626      6.095      8.840    10.5852 0.0000e+00
      6.236      0.080     8.6949     78.139     45.561  32.425747     3.7800     0.1286     0.1278     0.1269 1.1605e-01     5.0175      6.116      8.870    10.5844 0.0000e+00
      6.257      0.082     8.6946     78.163     45.558  32.423497     3.7800     0.1210     0.1278     0.1269 1.1605e-01     5.0326      6.136      8.900    10.5837 0.0000e+00
      6.279      0.083     8.6954     78.182     45.553  32.419681     3.7800     0.1286     0.1278     0.1269 1.1633e-01     5.0476      6.157      8.930    10.5831 0.0000e+00
      6.300      0.086     8.6971     78.191     45.544  32.413284     3.7800     0.1286     0.1278     0.1269 1.1623e-01     5.0476      6.178      8.960    10.5825 0.0000e+00
      6.321      0.089     8.6995     78.188     45.534  32.406559     3.7800     0.1325     0.1278     0.1269 1.1620e-01     5.0326      6.199      8.990    10.5822 0.0000e+00
      6.343      0.092     8.7022     78.174     45.522  32.397713     3.7800     0.1248     0.1278     0.0846 1.1620e-01     5.0326      6.220      9.021    10.5820 0.0000e+00
      6.367      0.097     8.7043     78.158     45.509  32.388349     3.7800     0.1134     0.1278     0.0846 1.1617e-01     5.2881      6.243      9.055    10.5820 0.0000e+00
      6.392      0.102     8.7053     78.142     45.503  32.383889     3.7800     0.1286     0.1278     0.0846 1.1628e-01     5.2430      6.268      9.091    10.5822 0.0000e+00
      6.419      0.108     8.7049     78.129     45.508  32.387104     3.7800     0.1210     0.1278     0.0846 1.1617e-01     5.3782      6.295      9.130    10.5822 0.0000e+00
      6.448      0.114     8.7034     78.118     45.520  32.394893     3.7800     0.1172     0.1278     0.0846 1.1617e-01     5.3181      6.323      9.170    10.5821 0.0000e+00
      6.477      0.120     8.7017     78.109     45.535  32.405371     3.7800     0.1248     0.1278     0.0846 1.1612e-01     5.2129      6.352      9.213    10.5820 0.0000e+00
      6.508      0.126     8.7000     78.107     45.552  32.417371     3.7800     0.1286     0.1278     0.0846 1.1612e-01     5.1378      6.383      9.257    10.5817 0.0000e+00
      6.541      0.132     8.6986     78.107     45.565  32.426172     3.7800     0.1439     0.1278     0.0846 1.1595e-01     5.1227      6.415      9.304    10.5813 0.0000e+00
      6.576      0.137     8.6974     78.109     45.570  32.430162     3.7800     0.1439     0.1278     0.1692 1.1605e-01     5.0476      6.449      9.353    10.5808 0.0000e+00
      6.612      0.141     8.6966     78.112     45.570  32.430404     3.7800     0.1210     0.1278     0.1692 1.1623e-01     5.2730      6.485      9.405    10.5804 0.0000e+00
      6.650      0.143     8.6963     78.116     45.565  32.426962     3.7800     0.1325     0.1278     0.1692 1.1620e-01     5.3031      6.521      9.458    10.5801 0.0000e+00
      6.687      0.143     8.6964     78.122     45.559  32.422879     3.7800     0.1019     0.1278     0.1692 1.1628e-01     5.3782      6.558      9.511    10.5800 0.0000e+00
      6.724      0.141     8.6966     78.133     45.556  32.421027     3.7800     0.1325     0.0852     0.1269 1.1615e-01     5.2430      6.594      9.564    10.5800 0.0000e+00
      6.761      0.138     8.6969     78.147     45.556  32.420911     3.7800     0.1401     0.0852     0.1269 1.1633e-01     5.0626      6.630      9.616    10.5800 0.0000e+00
      6.796      0.134     8.6974     78.162     45.552  32.418540     3.7800     0.1439     0.0852     0.1269 1.1628e-01     4.9724      6.664      9.666    10.5801 0.0000e+00
      6.829      0.130     8.6980     78.183     45.538  32.409322     3.7800     0.1439     0.0852     0.1269 1.1633e-01     5.0025      6.697      9.713    10.5804 0.0000e+00
      6.861      0.126     8.6992     78.209     45.522  32.398720     3.7800     0.1286     0.0852     0.1269 1.1590e-01     5.0326      6.729      9.759    10.5808 0.0000e+00
      6.893      0.121     8.7006     78.234     45.512  32.391827     3.8700     0.1668     0.1278     0.1269 1.1623e-01     5.1077      6.760      9.804    10.5813 0.0000e+00
      6.924      0.116     8.7022     78.254     45.505  32.386805     3.8700     0.1286     0.1278     0.1269 1.1617e-01     5.0626      6.790      9.848    10.5819 0.0000e+00
      6.953      0.110     8.7044     78.266     45.497  32.382316     3.8700     0.1096     0.1278     0.1269 1.1610e-01     5.0175      6.819      9.890    10.5824 0.0000e+00
      6.981      0.104     8.7072     78.260     45.495  32.381122     3.8700     0.1439     0.1278     0.1269 1.1600e-01     5.0476      6.846      9.929    10.5827 0.0000e+00
      7.006      0.098     8.7099     78.237     45.496  32.382904     3.7800     0.1439     0.1278     0.0846 1.1612e-01     5.1378      6.871      9.965    10.5830 0.0000e+00
      7.030      0.094     8.7121     78.210     45.491  32.380219     3.7800     0.1554     0.1278     0.0846 1.1623e-01     5.0326      6.894      9.999    10.5835 0.0000e+00
      7.051      0.091     8.7133     78.184     45.481  32.372348     3.7800     0.1592     0.1278     0.0846 1.1615e-01     5.1227      6.915     10.030    10.5842 0.0000e+00
      7.073      0.090     8.7125     78.158     45.466  32.361154     3.7800     0.1401     0.1278     0.0846 1.1612e-01     5.1077      6.936     10.060    10.5850 0.0000e+00
      7.095      0.092     8.7097     78.141     45.449  32.347613     3.7800     0.1172     0.0852     0.0846 1.1605e-01     5.1077      6.958     10.091    10.5860 0.0000e+00
      7.118      0.095     8.7066     78.130     45.434  32.336035     3.7800     0.1248     0.0852     0.0846 1.1623e-01     5.0175      6.981     10.125    10.5866 0.0000e+00
      7.143      0.100     8.7037     78.118     45.424  32.327291     3.7800     0.1210     0.0852     0.0846 1.1628e-01     4.9724      7.005     10.160    10.5864 0.0000e+00
      7.169      0.106     8.7011     78.099     45.420  32.323012     3.7800     0.1210     0.0852     0.0846 1.1612e-01     5.1227      7.030     10.196    10.5855 0.0000e+00
      7.196      0.111     8.6993     78.068     45.431  32.329977     3.7800     0.1248     0.0852     0.0846 1.1617e-01     5.0776      7.057     10.235    10.5845 0.0000e+00
      7.225      0.116     8.6984     78.015     45.456  32.346082     3.7800     0.1134     0.0852     0.0846 1.1617e-01     5.0776      7.086     10.277    10.5833 0.0000e+00
      7.256      0.119     8.6973     77.945     45.476  32.359781     3.7800     0.1325     0.0852     0.0846 1.1595e-01     5.0626      7.116     10.321    10.5819 0.0000e+00
      7.288      0.122     8.6956     77.867     45.482  32.362844     3.7800     0.1439     0.0852     0.0846 1.1612e-01     5.1227      7.147     10.366    10.5803 0.0000e+00
      7.320      0.123     8.6923     77.784     45.468  32.352128     3.7800     0.1554     0.0852     0.0846 1.1623e-01     5.0175      7.179     10.412    10.5788 0.0000e+00
      7.352      0.122     8.6867     77.702     45.447  32.336656     3.8700     0.1363     0.1278     0.0846 1.1607e-01     4.9875      7.210     10.457    10.5774 0.0000e+00
      7.383      0.122     8.6792     77.632     45.436  32.328146     3.8700     0.1286     0.1278     0.0846 1.1628e-01     5.0927      7.240     10.501    10.5763 0.0000e+00
      7.414      0.121     8.6707     77.572     45.431  32.324327     3.8700     0.1325     0.1278     0.0846 1.1615e-01     5.0927      7.270     10.545    10.5754 0.0000e+00
      7.444      0.120     8.6615     77.513     45.432  32.324181     3.8700     0.1286     0.1278     0.0846 1.1615e-01     5.0025      7.300     10.588    10.5746 0.0000e+00
      7.475      0.120     8.6526     77.450     45.449  32.335591     3.8700     0.1401     0.1278     0.1269 1.1617e-01     4.9424      7.330     10.631    10.5740 0.0000e+00
      7.505      0.120     8.6448     77.384     45.475  32.353678     3.8700     0.1515     0.1278     0.1269 1.1612e-01     5.0776      7.360     10.675    10.5733 0.0000e+00
      7.536      0.121     8.6383     77.315     45.501  32.371384     3.8700     0.1286     0.1278     0.1269 1.1617e-01     5.1077      7.390     10.718    10.5727 0.0000e+00
      7.567      0.121     8.6319     77.238     45.540  32.397390     3.8700     0.1363     0.1278     0.1269 1.1625e-01     5.0626      7.421     10.762    10.5719 0.0000e+00
      7.598      0.120     8.6250     77.148     45.594  32.434671     3.7800     0.1286     0.0852     0.1692 1.1635e-01     5.0326      7.451     10.807    10.5711 0.0000e+00
      7.629      0.119     8.6179     77.043     45.675  32.489207     3.7800     0.1210     0.0852     0.1692 1.1600e-01     5.0476      7.482     10.851    10.5701 0.0000e+00
      7.660      0.117     8.6104     76.924     45.813  32.583463     3.7800     0.1172     0.0852     0.1692 1.1605e-01     5.1077      7.512     10.895    10.5690 0.0000e+00
      7.690      0.113     8.6021     76.771     46.023  32.726732     3.7800     0.1134     0.0852     0.1692 1.1612e-01     7.6628      7.541     10.937    10.5677 0.0000e+00
      7.719      0.108     8.5924     76.537     46.259  32.887908     3.7800     0.1363     0.1278     0.0846 1.1623e-01     7.7680      7.570     10.979    10.5658 0.0000e+00
      7.747      0.101     8.5813     76.158     46.476  33.034719     3.7800     0.1439     0.1278     0.0846 1.1612e-01     7.7079      7.597     11.018    10.5630 0.0000e+00
      7.772      0.093     8.5689     75.556     46.689  33.180570     3.7800     0.1210     0.1278     0.0846 1.1595e-01     7.6628      7.622     11.055    10.5587 0.0000e+00
      7.795      0.084     8.5531     74.633     46.949  33.360395     3.7800     0.5521     0.1278     0.0846 1.1612e-01    23.5196      7.644     11.087    10.5525 0.0000e+00
      7.815      0.074     8.5285     73.315     47.270  33.584519     3.7800     0.5673     0.1278     0.0846 1.1605e-01    23.5196      7.664     11.116    10.5449 0.0000e+00
      7.833      0.065     8.4878     71.599     47.575  33.797847     3.8700     0.5559     0.1704     0.2961 1.1615e-01    23.5948      7.681     11.140    10.5373 0.0000e+00
      7.847      0.056     8.4219     69.539     47.767  33.932500     3.8700     0.5826     0.1704     0.2961 1.1617e-01    23.5647      7.695     11.162    10.5310 0.0000e+00
      7.860      0.048     8.3200     67.244     47.813  33.964973     3.8700     1.0823     0.1704     0.2961 1.1635e-01    69.4517      7.708     11.180    10.5260 0.0000e+00
      7.871      0.041     8.1739     64.856     47.717  33.897984     3.8700     1.1014     0.1704     0.2961 1.1600e-01    69.4968      7.718     11.195    10.5219 0.0000e+00
      7.880      0.035     7.9832     62.526     47.526  33.765160     4.2300     1.0785     1.0650     4.2723 1.1615e-01    69.4668      7.728     11.209    10.5184 0.0000e+00
      7.888      0.030     7.7539     60.414     47.284  33.598417     4.2300     1.0862     1.0650     4.2723 1.1617e-01    69.4668      7.735     11.220    10.5162 0.0000e+00
      7.895      0.026     7.4981     58.688     47.020  33.416663     4.2300     1.2807     1.0650     4.2723 1.1605e-01   110.7846      7.742     11.229    10.5158 0.0000e+00
      7.901      0.023     7.2316     57.487     46.778  33.250645     4.2300     1.2769     1.0650     4.2723 1.1617e-01   110.9048      7.748     11.237    10.5174 0.0000e+00
      7.906      0.020     6.9713     56.905     46.595  33.127386     2.8800     1.2807     1.2354     9.0522 1.1617e-01   110.8447      7.753     11.245    10.5208 0.0000e+00
      7.910      0.019     6.7351     56.990     46.470  33.043721     2.8800     1.2807     1.2354     9.0522 1.1623e-01   110.8597      7.757     11.252    10.5257 0.0000e+00
      7.915      0.017     6.5417     57.752     46.364  32.973380     2.8800     1.1930     1.2354     9.0522 1.1612e-01   154.1165      7.761     11.258    10.5319 0.0000e+00
      7.919      0.016     6.4068     59.150     46.269  32.909487     2.8800     1.2349     1.2354     9.0522 1.1612e-01   154.1916      7.765     11.263    10.5387 0.0000e+00
      7.923      0.016     6.3409     61.075     46.198  32.862728     2.8800     1.2197     1.2354     9.0522 1.1612e-01   154.1165      7.769     11.269    10.5455 0.0000e+00
      7.927      0.016     6.3495     63.351     46.156  32.836478     0.0000     1.2349     0.1278     0.0846 1.1625e-01   154.1616      7.773     11.274    10.5514 0.0000e+00
      7.931      0.016     6.4335     65.774     46.133  32.823735     0.0000     1.3456     0.1278     0.0846 1.1617e-01   137.1324      7.777     11.280    10.5565 0.0000e+00
      7.935      0.017     6.5885     68.148     46.119  32.817143     0.0000     1.3189     0.1278     0.0846 1.1617e-01   137.1925      7.781     11.285    10.5610 0.0000e+00
      7.939      0.018     6.8023     70.322     46.111  32.814941     0.0000     1.3646     0.1278     0.0846 1.1615e-01   137.1174      7.785     11.291    10.5651 0.0000e+00
      7.943      0.019     7.0552     72.200     46.107  32.816545     0.0000     1.3684     0.0000     0.0000 1.1607e-01   137.2076      7.789     11.297    10.5688 0.0000e+00
      7.948      0.021     7.3244     73.732     46.122  32.832282     0.0000     0.7428     0.0000     0.0000 1.1623e-01    42.3374      7.794     11.304    10.5722 0.0000e+00
      7.954      0.024     7.5882     74.914     46.167  32.868330     0.0000     0.7276     0.0000     0.0000 1.1617e-01    42.5177      7.799     11.312    10.5759 0.0000e+00
      7.960      0.027     7.8294     75.781     46.215  32.904597     0.0000     0.7390     0.0000     0.0000 1.1630e-01    42.4576      7.806     11.321    10.5803 0.0000e+00
      7.967      0.029     8.0376     76.396     46.206  32.899266     0.0000     0.7123     0.0000     0.0000 1.1617e-01    42.4275      7.813     11.331    10.5853 0.0000e+00
      7.975      0.030     8.2072     76.832     46.128  32.842994     0.0000     0.2812     0.0000     0.0000 1.1612e-01    14.9975      7.821     11.343    10.5903 0.0000e+00
      7.984      0.030     8.3380     77.143     46.057  32.790087     0.0000     0.2431     0.0000     0.0000 1.1607e-01    15.0577      7.829     11.355    10.5944 0.0000e+00
      7.992      0.029     8.4339     77.374     46.045  32.777924     0.0000     0.2622     0.0000     0.0000 1.1625e-01    14.9825      7.837     11.367    10.5973 0.0000e+00
      8.000      0.027     8.5023     77.564     46.065  32.789398     2.8800     0.2355     1.3206     1.2690 1.1623e-01    14.9975      7.845     11.378    10.5983 0.0000e+00
      8.006      0.024     8.5510     77.744     46.084  32.799846     2.8800     0.2240     1.3206     1.2690 1.1628e-01    18.4996      7.851     11.387    10.5972 0.0000e+00
      8.012      0.021     8.5862     77.928     46.104  32.812054     2.8800     0.2660     1.3206     1.2690 1.1612e-01    18.5296      7.857     11.396    10.5944 0.0000e+00
      8.017      0.018     8.6126     78.109     46.139  32.835217     2.8800     0.2278     1.3206     1.2690 1.1623e-01    18.4695      7.862     11.403    10.5909 0.0000e+00
      8.021      0.014     8.6344     78.262     46.173  32.857690     2.8800     0.2431     1.3206     1.2690 1.1602e-01    18.4394      7.866     11.408    10.5875 0.0000e+00
      8.024      0.011     8.6551     78.362     46.189  32.867643     4.2300     0.4300     1.4484     1.6920 1.1612e-01    52.1370      7.869     11.413    10.5847 0.0000e+00
      8.026      0.008     8.6761     78.396     46.197  32.871690     4.2300     0.4453     1.4484     1.6920 1.1605e-01    52.0919      7.871     11.416    10.5823 0.0000e+00
      8.028      0.006     8.6966     78.351     46.219  32.886753     4.2300     0.4453     1.4484     1.6920 1.1605e-01    52.1821      7.873     11.418    10.5803 0.0000e+00
      8.029      0.004     8.7139     78.214     46.283  32.930711     4.2300     0.4643     1.4484     1.6920 1.1605e-01    52.0769      7.874     11.420    10.5785 0.0000e+00
      8.029      0.002     8.7254     77.987     46.401  33.013305     4.2300     0.4415     0.5538     1.3959 1.1617e-01    74.2914      7.874     11.421    10.5769 0.0000e+00
      8.030      0.000     8.7295     77.684     46.568  33.130818     4.2300     0.4872     0.5538     1.3959 1.1607e-01    74.4117      7.874     11.421    10.5755 0.0000e+00
      8.029     -0.002     8.7247     77.321     46.780  33.280920     4.2300     0.4262     0.5538     1.3959 1.1633e-01    74.3816      7.874     11.420    10.5742 0.0000e+00
      8.029     -0.004     8.7097     76.910     47.061  33.479873     4.2300     0.4491     0.5538     1.3959 1.1612e-01    74.2313      7.873     11.419    10.5729 0.0000e+00
      8.027     -0.007     8.6847     76.458     47.474  33.772812     4.3200     0.3728     0.7242     1.0152 1.1612e-01    39.0908      7.872     11.417    10.5716 0.0000e+00
      8.025     -0.010     8.6513     75.956     48.046  34.178442     4.3200     0.3842     0.7242     1.0152 1.1615e-01    39.0307      7.870     11.415    10.5703 0.0000e+00
      8.023     -0.014     8.6111     75.390     48.677  34.626692     4.3200     0.3919     0.7242     1.0152 1.1620e-01    39.1810      7.868     11.411    10.5691 0.0000e+00
      8.019     -0.018     8.5655     74.751     49.216  35.009344     4.3200     0.3728     0.7242     1.0152 1.1615e-01    39.0908      7.864     11.406    10.5680 0.0000e+00
      8.015     -0.024     8.5153     74.024     49.718  35.365059     4.0500     0.3652     0.7668     1.0575 1.1617e-01    37.4526      7.860     11.400    10.5670 0.0000e+00
      8.009     -0.031     8.4595     73.181     50.565  35.964960     4.0500     0.4033     0.7668     1.0575 1.1592e-01    37.3624      7.853     11.391    10.5662 0.0000e+00
      8.000     -0.037     8.3967     72.193     52.200  37.125478     4.0500     0.3919     0.7668     1.0575 1.1617e-01    37.3023      7.845     11.378    10.5655 0.0000e+00
      7.989     -0.044     8.3257     71.048     55.001  39.114496     4.0500     0.3728     0.7668     1.0575 1.1602e-01    37.3774      7.834     11.363    10.5647 0.0000e+00
      7.976     -0.051     8.2449     69.760     59.108  42.032617     4.0500     0.2736     0.7668     1.0575 1.1633e-01    90.4639      7.822     11.345    10.5633 0.0000e+00
      7.962     -0.057     8.1514     68.344     61.963  44.059698     4.0500     0.1210     1.3206     0.1269 1.1623e-01    90.4639      7.808     11.325    10.5613 0.0000e+00
      7.947     -0.064     8.0418     66.768     60.795  43.227048     4.0500     0.1134     1.3206     0.1269 1.1623e-01    90.4338      7.793     11.303    10.5587 0.0000e+00
      7.930     -0.071     7.9147     64.917     58.011  41.249329     4.0500     0.1592     1.3206     0.1269 1.1612e-01    90.4789      7.777     11.279    10.5562 0.0000e+00
      7.912     -0.079     7.7716     62.608     56.685  40.310438     4.0500     0.1210     1.3206     0.1269 1.1612e-01    90.4188      7.759     11.254    10.5537 0.0000e+00
      7.892     -0.088     7.6143     59.709     56.492  40.179834     0.0000     0.0676     0.0852     0.0000 1.1617e-01    90.4188      7.739     11.225    10.5510 0.0000e+00
      7.869     -0.099     7.4391     56.316     56.131  39.929306     0.0000     0.0638     0.0852     0.0000 1.1607e-01    90.4789      7.717     11.192    10.5492 0.0000e+00
      7.843     -0.114     7.2328     52.784     55.250  39.307839     0.0000     0.0676     0.0852     0.0000 1.1605e-01    90.4338      7.691     11.155    10.5501 0.0000e+00
      7.814     -0.131     6.9750     49.529     54.403  38.710337     0.0000     0.0791     0.0852     0.0000 1.1595e-01    90.4188      7.663     11.114    10.5540 0.0000e+00
      7.780     -0.148     6.6512     46.861     53.989  38.419214     0.0000     0.3156     0.0000    -0.0423 1.1602e-01   100.1433      7.630     11.066    10.5596 0.0000e+00
      7.740     -0.162     6.2724     44.993     54.038  38.455879     0.0000     0.3079     0.0000    -0.0423 1.1620e-01   100.1282      7.590     11.009    10.5654 0.0000e+00
      7.693     -0.170     5.8783     44.094     54.280  38.628060     0.0000     0.3118     0.0000    -0.0423 1.1612e-01   100.1733      7.544     10.942    10.5706 0.0000e+00
      7.641     -0.171     5.5152     44.253     54.062  38.470588     0.0000     0.3346     0.0000    -0.0423 1.1617e-01   100.2184      7.493     10.868    10.5750 0.0000e+00
      7.591     -0.165     5.2177     45.373     53.170  37.832508     0.0900     0.2812     0.0000     0.0423 1.1607e-01    91.6663      7.444     10.796    10.5782 0.0000e+00
      7.547     -0.154     5.0095     47.155     52.372  37.262711     0.0900     0.2355     0.0000     0.0423 1.1623e-01    91.7264      7.401     10.735    10.5798 0.0000e+00
      7.513     -0.143     4.9095     49.227     51.829  36.874675     0.0900     0.2278     0.0000     0.0423 1.1605e-01    91.5611      7.367     10.685    10.5793 0.0000e+00
      7.484     -0.136     4.9274     51.343     51.141  36.384646     0.0900     0.2660     0.0000     0.0423 1.1623e-01    91.7264      7.339     10.645    10.5770 0.0000e+00
      7.456     -0.136     5.0525     53.439     50.633  36.024433     0.0900     0.2011     0.0000     0.0423 1.1600e-01    80.5740      7.312     10.606    10.5741 0.0000e+00
      7.426     -0.144     5.2512     55.530     50.283  35.777249     1.7100     0.1668     0.3834     0.0423 1.1623e-01    80.5139      7.282     10.562    10.5718 0.0000e+00
      7.390     -0.157     5.4821     57.609     49.737  35.391012     1.7100     0.1782     0.3834     0.0423 1.1620e-01    80.5891      7.247     10.511    10.5705 0.0000e+00
      7.347     -0.172     5.7177     59.653     49.134  34.962763     1.7100     0.2088     0.3834     0.0423 1.1612e-01    80.5891      7.205     10.449    10.5703 0.0000e+00
      7.296     -0.185     5.9510     61.637     48.640  34.612008     1.7100     0.3079     0.3834     0.0423 1.1605e-01    92.8536      7.155     10.378    10.5713 0.0000e+00
      7.243     -0.198     6.1835     63.532     48.236  34.324433     3.2400     0.3156     0.7668     0.6345 1.1615e-01    92.8536      7.103     10.302    10.5733 0.0000e+00
      7.192     -0.209     6.4147     65.329     47.899  34.084747     3.2400     0.3118     0.7668     0.6345 1.1612e-01    92.9288      7.053     10.229    10.5753 0.0000e+00
      7.141     -0.221     6.6422     67.038     47.603  33.874583     3.2400     0.3156     0.7668     0.6345 1.1623e-01    92.8086      7.003     10.156    10.5766 0.0000e+00
      7.087     -0.232     6.8629     68.669     47.281  33.645819     3.2400     0.3079     0.7668     0.6345 1.1623e-01    97.1372      6.950     10.080    10.5771 0.0000e+00
      7.027     -0.243     7.0740     70.224     46.963  33.420627     5.1300     0.3003     0.8520     0.5922 1.1623e-01    97.1222      6.891      9.995    10.5772 0.0000e+00
      6.960     -0.254     7.2741     71.711     46.739  33.261741     5.1300     0.3079     0.8520     0.5922 1.1628e-01    97.0921      6.825      9.899    10.5772 0.0000e+00
      6.889     -0.265     7.4643     73.149     46.602  33.164416     5.1300     0.3079     0.8520     0.5922 1.1617e-01    97.0020      6.756      9.798    10.5776 0.0000e+00
      6.818     -0.275     7.6459     74.551     46.473  33.072995     5.1300     0.3613     0.8520     0.5922 1.1620e-01    68.4898      6.687      9.698    10.5783 0.0000e+00
      6.750     -0.284     7.8188     75.918     46.321  32.965080     5.0400     0.3690     0.6390     0.4653 1.1625e-01    68.4748      6.620      9.601    10.5792 0.0000e+00
      6.680     -0.291     7.9843     77.215     46.163  32.853479     5.0400     0.3919     0.6390     0.4653 1.1620e-01    68.5349      6.551      9.502    10.5798 0.0000e+00
      6.605     -0.295     8.1443     78.381     46.028  32.757942     5.0400     0.3690     0.6390     0.4653 1.1612e-01    68.4748      6.478      9.395    10.5802 0.0000e+00
      6.524     -0.297     8.3003     79.373     45.941  32.696557     5.0400     0.2431     0.6390     0.4653 1.1620e-01    33.8904      6.398      9.280    10.5805 0.0000e+00
      6.442     -0.297     8.4525     80.193     45.894  32.662859     5.0400     0.2355     0.6390     0.4653 1.1623e-01    33.8453      6.318      9.163    10.5811 0.0000e+00
      6.365     -0.295     8.5968     80.861     45.856  32.635978     4.5900     0.2393     0.5538     0.3807 1.1615e-01    34.0107      6.242      9.053    10.5818 0.0000e+00
      6.294     -0.292     8.7264     81.396     45.817  32.608746     4.5900     0.2240     0.5538     0.3807 1.1623e-01    33.8453      6.172      8.952    10.5825 0.0000e+00
      6.225     -0.288     8.8368     81.809     45.773  32.577862     4.5900     0.2088     0.5538     0.3807 1.1623e-01    19.4915      6.104      8.854    10.5829 0.0000e+00
      6.153     -0.284     8.9280     82.104     45.723  32.543012     4.5900     0.1782     0.5538     0.3807 1.1612e-01    19.6268      6.034      8.752    10.5831 0.0000e+00
      6.078     -0.280     9.0024     82.286     45.678  32.510744     4.5900     0.1973     0.4260     0.2115 1.1590e-01    19.4314      5.961      8.646    10.5832 0.0000e+00
      6.002     -0.275     9.0619     82.363     45.641  32.484336     4.5900     0.1782     0.4260     0.2115 1.1620e-01    19.4465      5.886      8.537    10.5836 0.0000e+00
      5.930     -0.270     9.1077     82.345     45.619  32.468628     4.5900     0.1325     0.4260     0.2115 1.1612e-01     6.8813      5.815      8.434    10.5841 0.0000e+00
      5.863     -0.264     9.1404     82.242     45.617  32.467351     4.5900     0.1477     0.4260     0.2115 1.1612e-01     7.0466      5.750      8.340    10.5846 0.0000e+00
      5.801     -0.259     9.1606     82.066     45.617  32.468283     4.3200     0.1210     0.2982     0.2538 1.1612e-01     6.9865      5.689      8.251    10.5848 0.0000e+00
      5.739     -0.254     9.1692     81.835     45.599  32.455831     4.3200     0.1363     0.2982     0.2538 1.1623e-01     6.9564      5.629      8.164    10.5847 0.0000e+00
      5.675     -0.250     9.1672     81.574     45.569  32.434596     4.3200     0.1477     0.2982     0.2538 1.1610e-01     5.9494      5.565      8.072    10.5846 0.0000e+00
      5.608     -0.247     9.1558     81.302     45.546  32.418717     4.3200     0.1248     0.2982     0.2538 1.1623e-01     6.0997      5.499      7.976    10.5847 0.0000e+00
      5.542     -0.245     9.1361     81.036     45.537  32.411882     4.3200     0.1096     0.2982     0.2538 1.1617e-01     5.9795      5.435      7.883    10.5851 0.0000e+00
      5.481     -0.245     9.1103     80.785     45.538  32.412267     4.0500     0.1401     0.1704     0.1692 1.1600e-01     6.1899      5.375      7.796    10.5858 0.0000e+00
      5.423     -0.248     9.0811     80.547     45.543  32.416015     4.0500     0.1515     0.1704     0.1692 1.1617e-01     5.3482      5.319      7.714    10.5861 0.0000e+00
      5.365     -0.256     9.0508     80.323     45.548  32.420164     4.0500     0.0981     0.1704     0.1692 1.1623e-01     5.3332      5.262      7.631    10.5861 0.0000e+00
      5.302     -0.267     9.0213     80.113     45.555  32.425822     4.0500     0.1096     0.1704     0.1692 1.1587e-01     5.2580      5.200      7.542    10.5858 0.0000e+00
      5.232     -0.281     8.9935     79.913     45.566  32.434497     3.8700     0.1439     0.1704     0.0846 1.1610e-01     5.3181      5.131      7.442    10.5857 0.0000e+00
      5.155     -0.297     8.9669     79.722     45.590  32.452464     3.8700     0.1439     0.1704     0.0846 1.1607e-01     5.8141      5.056      7.332    10.5860 0.0000e+00
      5.075     -0.314     8.9418     79.538     45.623  32.476592     3.8700     0.1477     0.1704     0.0846 1.1612e-01     5.8292      4.977      7.218    10.5866 0.0000e+00
      4.994     -0.332     8.9183     79.361     45.640  32.489551     3.8700     0.1363     0.1704     0.0846 1.1602e-01     5.6638      4.898      7.103    10.5875 0.0000e+00
      4.910     -0.349     8.8958     79.200     45.635  32.486878     3.8700     0.1325     0.1278     0.1692 1.1615e-01     5.7540      4.816      6.984    10.5883 0.0000e+00
      4.821     -0.367     8.8744     79.055     45.617  32.475779     3.8700     0.1286     0.1278     0.1692 1.1602e-01     7.0165      4.729      6.858    10.5890 0.0000e+00
      4.725     -0.385     8.8537     78.923     45.593  32.461218     3.8700     0.1248     0.1278     0.1692 1.1625e-01     6.9564      4.634      6.721    10.5896 0.0000e+00
      4.622     -0.403     8.8339     78.806     45.575  32.451193     3.8700     0.1286     0.1278     0.1692 1.2892e-01     6.9865      4.533      6.574    10.5905 0.0000e+00
      4.515     -0.418     8.8157     78.703     45.564  32.446991     3.8700     0.1248     0.1278     0.0846 1.3558e-01     6.9714      4.427      6.421    10.5919 0.0000e+00
      4.404     -0.430     8.7991     78.615     45.559  32.447492     3.8700     0.1554     0.1278     0.0846 1.6295e-01     6.0245      4.319      6.264    10.5939 0.0000e+00
      4.292     -0.438     8.7840     78.541     45.569  32.460751     3.8700     0.1286     0.1278     0.0846 1.9579e-01     6.0847      4.209      6.104    10.5964 0.0000e+00
      4.178     -0.443     8.7704     78.469     45.588  32.482381     3.8700     0.1096     0.1278     0.0846 2.3808e-01     5.9945      4.098      5.943    10.5995 0.0000e+00
      4.065     -0.447     8.7582     78.385     45.611  32.510232     3.8700     0.0981     0.1278     0.0846 2.9780e-01     6.1298      3.986      5.782    10.6032 0.0000e+00
      3.951     -0.450     8.7475     78.272     45.651  32.555690     3.8700     0.1325     0.1278     0.0846 3.5358e-01     5.2580      3.875      5.619    10.6079 0.0000e+00
      3.836     -0.452     8.7379     78.097     45.717  32.626917     3.8700     0.1248     0.1278     0.0846 3.6387e-01     5.2580      3.762      5.456    10.6143 0.0000e+00
      3.720     -0.455     8.7282     77.818     45.834  32.742908     3.8700     0.1401     0.1278     0.0846 4.7753e-01     5.2730      3.648      5.291    10.6232 0.0000e+00
      3.603     -0.456     8.7165     77.376     46.007  32.912810     3.8700     0.1439     0.1278     0.0846 5.2819e-01     5.2730      3.534      5.125    10.6358 0.0000e+00
      3.486     -0.458     8.7005     76.690     46.211  33.122525     3.8700     0.1286     0.1278     0.1269 6.0476e-01     5.4684      3.419      4.959    10.6540 0.0000e+00
      3.369     -0.458     8.6763     75.657     46.438  33.368568     3.8700     0.1363     0.1278     0.1269 6.2984e-01     5.6338      3.304      4.793    10.6796 0.0000e+00
      3.253     -0.458     8.6388     74.145     46.715  33.672985     3.8700     0.1210     0.1278     0.1269 7.1305e-01     5.5586      3.190      4.626    10.7152 0.0000e+00
      3.136     -0.458     8.5808     72.001     47.045  34.045663     3.8700     0.1210     0.1278     0.1269 8.4604e-01     5.4384      3.075      4.460    10.7650 0.0000e+00
      3.019     -0.458     8.4929     69.088     47.322  34.419631     4.1400     0.1744     0.1704     0.1692 9.5780e-01     6.4754      2.960      4.294    10.8332 0.0000e+00
      2.903     -0.459     8.3635     65.314     47.387  34.680731     4.1400     0.1859     0.1704     0.1692 1.0893e+00     6.4454      2.846      4.128    10.9225 0.0000e+00
      2.786     -0.459     8.1781     60.602     47.164  34.759961     4.1400     0.1935     0.1704     0.1692 1.1617e+00     6.4754      2.732      3.963    11.0358 0.0000e+00
      2.669     -0.459     7.9194     54.864     46.717  34.686381     4.1400     0.2126     0.1704     0.1692 1.3001e+00     6.4905      2.617      3.796    11.1806 0.0000e+00
      2.551     -0.459     7.5720     48.053     46.160  34.537425     4.2300     0.2431     0.1278     0.1692 1.4740e+00     4.7470      2.502      3.629    11.3676 0.0000e+00
      2.434     -0.460     7.1270     40.248     45.551  34.354582     4.2300     0.2355     0.1278     0.1692 1.5412e+00     4.7620      2.387      3.462    11.5989 0.0000e+00
      2.318     -0.460     6.5805     31.706     44.924  34.160399     4.2300     0.2736     0.1278     0.1692 1.6797e+00     4.7320      2.273      3.296    11.8624 0.0000e+00
      2.200     -0.460     5.9279     22.842     44.304  33.966478     4.2300     0.2507     0.1278     0.1692 1.8954e+00     4.8522      2.158      3.130    12.1423 0.0000e+00
      2.083     -0.460     5.1673     14.183     43.688  33.776568     4.2300     0.3232     0.1278     0.1692 2.1070e+00     3.0486      2.042      2.962    12.4333 0.0000e+00
      1.965     -0.460     4.3089      6.312     43.100  33.619248     3.9600     0.3232     0.1278     0.4653 2.3361e+00     2.8682      1.927      2.795    12.7364 0.0000e+00
      1.848     -0.460     3.3821     -0.247     42.575  33.521891     3.9600     0.3003     0.1278     0.4653 2.5693e+00     2.9434      1.812      2.629    13.0481 0.0000e+00
      1.731     -0.458     2.4321     -5.111     42.141  33.496172     3.9600     0.3270     0.1278     0.4653 2.9062e+00     2.9434      1.698      2.462    13.3627 0.0000e+00
      1.614     -0.457     1.5143     -8.049     41.789  33.533265     3.9600     0.3881     0.1278     0.4653 3.2966e+00     1.6357      1.583      2.296    13.6860 0.0000e+00
      1.497     -0.455     0.6880     -9.013     41.481  33.605445     3.9600     0.3537     0.0852     0.2115 3.7127e+00     1.5756      1.468      2.130    14.0305 0.0000e+00
      1.382     -0.454     0.0058     -8.157     41.205  33.694346     3.9600     0.3995     0.0852     0.2115 4.1840e+00     1.4854      1.355      1.965    14.3948 0.0000e+00
      1.267     -0.451    -0.4957     -5.750     40.967  33.793983     3.9600     0.3766     0.0852     0.2115 5.3531e+00     1.6057      1.242      1.802    14.7669 0.0000e+00
      1.152     -0.448    -0.7965     -2.075     40.778  33.915093     3.9600     0.6208     0.0852     0.2115 6.7986e+00     2.5225      1.130      1.639    15.1434 0.0000e+00
      1.038     -0.445    -0.8955      2.596     40.621  34.056314     4.4100     0.6017     0.0852     0.5076 8.3883e+00     2.4925      1.018      1.476    15.5248 0.0000e+00
      0.925     -0.440    -0.8122      8.006     40.458  34.195901     4.4100     0.6208     0.0852     0.5076 1.0543e+01     2.4624      0.907      1.315    15.9008 0.0000e+00
      0.813     -0.434    -0.5773     13.941     40.313  34.355245     4.4100     0.6208     0.0852     0.5076 1.6467e+01     2.4925      0.798      1.157    16.2576 0.0000e+00
      0.703     -0.425    -0.2214     20.273     40.256  34.596652     4.4100     1.3570     0.0852     0.5076 2.4476e+01     4.5666      0.689      1.000    16.5943 0.0000e+00
      0.595     -0.415     0.2267     26.975     40.325  34.966683     4.7700     1.3379     0.1278     1.6920 3.3258e+01     4.6568      0.583      0.846    16.9260 0.0000e+00
      0.490     -0.401     0.7404     34.115     40.469  35.433313     4.7700     1.3265     0.1278     1.6920 4.2110e+01     4.5817      0.480      0.697    17.2653 0.0000e+00
      0.389     -0.386     1.2973     41.874     40.520  35.843719     4.7700     1.3494     0.1278     1.6920 6.5872e+01     4.5967      0.382      0.554    17.6117 0.0000e+00
      0.294     -0.369     1.8836     50.535     40.404  36.093464     4.7700     2.2802     0.1278     1.6920 8.9683e+01     9.8572      0.288      0.418    17.9688 0.0000e+00
      0.204     -0.354     2.4947     60.359     40.261  36.266993     4.7700     2.2268     0.1278     1.6920 1.1842e+02     9.8121      0.200      0.290    18.3519 0.0000e+00
      0.120     -0.344     3.1348     71.345     40.230  36.489816     5.7600     2.2687     0.2130     8.4600 1.1350e+02     9.7971      0.118      0.171    18.7746 0.0000e+00
      0.042     -0.338     3.8199     83.028     40.304  36.789669     5.7600     2.2725     0.2130     8.4600 1.0634e+02     9.7520      0.041      0.059    19.2292 0.0000e+00
     -0.036     -0.335     4.5781     94.521     40.127  36.876113     5.7600     2.2229     0.2130     8.4600 1.2763e+02    10.7290     -0.035     -0.051    19.6696 0.0000e+00
     -0.115     -0.334     5.4367    104.864     39.212  36.288905     5.7600     2.2077     0.2130     8.4600 3.9432e+02    10.7741     -0.113     -0.163    20.0463 0.0000e+00
     -0.197     -0.332     6.3956    113.315     37.382  34.808099     6.1200     2.2039     0.3408    13.7898 4.1318e+02    10.8342     -0.193     -0.280    20.3597 0.0000e+00
     -0.278     -0.327     7.4082    119.433     34.382  32.153722     6.1200     2.2077     0.3408    13.7898 5.4949e+02    10.7440     -0.273     -0.396    20.6545 0.0000e+00
     -0.355     -0.318     8.3893    123.133     29.536  27.689257     6.1200     2.0742     0.3408    13.7898 7.1973e+02    16.6809     -0.349     -0.506    20.9744 0.0000e+00
     -0.423     -0.304     9.2563    124.702     23.014  21.596272     6.1200     2.0856     0.3408    13.7898 5.7790e+02    16.7561     -0.415     -0.602    21.3081 0.0000e+00
     -0.480     -0.290     9.9569    124.727     16.873  15.836629     6.2100     2.0894     0.3408    15.2703 6.7960e+02    16.7110     -0.471     -0.682    21.5946 0.0000e+00
     -0.526     -0.278    10.4636    124.060     13.021  12.220569     6.2100     2.1161     0.3408    15.2703 6.2222e+02    16.7110     -0.516     -0.748    21.7917 0.0000e+00
     -0.563     -0.273    10.7731    123.677     11.778  11.053687     6.2100    -0.0506     0.3408    15.2703 3.7584e+02     0.2680     -0.552     -0.800    21.8970 0.0000e+00
     -0.590 -9.990e-29    10.9080 -9.990e-29 -9.990e-29 -9.990e-29     6.2100 -9.990e-29     0.3408    15.2703 3.0700e+02 -9.990e-29     -0.579     -0.839    21.9321 0.0000e+00
     -0.608 -9.990e-29    10.9136 -9.990e-29 -9.990e-29 -9.990e-29     2.2500 -9.990e-29     0.2556     5.9643 2.9375e+02 -9.990e-29     -0.596     -0.864    21.9297 0.0000e+00
     -0.619 -9.990e-29    10.8597 -9.990e-29 -9.990e-29 -9.990e-29     2.2500 -9.990e-29     0.2556     5.9643 3.0053e+02 -9.990e-29     -0.607     -0.879    21.9160 0.0000e+00
     -0.622 -9.990e-29    10.8282 -9.990e-29 -9.990e-29 -9.990e-29     2.2500 -9.990e-29     0.2556     5.9643 2.8787e+02 -9.990e-29     -0.610     -0.884    21.9087 0.0000e+00
