* Sea-Bird SBE19plus  Data File:
* FileName = C:\R\Reservoirs\Data\DataNotYetUploadedToEDI\Raw_CTD\RawDownloads\062623_fcr50_S8188_0009.hex
* Software version 2.8.0.119
* Temperature SN = 8188
* Conductivity SN = 8188
* System UpLoad Time = Jul 03 2023 16:32:59
* <ApplicationData>
* <Seaterm232>
* <SoftwareVersion>2.8.0.119</SoftwareVersion>
* <BuildDate>07-Nov-2018</BuildDate>
* </Seaterm232>
* </ApplicationData>
* <InstrumentState>
* <HardwareData DeviceType='SBE19plus' SerialNumber='01908188'>
*
*    <Manufacturer>Sea-Bird Electronics, Inc.</Manufacturer>
*
*    <FirmwareVersion>3.1.8</FirmwareVersion>
*
*    <FirmwareDate>Mar  9 2016 16:22:29</FirmwareDate>
*
*    <CommandSetVersion>1.4</CommandSetVersion>
*
*    <PCBAssembly PCBSerialNum='260079' AssemblyNum='41054K'/>
*
*    <PCBAssembly PCBSerialNum='260083' AssemblyNum='41059E'/>
*
*    <PCBAssembly PCBSerialNum='260085' AssemblyNum='41606B'/>
*
*    <PCBAssembly PCBSerialNum='260081' AssemblyNum='41967C'/>
*
*    <MfgDate>30 Mar 2022</MfgDate>
*
*    <InternalSensors>
*
*       <Sensor id='Main Temperature'>
*
*          <type>temperature0</type>
*
*          <SerialNumber>01908188</SerialNumber>
*
*       </Sensor>
*
*       <Sensor id='Main Conductivity'>
*
*          <type>conductivity-0</type>
*
*          <SerialNumber>01908188</SerialNumber>
*
*       </Sensor>
*
*       <Sensor id='Main Pressure'>
*
*          <type>strain-0</type>
*
*          <SerialNumber>12220741</SerialNumber>
*
*       </Sensor>
*
*    </InternalSensors>
*
*    <ExternalSensors>
*
*       <Sensor id='volt 0'>
*
*          <type>CHL</type>
*
*          <SerialNumber>FLNTURT-7096</SerialNumber>
*
*       </Sensor>
*
*       <Sensor id='volt 1'>
*
*          <type>NTU</type>
*
*          <SerialNumber>FLNTURT-7096</SerialNumber>
*
*       </Sensor>
*
*       <Sensor id='volt 2'>
*
*          <type>OXY</type>
*
*          <SerialNumber>43-4269</SerialNumber>
*
*       </Sensor>
*
*       <Sensor id='volt 3'>
*
*          <type>not assigned</type>
*
*          <SerialNumber>not assigned</SerialNumber>
*
*       </Sensor>
*
*       <Sensor id='volt 4'>
*
*          <type>PAR</type>
*
*          <SerialNumber>PARLOGICSW-2209</SerialNumber>
*
*       </Sensor>
*
*       <Sensor id='volt 5'>
*
*          <type>not assigned</type>
*
*          <SerialNumber>not assigned</SerialNumber>
*
*       </Sensor>
*
*       <Sensor id='serial'>
*
*          <type>WETLABS</type>
*
*          <SerialNumber>FL3-7350</SerialNumber>
*
*       </Sensor>
*
*    </ExternalSensors>
*
* </HardwareData>
* <StatusData DeviceType='SBE19plus' SerialNumber='01908188'>
*
*    <DateTime>2023-07-03T16:29:20</DateTime>
*
*    <LoggingState>not logging</LoggingState>
*
*    <EventSummary numEvents='0'/>
*
*    <Power>
*
*       <vMain>12.2</vMain>
*
*       <vLith>8.8</vLith>
*
*       <iMain>61.8</iMain>
*
*       <iPump>48.2</iPump>
*
*       <iExt01>22.4</iExt01>
*
*       <iExt2345>20.3</iExt2345>
*
*       <iSerial>45.4</iSerial>
*
*    </Power>
*
*    <MemorySummary>
*
*       <Bytes>665325</Bytes>
*
*       <Samples>26613</Samples>
*
*       <SamplesFree>2605312</SamplesFree>
*
*       <SampleLength>25</SampleLength>
*
*       <Profiles>25</Profiles>
*
*    </MemorySummary>
*
* </StatusData>
* <ConfigurationData DeviceType='SBE19plus' SerialNumber='01908188'>
*
*    <ProfileMode>
*
*       <ScansToAverage>1</ScansToAverage>
*
*       <MinimumCondFreq>5</MinimumCondFreq>
*
*       <PumpDelay>40</PumpDelay>
*
*       <AutoRun>no</AutoRun>
*
*       <IgnoreSwitch>no</IgnoreSwitch>
*
*    </ProfileMode>
*
*    <Battery>
*
*       <Type>alkaline</Type>
*
*       <CutOff>7.5</CutOff>
*
*    </Battery>
*
*    <DataChannels>
*
*       <ExtVolt0>yes</ExtVolt0>
*
*       <ExtVolt1>yes</ExtVolt1>
*
*       <ExtVolt2>yes</ExtVolt2>
*
*       <ExtVolt3>no</ExtVolt3>
*
*       <ExtVolt4>yes</ExtVolt4>
*
*       <ExtVolt5>no</ExtVolt5>
*
*       <SBE38>no</SBE38>
*
*       <WETLABS>yes</WETLABS>
*
*       <OPTODE>no</OPTODE>
*
*       <SBE63>no</SBE63>
*
*       <SeaFET>no</SeaFET>
*
*       <GTD>no</GTD>
*
*    </DataChannels>
*
*    <EchoCharacters>yes</EchoCharacters>
*
*    <OutputExecutedTag>yes</OutputExecutedTag>
*
*    <OutputFormat>raw HEX</OutputFormat>
*
* </ConfigurationData>
* <CalibrationCoefficients DeviceType='SBE19plus' SerialNumber='01908188'>
*
*    <Calibration format='TEMP1' id='Main Temperature'>
*
*       <SerialNum>01908188</SerialNum>
*
*       <CalDate>21-Aug-22</CalDate>
*
*       <TA0>1.265284e-03</TA0>
*
*       <TA1>2.691806e-04</TA1>
*
*       <TA2>-5.655711e-07</TA2>
*
*       <TA3>1.602369e-07</TA3>
*
*       <TOFFSET>0.000000e+00</TOFFSET>
*
*    </Calibration>
*
*    <Calibration format='WBCOND0' id='Main Conductivity'>
*
*       <SerialNum>01908188</SerialNum>
*
*       <CalDate>21-Aug-22</CalDate>
*
*       <G>-1.009562e+00</G>
*
*       <H>1.439229e-01</H>
*
*       <I>-4.343583e-04</I>
*
*       <J>5.328694e-05</J>
*
*       <CPCOR>-9.570000e-08</CPCOR>
*
*       <CTCOR>3.250000e-06</CTCOR>
*
*       <CSLOPE>1.000000e+00</CSLOPE>
*
*    </Calibration>
*
*    <Calibration format='STRAIN0' id='Main Pressure'>
*
*       <SerialNum>12220741</SerialNum>
*
*       <CalDate>11-Aug-22</CalDate>
*
*       <PA0>1.627942e-01</PA0>
*
*       <PA1>4.835849e-04</PA1>
*
*       <PA2>-3.975488e-12</PA2>
*
*       <PTCA0>5.244803e+05</PTCA0>
*
*       <PTCA1>2.817194e+01</PTCA1>
*
*       <PTCA2>-5.842684e-01</PTCA2>
*
*       <PTCB0>2.522087e+01</PTCB0>
*
*       <PTCB1>5.750000e-04</PTCB1>
*
*       <PTCB2>0.000000e+00</PTCB2>
*
*       <PTEMPA0>-5.709556e+01</PTEMPA0>
*
*       <PTEMPA1>5.248567e+01</PTEMPA1>
*
*       <PTEMPA2>-2.281498e-01</PTEMPA2>
*
*       <POFFSET>-4.700000e-02</POFFSET>
*
*       <PRANGE>1.600000e+02</PRANGE>
*
*    </Calibration>
*
*    <Calibration format='VOLT0' id='Volt 0'>
*
*       <OFFSET>-4.657200e-02</OFFSET>
*
*       <SLOPE>1.248989e+00</SLOPE>
*
*    </Calibration>
*
*    <Calibration format='VOLT0' id='Volt 1'>
*
*       <OFFSET>-4.600800e-02</OFFSET>
*
*       <SLOPE>1.249849e+00</SLOPE>
*
*    </Calibration>
*
*    <Calibration format='VOLT0' id='Volt 2'>
*
*       <OFFSET>-4.668000e-02</OFFSET>
*
*       <SLOPE>1.250379e+00</SLOPE>
*
*    </Calibration>
*
*    <Calibration format='VOLT0' id='Volt 3'>
*
*       <OFFSET>-4.643200e-02</OFFSET>
*
*       <SLOPE>1.251002e+00</SLOPE>
*
*    </Calibration>
*
*    <Calibration format='VOLT0' id='Volt 4'>
*
*       <OFFSET>-4.606100e-02</OFFSET>
*
*       <SLOPE>1.249962e+00</SLOPE>
*
*    </Calibration>
*
*    <Calibration format='VOLT0' id='Volt 5'>
*
*       <OFFSET>-4.642700e-02</OFFSET>
*
*       <SLOPE>1.248530e+00</SLOPE>
*
*    </Calibration>
*
*    <Calibration format='FREQ0' id='external frequency channel'>
*
*       <EXTFREQSF>1.000018e+00</EXTFREQSF>
*
*    </Calibration>
*
* </CalibrationCoefficients>
* <EventCounters DeviceType='SBE19plus' SerialNumber='01908188'>
*
*    <EventSummary numEvents='0'/>
*
* </EventCounters></InstrumentState>
* <Headers>
*
* cast   9 27 Jun 2023 13:49:54 samples 10436 to 11103, avg = 1, stop = mag switch
*
# nquan = 16
# nvalues = 668                         
# units = specified
# name 0 = depFM: Depth [fresh water, m]
# name 1 = dz/dtM: Descent Rate [m/s]
# name 2 = sbeox0Mg/L: Oxygen, SBE 43 [mg/l]
# name 3 = sbeox0PS: Oxygen, SBE 43 [% saturation]
# name 4 = specc: Specific Conductance [uS/cm]
# name 5 = c0uS/cm: Conductivity [uS/cm]
# name 6 = wetCDOM: Fluorescence, WET Labs CDOM [mg/m^3]
# name 7 = flECO-AFL: Fluorescence, WET Labs ECO-AFL/FL [mg/m^3]
# name 8 = flECO-AFL1: Fluorescence, WET Labs ECO-AFL/FL, 2 [mg/m^3]
# name 9 = flECO-AFL2: Fluorescence, WET Labs ECO-AFL/FL, 3 [mg/m^3]
# name 10 = par/sat/log: PAR/Logarithmic, Satlantic
# name 11 = turbWETntu0: Turbidity, WET Labs ECO [NTU]
# name 12 = prdM: Pressure, Strain Gauge [db]
# name 13 = prdE: Pressure, Strain Gauge [psi]
# name 14 = tv290C: Temperature [ITS-90, deg C]
# name 15 = flag:  0.000e+00
# span 0 =     -0.726,      6.014       
# span 1 =     -0.401,      0.107       
# span 2 =    -0.2638,    16.0800       
# span 3 =     -2.691,    183.519       
# span 4 =      1.492,     48.617       
# span 5 =   1.302388,  47.411422       
# span 6 =    -4.5000,     7.2000       
# span 7 =    -0.1346,     5.0268       
# span 8 =    -2.1300,     0.5964       
# span 9 =    -2.0304,    23.4342       
# span 10 = 1.1600e-01, 9.6741e+02      
# span 11 =    -0.4985,    33.9806      
# span 12 =     -0.712,      5.897      
# span 13 =     -1.032,      8.554      
# span 14 =    10.5740,    24.8522      
# span 15 = 0.0000e+00, 0.0000e+00      
# interval = seconds: 0.25
# start_time = Jun 27 2023 13:49:54 [Instrument's time stamp, header]
# bad_flag = -9.990e-29
# <Sensors count="10" >
#   <sensor Channel="1" >
#     <!-- Count, Temperature -->
#     <TemperatureSensor SensorID="58" >
#       <SerialNumber>8188</SerialNumber>
#       <CalibrationDate>21-Aug-22</CalibrationDate>
#       <A0>1.26528397e-003</A0>
#       <A1>2.69180636e-004</A1>
#       <A2>-5.65571102e-007</A2>
#       <A3>1.60236871e-007</A3>
#       <Slope>1.00000000</Slope>
#       <Offset>0.0000</Offset>
#     </TemperatureSensor>
#   </sensor>
#   <sensor Channel="2" >
#     <!-- Frequency 0, Conductivity -->
#     <ConductivitySensor SensorID="3" >
#       <SerialNumber>8188</SerialNumber>
#       <CalibrationDate>21-Aug-22</CalibrationDate>
#       <UseG_J>1</UseG_J>
#       <!-- Cell const and series R are applicable only for wide range sensors. -->
#       <SeriesR>0.0000</SeriesR>
#       <CellConst>2000.0000</CellConst>
#       <ConductivityType>0</ConductivityType>
#       <Coefficients equation="0" >
#         <A>0.00000000e+000</A>
#         <B>0.00000000e+000</B>
#         <C>0.00000000e+000</C>
#         <D>0.00000000e+000</D>
#         <M>0.0</M>
#         <CPcor>-9.57000000e-008</CPcor>
#       </Coefficients>
#       <Coefficients equation="1" >
#         <G>-1.00956200e+000</G>
#         <H>1.43922862e-001</H>
#         <I>-4.34358337e-004</I>
#         <J>5.32869425e-005</J>
#         <CPcor>-9.57000000e-008</CPcor>
#         <CTcor>3.2500e-006</CTcor>
#         <!-- WBOTC not applicable unless ConductivityType = 1. -->
#         <WBOTC>0.00000000e+000</WBOTC>
#       </Coefficients>
#       <Slope>1.00000000</Slope>
#       <Offset>0.00000</Offset>
#     </ConductivitySensor>
#   </sensor>
#   <sensor Channel="3" >
#     <!-- Count, Pressure, Strain Gauge -->
#     <PressureSensor SensorID="46" >
#       <SerialNumber>8188</SerialNumber>
#       <CalibrationDate>11-Aug-22</CalibrationDate>
#       <PA0>1.62794185e-001</PA0>
#       <PA1>4.83584930e-004</PA1>
#       <PA2>-3.97548787e-012</PA2>
#       <PTEMPA0>-5.70955636e+001</PTEMPA0>
#       <PTEMPA1>5.24856726e+001</PTEMPA1>
#       <PTEMPA2>-2.28149804e-001</PTEMPA2>
#       <PTCA0>5.24480263e+005</PTCA0>
#       <PTCA1>2.81719406e+001</PTCA1>
#       <PTCA2>-5.84268386e-001</PTCA2>
#       <PTCB0>2.52208750e+001</PTCB0>
#       <PTCB1>5.75000000e-004</PTCB1>
#       <PTCB2>0.00000000e+000</PTCB2>
#       <Offset>0.000000</Offset>
#     </PressureSensor>
#   </sensor>
#   <sensor Channel="4" >
#     <!-- A/D voltage 0, Fluorometer, WET Labs ECO-AFL/FL -->
#     <FluoroWetlabECO_AFL_FL_Sensor SensorID="20" >
#       <SerialNumber>FLNTURT-7096</SerialNumber>
#       <CalibrationDate>01-Sep-2022</CalibrationDate>
#       <ScaleFactor>5.00000000e+001</ScaleFactor>
#       <!-- Dark output -->
#       <Vblank>0.0680</Vblank>
#     </FluoroWetlabECO_AFL_FL_Sensor>
#   </sensor>
#   <sensor Channel="5" >
#     <!-- A/D voltage 1, Turbidity Meter, WET Labs, ECO-NTU -->
#     <TurbidityMeter SensorID="67" >
#       <SerialNumber>FLNTURT-7096</SerialNumber>
#       <CalibrationDate>01-Sep-2022</CalibrationDate>
#       <ScaleFactor>197.000000</ScaleFactor>
#       <!-- Dark output -->
#       <DarkVoltage>0.067000</DarkVoltage>
#     </TurbidityMeter>
#   </sensor>
#   <sensor Channel="6" >
#     <!-- A/D voltage 2, Oxygen, SBE 43 -->
#     <OxygenSensor SensorID="38" >
#       <SerialNumber>4269</SerialNumber>
#       <CalibrationDate>16-Aug-22</CalibrationDate>
#       <Use2007Equation>1</Use2007Equation>
#       <CalibrationCoefficients equation="0" >
#         <!-- Coefficients for Owens-Millard equation. -->
#         <Boc>0.0000</Boc>
#         <Soc>0.0000e+000</Soc>
#         <offset>0.0000</offset>
#         <Pcor>0.00e+000</Pcor>
#         <Tcor>0.0000</Tcor>
#         <Tau>0.0</Tau>
#       </CalibrationCoefficients>
#       <CalibrationCoefficients equation="1" >
#         <!-- Coefficients for Sea-Bird equation - SBE calibration in 2007 and later. -->
#         <Soc>4.2506e-001</Soc>
#         <offset>-0.4922</offset>
#         <A>-4.5893e-003</A>
#         <B> 1.8653e-004</B>
#         <C>-2.0781e-006</C>
#         <D0> 2.5826e+000</D0>
#         <D1> 1.92634e-004</D1>
#         <D2>-4.64803e-002</D2>
#         <E> 3.6000e-002</E>
#         <Tau20> 2.3100</Tau20>
#         <H1>-3.3000e-002</H1>
#         <H2> 5.0000e+003</H2>
#         <H3> 1.4500e+003</H3>
#       </CalibrationCoefficients>
#     </OxygenSensor>
#   </sensor>
#   <sensor Channel="7" >
#     <!-- A/D voltage 3, PAR/Logarithmic, Satlantic -->
#     <PARLog_SatlanticSensor SensorID="76" >
#       <SerialNumber>2209</SerialNumber>
#       <CalibrationDate>14-Jan-2022</CalibrationDate>
#       <a0>9.8861e-001</a0>
#       <a1>8.0845e-001</a1>
#       <Im>1.3589e+000</Im>
#       <Multiplier>1.0000e+000</Multiplier>
#     </PARLog_SatlanticSensor>
#   </sensor>
#   <sensor Channel="8" >
#     <!-- Serial RS-232, Fluorometer, WET Labs ECO-AFL/FL, 2 -->
#     <FluoroWetlabECO_AFL_FL_Sensor SensorID="20" >
#       <SerialNumber>FL3-7350</SerialNumber>
#       <CalibrationDate>10-Mar-2022</CalibrationDate>
#       <ScaleFactor>4.26000000e-002</ScaleFactor>
#       <!-- Dark output -->
#       <Vblank>50.0000</Vblank>
#     </FluoroWetlabECO_AFL_FL_Sensor>
#   </sensor>
#   <sensor Channel="9" >
#     <!-- Serial RS-232, Fluorometer, WET Labs ECO-AFL/FL, 3 -->
#     <FluoroWetlabECO_AFL_FL_Sensor SensorID="20" >
#       <SerialNumber>FL3-7350</SerialNumber>
#       <CalibrationDate>10-Mar-2022</CalibrationDate>
#       <ScaleFactor>4.23000000e-002</ScaleFactor>
#       <!-- Dark output -->
#       <Vblank>48.0000</Vblank>
#     </FluoroWetlabECO_AFL_FL_Sensor>
#   </sensor>
#   <sensor Channel="10" >
#     <!-- Serial RS-232, Fluorometer, WET Labs ECO CDOM -->
#     <FluoroWetlabCDOM_Sensor SensorID="19" >
#       <SerialNumber>FL3-7350</SerialNumber>
#       <CalibrationDate>10-Mar-2022</CalibrationDate>
#       <ScaleFactor>0.090</ScaleFactor>
#       <!-- Dark output -->
#       <Vblank>50.000</Vblank>
#     </FluoroWetlabCDOM_Sensor>
#   </sensor>
# </Sensors>
# datcnv_date = Jul 03 2023 16:59:39, 7.26.7.129 [datcnv_vars = 15]
# datcnv_in = C:\R\Reservoirs\Data\DataNotYetUploadedToEDI\Raw_CTD\RawDownloads\062723_fcrXX_S8188009.hex C:\R\Reservoirs\Data\DataNotYetUploadedToEDI\Raw_CTD\RawDownloads\SBE19plusV2_8188_start20221003.xmlcon
# datcnv_skipover = 0
# datcnv_ox_hysteresis_correction = yes
# datcnv_ox_tau_correction = yes
# filter_date = Jul 03 2023 17:00:14, 7.26.7.129
# filter_in = C:\R\Reservoirs\Data\DataNotYetUploadedToEDI\Raw_CTD\RawDownloads\062723_fcrXX_S8188009.cnv
# filter_low_pass_tc_A = 0.500
# filter_low_pass_tc_B = 1.000
# filter_low_pass_A_vars = sbeox0Mg/L sbeox0PS specc c0uS/cm tv290C
# filter_low_pass_B_vars = depFM dz/dtM prdM prdE
# alignctd_date = Jul 03 2023 17:00:42, 7.26.7.129
# alignctd_in = C:\R\Reservoirs\Data\DataNotYetUploadedToEDI\Raw_CTD\RawDownloads\062723_fcrXX_S8188009.cnv
# alignctd_adv = dz/dtM 1.000, sbeox0PS 1.000, specc 1.000, c0uS/cm 1.000, flECO-AFL 1.000, turbWETntu0 1.000                                                                                                                        
# file_type = ascii
*END*
     -0.724 8.6758e-12     8.4096     89.974      3.462   3.020695    -4.5000    -0.1079    -2.1300    -2.0304 2.7230e+02    -0.2881     -0.710     -1.030    18.6163 0.0000e+00
     -0.724 1.1155e-11     8.4097     89.977      4.002   3.491554    -4.5000    -0.1002    -2.1300    -2.0304 2.8613e+02    -0.2581     -0.710     -1.030    18.6166 0.0000e+00
     -0.724 1.4342e-11     8.4101     89.974      5.000   4.362651    -4.5000    -0.0964    -2.1300    -2.0304 2.8656e+02    -0.4685     -0.710     -1.030    18.6169 0.0000e+00
     -0.724 1.8439e-11     8.4104     89.966      6.603   5.761483     0.0000    -0.1002     0.0000     0.0846 2.8047e+02    -0.2881     -0.710     -1.030    18.6172 0.0000e+00
     -0.724 2.3708e-11     8.4107     89.958      8.416   7.343173     0.0000    -0.0850     0.0000     0.0846 2.7402e+02    -0.3783     -0.710     -1.030    18.6174 0.0000e+00
     -0.724 3.0481e-11     8.4109     89.953      9.376   8.180643     0.0000    -0.1002     0.0000     0.0846 2.7182e+02    -0.4384     -0.710     -1.030    18.6178 0.0000e+00
     -0.724 3.9190e-11     8.4105     89.953      9.636   8.408175     0.0000    -0.1002     0.0000     0.0846 2.7248e+02    -0.4084     -0.710     -1.030    18.6183 0.0000e+00
     -0.724 5.0387e-11     8.4096     89.961      9.953   8.685699     0.0000    -0.1041     0.0000     0.0846 2.6282e+02    -0.4084     -0.710     -1.030    18.6193 0.0000e+00
     -0.724 6.4784e-11     8.4085     89.975     10.025   8.749059     0.0000    -0.1079     0.0000    -0.1692 2.5880e+02    -0.3933     -0.710     -1.030    18.6207 0.0000e+00
     -0.724 8.3293e-11     8.4076     89.990      9.749   8.508440     0.0000    -0.1079     0.0000    -0.1692 2.7426e+02    -0.4985     -0.710     -1.030    18.6228 0.0000e+00
     -0.724 1.0709e-10     8.4072     90.003      9.617   8.394149     0.0000    -0.1269     0.0000    -0.1692 2.8894e+02    -0.3783     -0.710     -1.030    18.6256 0.0000e+00
     -0.724 1.3769e-10     8.4074     90.013      9.607   8.385507     0.0000    -0.1041     0.0000    -0.1692 3.0454e+02    -0.4084     -0.710     -1.030    18.6289 0.0000e+00
     -0.724 1.7703e-10     8.4082     90.019      9.203   8.033190     0.0000    -0.1079     0.0000     0.2115 3.0500e+02    -0.3482     -0.710     -1.030    18.6322 0.0000e+00
     -0.724 2.2761e-10     8.4090     90.018      8.720   7.611214     0.0000    -0.1193     0.0000     0.2115 2.7888e+02    -0.4685     -0.710     -1.030    18.6351 0.0000e+00
     -0.724 2.9264e-10     8.4099     90.013      8.367   7.303785     0.0000    -0.1079     0.0000     0.2115 2.7846e+02    -0.3933     -0.710     -1.030    18.6373 0.0000e+00
     -0.724 3.7625e-10     8.4106     90.009      7.900   6.896389     0.0000    -0.0926     0.0000     0.2115 2.8156e+02    -0.3933     -0.710     -1.030    18.6389 0.0000e+00
     -0.724 4.8375e-10     8.4109     90.006      7.439   6.493979     0.0000    -0.1117     0.0000     0.0000 2.8433e+02    -0.3482     -0.710     -1.030    18.6403 0.0000e+00
     -0.724 6.2196e-10     8.4106     90.001      6.732   5.876541     0.0000    -0.1079     0.0000     0.0000 2.8563e+02    -0.4534     -0.710     -1.030    18.6413 0.0000e+00
     -0.725 7.9967e-10     8.4100     89.997      5.818   5.079164     0.0000    -0.1041     0.0000     0.0000 2.8495e+02    -0.4685     -0.711     -1.031    18.6421 0.0000e+00
     -0.725 1.0281e-09     8.4096     89.991      5.196   4.535891     0.0000    -0.1155     0.0000     0.0000 2.8638e+02    -0.4384     -0.711     -1.031    18.6425 0.0000e+00
     -0.725 1.3219e-09     8.4093     89.985      4.964   4.333226     0.0000    -0.1117     0.0426    -0.0423 2.8812e+02    -0.3182     -0.711     -1.031    18.6427 0.0000e+00
     -0.725 1.6996e-09     8.4088     89.983      4.994   4.359783     0.0000    -0.1155     0.0426    -0.0423 2.8322e+02    -0.4084     -0.711     -1.031    18.6427 0.0000e+00
     -0.725 2.1852e-09     8.4085     89.987      5.116   4.466424     0.0000    -0.0812     0.0426    -0.0423 2.8163e+02    -0.4084     -0.711     -1.031    18.6427 0.0000e+00
     -0.725 2.8095e-09     8.4080     89.989      5.091   4.444290     0.0000    -0.1155     0.0426    -0.0423 2.8563e+02    -0.4084     -0.711     -1.031    18.6425 0.0000e+00
     -0.725 3.6122e-09     8.4074     89.987      4.830   4.216282     0.0000    -0.0888     0.0426    -0.0423 2.8495e+02    -0.4084     -0.711     -1.031    18.6424 0.0000e+00
     -0.725 4.6443e-09     8.4073     89.986      4.508   3.935171     0.0000    -0.1346    -0.0426     0.0423 2.8427e+02    -0.4084     -0.711     -1.031    18.6423 0.0000e+00
     -0.725 5.9712e-09     8.4077     89.989      4.277   3.733631     0.0000    -0.1155    -0.0426     0.0423 2.8402e+02    -0.3332     -0.711     -1.031    18.6422 0.0000e+00
     -0.725 7.6773e-09     8.4079     89.992      4.177   3.646900     0.0000    -0.0888    -0.0426     0.0423 2.8415e+02    -0.3182     -0.710     -1.030    18.6423 0.0000e+00
     -0.725 9.8708e-09     8.4076     89.990      4.104   3.582639     0.0000    -0.1002    -0.0426     0.0423 2.8557e+02    -0.4084     -0.710     -1.030    18.6424 0.0000e+00
     -0.725 1.2691e-08     8.4075     89.983      3.862   3.371449     0.0000    -0.1155     0.0426    -0.1269 2.8458e+02    -0.4384     -0.710     -1.030    18.6427 0.0000e+00
     -0.725 1.6317e-08     8.4078     89.975      3.514   3.067749     0.0000    -0.1041     0.0426    -0.1269 2.8483e+02    -0.4835     -0.711     -1.031    18.6430 0.0000e+00
     -0.725 2.0979e-08     8.4080     89.966      3.223   2.813997     0.0000    -0.1117     0.0426    -0.1269 2.8569e+02    -0.3482     -0.711     -1.031    18.6433 0.0000e+00
     -0.725 2.6973e-08     8.4077     89.960      3.023   2.639417     0.0000    -0.0964     0.0426    -0.1269 2.8520e+02    -0.4084     -0.711     -1.031    18.6437 0.0000e+00
     -0.725 3.4680e-08     8.4070     89.958      2.920   2.548863     0.0000    -0.1002    -0.0426    -0.1269 2.8744e+02    -0.4384     -0.711     -1.031    18.6442 0.0000e+00
     -0.725 4.4588e-08     8.4061     89.962      2.826   2.466776     0.0000    -0.1002    -0.0426    -0.1269 2.8230e+02    -0.4084     -0.711     -1.031    18.6447 0.0000e+00
     -0.725 5.7328e-08     8.4052     89.972      2.646   2.309969     0.0000    -0.1231    -0.0426    -0.1269 2.8230e+02    -0.3482     -0.711     -1.031    18.6452 0.0000e+00
     -0.725 7.3707e-08     8.4045     89.985      2.444   2.133515     0.0000    -0.1079    -0.0426    -0.1269 2.8938e+02    -0.4685     -0.711     -1.031    18.6458 0.0000e+00
     -0.725 9.4766e-08     8.4043     89.995      2.254   1.967475     0.0000    -0.0850     0.0000     0.2115 2.9039e+02    -0.4084     -0.711     -1.031    18.6464 0.0000e+00
     -0.725 1.2184e-07     8.4046     90.001      2.054   1.793275     0.0000    -0.1193     0.0000     0.2115 2.8969e+02    -0.4234     -0.711     -1.031    18.6471 0.0000e+00
     -0.725 1.5665e-07     8.4054     90.003      1.874   1.635644     0.0000    -0.1002     0.0000     0.2115 2.9127e+02    -0.3633     -0.711     -1.031    18.6478 0.0000e+00
     -0.725 2.0141e-07     8.4065     90.002      1.736   1.515816     0.0000    -0.1346     0.0000     0.2115 2.9375e+02    -0.4234     -0.711     -1.031    18.6486 0.0000e+00
     -0.725 2.5896e-07     8.4073     89.996      1.642   1.433472     0.0000    -0.1079     0.0000     0.2115 2.9484e+02    -0.3633     -0.711     -1.032    18.6494 0.0000e+00
     -0.725 3.3295e-07     8.4077     89.987      1.586   1.384449     0.0000    -0.0888     0.0000     0.0000 2.9683e+02    -0.3933     -0.711     -1.032    18.6501 0.0000e+00
     -0.725 4.2808e-07     8.4078     89.976      1.551   1.353697     0.0000    -0.0850     0.0000     0.0000 2.9748e+02    -0.4384     -0.711     -1.032    18.6509 0.0000e+00
     -0.725 5.5038e-07     8.4075     89.969      1.516   1.323128     0.0000    -0.1079     0.0000     0.0000 2.9787e+02    -0.4685     -0.711     -1.032    18.6516 0.0000e+00
     -0.725 7.0764e-07     8.4068     89.966      1.492   1.302388     0.0000    -0.1155     0.0000     0.0000 2.9761e+02    -0.2731     -0.711     -1.032    18.6524 0.0000e+00
     -0.725 9.0982e-07     8.4058     89.966      1.498   1.307693     0.0000    -0.0964     0.0000     0.0423 2.9715e+02    -0.3783     -0.711     -1.032    18.6531 0.0000e+00
     -0.725      0.000     8.4047     89.966      1.531   1.336503     0.0000    -0.1269     0.0000     0.0423 3.0047e+02    -0.4685     -0.711     -1.032    18.6538 0.0000e+00
     -0.725      0.000     8.4039     89.964      1.572   1.372775     0.0000    -0.0888     0.0000     0.0423 3.0554e+02    -0.3633     -0.711     -1.032    18.6544 0.0000e+00
     -0.725      0.000     8.4036     89.964      1.638   1.430137     0.0000    -0.1041     0.0000     0.0423 3.0793e+02    -0.2881     -0.711     -1.032    18.6550 0.0000e+00
     -0.725      0.000     8.4035     89.965      1.768   1.543657     0.0000    -0.1079     0.0000    -0.2538 3.0901e+02    -0.2881     -0.711     -1.032    18.6555 0.0000e+00
     -0.725      0.000     8.4033     89.965      1.979   1.727788     0.0000    -0.1155     0.0000    -0.2538 3.0881e+02    -0.4084     -0.711     -1.032    18.6561 0.0000e+00
     -0.725      0.000     8.4030     89.961      2.249   1.964407     0.0000    -0.1193     0.0000    -0.2538 3.0988e+02    -0.3783     -0.711     -1.032    18.6568 0.0000e+00
     -0.725      0.000     8.4029     89.955      2.539   2.217753     0.0000    -0.0850     0.0000    -0.2538 3.0975e+02    -0.3783     -0.711     -1.032    18.6575 0.0000e+00
     -0.725      0.000     8.4029     89.947      2.901   2.533635     0.0000    -0.0773     0.0000     0.0846 3.1015e+02    -0.4835     -0.711     -1.032    18.6584 0.0000e+00
     -0.725      0.000     8.4027     89.940      3.140   2.743172     0.0000    -0.1155     0.0000     0.0846 3.1096e+02    -0.4534     -0.711     -1.032    18.6594 0.0000e+00
     -0.725      0.000     8.4021     89.940      3.892   3.400248     0.0000    -0.0926     0.0000     0.0846 3.1245e+02    -0.3933     -0.711     -1.032    18.6606 0.0000e+00
     -0.725      0.000     8.4013     89.947      5.763   5.035603     0.0000    -0.1231     0.0000     0.0846 3.1395e+02    -0.3482     -0.711     -1.032    18.6621 0.0000e+00
     -0.726      0.000     8.4002     89.962      7.118   6.220711     0.0000    -0.0926     0.0000     0.0846 3.0014e+02    -0.4985     -0.712     -1.032    18.6641 0.0000e+00
     -0.726      0.000     8.3991     89.984      7.310   6.389996     0.0000    -0.0888     0.0000     0.0000 3.0481e+02    -0.4534     -0.712     -1.032    18.6668 0.0000e+00
     -0.726      0.000     8.3984     90.006      7.881   6.891935     0.0000    -0.0964     0.0000     0.0000 3.0680e+02    -0.3783     -0.712     -1.032    18.6708 0.0000e+00
     -0.725      0.000     8.3980     90.025      9.642   8.433907     0.0000    -0.1269     0.0000     0.0000 2.9510e+02    -0.3482     -0.711     -1.032    18.6767 0.0000e+00
     -0.725      0.000     8.3979     90.044     11.782  10.309663     0.0000    -0.1155     0.0000     0.0000 2.8875e+02    -0.3783     -0.711     -1.032    18.6855 0.0000e+00
     -0.726      0.000     8.3979     90.060     12.750  11.161988     0.0000    -0.1155     0.0000    -0.1692 3.2661e+02    -0.3182     -0.712     -1.032    18.6971 0.0000e+00
     -0.726      0.000     8.3977     90.074     12.021  10.529701     0.0000    -0.1117     0.0000    -0.1692 3.6497e+02    -0.3482     -0.712     -1.032    18.7103 0.0000e+00
     -0.726      0.000     8.3969     90.086     10.445   9.156270     0.0000    -0.1269     0.0000    -0.1692 3.3148e+02    -0.3783     -0.712     -1.032    18.7257 0.0000e+00
     -0.726      0.000     8.3949     90.101      8.784   7.706154     0.0000    -0.0850     0.0000    -0.1692 3.0640e+02    -0.4384     -0.712     -1.032    18.7473 0.0000e+00
     -0.726      0.000     8.3913     90.119      7.329   6.433483     0.0000    -0.1155    -0.1278    -0.2961 2.9503e+02    -0.2581     -0.712     -1.032    18.7775 0.0000e+00
     -0.725      0.001     8.3862     90.135      6.219   5.461662     0.0000    -0.1002    -0.1278    -0.2961 2.8150e+02    -0.1528     -0.711     -1.032    18.8151 0.0000e+00
     -0.725      0.001     8.3806     90.151      5.457   4.794551     0.0000    -0.1346    -0.1278    -0.2961 2.8976e+02    -0.1829     -0.711     -1.032    18.8552 0.0000e+00
     -0.725      0.001     8.3762     90.166      5.013   4.406519     0.0000    -0.1308    -0.1278    -0.2961 3.0461e+02    -0.1228     -0.711     -1.032    18.8892 0.0000e+00
     -0.725      0.002     8.3739     90.182      4.868   4.281097     0.0000    -0.0888     0.0000     0.3384 2.9677e+02    -0.3332     -0.711     -1.031    18.9130 0.0000e+00
     -0.724      0.002     8.3729     90.198      5.069   4.459977     0.0000    -0.1155     0.0000     0.3384 3.0014e+02    -0.3332     -0.710     -1.031    18.9282 0.0000e+00
     -0.724      0.003     8.3727     90.211      5.716   5.032387     0.0000    -0.0850     0.0000     0.3384 3.2911e+02    -0.2881     -0.710     -1.030    18.9378 0.0000e+00
     -0.723      0.004     8.3730     90.219      6.613   5.826648     0.0000    -0.1269     0.0000     0.3384 3.5814e+02    -0.4534     -0.709     -1.029    18.9446 0.0000e+00
     -0.723      0.005     8.3734     90.227      7.275   6.417784     0.0000    -0.1079     0.0000     0.3384 3.6936e+02    -0.2280     -0.709     -1.028    18.9507 0.0000e+00
     -0.721      0.006     8.3736     90.237      7.589   6.710309     0.0000    -0.1308     0.0000    -0.3384 3.9373e+02    -0.1528     -0.708     -1.026    18.9586 0.0000e+00
     -0.720      0.008     8.3728     90.252      7.910   7.019550     0.0000    -0.1269     0.0000    -0.3384 4.2070e+02    -0.1228     -0.706     -1.024    18.9709 0.0000e+00
     -0.718      0.010     8.3703     90.272      8.611   7.681115     0.0000    -0.1117     0.0000    -0.3384 4.4613e+02    -0.2130     -0.704     -1.021    18.9917 0.0000e+00
     -0.715      0.013     8.3652     90.297      9.906   8.895155     0.0000     0.4529     0.0000    -0.3384 4.8169e+02     4.9123     -0.701     -1.017    19.0273 0.0000e+00
     -0.712      0.016     8.3563     90.327     11.420  10.338601     2.5200     0.4453     0.2130     4.9491 5.1931e+02     4.8372     -0.698     -1.013    19.0877 0.0000e+00
     -0.708      0.019     8.3411     90.360     12.353  11.290667     2.5200     0.4376     0.2130     4.9491 5.5081e+02     4.8823     -0.694     -1.007    19.1897 0.0000e+00
     -0.702      0.022     8.3153     90.387     12.106  11.162501     2.5200     0.4529     0.2130     4.9491 5.8231e+02     4.8522     -0.689     -0.999    19.3595 0.0000e+00
     -0.695      0.024     8.2719     90.404     10.912  10.133416     2.5200     2.1505     0.2130     4.9491 6.3963e+02    21.0998     -0.682     -0.989    19.6404 0.0000e+00
     -0.688      0.024     8.2054     90.407     10.200   9.533238     6.0300     2.1352     0.4260    13.8744 8.0776e+02    21.0998     -0.674     -0.979    20.0673 0.0000e+00
     -0.681      0.024     8.1234     90.397     10.930  10.268169     6.0300     2.1428     0.4260    13.8744 8.3579e+02    21.1449     -0.668     -0.969    20.5951 0.0000e+00
     -0.675      0.024     8.0443     90.378     12.994  12.251385     6.0300     2.1390     0.4260    13.8744 8.5545e+02    21.1599     -0.662     -0.960    21.1070 0.0000e+00
     -0.670      0.023     7.9816     90.359     15.684  14.822950     6.0300     2.1200     0.4260    13.8744 8.3962e+02    20.4384     -0.657     -0.953    21.5139 0.0000e+00
     -0.665      0.023     7.9382     90.343     18.031  17.074142     6.0300     2.0742     0.4260    13.8744 8.5119e+02    20.3332     -0.652     -0.946    21.7917 0.0000e+00
     -0.660      0.024     7.9100     90.333     19.873  18.855465     6.0300     2.0780     0.4260    14.7204 8.6894e+02    20.3182     -0.647     -0.939    21.9652 0.0000e+00
     -0.653      0.026     7.8900     90.330     21.650  20.586532     6.0300     2.1161     0.4260    14.7204 8.9462e+02    20.4535     -0.640     -0.929    22.0828 0.0000e+00
     -0.646      0.027     7.8733     90.330     23.467  22.364800     6.0300     2.0360     0.4260    14.7204 9.2105e+02    20.7390     -0.633     -0.919    22.1797 0.0000e+00
     -0.638      0.028     7.8576     90.335     24.936  23.817377     6.0300     2.0131     0.4260    14.7204 9.2506e+02    20.7240     -0.626     -0.908    22.2724 0.0000e+00
     -0.631      0.028     7.8420     90.344     26.083  24.963482     6.0300     2.0437     0.4260    14.4243 9.0932e+02    20.6639     -0.618     -0.897    22.3700 0.0000e+00
     -0.623      0.028     7.8259     90.356     27.602  26.465037     6.0300     2.0284     0.4260    14.4243 9.0321e+02    20.7541     -0.611     -0.887    22.4751 0.0000e+00
     -0.616      0.028     7.8091     90.367     29.972  28.785807     6.0300     2.0665     0.4260    14.4243 8.9656e+02    20.4986     -0.604     -0.877    22.5874 0.0000e+00
     -0.609      0.028     7.7926     90.377     32.749  31.509227     6.0300     2.1047     0.4260    14.4243 8.8207e+02    20.3182     -0.598     -0.867    22.7005 0.0000e+00
     -0.603      0.029     7.7784     90.388     35.019  33.759760     6.0300     2.1085     0.4260    13.4091 8.7197e+02    20.4234     -0.591     -0.857    22.8012 0.0000e+00
     -0.596      0.031     7.7668     90.403     36.629  35.387121     6.0300     2.0932     0.4260    13.4091 8.8919e+02    20.4234     -0.584     -0.847    22.8861 0.0000e+00
     -0.588      0.035     7.7559     90.423     38.027  36.819335     6.0300     2.0093     0.4260    13.4091 9.1487e+02    20.4685     -0.577     -0.836    22.9664 0.0000e+00
     -0.579      0.039     7.7437     90.447     39.530  38.369006     6.0300     2.0208     0.4260    13.4091 9.1905e+02    20.4535     -0.568     -0.824    23.0546 0.0000e+00
     -0.569      0.046     7.7301     90.478     41.206  40.112661     6.0300     2.0284     0.3834    13.1553 9.1725e+02    20.3633     -0.558     -0.810    23.1541 0.0000e+00
     -0.558      0.053     7.7160     90.530     42.839  41.839802     6.0300     2.0208     0.3834    13.1553 9.2065e+02    20.4835     -0.547     -0.793    23.2594 0.0000e+00
     -0.544      0.062     7.7020     90.618     44.166  43.283964     6.0300     2.1505     0.3834    13.1553 9.2085e+02    21.1298     -0.533     -0.773    23.3670 0.0000e+00
     -0.527      0.071     7.6868     90.760     45.127  44.370621     6.0300     2.1581     0.3834    13.1553 9.4415e+02    21.1900     -0.517     -0.749    23.4854 0.0000e+00
     -0.507      0.080     7.6690     90.984     45.782  45.147824     6.0300     2.1657     0.3834    13.1553 9.5987e+02    21.0847     -0.497     -0.721    23.6271 0.0000e+00
     -0.485      0.089     7.6497     91.340     46.187  45.664317     6.0300     2.1352     0.4260    13.6629 9.6741e+02    21.0847     -0.476     -0.690    23.7918 0.0000e+00
     -0.461      0.097     7.6323     91.911     46.393  45.964703     6.0300     2.2077     0.4260    13.6629 9.6510e+02    21.6859     -0.452     -0.655    23.9651 0.0000e+00
     -0.435      0.103     7.6203     92.815     46.468  46.115221     6.0300     2.2153     0.4260    13.6629 9.6657e+02    21.6108     -0.426     -0.618    24.1320 0.0000e+00
     -0.407      0.106     7.6173     94.203     46.480  46.183752     6.0300     2.2115     0.4260    13.6629 9.6384e+02    21.5958     -0.399     -0.579    24.2840 0.0000e+00
     -0.377      0.107     7.6282     96.216     46.449  46.192536     6.1200     2.2115     0.4260    15.0165 9.6363e+02    21.6258     -0.370     -0.537    24.4161 0.0000e+00
     -0.348      0.106     7.6602     98.828     46.355  46.128066     6.1200     2.2115     0.4260    15.0165 9.2768e+02    20.3483     -0.341     -0.495    24.5250 0.0000e+00
     -0.320      0.103     7.7233    101.792     46.232  46.024669     6.1200     2.1924     0.4260    15.0165 9.3192e+02    20.5587     -0.314     -0.456    24.6095 0.0000e+00
     -0.294      0.097     7.8296    104.790     46.189  45.993478     6.1200     2.2001     0.4260    15.0165 9.3537e+02    20.4234     -0.289     -0.419    24.6720 0.0000e+00
     -0.270      0.089     7.9903    107.531     46.262  46.075712     6.2100     2.2001     0.3834    14.5935 9.1050e+02    20.4234     -0.265     -0.384    24.7168 0.0000e+00
     -0.247      0.080     8.2026    109.802     46.370  46.192245     6.2100     2.2535     0.3834    14.5935 8.2676e+02    20.4084     -0.242     -0.351    24.7482 0.0000e+00
     -0.226      0.069     8.4454    111.495     46.426  46.257244     6.2100     2.2687     0.3834    14.5935 6.6442e+02    20.3934     -0.222     -0.322    24.7690 0.0000e+00
     -0.210      0.058     8.6920    112.551     46.395  46.234540     6.2100     2.2878     0.3834    14.5935 7.8288e+02    20.3934     -0.206     -0.299    24.7826 0.0000e+00
     -0.197      0.045     8.9178    112.985     46.290  46.133933     6.1200     2.2764     0.4260    13.9167 6.7607e+02    20.4384     -0.193     -0.280    24.7929 0.0000e+00
     -0.188      0.033     9.1046    112.937     46.186  46.031632     6.1200     2.2611     0.4260    13.9167 6.3313e+02    19.9425     -0.184     -0.267    24.8028 0.0000e+00
     -0.181      0.021     9.2433    112.587     46.153  45.997452     6.1200     2.2649     0.4260    13.9167 6.2629e+02    19.9875     -0.178     -0.258    24.8125 0.0000e+00
     -0.178      0.011     9.3295    112.020     46.151  45.994536     6.1200     2.2725     0.4260    13.9167 6.1979e+02    19.9274     -0.175     -0.253    24.8207 0.0000e+00
     -0.178      0.004     9.3647    111.223     46.128  45.972570     6.1200     2.2725     0.4260    13.9167 7.7492e+02    19.9725     -0.174     -0.253    24.8259 0.0000e+00
     -0.179      0.000     9.3605    110.196     46.080  45.925696     6.2100     2.3412     0.4260    15.6510 8.1128e+02    20.4835     -0.176     -0.255    24.8272 0.0000e+00
     -0.182     -0.003     9.3318    108.984     46.019  45.865193     6.2100     2.3221     0.4260    15.6510 8.2264e+02    20.4685     -0.178     -0.258    24.8257 0.0000e+00
     -0.183     -0.003     9.2849    107.654     45.988  45.832391     6.2100     2.3527     0.4260    15.6510 8.2946e+02    20.3332     -0.180     -0.261    24.8246 0.0000e+00
     -0.184     -0.002     9.2187    106.316     46.015  45.858170     6.2100     2.3641     0.4260    15.6510 8.4144e+02    20.4986     -0.181     -0.262    24.8255 0.0000e+00
     -0.184      0.000     9.1334    105.098     46.083  45.925628     6.0300     2.3603     0.3834    15.1011 8.4035e+02    19.7320     -0.181     -0.262    24.8268 0.0000e+00
     -0.184      0.002     9.0329    104.103     46.160  46.005197     6.0300     2.3221     0.3834    15.1011 8.3434e+02    19.7921     -0.180     -0.262    24.8269 0.0000e+00
     -0.183      0.004     8.9230    103.388     46.220  46.068560     6.0300     2.3603     0.3834    15.1011 8.3253e+02    19.8072     -0.180     -0.260    24.8252 0.0000e+00
     -0.182      0.006     8.8124    102.947     46.244  46.096944     6.0300     2.3603     0.3834    15.1011 8.3145e+02    19.7621     -0.179     -0.259    24.8232 0.0000e+00
     -0.180      0.008     8.7115    102.698     46.238  46.093958     6.0300     2.3221     0.3834    13.4937 8.3507e+02    20.4535     -0.177     -0.257    24.8233 0.0000e+00
     -0.178      0.010     8.6285    102.536     46.204  46.062767     6.0300     2.3488     0.3834    13.4937 8.3543e+02    20.4384     -0.175     -0.254    24.8261 0.0000e+00
     -0.176      0.013     8.5686    102.388     46.139  45.999018     6.0300     2.3221     0.3834    13.4937 8.3362e+02    20.4986     -0.173     -0.250    24.8304 0.0000e+00
     -0.173      0.016     8.5314    102.246     46.040  45.901563     6.0300     2.3221     0.3834    13.4937 8.3343e+02    20.3934     -0.169     -0.246    24.8346 0.0000e+00
     -0.169      0.021     8.5102    102.183     45.910  45.772156     6.0300     2.3794     0.3834    13.2399 8.3163e+02    20.7240     -0.165     -0.240    24.8381 0.0000e+00
     -0.163      0.026     8.4964    102.324     45.749  45.609972     6.0300     2.3908     0.3834    13.2399 8.2928e+02    20.6038     -0.160     -0.232    24.8407 0.0000e+00
     -0.156      0.032     8.4838    102.789     45.596  45.453004     6.0300     2.3679     0.3834    13.2399 8.3036e+02    20.7240     -0.153     -0.222    24.8426 0.0000e+00
     -0.147      0.038     8.4719    103.646     45.538  45.390167     6.0300     2.3832     0.3834    13.2399 8.2068e+02    20.5887     -0.144     -0.209    24.8437 0.0000e+00
     -0.136      0.043     8.4666    104.911     45.571  45.418575     6.0300     2.3374     0.3834    13.2399 8.1040e+02    21.1449     -0.134     -0.194    24.8438 0.0000e+00
     -0.124      0.049     8.4786    106.539     45.575  45.418990     6.0300     2.3107     0.4260    13.1553 7.0579e+02    21.1749     -0.122     -0.176    24.8420 0.0000e+00
     -0.111      0.053     8.5178    108.400     45.534  45.375672     6.0300     2.3221     0.4260    13.1553 6.7431e+02    21.2200     -0.109     -0.157    24.8378 0.0000e+00
     -0.097      0.056     8.5897    110.296     45.543  45.382086     6.0300     2.3183     0.4260    13.1553 6.2615e+02    21.1749     -0.095     -0.137    24.8322 0.0000e+00
     -0.081      0.057     8.6953    112.057     45.618  45.457775     6.0300     2.5014     0.4260    13.1553 3.8301e+02    21.8513     -0.080     -0.115    24.8270 0.0000e+00
     -0.065      0.057     8.8309    113.565     45.716  45.559516     6.1200     2.5091     0.4260    13.5360 3.4975e+02    21.7912     -0.064     -0.092    24.8231 0.0000e+00
     -0.050      0.055     8.9858    114.709     45.794  45.643110     6.1200     2.5358     0.4260    13.5360 3.4952e+02    21.8513     -0.049     -0.070    24.8195 0.0000e+00
     -0.035      0.052     9.1434    115.377     45.835  45.689237     6.1200     2.5052     0.4260    13.5360 3.3198e+02    21.8964     -0.035     -0.050    24.8172 0.0000e+00
     -0.023      0.048     9.2891    115.477     45.858  45.716142     6.1200     2.6273     0.4260    13.5360 3.3553e+02    20.7390     -0.022     -0.032    24.8184 0.0000e+00
     -0.011      0.043     9.4133    114.981     45.884  45.744871     6.3000     2.6426     0.4260    15.4395 2.9897e+02    20.6338     -0.011     -0.015    24.8232 0.0000e+00
     -0.000      0.037     9.5069    113.970     45.920  45.785067     6.3000     2.6349     0.4260    15.4395 2.6726e+02    20.6188     -0.000      0.000    24.8297 0.0000e+00
      0.009      0.031     9.5613    112.621     45.968  45.835559     6.3000     2.6235     0.4260    15.4395 2.5993e+02    20.6639      0.009      0.013    24.8354 0.0000e+00
      0.016      0.025     9.5690    111.150     46.030  45.899906     6.3000     2.6159     0.4260    15.4395 2.5484e+02    20.7090      0.016      0.023    24.8393 0.0000e+00
      0.022      0.019     9.5273    109.804     46.107  45.975450     6.3000     2.7646     0.4260    15.4395 2.5412e+02    20.7240      0.021      0.031    24.8427 0.0000e+00
      0.025      0.014     9.4429    108.853     46.171  46.034783     6.1200     2.7799     0.4260    14.2551 2.6049e+02    20.7090      0.025      0.036    24.8466 0.0000e+00
      0.027      0.011     9.3305    108.544     46.220  46.073911     6.1200     2.7570     0.4260    14.2551 2.8053e+02    20.7240      0.027      0.039    24.8502 0.0000e+00
      0.028      0.009     9.2084    109.087     46.326  46.160730     6.1200     2.7570     0.4260    14.2551 2.8495e+02    20.7240      0.028      0.041    24.8522 0.0000e+00
      0.030      0.008     9.0971    110.722     46.573  46.381801     6.1200     2.8600     0.4260    14.2551 2.8218e+02    20.9495      0.029      0.042    24.8517 0.0000e+00
      0.031      0.008     9.0192    113.837     46.935  46.708885     6.1200     2.8943     0.4260    14.8896 2.7786e+02    20.8593      0.031      0.045    24.8473 0.0000e+00
      0.034      0.010     8.9958    118.921     47.277  47.009254     6.1200     2.8715     0.4260    14.8896 2.7743e+02    20.8593      0.033      0.048    24.8364 0.0000e+00
      0.036      0.012     9.0444    126.235     47.520  47.206457     6.1200     2.8905     0.4260    14.8896 2.8126e+02    20.8893      0.036      0.052    24.8173 0.0000e+00
      0.039      0.016     9.1852    135.472     47.683  47.319392     6.1200     2.8867     0.4260    14.8896 2.7864e+02    19.9124      0.039      0.056    24.7900 0.0000e+00
      0.043      0.020     9.4506    145.779     47.801  47.382136     6.3900     2.8943     0.4260    16.8777 2.8267e+02    20.0026      0.042      0.061    24.7549 0.0000e+00
      0.048      0.024     9.8813    156.095     47.900  47.411422     6.3900     2.8753     0.4260    16.8777 2.7551e+02    20.0026      0.047      0.069    24.7129 0.0000e+00
      0.055      0.029    10.4991    165.405     47.996  47.411093     6.3900     2.8600     0.4260    16.8777 2.6743e+02    20.0026      0.054      0.078    24.6659 0.0000e+00
      0.063      0.034    11.2787    172.887     48.090  47.385020     6.3900     3.0126     0.4260    16.8777 2.4437e+02    21.2050      0.062      0.090    24.6148 0.0000e+00
      0.073      0.038    12.1501    178.110     48.189  47.350025     6.6600     2.9783     0.4260    17.7237 2.2310e+02    21.1749      0.071      0.103    24.5578 0.0000e+00
      0.083      0.042    13.0275    181.118     48.299  47.322529     6.6600     3.0164     0.4260    17.7237 2.0717e+02    21.1148      0.082      0.119    24.4860 0.0000e+00
      0.095      0.044    13.8298    182.316     48.417  47.305101     6.6600     2.9935     0.4260    17.7237 1.9690e+02    21.1449      0.093      0.135    24.3870 0.0000e+00
      0.107      0.047    14.4878    182.335     48.515  47.275253     6.6600     3.7527     0.4260    17.7237 1.7832e+02    25.1429      0.105      0.152    24.2628 0.0000e+00
      0.119      0.049    14.9620    181.850     48.579  47.217094     6.6600     3.7260     0.4260    17.7237 1.7670e+02    25.0226      0.116      0.169    24.1261 0.0000e+00
      0.131      0.052    15.2527    181.348     48.617  47.138889     7.0200     3.7374     0.4686    21.7845 1.7848e+02    25.0076      0.128      0.186    23.9857 0.0000e+00
      0.144      0.054    15.3917    181.071     48.616  47.033648     7.0200     3.7527     0.4686    21.7845 1.7145e+02    25.0076      0.141      0.205    23.8478 0.0000e+00
      0.159      0.057    15.4297    181.098     48.562  46.889158     7.0200     5.0268     0.4686    21.7845 1.3388e+02    26.5707      0.155      0.226    23.7175 0.0000e+00
      0.174      0.059    15.4240    181.331     48.472  46.710480     7.0200     4.9810     0.4686    21.7845 1.2725e+02    26.4505      0.170      0.247    23.5929 0.0000e+00
      0.189      0.062    15.4156    181.548     48.346  46.495540     7.2000     5.0115     0.5112    23.4342 1.2314e+02    26.5858      0.186      0.269    23.4735 0.0000e+00
      0.205      0.064    15.4230    181.572     48.163  46.222686     7.2000     5.0039     0.5112    23.4342 1.1215e+02    26.4806      0.201      0.292    23.3662 0.0000e+00
      0.222      0.066    15.4533    181.336     47.883  45.852840     7.2000     3.9014     0.5112    23.4342 9.5371e+01    24.7521      0.218      0.316    23.2699 0.0000e+00
      0.239      0.069    15.5009    180.808     47.428  45.303225     7.2000     3.9243     0.5112    23.4342 8.8099e+01    24.8272      0.234      0.340    23.1750 0.0000e+00
      0.257      0.072    15.5482    179.920     46.809  44.569942     7.2000     3.9358     0.5112    21.3615 8.5088e+01    24.7671      0.252      0.365    23.0764 0.0000e+00
      0.275      0.076    15.5801    178.534     46.164  43.780420     7.2000     3.9358     0.5112    21.3615 8.4609e+01    24.7521      0.270      0.391    22.9741 0.0000e+00
      0.295      0.079    15.5914    176.530     45.582  43.031221     7.2000     3.6954     0.5112    21.3615 8.0747e+01    23.3393      0.289      0.419    22.8657 0.0000e+00
      0.316      0.082    15.5821    173.934     45.105  42.384073     7.2000     3.6840     0.5112    21.3615 5.9360e+01    23.3393      0.310      0.450    22.7419 0.0000e+00
      0.339      0.083    15.5504    170.896     44.711  41.838755     7.0200     3.6459     0.5964    20.0502 5.3597e+01    23.3693      0.332      0.481    22.5877 0.0000e+00
      0.361      0.083    15.4862    167.585     44.303  41.309276     7.0200     3.6840     0.5964    20.0502 4.7725e+01    23.2341      0.354      0.513    22.3964 0.0000e+00
      0.382      0.082    15.3750    164.119     43.857  40.765376     7.0200     3.3063     0.5964    20.0502 4.4182e+01    18.5597      0.375      0.544    22.1802 0.0000e+00
      0.403      0.080    15.2114    160.566     43.429  40.252191     7.0200     3.2949     0.5964    20.0502 4.1367e+01    18.4996      0.395      0.573    21.9636 0.0000e+00
      0.423      0.078    15.0016    156.972     43.058  39.801252     7.0200     3.2873     0.5964    20.0502 3.7448e+01    18.5597      0.415      0.602    21.7689 0.0000e+00
      0.443      0.075    14.7578    153.355     42.741  39.411158     6.8400     3.3063     0.3834    18.1890 3.2628e+01    18.6198      0.434      0.629    21.6034 0.0000e+00
      0.462      0.072    14.4930    149.681     42.483  39.086830     6.8400     3.1270     0.3834    18.1890 2.9098e+01    16.2150      0.453      0.657    21.4594 0.0000e+00
      0.480      0.069    14.2156    145.899     42.286  38.830915     6.8400     3.1080     0.3834    18.1890 2.6290e+01    16.1849      0.471      0.683    21.3276 0.0000e+00
      0.497      0.065    13.9308    142.006     42.109  38.606860     6.8400     3.1118     0.3834    18.1890 2.4007e+01    16.3052      0.487      0.707    21.2048 0.0000e+00
      0.513      0.062    13.6399    138.095     41.919  38.380664     6.3000     3.1270     0.3408    15.1857 2.2634e+01    16.1849      0.503      0.729    21.0926 0.0000e+00
      0.528      0.059    13.3395    134.356     41.700  38.131624     6.3000     3.0584     0.3408    15.1857 2.1405e+01    16.1549      0.518      0.751    20.9923 0.0000e+00
      0.543      0.057    13.0248    130.995     41.435  37.840867     6.3000     3.0813     0.3408    15.1857 1.9984e+01    16.1398      0.532      0.771    20.9057 0.0000e+00
      0.557      0.055    12.6956    128.138     41.174  37.551680     6.3000     3.0622     0.3408    15.1857 1.9155e+01    16.1999      0.545      0.791    20.8333 0.0000e+00
      0.570      0.054    12.3613    125.795     40.994  37.337479     6.0300     3.0508     0.2982    13.9590 1.7409e+01    16.2751      0.559      0.811    20.7714 0.0000e+00
      0.584      0.052    12.0404    123.869     40.896  37.204524     6.0300     2.8104     0.2982    13.9590 1.6456e+01    14.3813      0.572      0.830    20.7139 0.0000e+00
      0.597      0.051    11.7530    122.188     40.839  37.117357     6.0300     2.8562     0.2982    13.9590 1.5620e+01    14.3813      0.585      0.849    20.6558 0.0000e+00
      0.610      0.050    11.5108    120.586     40.809  37.062636     6.0300     2.8295     0.2982    13.9590 1.4672e+01    14.3061      0.598      0.867    20.5945 0.0000e+00
      0.622      0.049    11.3141    119.002     40.789  37.023787     6.0300     2.8295     0.2982    13.9590 1.4027e+01    14.3362      0.610      0.885    20.5338 0.0000e+00
      0.635      0.048    11.1530    117.506     40.747  36.970643     5.8500     2.5701     0.2556    12.9438 1.3477e+01    12.6378      0.622      0.903    20.4805 0.0000e+00
      0.647      0.048    11.0112    116.243     40.668  36.885072     5.8500     2.5701     0.2556    12.9438 1.3056e+01    12.5777      0.634      0.920    20.4378 0.0000e+00
      0.659      0.048    10.8742    115.354     40.570  36.781887     5.8500     2.5663     0.2556    12.9438 1.2455e+01    12.6528      0.646      0.937    20.4046 0.0000e+00
      0.671      0.048    10.7369    114.918     40.457  36.663280     5.8500     2.5663     0.2556    12.9438 1.2147e+01    12.6679      0.658      0.954    20.3794 0.0000e+00
      0.683      0.048    10.6061    114.916     40.276  36.479798     5.6700     2.5586     0.2556    11.5479 1.1786e+01    11.7661      0.670      0.971    20.3605 0.0000e+00
      0.695      0.049    10.4956    115.207     40.011  36.214200     5.6700     2.5625     0.2556    11.5479 1.1603e+01    11.6608      0.682      0.988    20.3439 0.0000e+00
      0.707      0.051    10.4192    115.541     39.704  35.900633     5.6700     2.5777     0.2556    11.5479 1.1478e+01    11.7210      0.694      1.005    20.3257 0.0000e+00
      0.720      0.052    10.3841    115.586     39.398  35.578273     5.6700     2.5586     0.2556    11.5479 1.1260e+01    11.6158      0.706      1.023    20.3050 0.0000e+00
      0.733      0.054    10.3888    114.962     39.122  35.276027     5.4900     2.1886     0.2130     9.8982 1.0786e+01    10.4434      0.719      1.042    20.2810 0.0000e+00
      0.747      0.056    10.4217    113.310     38.894  35.012318     5.4900     2.2039     0.2130     9.8982 1.0051e+01    10.5787      0.733      1.063    20.2486 0.0000e+00
      0.762      0.058    10.4612    110.382     38.733  34.809902     5.4900     2.2153     0.2130     9.8982 9.7473e+00    10.4434      0.748      1.084    20.2032 0.0000e+00
      0.777      0.059    10.4771    106.108     38.643  34.676191     5.4900     2.2039     0.2130     9.8982 9.2139e+00    10.5035      0.763      1.105    20.1447 0.0000e+00
      0.793      0.060    10.4340    100.660     38.593  34.587411     5.4000     1.6584     0.2130     8.4600 8.1635e+00     8.1588      0.778      1.128    20.0767 0.0000e+00
      0.809      0.060    10.2984     94.472     38.549  34.511962     5.4000     1.6813     0.2130     8.4600 7.8198e+00     8.1288      0.793      1.150    20.0032 0.0000e+00
      0.824      0.059    10.0464     88.148     38.504  34.441606     5.4000     1.6240     0.2130     8.4600 7.7336e+00     8.2039      0.808      1.172    19.9292 0.0000e+00
      0.839      0.058     9.6700     82.304     38.471  34.385308     5.4000     1.6278     0.2130     8.4600 7.1315e+00     8.1889      0.823      1.193    19.8611 0.0000e+00
      0.854      0.057     9.1836     77.425     38.451  34.343897     5.4000     1.6507     0.2130     8.4600 6.5024e+00     7.5576      0.837      1.214    19.8041 0.0000e+00
      0.868      0.057     8.6268     73.789     38.446  34.318210     5.1300     1.6240     0.1704     5.8797 6.2570e+00     7.5276      0.852      1.235    19.7583 0.0000e+00
      0.882      0.056     8.0557     71.452     38.451  34.305357     5.1300     1.6164     0.1704     5.8797 5.9533e+00     7.4524      0.866      1.255    19.7197 0.0000e+00
      0.896      0.055     7.5270     70.281     38.455  34.293990     5.1300     1.6431     0.1704     5.8797 5.6655e+00     7.4674      0.879      1.275    19.6850 0.0000e+00
      0.910      0.054     7.0856     69.998     38.460  34.285037     5.1300     2.0780     0.1704     5.8797 5.2758e+00     7.0015      0.893      1.294    19.6539 0.0000e+00
      0.924      0.054     6.7569     70.275     38.479  34.287994     5.0400     2.0780     0.1278     4.9914 5.0066e+00     6.8963      0.906      1.314    19.6268 0.0000e+00
      0.937      0.053     6.5463     70.809     38.515  34.303649     5.0400     2.0856     0.1278     4.9914 4.7895e+00     7.0466      0.919      1.333    19.6041 0.0000e+00
      0.950      0.052     6.4417     71.365     38.564  34.328253     5.0400     2.0932     0.1278     4.9914 4.6460e+00     6.9865      0.932      1.352    19.5851 0.0000e+00
      0.963      0.052     6.4184     71.774     38.626  34.360446     5.0400     1.8338     0.1278     4.9914 4.4513e+00     6.0396      0.945      1.371    19.5675 0.0000e+00
      0.977      0.051     6.4463     71.911     38.697  34.396929     4.8600     1.8071     0.1278     4.5261 4.1406e+00     5.8893      0.958      1.390    19.5492 0.0000e+00
      0.990      0.050     6.4980     71.656     38.771  34.435547     4.8600     1.8262     0.1278     4.5261 3.9516e+00     6.0396      0.971      1.408    19.5287 0.0000e+00
      1.003      0.049     6.5523     70.902     38.856  34.482637     4.8600     1.8224     0.1278     4.5261 3.9165e+00     6.0546      0.983      1.426    19.5038 0.0000e+00
      1.015      0.048     6.5938     69.606     38.962  34.546793     4.8600     1.3951     0.1278     4.5261 3.7598e+00     5.0326      0.995      1.443    19.4736 0.0000e+00
      1.027      0.048     6.6107     67.814     39.088  34.625320     4.7700     1.4028     0.1278     3.3417 3.6195e+00     5.0476      1.007      1.460    19.4397 0.0000e+00
      1.039      0.047     6.5918     65.632     39.220  34.705489     4.7700     1.3951     0.1278     3.3417 3.4625e+00     5.0476      1.019      1.478    19.4042 0.0000e+00
      1.051      0.045     6.5270     63.173     39.344  34.776990     4.7700     1.3951     0.1278     3.3417 3.2909e+00     5.0476      1.030      1.495    19.3680 0.0000e+00
      1.063      0.044     6.4123     60.548     39.443  34.829181     4.7700     1.2578     0.1278     3.3417 3.1114e+00     4.0406      1.042      1.511    19.3297 0.0000e+00
      1.074      0.042     6.2523     57.846     39.519  34.864096     4.7700     1.2502     0.1278     3.3417 3.0314e+00     4.1307      1.053      1.527    19.2872 0.0000e+00
      1.084      0.040     6.0566     55.140     39.591  34.898966     4.6800     1.2769     0.1278     2.4534 2.9450e+00     4.2059      1.063      1.542    19.2406 0.0000e+00
      1.094      0.038     5.8352     52.502     39.666  34.939127     4.6800     1.2654     0.1278     2.4534 2.9024e+00     4.1758      1.073      1.556    19.1927 0.0000e+00
      1.103      0.035     5.5977     50.004     39.739  34.979445     4.6800     1.3799     0.1278     2.4534 2.8033e+00     3.9203      1.082      1.569    19.1472 0.0000e+00
      1.112      0.034     5.3523     47.714     39.792  35.006904     4.6800     1.3799     0.1278     2.4534 2.7400e+00     3.9504      1.090      1.581    19.1063 0.0000e+00
      1.120      0.033     5.1057     45.708     39.822  35.016943     4.6800     1.4066     0.1278     2.0727 2.7169e+00     3.8301      1.098      1.593    19.0699 0.0000e+00
      1.128      0.032     4.8648     44.049     39.849  35.028083     4.6800     1.4142     0.1278     2.0727 2.7317e+00     3.8151      1.106      1.604    19.0369 0.0000e+00
      1.136      0.033     4.6362     42.786     39.885  35.047255     4.6800     1.2807     0.1278     2.0727 2.7228e+00     3.8602      1.113      1.615    19.0075 0.0000e+00
      1.144      0.033     4.4262     41.941     39.923  35.067688     4.6800     1.2693     0.1278     2.0727 2.6303e+00     3.8903      1.121      1.627    18.9826 0.0000e+00
      1.152      0.034     4.2419     41.493     39.961  35.086909     4.6800     1.2654     0.1278     1.9035 2.5805e+00     3.8602      1.130      1.639    18.9625 0.0000e+00
      1.162      0.036     4.0895     41.370     39.991  35.098160     4.6800     1.2883     0.1278     1.9035 2.4372e+00     3.9203      1.139      1.652    18.9460 0.0000e+00
      1.171      0.037     3.9736     41.464     40.014  35.104439     4.6800     1.2807     0.1278     1.9035 2.4552e+00     3.6047      1.148      1.666    18.9308 0.0000e+00
      1.181      0.039     3.8965     41.668     40.045  35.119305     4.6800     1.2921     0.1278     1.9035 2.4366e+00     3.6949      1.158      1.679    18.9144 0.0000e+00
      1.190      0.040     3.8564     41.895     40.086  35.142760     4.6800     1.2845     0.1278     1.9035 2.4182e+00     3.6648      1.167      1.693    18.8963 0.0000e+00
      1.200      0.042     3.8465     42.089     40.127  35.165214     4.5900     1.2807     0.0852     1.6497 2.3812e+00     3.6197      1.177      1.708    18.8780 0.0000e+00
      1.211      0.044     3.8566     42.213     40.162  35.180772     4.5900     1.1815     0.0852     1.6497 2.3361e+00     3.4995      1.188      1.723    18.8610 0.0000e+00
      1.223      0.046     3.8768     42.240     40.187  35.187640     4.5900     1.1815     0.0852     1.6497 2.2241e+00     3.4243      1.200      1.740    18.8454 0.0000e+00
      1.236      0.048     3.8991     42.154     40.202  35.185669     4.5900     1.1777     0.0852     1.6497 2.1472e+00     3.4093      1.212      1.757    18.8300 0.0000e+00
      1.248      0.049     3.9185     41.960     40.211  35.180274     4.5900     1.1434     0.0852     1.6074 2.1328e+00     3.3943      1.224      1.775    18.8132 0.0000e+00
      1.261      0.049     3.9316     41.683     40.222  35.175958     4.5900     0.8000     0.0852     1.6074 2.0969e+00     3.2139      1.237      1.793    18.7945 0.0000e+00
      1.274      0.049     3.9356     41.359     40.228  35.167607     4.5900     0.7619     0.0852     1.6074 1.9856e+00     3.1688      1.249      1.812    18.7752 0.0000e+00
      1.286      0.048     3.9290     41.031     40.227  35.152994     4.5900     0.7886     0.0852     1.6074 1.9629e+00     3.1838      1.262      1.830    18.7570 0.0000e+00
      1.299      0.048     3.9123     40.739     40.224  35.136145     4.6800     0.7581     0.0852     1.3113 1.9438e+00     3.2590      1.274      1.847    18.7399 0.0000e+00
      1.311      0.047     3.8878     40.520     40.225  35.120488     4.6800     0.7085     0.0852     1.3113 1.9282e+00     3.2289      1.285      1.864    18.7229 0.0000e+00
      1.322      0.045     3.8589     40.401     40.237  35.109768     4.6800     0.6780     0.0852     1.3113 1.8954e+00     3.2590      1.297      1.881    18.7055 0.0000e+00
      1.334      0.044     3.8296     40.387     40.255  35.101128     4.6800     0.6818     0.0852     1.3113 1.8684e+00     3.1237      1.308      1.897    18.6886 0.0000e+00
      1.345      0.042     3.8037     40.460     40.273  35.092260     4.6800     0.7123     0.0852     1.0575 1.8587e+00     3.2139      1.319      1.913    18.6716 0.0000e+00
      1.356      0.041     3.7848     40.581     40.295  35.088721     4.6800     0.6208     0.0852     1.0575 1.8350e+00     2.8231      1.330      1.929    18.6511 0.0000e+00
      1.366      0.039     3.7757     40.708     40.313  35.085604     4.6800     0.6475     0.0852     1.0575 1.8587e+00     2.7179      1.340      1.943    18.6248 0.0000e+00
      1.376      0.037     3.7768     40.808     40.308  35.066236     4.6800     0.6055     0.0852     1.0575 1.8402e+00     2.7179      1.349      1.957    18.5945 0.0000e+00
      1.385      0.035     3.7860     40.855     40.275  35.021489     4.6800     0.6055     0.0852     1.0575 1.7410e+00     2.8081      1.358      1.970    18.5637 0.0000e+00
      1.394      0.033     3.7995     40.843     40.229  34.963196     4.6800     0.6208     0.0852     0.8883 1.7851e+00     2.5376      1.367      1.982    18.5356 0.0000e+00
      1.402      0.031     3.8132     40.778     40.186  34.903539     4.6800     0.6208     0.0852     0.8883 1.7723e+00     2.5977      1.375      1.993    18.5122 0.0000e+00
      1.409      0.029     3.8241     40.670     40.145  34.842453     4.6800     0.6208     0.0852     0.8883 1.7858e+00     2.5826      1.382      2.004    18.4928 0.0000e+00
      1.416      0.028     3.8300     40.531     40.116  34.789392     4.6800     0.6360     0.0852     0.8883 1.7715e+00     2.5826      1.389      2.014    18.4734 0.0000e+00
      1.423      0.027     3.8307     40.366     40.110  34.753971     4.5900     0.6208     0.0426     0.7614 1.7402e+00     2.2520      1.395      2.023    18.4503 0.0000e+00
      1.429      0.028     3.8267     40.177     40.112  34.726744     4.5900     0.5979     0.0426     0.7614 1.7999e+00     2.2670      1.401      2.032    18.4226 0.0000e+00
      1.435      0.029     3.8190     39.956     40.103  34.688565     4.5900     0.6284     0.0426     0.7614 1.8089e+00     2.2820      1.408      2.042    18.3909 0.0000e+00
      1.442      0.032     3.8086     39.697     40.074  34.629253     4.5900     0.6093     0.0426     0.7614 1.8266e+00     2.3271      1.414      2.051    18.3560 0.0000e+00
      1.450      0.036     3.7960     39.394     40.034  34.552795     4.5900     0.6169     0.0426     0.7614 1.8354e+00     2.2670      1.422      2.063    18.3191 0.0000e+00
      1.460      0.041     3.7810     39.039     39.994  34.468508     4.5900     0.6208     0.0426     0.7614 1.8446e+00     2.3271      1.431      2.076    18.2821 0.0000e+00
      1.471      0.046     3.7631     38.625     39.955  34.377678     4.5900     0.6360     0.0426     0.7614 1.7478e+00     2.3722      1.442      2.091    18.2442 0.0000e+00
      1.483      0.051     3.7419     38.140     39.906  34.271926     4.5900     0.6322     0.0426     0.7614 1.6999e+00     2.3722      1.454      2.110    18.2016 0.0000e+00
      1.497      0.055     3.7171     37.573     39.850  34.156714     4.5900     0.4796     0.0426     0.8037 1.6695e+00     1.7560      1.468      2.130    18.1499 0.0000e+00
      1.513      0.058     3.6883     36.916     39.805  34.052806     4.5900     0.5101     0.0426     0.8037 1.6630e+00     1.8161      1.483      2.151    18.0874 0.0000e+00
      1.528      0.060     3.6545     36.175     39.769  33.958237     4.5900     0.4911     0.0426     0.8037 1.6290e+00     1.8462      1.499      2.173    18.0153 0.0000e+00
      1.544      0.062     3.6144     35.352     39.725  33.859667     4.5900     0.4796     0.0426     0.8037 1.6286e+00     1.6658      1.514      2.196    17.9356 0.0000e+00
      1.560      0.062     3.5667     34.458     39.681  33.762496     4.5900     0.4186     0.0426     0.8037 1.6051e+00     1.3652      1.530      2.219    17.8519 0.0000e+00
      1.576      0.062     3.5103     33.507     39.648  33.674475     4.4100     0.4453     0.0426     0.4230 1.6037e+00     1.3953      1.546      2.242    17.7691 0.0000e+00
      1.592      0.062     3.4453     32.517     39.632  33.603814     4.4100     0.4453     0.0426     0.4230 1.5584e+00     1.2299      1.562      2.265    17.6897 0.0000e+00
      1.608      0.061     3.3722     31.508     39.635  33.553453     4.4100     0.4491     0.0426     0.4230 1.5479e+00     1.3502      1.577      2.288    17.6131 0.0000e+00
      1.624      0.059     3.2920     30.502     39.647  33.517880     4.4100     0.3728     0.0426     0.4230 1.4937e+00     1.1097      1.593      2.310    17.5376 0.0000e+00
      1.639      0.057     3.2060     29.526     39.658  33.491569     4.2300     0.3728     0.0426     0.3384 1.4747e+00     1.0345      1.608      2.332    17.4630 0.0000e+00
      1.654      0.054     3.1160     28.614     39.666  33.471463     4.2300     0.3842     0.0426     0.3384 1.4734e+00     1.0496      1.622      2.353    17.3905 0.0000e+00
      1.667      0.051     3.0235     27.807     39.670  33.456159     4.2300     0.3766     0.0426     0.3384 1.4740e+00     1.0345      1.636      2.372    17.3238 0.0000e+00
      1.680      0.048     2.9305     27.141     39.666  33.437617     4.2300     0.4109     0.0426     0.3384 1.4352e+00     1.1247      1.648      2.390    17.2669 0.0000e+00
      1.691      0.045     2.8396     26.641     39.650  33.410890     4.0500     0.3804     0.0426     0.2115 1.4336e+00     1.0947      1.659      2.406    17.2215 0.0000e+00
      1.702      0.043     2.7540     26.323     39.624  33.372812     4.0500     0.3842     0.0426     0.2115 1.4129e+00     1.0496      1.670      2.421    17.1875 0.0000e+00
      1.712      0.043     2.6778     26.191     39.576  33.313230     4.0500     0.3881     0.0426     0.2115 1.4619e+00     1.1097      1.680      2.436    17.1630 0.0000e+00
      1.722      0.043     2.6147     26.223     39.513  33.234078     4.0500     0.3919     0.0426     0.2115 1.4766e+00     1.0195      1.690      2.450    17.1445 0.0000e+00
      1.733      0.046     2.5675     26.373     39.456  33.153852     4.0500     0.3804     0.0426     0.1692 1.4798e+00     1.0646      1.700      2.465    17.1273 0.0000e+00
      1.744      0.049     2.5380     26.583     39.409  33.076903     4.0500     0.3652     0.0426     0.1692 1.4718e+00     1.0195      1.711      2.481    17.1079 0.0000e+00
      1.757      0.053     2.5266     26.794     39.362  32.998550     4.0500     0.3766     0.0426     0.1692 1.4367e+00     1.0796      1.723      2.499    17.0832 0.0000e+00
      1.771      0.057     2.5314     26.957     39.321  32.925623     4.0500     0.3804     0.0426     0.1692 1.4246e+00     1.0496      1.737      2.520    17.0505 0.0000e+00
      1.787      0.062     2.5482     27.035     39.288  32.858476     4.0500     0.3652     0.0426     0.1692 1.4132e+00     0.9744      1.752      2.542    17.0090 0.0000e+00
      1.803      0.066     2.5710     27.009     39.256  32.791084     4.0500     0.4071     0.0000     0.2115 1.3711e+00     1.0947      1.768      2.565    16.9619 0.0000e+00
      1.821      0.070     2.5941     26.877     39.235  32.731216     4.0500     0.3461     0.0000     0.2115 1.3411e+00     1.1398      1.785      2.590    16.9126 0.0000e+00
      1.839      0.074     2.6125     26.651     39.231  32.682709     4.0500     0.3766     0.0000     0.2115 1.2964e+00     1.1999      1.804      2.616    16.8629 0.0000e+00
      1.859      0.077     2.6228     26.348     39.238  32.642529     4.0500     0.3652     0.0000     0.2115 1.2919e+00     1.1398      1.823      2.643    16.8129 0.0000e+00
      1.879      0.080     2.6230     25.981     39.257  32.611838     3.9600     0.3613     0.0426     0.2115 1.2724e+00     1.0496      1.843      2.672    16.7615 0.0000e+00
      1.900      0.081     2.6131     25.550     39.273  32.582452     3.9600     0.3842     0.0426     0.2115 1.2475e+00     1.0345      1.863      2.702    16.7073 0.0000e+00
      1.921      0.082     2.5942     25.046     39.282  32.550493     3.9600     0.3308     0.0426     0.2115 1.1800e+00     1.2450      1.884      2.733    16.6502 0.0000e+00
      1.943      0.083     2.5678     24.450     39.283  32.515358     3.9600     0.3308     0.0426     0.2115 1.1743e+00     1.3802      1.905      2.763    16.5914 0.0000e+00
      1.964      0.083     2.5351     23.752     39.277  32.475598     3.9600     0.3079     0.0426     0.2961 1.1571e+00     1.3201      1.926      2.793    16.5327 0.0000e+00
      1.985      0.083     2.4959     22.964     39.270  32.432490     3.9600     0.3346     0.0426     0.2961 1.1439e+00     1.2600      1.947      2.823    16.4776 0.0000e+00
      2.006      0.083     2.4491     22.118     39.257  32.382459     3.9600     0.3423     0.0426     0.2961 1.0876e+00     1.2750      1.967      2.853    16.4279 0.0000e+00
      2.027      0.083     2.3931     21.246     39.246  32.331963     3.9600     0.3079     0.0426     0.2961 1.0914e+00     1.4253      1.988      2.883    16.3822 0.0000e+00
      2.048      0.083     2.3269     20.376     39.251  32.293280     3.9600     0.3232     0.0000     0.1692 1.0455e+00     1.3502      2.009      2.913    16.3370 0.0000e+00
      2.069      0.082     2.2519     19.539     39.271  32.267972     3.9600     0.3079     0.0000     0.1692 1.0407e+00     1.2450      2.030      2.944    16.2899 0.0000e+00
      2.091      0.081     2.1712     18.760     39.298  32.251271     3.9600     0.3003     0.0000     0.1692 1.0248e+00     1.3652      2.050      2.974    16.2398 0.0000e+00
      2.111      0.079     2.0879     18.052     39.322  32.238719     3.9600     0.3041     0.0000     0.1692 9.8997e-01     1.2299      2.071      3.003    16.1870 0.0000e+00
      2.132      0.077     2.0047     17.415     39.333  32.224988     3.9600     0.3499     0.0000     0.1692 9.5947e-01     1.3802      2.091      3.032    16.1328 0.0000e+00
      2.151      0.074     1.9245     16.854     39.332  32.208397     3.8700     0.3232     0.0852     0.1692 9.2507e-01     1.2149      2.109      3.060    16.0795 0.0000e+00
      2.169      0.072     1.8498     16.375     39.332  32.198382     3.8700     0.3156     0.0852     0.1692 9.3640e-01     1.5155      2.127      3.086    16.0305 0.0000e+00
      2.187      0.070     1.7815     15.986     39.342  32.198213     3.8700     0.3232     0.0852     0.1692 9.1806e-01     1.5305      2.144      3.111    15.9898 0.0000e+00
      2.204      0.069     1.7199     15.697     39.350  32.195963     3.8700     0.2965     0.0852     0.1692 9.2648e-01     1.5155      2.161      3.135    15.9600 0.0000e+00
      2.221      0.068     1.6652     15.519     39.357  32.191034     3.8700     0.3041     0.0426     0.1692 9.1607e-01     1.4554      2.178      3.160    15.9406 0.0000e+00
      2.239      0.068     1.6184     15.453     39.368  32.190030     3.8700     0.3079     0.0426     0.1692 8.9288e-01     1.8161      2.195      3.184    15.9279 0.0000e+00
      2.256      0.068     1.5803     15.481     39.380  32.188723     3.8700     0.3003     0.0426     0.1692 8.4880e-01     1.8462      2.212      3.209    15.9172 0.0000e+00
      2.274      0.068     1.5522     15.573     39.387  32.182804     3.8700     0.3041     0.0426     0.1692 8.8323e-01     1.8462      2.229      3.234    15.9057 0.0000e+00
      2.291      0.068     1.5351     15.697     39.388  32.170695     3.8700     0.3079     0.0852     0.1692 7.9489e-01     1.7860      2.247      3.258    15.8929 0.0000e+00
      2.308      0.068     1.5290     15.826     39.392  32.157085     3.8700     0.3079     0.0852     0.1692 8.5844e-01     2.0716      2.264      3.283    15.8794 0.0000e+00
      2.326      0.068     1.5323     15.932     39.406  32.146268     3.8700     0.3079     0.0852     0.1692 8.6519e-01     2.1017      2.281      3.308    15.8655 0.0000e+00
      2.343      0.068     1.5419     15.989     39.428  32.135357     3.8700     0.3118     0.0852     0.1692 7.9385e-01     2.0866      2.298      3.333    15.8509 0.0000e+00
      2.360      0.068     1.5547     15.972     39.465  32.129364     3.8700     0.3461     0.0852     0.1692 7.9610e-01     2.0866      2.315      3.357    15.8346 0.0000e+00
      2.378      0.068     1.5681     15.855     39.528  32.134609     3.8700     0.2660     0.0852     0.2115 7.5302e-01     2.2971      2.332      3.382    15.8136 0.0000e+00
      2.395      0.068     1.5795     15.622     39.617  32.152490     3.8700     0.2431     0.0852     0.2115 7.7224e-01     2.2520      2.349      3.407    15.7853 0.0000e+00
      2.413      0.068     1.5864     15.257     39.732  32.187771     3.8700     0.2431     0.0852     0.2115 7.6772e-01     2.2971      2.367      3.432    15.7486 0.0000e+00
      2.430      0.067     1.5862     14.740     39.860  32.235998     3.8700     0.2622     0.0852     0.2115 7.2508e-01     2.3422      2.384      3.457    15.7025 0.0000e+00
      2.448      0.066     1.5765     14.048     39.972  32.274384     3.7800     0.2660     0.0426     0.2538 7.2476e-01     2.5826      2.400      3.482    15.6450 0.0000e+00
      2.464      0.064     1.5554     13.179     40.040  32.283460     3.7800     0.2584     0.0426     0.2538 7.1865e-01     2.4925      2.417      3.506    15.5766 0.0000e+00
      2.481      0.061     1.5213     12.158     40.064  32.269605     3.7800     0.2431     0.0426     0.2538 6.7784e-01     2.4474      2.433      3.529    15.5042 0.0000e+00
      2.496      0.059     1.4719     11.026     40.064  32.250904     3.7800     0.2431     0.0426     0.2538 6.7726e-01     2.5225      2.448      3.551    15.4341 0.0000e+00
      2.511      0.056     1.4047      9.852     40.058  32.238214     3.7800     0.3194     0.0852     0.2538 6.7125e-01     2.5225      2.462      3.571    15.3683 0.0000e+00
      2.525      0.053     1.3195      8.723     40.055  32.232109     3.7800     0.2927     0.0852     0.2538 6.8421e-01     2.4774      2.476      3.591    15.3113 0.0000e+00
      2.537      0.050     1.2183      7.732     40.062  32.228985     3.7800     0.3346     0.0852     0.2538 6.5198e-01     2.5225      2.489      3.609    15.2696 0.0000e+00
      2.550      0.048     1.1055      6.964     40.088  32.229987     3.7800     0.3079     0.0852     0.2538 6.5882e-01     2.5075      2.501      3.627    15.2456 0.0000e+00
      2.562      0.046     0.9881      6.464     40.127  32.227463     3.7800     0.3346     0.0852     0.2115 6.6097e-01     2.5526      2.512      3.644    15.2361 0.0000e+00
      2.573      0.045     0.8749      6.221     40.169  32.214797     3.7800     0.3308     0.0852     0.2115 6.4873e-01     2.4925      2.523      3.660    15.2319 0.0000e+00
      2.584      0.045     0.7758      6.169     40.226  32.202472     3.7800     0.3232     0.0852     0.2115 6.5397e-01     2.4474      2.534      3.675    15.2213 0.0000e+00
      2.594      0.045     0.6990      6.215     40.296  32.193139     3.7800     0.3041     0.0852     0.2115 6.6068e-01     2.5826      2.544      3.690    15.1961 0.0000e+00
      2.606      0.046     0.6495      6.259     40.371  32.184305     3.7800     0.4300     0.0852     0.2115 6.6994e-01     2.7931      2.555      3.706    15.1540 0.0000e+00
      2.618      0.047     0.6258      6.213     40.458  32.181534     3.7800     0.4376     0.0426     0.2115 6.4873e-01     2.7630      2.567      3.723    15.0960 0.0000e+00
      2.630      0.048     0.6216      6.020     40.560  32.188045     3.7800     0.4262     0.0426     0.2115 6.3617e-01     2.7931      2.580      3.741    15.0244 0.0000e+00
      2.643      0.048     0.6273      5.662     40.667  32.201611     3.7800     0.4376     0.0426     0.2115 6.0371e-01     2.8231      2.592      3.759    14.9440 0.0000e+00
      2.655      0.049     0.6328      5.154     40.764  32.211984     3.7800     0.5216     0.0426     0.2115 6.3108e-01     3.0786      2.604      3.776    14.8587 0.0000e+00
      2.667      0.049     0.6293      4.539     40.851  32.219949     3.7800     0.4911     0.1278     0.2115 6.2589e-01     3.1838      2.616      3.794    14.7691 0.0000e+00
      2.680      0.050     0.6109      3.871     40.941  32.235547     3.7800     0.5292     0.1278     0.2115 6.5227e-01     3.2289      2.628      3.811    14.6778 0.0000e+00
      2.692      0.051     0.5755      3.198     41.031  32.255016     3.7800     0.5063     0.1278     0.2115 6.6111e-01     3.1838      2.641      3.830    14.5899 0.0000e+00
      2.705      0.051     0.5247      2.558     41.115  32.271665     3.7800     0.3575     0.1278     0.2115 6.2875e-01     3.3642      2.653      3.848    14.5083 0.0000e+00
      2.719      0.052     0.4627      1.981     41.193  32.283992     3.8700     0.3881     0.0852     0.2961 6.1590e-01     3.5446      2.666      3.867    14.4336 0.0000e+00
      2.732      0.052     0.3950      1.486     41.265  32.293300     3.8700     0.3804     0.0852     0.2961 6.3520e-01     3.4394      2.679      3.886    14.3659 0.0000e+00
      2.746      0.052     0.3267      1.080     41.328  32.298111     3.8700     0.3652     0.0852     0.2961 5.9499e-01     3.3041      2.693      3.905    14.3035 0.0000e+00
      2.759      0.052     0.2616      0.761     41.380  32.299706     3.8700     0.3652     0.0852     0.2961 5.8971e-01     3.5596      2.706      3.925    14.2430 0.0000e+00
      2.773      0.051     0.2028      0.526     41.428  32.302468     3.8700     0.3575     0.1278     0.4230 5.8524e-01     3.7550      2.719      3.944    14.1833 0.0000e+00
      2.786      0.051     0.1523      0.363     41.469  32.303174     3.8700     0.3804     0.1278     0.4230 6.1630e-01     3.5897      2.732      3.962    14.1261 0.0000e+00
      2.798      0.050     0.1107      0.256     41.505  32.302010     3.8700     0.3652     0.1278     0.4230 6.1939e-01     3.6949      2.745      3.981    14.0730 0.0000e+00
      2.811      0.049     0.0781      0.199     41.549  32.306586     3.8700     0.3156     0.1278     0.4230 6.0266e-01     3.8903      2.757      3.998    14.0252 0.0000e+00
      2.824      0.049     0.0541      0.188     41.602  32.318122     3.8700     0.3156     0.1278     0.4230 5.8018e-01     4.0105      2.769      4.016    13.9833 0.0000e+00
      2.836      0.048     0.0373      0.220     41.656  32.331772     3.8700     0.2965     0.0852     0.4230 5.8830e-01     3.9504      2.781      4.034    13.9460 0.0000e+00
      2.848      0.048     0.0263      0.291     41.706  32.343254     3.8700     0.3194     0.0852     0.4230 6.2033e-01     3.7851      2.793      4.051    13.9103 0.0000e+00
      2.860      0.048     0.0205      0.391     41.759  32.355628     3.8700     0.3766     0.0852     0.4230 5.4926e-01     4.1458      2.805      4.068    13.8748 0.0000e+00
      2.872      0.048     0.0195      0.506     41.829  32.380116     3.8700     0.3919     0.0852     0.4230 5.8702e-01     4.1458      2.817      4.085    13.8396 0.0000e+00
      2.884      0.049     0.0228      0.625     41.928  32.423245     3.9600     0.3766     0.1278     0.3384 5.9073e-01     4.0406      2.829      4.103    13.8056 0.0000e+00
      2.897      0.050     0.0302      0.744     42.053  32.476715     3.9600     0.3690     0.1278     0.3384 5.6770e-01     4.2209      2.841      4.120    13.7721 0.0000e+00
      2.910      0.052     0.0406      0.858     42.189  32.527059     3.9600     0.3346     0.1278     0.3384 5.6096e-01     4.3412      2.853      4.138    13.7383 0.0000e+00
      2.923      0.053     0.0525      0.964     42.327  32.571858     3.9600     0.3041     0.1278     0.3384 5.6255e-01     4.3712      2.866      4.157    13.7031 0.0000e+00
      2.937      0.055     0.0650      1.063     42.464  32.615134     3.9600     0.3041     0.1278     0.2961 5.3501e-01     4.4013      2.880      4.177    13.6633 0.0000e+00
      2.952      0.056     0.0775      1.152     42.598  32.660504     3.9600     0.3118     0.1278     0.2961 5.3780e-01     4.4464      2.894      4.198    13.6125 0.0000e+00
      2.966      0.057     0.0894      1.231     42.731  32.708182     3.9600     0.3881     0.1278     0.2961 5.0639e-01     4.6568      2.909      4.219    13.5475 0.0000e+00
      2.981      0.057     0.1007      1.299     42.863  32.757020     3.9600     0.3690     0.1278     0.2961 5.0496e-01     4.6418      2.923      4.240    13.4746 0.0000e+00
      2.996      0.057     0.1111      1.355     42.994  32.808158     3.9600     0.3652     0.1278     0.3807 5.2487e-01     4.6718      2.938      4.261    13.4020 0.0000e+00
      3.010      0.057     0.1206      1.398     43.135  32.871269     3.9600     0.3919     0.1278     0.3807 4.9896e-01     4.6568      2.952      4.282    13.3337 0.0000e+00
      3.025      0.057     0.1290      1.427     43.311  32.965162     3.9600     0.3232     0.1278     0.3807 4.8654e-01     4.8221      2.966      4.302    13.2701 0.0000e+00
      3.039      0.056     0.1363      1.450     43.558  33.112894     3.9600     0.3194     0.1278     0.3807 5.0375e-01     4.7770      2.980      4.323    13.2096 0.0000e+00
      3.053      0.056     0.1424      1.471     43.903  33.332077     3.9600     0.3079     0.1278     0.3807 4.8961e-01     4.8221      2.994      4.343    13.1525 0.0000e+00
      3.068      0.056     0.1470      1.494     44.336  33.611847     3.9600     0.3079     0.1278     0.3384 4.7217e-01     4.8823      3.008      4.363    13.1016 0.0000e+00
      3.082      0.056     0.1503      1.519     44.809  33.913928     3.9600     0.3156     0.1278     0.3384 4.6605e-01     5.7991      3.022      4.383    13.0555 0.0000e+00
      3.096      0.056     0.1528      1.547     45.234  34.176283     3.9600     0.3079     0.1278     0.3384 4.9475e-01     5.7239      3.037      4.404    13.0100 0.0000e+00
      3.111      0.056     0.1552      1.578     45.526  34.342124     3.9600     0.3346     0.1278     0.3384 4.6930e-01     5.8292      3.051      4.425    12.9617 0.0000e+00
      3.126      0.056     0.1578      1.612     45.683  34.416063     4.0500     0.3003     0.1278     0.2115 4.6971e-01     5.7991      3.065      4.445    12.9065 0.0000e+00
      3.140      0.055     0.1607      1.642     45.769  34.447523     4.0500     0.2431     0.1278     0.2115 4.7732e-01     6.7310      3.079      4.466    12.8434 0.0000e+00
      3.154      0.054     0.1639      1.665     45.823  34.458756     4.0500     0.2469     0.1278     0.2115 4.4954e-01     6.6708      3.093      4.486    12.7773 0.0000e+00
      3.168      0.053     0.1674      1.681     45.827  34.432952     4.0500     0.2240     0.1278     0.2115 4.4934e-01     6.7610      3.107      4.505    12.7162 0.0000e+00
      3.181      0.053     0.1711      1.692     45.779  34.367191     4.1400     0.2698     0.1704     0.2115 4.7247e-01     6.7610      3.120      4.524    12.6668 0.0000e+00
      3.194      0.052     0.1745      1.698     45.705  34.279584     4.1400     0.2355     0.1704     0.2115 4.4198e-01     7.0616      3.132      4.543    12.6295 0.0000e+00
      3.207      0.051     0.1770      1.704     45.643  34.192319     4.1400     0.2889     0.1704     0.2115 4.3136e-01     7.2420      3.145      4.561    12.5976 0.0000e+00
      3.220      0.051     0.1788      1.715     45.624  34.129654     4.1400     0.2355     0.1704     0.2115 4.6332e-01     7.2119      3.158      4.580    12.5658 0.0000e+00
      3.233      0.051     0.1801      1.732     45.641  34.092701     4.1400     0.2622     0.1704     0.1692 4.2263e-01     7.2270      3.171      4.598    12.5334 0.0000e+00
      3.246      0.052     0.1810      1.760     45.661  34.059720     4.1400     0.1859     0.1704     0.1692 4.1770e-01     6.9564      3.183      4.617    12.4976 0.0000e+00
      3.259      0.054     0.1818      1.802     45.680  34.021916     4.1400     0.1897     0.1704     0.1692 4.3342e-01     7.0015      3.196      4.635    12.4532 0.0000e+00
      3.272      0.055     0.1831      1.860     45.720  33.989011     4.1400     0.1935     0.1704     0.1692 4.2734e-01     7.0015      3.209      4.654    12.4007 0.0000e+00
      3.287      0.057     0.1853      1.946     45.790  33.972031     4.1400     0.1782     0.1704     0.1692 4.4662e-01     6.9714      3.223      4.675    12.3464 0.0000e+00
      3.302      0.059     0.1885      2.081     45.889  33.978328     4.0500     0.1973     0.1278     0.1269 4.2651e-01     6.5356      3.238      4.696    12.2937 0.0000e+00
      3.318      0.060     0.1932      2.295     45.994  33.997696     4.0500     0.2355     0.1278     0.1269 4.0352e-01     6.5957      3.253      4.719    12.2368 0.0000e+00
      3.334      0.061     0.1998      2.629     46.069  34.007571     4.0500     0.1935     0.1278     0.1269 3.9596e-01     6.4754      3.269      4.742    12.1688 0.0000e+00
      3.350      0.061     0.2095      3.122     46.106  34.006625     4.0500     0.1401     0.1278     0.1269 3.8235e-01     6.4754      3.285      4.764    12.0930 0.0000e+00
      3.365      0.060     0.2243      3.797     46.125  34.002525     4.0500     0.1325     0.1278     0.1692 4.0116e-01     7.1518      3.300      4.786    12.0199 0.0000e+00
      3.380      0.059     0.2478      4.651     46.137  33.990219     4.0500     0.1515     0.1278     0.1692 4.2734e-01     7.2119      3.315      4.807    11.9565 0.0000e+00
      3.395      0.058     0.2842      5.647     46.148  33.966426     4.0500     0.1286     0.1278     0.1692 3.7731e-01     7.2119      3.329      4.829    11.9075 0.0000e+00
      3.410      0.057     0.3378      6.730     46.172  33.940644     4.0500     0.1286     0.1278     0.1692 4.1481e-01     7.1217      3.344      4.849    11.8759 0.0000e+00
      3.424      0.056     0.4110      7.862     46.203  33.913916     4.1400     0.1134     0.1704     0.1269 3.8888e-01     8.0536      3.358      4.870    11.8561 0.0000e+00
      3.438      0.055     0.5038      9.048     46.218  33.875152     4.1400     0.1439     0.1704     0.1269 3.6993e-01     7.9634      3.371      4.890    11.8336 0.0000e+00
      3.452      0.054     0.6122     10.341     46.218  33.825895     4.1400     0.1134     0.1704     0.1269 3.9151e-01     7.9183      3.385      4.910    11.7984 0.0000e+00
      3.466      0.053     0.7304     11.819     46.203  33.768853     4.1400     0.1286     0.1704     0.1269 3.7226e-01     7.9634      3.399      4.929    11.7514 0.0000e+00
      3.479      0.053     0.8543     13.561     46.159  33.692773     4.0500     0.1325     0.1704     0.1692 3.7879e-01     7.5426      3.412      4.948    11.6983 0.0000e+00
      3.493      0.053     0.9843     15.645     46.080  33.591229     4.0500     0.1439     0.1704     0.1692 3.8863e-01     7.4374      3.425      4.967    11.6441 0.0000e+00
      3.506      0.053     1.1263     18.130     45.985  33.476749     4.0500     0.1363     0.1704     0.1692 3.7682e-01     7.4073      3.438      4.986    11.5911 0.0000e+00
      3.519      0.053     1.2888     21.042     45.895  33.364352     4.0500     0.1439     0.1704     0.1692 3.6434e-01     7.4825      3.451      5.005    11.5406 0.0000e+00
      3.533      0.054     1.4804     24.392     45.821  33.261691     4.0500     0.1286     0.1704     0.1692 3.3401e-01     5.9795      3.464      5.025    11.4929 0.0000e+00
      3.547      0.054     1.7098     28.197     45.759  33.169114     3.8700     0.1363     0.1278     0.0846 3.4733e-01     6.1298      3.478      5.045    11.4457 0.0000e+00
      3.561      0.055     1.9836     32.476     45.710  33.087675     3.8700     0.1134     0.1278     0.0846 3.1897e-01     6.0997      3.492      5.064    11.3963 0.0000e+00
      3.575      0.055     2.3048     37.229     45.676  33.019420     3.8700     0.1515     0.1278     0.0846 3.5197e-01     5.9945      3.505      5.084    11.3446 0.0000e+00
      3.589      0.055     2.6749     42.399     45.646  32.958028     3.8700     0.1439     0.1278     0.0846 3.4358e-01     5.6037      3.519      5.104    11.2918 0.0000e+00
      3.603      0.055     3.0955     47.853     45.619  32.902969     3.8700     0.1439     0.1278     0.1269 3.3729e-01     5.4985      3.533      5.124    11.2399 0.0000e+00
      3.617      0.056     3.5690     53.397     45.603  32.859364     3.8700     0.1172     0.1278     0.1269 3.3445e-01     5.4985      3.547      5.145    11.1899 0.0000e+00
      3.631      0.056     4.0954     58.799     45.603  32.831424     3.8700     0.1401     0.1278     0.1269 3.3722e-01     5.6187      3.561      5.165    11.1426 0.0000e+00
      3.646      0.056     4.6682     63.825     45.614  32.815660     3.8700     0.1248     0.1278     0.1269 3.1553e-01     5.5887      3.575      5.185    11.0989 0.0000e+00
      3.660      0.055     5.2727     68.278     45.620  32.799945     3.8700     0.1286     0.1278     0.1692 3.3722e-01     5.6338      3.589      5.206    11.0594 0.0000e+00
      3.674      0.055     5.8875     72.021     45.621  32.782070     3.8700     0.1286     0.1278     0.1692 3.2211e-01     5.5586      3.603      5.226    11.0245 0.0000e+00
      3.688      0.054     6.4869     74.993     45.625  32.767168     3.8700     0.1515     0.1278     0.1692 3.2754e-01     5.5586      3.616      5.245    10.9942 0.0000e+00
      3.702      0.054     7.0449     77.221     45.629  32.753246     3.8700     0.1477     0.1278     0.1692 3.4246e-01     5.5586      3.630      5.265    10.9683 0.0000e+00
      3.715      0.054     7.5397     78.799     45.628  32.736589     3.8700     0.1401     0.1278     0.1692 3.0125e-01     5.0927      3.644      5.284    10.9459 0.0000e+00
      3.729      0.054     7.9562     79.857     45.627  32.720678     3.7800     0.1401     0.1278     0.0846 2.8366e-01     4.9875      3.657      5.304    10.9256 0.0000e+00
      3.742      0.055     8.2878     80.525     45.628  32.707210     3.7800     0.1363     0.1278     0.0846 3.1313e-01     5.1378      3.670      5.323    10.9065 0.0000e+00
      3.756      0.056     8.5372     80.923     45.627  32.692591     3.7800     0.1554     0.1278     0.0846 2.7774e-01     5.1227      3.683      5.342    10.8884 0.0000e+00
      3.770      0.057     8.7149     81.153     45.625  32.676885     3.7800     0.1401     0.1278     0.0846 2.8298e-01     5.1077      3.697      5.362    10.8707 0.0000e+00
      3.785      0.059     8.8352     81.294     45.617  32.655903     3.7800     0.1515     0.0852     0.1269 3.0395e-01     5.1077      3.712      5.383    10.8540 0.0000e+00
      3.800      0.061     8.9122     81.408     45.593  32.624050     3.7800     0.1134     0.0852     0.1269 2.9503e-01     5.0776      3.727      5.405    10.8385 0.0000e+00
      3.816      0.063     8.9593     81.544     45.560  32.584711     3.7800     0.1363     0.0852     0.1269 2.5965e-01     5.0776      3.742      5.427    10.8232 0.0000e+00
      3.832      0.066     8.9880     81.735     45.529  32.543240     3.7800     0.1210     0.0852     0.1269 2.7071e-01     5.0175      3.758      5.450    10.8072 0.0000e+00
      3.849      0.068     9.0070     81.989     45.507  32.508379     3.7800     0.1286     0.1278     0.2115 2.6854e-01     5.0626      3.775      5.475    10.7912 0.0000e+00
      3.867      0.070     9.0229     82.310     45.499  32.486673     3.7800     0.1554     0.1278     0.2115 2.8601e-01     4.9574      3.792      5.500    10.7753 0.0000e+00
      3.885      0.072     9.0418     82.709     45.499  32.476293     3.7800     0.1325     0.1278     0.2115 2.2835e-01     5.1077      3.810      5.526    10.7574 0.0000e+00
      3.904      0.073     9.0674     83.199     45.506  32.474471     3.7800     0.1439     0.1278     0.2115 2.4688e-01     5.0776      3.829      5.553    10.7366 0.0000e+00
      3.924      0.074     9.1001     83.776     45.511  32.472800     3.7800     0.1363     0.0852     0.1692 2.2340e-01     5.0175      3.848      5.581    10.7155 0.0000e+00
      3.943      0.073     9.1394     84.390     45.503  32.462913     3.7800     0.1286     0.0852     0.1692 2.3271e-01     5.0326      3.866      5.608    10.6980 0.0000e+00
      3.961      0.072     9.1862     84.962     45.491  32.450096     3.7800     0.1363     0.0852     0.1692 2.5318e-01     5.0476      3.885      5.635    10.6860 0.0000e+00
      3.980      0.071     9.2423     85.410     45.482  32.438850     3.7800     0.1439     0.0852     0.1692 2.4095e-01     5.1077      3.903      5.661    10.6786 0.0000e+00
      3.998      0.069     9.3074     85.680     45.475  32.430139     3.7800     0.1439     0.0852     0.1692 2.0803e-01     5.1077      3.920      5.687    10.6734 0.0000e+00
      4.015      0.067     9.3766     85.741     45.479  32.429559     3.7800     0.1401     0.1278     0.1692 2.2432e-01     5.0626      3.938      5.712    10.6687 0.0000e+00
      4.032      0.064     9.4412     85.590     45.488  32.432995     3.7800     0.1286     0.1278     0.1692 2.2930e-01     5.0776      3.954      5.736    10.6637 0.0000e+00
      4.048      0.062     9.4922     85.249     45.490  32.433442     3.7800     0.1210     0.1278     0.1692 1.7374e-01     5.0326      3.970      5.759    10.6588 0.0000e+00
      4.064      0.059     9.5231     84.767     45.492  32.434979     3.7800     0.1286     0.1278     0.1692 2.3829e-01     5.0326      3.985      5.781    10.6542 0.0000e+00
      4.078      0.057     9.5307     84.206     45.495  32.438018     3.7800     0.1325     0.0852     0.1269 1.6476e-01     4.9123      4.000      5.801    10.6505 0.0000e+00
      4.092      0.055     9.5145     83.616     45.496  32.439407     3.7800     0.1096     0.0852     0.1269 1.9034e-01     5.0476      4.013      5.821    10.6479 0.0000e+00
      4.105      0.055     9.4769     83.030     45.500  32.443479     3.7800     0.1096     0.0852     0.1269 1.8734e-01     5.0776      4.026      5.839    10.6466 0.0000e+00
      4.118      0.055     9.4233     82.465     45.511  32.451317     3.7800     0.1248     0.0852     0.1269 2.0798e-01     5.1378      4.039      5.858    10.6465 0.0000e+00
      4.132      0.057     9.3608     81.919     45.516  32.453132     3.7800     0.1515     0.0852     0.0846 2.3531e-01     5.0476      4.052      5.877    10.6472 0.0000e+00
      4.146      0.060     9.2950     81.382     45.515  32.449408     3.7800     0.1325     0.0852     0.0846 1.7906e-01     5.0476      4.066      5.898    10.6485 0.0000e+00
      4.162      0.062     9.2296     80.854     45.516  32.447072     3.7800     0.1401     0.0852     0.0846 1.9342e-01     5.0175      4.082      5.920    10.6495 0.0000e+00
      4.179      0.065     9.1668     80.347     45.517  32.445500     3.7800     0.1325     0.0852     0.0846 1.9879e-01     4.9724      4.098      5.944    10.6493 0.0000e+00
      4.196      0.067     9.1065     79.874     45.518  32.444274     3.7800     0.1363     0.1278     0.2115 1.4958e-01     5.1077      4.115      5.969    10.6474 0.0000e+00
      4.214      0.069     9.0474     79.454     45.518  32.443067     3.7800     0.1248     0.1278     0.2115 1.6516e-01     5.0927      4.132      5.994    10.6444 0.0000e+00
      4.232      0.070     8.9894     79.094     45.523  32.445517     3.7800     0.1248     0.1278     0.2115 1.4668e-01     4.9875      4.150      6.019    10.6413 0.0000e+00
      4.250      0.071     8.9335     78.792     45.534  32.452278     3.7800     0.1210     0.1278     0.2115 1.7291e-01     5.0626      4.167      6.044    10.6387 0.0000e+00
      4.268      0.072     8.8813     78.547     45.542  32.457231     3.7800     0.1248     0.1278     0.2115 1.8216e-01     5.1227      4.185      6.070    10.6367 0.0000e+00
      4.286      0.073     8.8350     78.353     45.539  32.453777     3.7800     0.1210     0.0852     0.1692 1.7586e-01     5.1378      4.203      6.096    10.6351 0.0000e+00
      4.305      0.075     8.7952     78.201     45.522  32.440993     3.7800     0.1134     0.0852     0.1692 1.4909e-01     5.1077      4.221      6.122    10.6339 0.0000e+00
      4.324      0.077     8.7619     78.081     45.505  32.427352     3.7800     0.1286     0.0852     0.1692 1.7276e-01     5.1378      4.240      6.150    10.6328 0.0000e+00
      4.343      0.079     8.7348     77.980     45.498  32.421099     3.7800     0.1286     0.0852     0.1692 1.1693e-01     5.0776      4.259      6.177    10.6317 0.0000e+00
      4.363      0.082     8.7135     77.892     45.500  32.420566     3.7800     0.1477     0.1278     0.2115 1.4406e-01     5.0476      4.279      6.206    10.6307 0.0000e+00
      4.385      0.084     8.6969     77.818     45.510  32.425610     3.7800     0.1134     0.1278     0.2115 1.4945e-01     5.1528      4.300      6.237    10.6297 0.0000e+00
      4.407      0.086     8.6837     77.768     45.530  32.437577     3.7800     0.1515     0.1278     0.2115 1.4090e-01     5.1378      4.322      6.268    10.6284 0.0000e+00
      4.429      0.089     8.6728     77.748     45.548  32.447776     3.7800     0.1210     0.1278     0.2115 1.3763e-01     5.0776      4.344      6.300    10.6266 0.0000e+00
      4.452      0.090     8.6634     77.759     45.562  32.454967     3.7800     0.1515     0.1278     0.0846 1.4903e-01     5.1077      4.366      6.333    10.6244 0.0000e+00
      4.475      0.092     8.6557     77.799     45.580  32.465026     3.7800     0.1248     0.1278     0.0846 1.3095e-01     5.0927      4.389      6.366    10.6220 0.0000e+00
      4.499      0.093     8.6507     77.867     45.600  32.476677     3.7800     0.1401     0.1278     0.0846 1.2659e-01     5.1378      4.412      6.399    10.6194 0.0000e+00
      4.523      0.094     8.6490     77.952     45.615  32.485104     3.7800     0.1325     0.1278     0.0846 1.3124e-01     5.0776      4.435      6.433    10.6166 0.0000e+00
      4.547      0.095     8.6508     78.048     45.622  32.488595     3.7800     0.1096     0.0852     0.1269 1.2892e-01     5.0476      4.459      6.468    10.6136 0.0000e+00
      4.572      0.096     8.6560     78.152     45.618  32.484119     3.7800     0.1401     0.0852     0.1269 1.1875e-01     5.0175      4.483      6.503    10.6107 0.0000e+00
      4.596      0.096     8.6640     78.254     45.601  32.470484     3.7800     0.1363     0.0852     0.1269 1.1625e-01     5.1077      4.508      6.538    10.6079 0.0000e+00
      4.621      0.096     8.6740     78.354     45.588  32.459894     3.7800     0.1286     0.0852     0.1269 1.1628e-01     5.1077      4.532      6.573    10.6054 0.0000e+00
      4.645      0.096     8.6851     78.447     45.587  32.457448     3.7800     0.1668     0.0852     0.1269 1.3207e-01     5.0776      4.556      6.607    10.6033 0.0000e+00
      4.670      0.095     8.6971     78.529     45.584  32.454571     3.7800     0.1286     0.0852     0.0846 1.2881e-01     5.0476      4.580      6.642    10.6014 0.0000e+00
      4.694      0.095     8.7088     78.603     45.580  32.450496     3.7800     0.1477     0.0852     0.0846 1.1623e-01     5.1829      4.604      6.677    10.5998 0.0000e+00
      4.718      0.095     8.7202     78.672     45.577  32.448098     3.7800     0.1592     0.0852     0.0846 1.2021e-01     5.0927      4.627      6.711    10.5983 0.0000e+00
      4.742      0.095     8.7308     78.726     45.577  32.446736     3.7800     0.1363     0.0852     0.0846 1.1620e-01     5.2279      4.651      6.745    10.5970 0.0000e+00
      4.766      0.095     8.7402     78.754     45.571  32.442087     3.7800     0.1286     0.0852     0.1692 1.3198e-01     5.0476      4.674      6.779    10.5958 0.0000e+00
      4.790      0.095     8.7486     78.755     45.548  32.424990     3.7800     0.1134     0.0852     0.1692 1.1617e-01     5.1227      4.698      6.813    10.5949 0.0000e+00
      4.815      0.095     8.7565     78.730     45.512  32.398807     3.7800     0.1515     0.0852     0.1692 1.2021e-01     5.0476      4.721      6.848    10.5940 0.0000e+00
      4.839      0.096     8.7626     78.683     45.487  32.380320     3.7800     0.1286     0.0852     0.1692 1.1610e-01     5.0476      4.745      6.882    10.5931 0.0000e+00
      4.863      0.097     8.7659     78.625     45.477  32.372518     3.7800     0.1744     0.0852     0.2115 1.1630e-01     5.0776      4.769      6.917    10.5923 0.0000e+00
      4.887      0.098     8.7662     78.564     45.473  32.369362     3.7800     0.1439     0.0852     0.2115 1.1612e-01     5.1077      4.793      6.952    10.5915 0.0000e+00
      4.912      0.100     8.7635     78.511     45.479  32.373970     3.7800     0.1363     0.0852     0.2115 1.1607e-01     5.0476      4.817      6.987    10.5909 0.0000e+00
      4.938      0.101     8.7584     78.476     45.498  32.387570     3.7800     0.1439     0.0852     0.2115 1.1638e-01     5.0476      4.843      7.024    10.5904 0.0000e+00
      4.964      0.102     8.7520     78.459     45.517  32.401908     3.7800     0.1363     0.0852     0.0846 1.1623e-01     5.0476      4.869      7.061    10.5900 0.0000e+00
      4.991      0.103     8.7453     78.458     45.526  32.408926     3.7800     0.1210     0.0852     0.0846 1.1600e-01     5.0175      4.895      7.099    10.5899 0.0000e+00
      5.018      0.103     8.7394     78.468     45.528  32.410494     3.7800     0.1439     0.0852     0.0846 1.1615e-01     5.0175      4.921      7.137    10.5899 0.0000e+00
      5.044      0.103     8.7354     78.487     45.534  32.414954     3.7800     0.1248     0.0852     0.0846 1.1633e-01     4.9724      4.947      7.175    10.5901 0.0000e+00
      5.070      0.102     8.7335     78.502     45.545  32.423492     3.7800     0.1363     0.0852     0.0846 1.1612e-01     5.0175      4.972      7.212    10.5905 0.0000e+00
      5.096      0.101     8.7333     78.502     45.553  32.430466     3.7800     0.1172     0.1278     0.1692 1.1615e-01     5.0476      4.998      7.249    10.5909 0.0000e+00
      5.122      0.100     8.7344     78.488     45.557  32.433775     3.7800     0.1363     0.1278     0.1692 1.1605e-01     5.0175      5.023      7.285    10.5913 0.0000e+00
      5.147      0.100     8.7363     78.470     45.562  32.438262     3.7800     0.1325     0.1278     0.1692 1.1607e-01     5.0776      5.048      7.321    10.5918 0.0000e+00
      5.172      0.099     8.7378     78.458     45.572  32.445122     3.7800     0.1134     0.1278     0.1692 1.1623e-01     5.1528      5.072      7.356    10.5926 0.0000e+00
      5.197      0.098     8.7376     78.452     45.577  32.448265     3.7800     0.1363     0.0852     0.2115 1.1600e-01     5.0776      5.097      7.392    10.5936 0.0000e+00
      5.222      0.098     8.7358     78.453     45.573  32.444567     3.7800     0.1592     0.0852     0.2115 1.1612e-01     5.0326      5.121      7.428    10.5946 0.0000e+00
      5.247      0.096     8.7337     78.461     45.563  32.437004     3.7800     0.1592     0.0852     0.2115 1.1610e-01     4.9875      5.146      7.464    10.5953 0.0000e+00
      5.272      0.095     8.7324     78.471     45.555  32.431479     3.7800     0.1134     0.0852     0.2115 1.1605e-01     5.3181      5.171      7.499    10.5953 0.0000e+00
      5.297      0.092     8.7319     78.478     45.554  32.430480     3.7800     0.1477     0.1278     0.1692 1.1620e-01     5.2730      5.195      7.534    10.5947 0.0000e+00
      5.320      0.089     8.7322     78.473     45.558  32.433740     3.7800     0.1401     0.1278     0.1692 1.1612e-01     5.2881      5.218      7.567    10.5939 0.0000e+00
      5.343      0.086     8.7331     78.456     45.565  32.438169     3.7800     0.1210     0.1278     0.1692 1.1617e-01     5.2730      5.240      7.599    10.5934 0.0000e+00
      5.364      0.082     8.7343     78.432     45.574  32.444947     3.7800     0.1477     0.1278     0.1692 1.1623e-01     5.1077      5.261      7.630    10.5932 0.0000e+00
      5.385      0.077     8.7350     78.409     45.587  32.455881     3.7800     0.1363     0.1278     0.1692 1.1615e-01     5.0626      5.281      7.659    10.5932 0.0000e+00
      5.404      0.074     8.7345     78.393     45.593  32.462006     3.7800     0.1248     0.1278     0.1269 1.1617e-01     5.0927      5.300      7.687    10.5932 0.0000e+00
      5.422      0.071     8.7326     78.385     45.588  32.460994     3.7800     0.1286     0.1278     0.1269 1.1617e-01     5.0927      5.318      7.712    10.5932 0.0000e+00
      5.439      0.069     8.7298     78.385     45.579  32.456536     3.7800     0.1248     0.1278     0.1269 1.1623e-01     5.3332      5.334      7.736    10.5936 0.0000e+00
      5.455      0.069     8.7271     78.389     45.566  32.447443     3.7800     0.1210     0.1278     0.1269 1.1617e-01     5.3632      5.350      7.759    10.5949 0.0000e+00
      5.471      0.071     8.7247     78.391     45.557  32.439213     3.7800     0.1286     0.0852     0.2538 1.1610e-01     5.2730      5.366      7.782    10.5974 0.0000e+00
      5.489      0.075     8.7233     78.382     45.559  32.437572     3.7800     0.1515     0.0852     0.2538 1.1607e-01     5.3482      5.383      7.807    10.6003 0.0000e+00
      5.509      0.079     8.7228     78.357     45.570  32.442080     3.7800     0.1286     0.0852     0.2538 1.1625e-01     5.2730      5.402      7.835    10.6024 0.0000e+00
      5.530      0.083     8.7233     78.311     45.584  32.449981     3.7800     0.1096     0.0852     0.2538 1.1610e-01     5.2730      5.424      7.866    10.6023 0.0000e+00
      5.553      0.086     8.7240     78.244     45.588  32.451498     3.7800     0.1210     0.1278     0.0846 1.1633e-01     5.3031      5.446      7.898    10.6000 0.0000e+00
      5.576      0.089     8.7237     78.152     45.584  32.447037     3.7800     0.1210     0.1278     0.0846 1.1615e-01     5.3332      5.468      7.931    10.5966 0.0000e+00
      5.599      0.091     8.7215     78.044     45.586  32.447289     3.7800     0.1325     0.1278     0.0846 1.1607e-01     5.3031      5.491      7.964    10.5935 0.0000e+00
      5.622      0.091     8.7169     77.934     45.595  32.452322     3.7800     0.1363     0.1278     0.0846 1.1617e-01     5.2129      5.514      7.997    10.5912 0.0000e+00
      5.646      0.091     8.7097     77.836     45.607  32.459518     3.7800     0.1134     0.0852     0.0846 1.1617e-01     5.2580      5.537      8.030    10.5894 0.0000e+00
      5.669      0.091     8.6998     77.756     45.624  32.470794     3.7800     0.1515     0.0852     0.0846 1.1617e-01     5.2881      5.560      8.064    10.5880 0.0000e+00
      5.693      0.091     8.6880     77.692     45.645  32.485198     3.7800     0.1401     0.0852     0.0846 1.1630e-01     5.2881      5.583      8.098    10.5866 0.0000e+00
      5.716      0.089     8.6761     77.637     45.670  32.502609     3.7800     0.1286     0.0852     0.0846 1.1605e-01     5.3332      5.606      8.131    10.5851 0.0000e+00
      5.739      0.088     8.6654     77.590     45.701  32.523711     3.7800     0.1325     0.0852     0.0846 1.1612e-01     5.3332      5.628      8.163    10.5838 0.0000e+00
      5.761      0.085     8.6567     77.541     45.729  32.542248     3.7800     0.1286     0.1278     0.0846 1.1633e-01     5.2580      5.649      8.194    10.5828 0.0000e+00
      5.782      0.083     8.6497     77.479     45.748  32.555243     3.7800     0.2011     0.1278     0.0846 1.1623e-01     5.6939      5.671      8.224    10.5821 0.0000e+00
      5.803      0.079     8.6438     77.401     45.754  32.558240     3.7800     0.1782     0.1278     0.0846 1.1628e-01     5.7841      5.691      8.254    10.5813 0.0000e+00
      5.824      0.076     8.6387     77.312     45.740  32.548077     3.7800     0.1782     0.1278     0.0846 1.1602e-01     5.8592      5.711      8.283    10.5805 0.0000e+00
      5.843      0.071     8.6335     77.213     45.726  32.537886     3.7800     0.1706     0.0852     0.1692 1.1617e-01     5.8442      5.730      8.310    10.5795 0.0000e+00
      5.860      0.067     8.6269     77.108     45.718  32.532871     3.7800     0.1515     0.0852     0.1692 1.1615e-01     5.9795      5.747      8.335    10.5783 0.0000e+00
      5.876      0.063     8.6184     77.002     45.711  32.527735     3.7800     0.1325     0.0852     0.1692 1.1623e-01     6.1298      5.763      8.358    10.5773 0.0000e+00
      5.891      0.060     8.6085     76.898     45.707  32.525067     3.7800     0.1286     0.0852     0.1692 1.1617e-01     5.9494      5.777      8.379    10.5767 0.0000e+00
      5.905      0.058     8.5976     76.800     45.713  32.528118     3.8700     0.1248     0.0852     0.1692 1.1628e-01     5.9945      5.791      8.399    10.5766 0.0000e+00
      5.920      0.056     8.5859     76.706     45.728  32.537701     3.8700     0.2088     0.0852     0.1692 1.1628e-01    10.5035      5.805      8.420    10.5769 0.0000e+00
      5.934      0.053     8.5739     76.613     45.744  32.548450     3.8700     0.2049     0.0852     0.1692 1.1630e-01    10.5035      5.819      8.440    10.5774 0.0000e+00
      5.949      0.050     8.5624     76.523     45.749  32.551349     3.8700     0.2126     0.0852     0.1692 1.1623e-01    10.4885      5.834      8.461    10.5774 0.0000e+00
      5.962      0.045     8.5516     76.443     45.743  32.547171     3.7800     0.1630     0.1278     0.2115 1.1607e-01    10.5186      5.846      8.480    10.5765 0.0000e+00
      5.973      0.040     8.5414     76.377     45.736  32.542725     3.7800     0.3766     0.1278     0.2115 1.1628e-01    18.7851      5.857      8.495    10.5753 0.0000e+00
      5.982      0.034     8.5312     76.334     45.743  32.548705     3.7800     0.3766     0.1278     0.2115 1.1602e-01    18.9054      5.866      8.508    10.5744 0.0000e+00
      5.989      0.028     8.5212     76.324     45.761  32.562747     3.7800     0.3804     0.1278     0.2115 1.1633e-01    18.7551      5.874      8.519    10.5740 0.0000e+00
      5.995      0.023     8.5123     76.352     45.772  32.572751     3.7800     0.3728     0.1278     0.2115 1.1623e-01    18.7551      5.879      8.528    10.5740 0.0000e+00
      6.000      0.018     8.5049     76.417     45.781  32.581386     3.8700     0.5101     0.1704     0.1692 1.1617e-01    26.2250      5.884      8.534    10.5745 0.0000e+00
      6.004      0.015     8.5000     76.509     45.785  32.586995     3.8700     0.4987     0.1704     0.1692 1.1633e-01    26.3303      5.888      8.540    10.5754 0.0000e+00
      6.007      0.011     8.4985     76.614     45.775  32.583152     3.8700     0.4872     0.1704     0.1692 1.1625e-01    26.0898      5.891      8.544    10.5768 0.0000e+00
      6.010      0.009     8.5012     76.717     45.755  32.572792     3.8700     0.5178     0.1704     0.1692 1.1612e-01    26.2852      5.893      8.548    10.5788 0.0000e+00
      6.012      0.006     8.5079     76.809     45.740  32.565036     3.7800     0.5635     0.2556     0.2115 1.1620e-01    33.6048      5.895      8.550    10.5813 0.0000e+00
      6.013      0.004     8.5176     76.879     45.738  32.565735     3.7800     0.5559     0.2556     0.2115 1.1625e-01    33.6199      5.896      8.552    10.5844 0.0000e+00
      6.014      0.002     8.5286     76.925     45.737  32.567155     3.7800     0.5635     0.2556     0.2115 1.1617e-01    33.5598      5.897      8.553    10.5879 0.0000e+00
      6.014      0.000     8.5394     76.961     45.728  32.561754     3.7800     0.5635     0.2556     0.2115 1.1602e-01    33.5898      5.897      8.554    10.5917 0.0000e+00
      6.014     -0.002     8.5489     76.996     45.719  32.556013     3.6000     0.6055     0.2130     0.3807 1.1605e-01    33.8153      5.897      8.554    10.5952 0.0000e+00
      6.013     -0.004     8.5561     77.030     45.717  32.556322     3.6000     0.6284     0.2130     0.3807 1.1623e-01    33.8153      5.897      8.553    10.5979 0.0000e+00
      6.012     -0.006     8.5609     77.069     45.724  32.562764     3.6000     0.6208     0.2130     0.3807 1.1602e-01    33.8904      5.896      8.551    10.5996 0.0000e+00
      6.010     -0.009     8.5647     77.125     45.735  32.573095     3.6000     0.6284     0.2130     0.3807 1.1612e-01    33.9806      5.894      8.549    10.6007 0.0000e+00
      6.008     -0.012     8.5683     77.195     45.738  32.578189     3.6000     0.5368     0.2130     0.4230 1.1623e-01    33.1990      5.891      8.545    10.6019 0.0000e+00
      6.005     -0.016     8.5718     77.275     45.737  32.579405     3.6000     0.5368     0.2130     0.4230 1.1620e-01    33.1690      5.888      8.541    10.6035 0.0000e+00
      6.001     -0.021     8.5758     77.363     45.742  32.584988     3.6000     0.5597     0.2130     0.4230 1.1615e-01    33.2892      5.884      8.535    10.6056 0.0000e+00
      5.995     -0.027     8.5814     77.452     45.744  32.588505     3.6000     0.5864     0.2130     0.4230 1.1620e-01    33.2291      5.878      8.527    10.6082 0.0000e+00
      5.988     -0.034     8.5887     77.530     45.740  32.586934     3.6000     0.2507     0.2130     0.4230 1.1602e-01    14.6068      5.871      8.516    10.6111 0.0000e+00
      5.979     -0.043     8.5970     77.586     45.732  32.583817     3.6900     0.2622     0.2130     0.5076 1.1607e-01    14.5617      5.863      8.503    10.6138 0.0000e+00
      5.968     -0.053     8.6063     77.611     45.715  32.574363     3.6900     0.2622     0.2130     0.5076 1.1602e-01    14.5166      5.852      8.488    10.6161 0.0000e+00
      5.954     -0.066     8.6159     77.602     45.693  32.560010     3.6900     0.2622     0.2130     0.5076 1.1612e-01    14.4565      5.838      8.468    10.6178 0.0000e+00
      5.936     -0.082     8.6242     77.561     45.677  32.548813     3.6900     0.1897     0.2130     0.5076 1.1623e-01    11.6759      5.821      8.443    10.6196 0.0000e+00
      5.915     -0.101     8.6299     77.494     45.663  32.537787     3.7800     0.2164     0.2130     0.1269 1.1620e-01    11.7360      5.800      8.413    10.6221 0.0000e+00
      5.889     -0.122     8.6322     77.412     45.647  32.523991     3.7800     0.2011     0.2130     0.1269 1.1623e-01    11.7059      5.774      8.375    10.6249 0.0000e+00
      5.856     -0.146     8.6307     77.338     45.628  32.507706     3.7800     0.1744     0.2130     0.1269 1.1617e-01    11.6158      5.743      8.329    10.6270 0.0000e+00
      5.816     -0.171     8.6261     77.293     45.605  32.488551     3.7800     0.1210     0.2130     0.1269 1.1625e-01     6.4905      5.704      8.273    10.6272 0.0000e+00
      5.769     -0.195     8.6190     77.288     45.588  32.473298     3.8700     0.1515     0.1278     0.2115 1.1612e-01     6.5205      5.657      8.205    10.6255 0.0000e+00
      5.713     -0.215     8.6104     77.331     45.582  32.465803     3.8700     0.1134     0.1278     0.2115 1.1623e-01     6.5807      5.603      8.126    10.6228 0.0000e+00
      5.652     -0.230     8.6028     77.419     45.583  32.464065     3.8700     0.1363     0.1278     0.2115 1.1617e-01     6.3101      5.543      8.040    10.6199 0.0000e+00
      5.588     -0.241     8.5984     77.548     45.590  32.467622     3.8700     0.1286     0.1278     0.2115 1.1617e-01     5.2279      5.480      7.949    10.6166 0.0000e+00
      5.524     -0.246     8.5986     77.711     45.593  32.469500     3.7800     0.1286     0.0852     0.0846 1.1628e-01     5.3332      5.417      7.857    10.6132 0.0000e+00
      5.460     -0.247     8.6040     77.897     45.584  32.462280     3.7800     0.1477     0.0852     0.0846 1.1617e-01     5.3782      5.354      7.766    10.6100 0.0000e+00
      5.396     -0.243     8.6144     78.091     45.577  32.455918     3.7800     0.1286     0.0852     0.0846 1.1617e-01     5.3031      5.292      7.675    10.6075 0.0000e+00
      5.334     -0.236     8.6290     78.279     45.581  32.456639     3.7800     0.2011     0.0852     0.0846 1.1617e-01    10.5336      5.230      7.586    10.6060 0.0000e+00
      5.272     -0.227     8.6472     78.453     45.583  32.456714     3.7800     0.2164     0.0852     0.0846 1.1623e-01    10.4735      5.170      7.499    10.6052 0.0000e+00
      5.214     -0.217     8.6681     78.606     45.584  32.456163     3.8700     0.1859     0.0852     0.1692 1.1623e-01    10.5937      5.113      7.416    10.6043 0.0000e+00
      5.160     -0.208     8.6900     78.728     45.583  32.454839     3.8700     0.1973     0.0852     0.1692 1.1612e-01    10.4735      5.061      7.340    10.6029 0.0000e+00
      5.111     -0.201     8.7113     78.819     45.574  32.448427     3.8700     0.1439     0.0852     0.1692 1.1623e-01     9.2260      5.012      7.269    10.6012 0.0000e+00
      5.064     -0.198     8.7310     78.883     45.560  32.439179     3.8700     0.1325     0.0852     0.1692 1.1612e-01     9.3011      4.966      7.203    10.5995 0.0000e+00
      5.018     -0.200     8.7482     78.924     45.544  32.428589     3.7800     0.1134     0.1278     0.1692 1.1630e-01     9.3612      4.921      7.137    10.5982 0.0000e+00
      4.970     -0.206     8.7620     78.945     45.528  32.417794     3.7800     0.1363     0.1278     0.1692 1.1630e-01     9.3011      4.874      7.068    10.5973 0.0000e+00
      4.916     -0.214     8.7721     78.951     45.520  32.411837     3.7800     0.1592     0.1278     0.1692 1.1610e-01     7.4674      4.821      6.992    10.5971 0.0000e+00
      4.858     -0.224     8.7792     78.950     45.522  32.413090     3.7800     0.1210     0.1278     0.1692 1.1620e-01     7.4374      4.764      6.910    10.5976 0.0000e+00
      4.798     -0.237     8.7836     78.946     45.529  32.417925     3.7800     0.1210     0.1278     0.1269 1.1883e-01     7.4223      4.705      6.824    10.5985 0.0000e+00
      4.738     -0.251     8.7858     78.937     45.530  32.419713     3.7800     0.1286     0.1278     0.1269 1.1625e-01     7.3923      4.647      6.739    10.5993 0.0000e+00
      4.676     -0.265     8.7865     78.915     45.522  32.414968     3.7800     0.1134     0.1278     0.1269 1.1617e-01     5.8592      4.586      6.650    10.5994 0.0000e+00
      4.608     -0.281     8.7863     78.882     45.507  32.406386     3.7800     0.1134     0.1278     0.1269 1.5296e-01     5.7690      4.519      6.554    10.5991 0.0000e+00
      4.534     -0.297     8.7859     78.846     45.490  32.395639     3.8700     0.1401     0.1278     0.1269 1.3775e-01     5.8592      4.446      6.448    10.5990 0.0000e+00
      4.453     -0.313     8.7848     78.805     45.471  32.383823     3.8700     0.1668     0.1278     0.1269 1.4954e-01     5.8592      4.367      6.334    10.5997 0.0000e+00
      4.369     -0.327     8.7821     78.756     45.461  32.379667     3.8700     0.1363     0.1278     0.1269 1.9038e-01     5.0476      4.285      6.215    10.6012 0.0000e+00
      4.283     -0.338     8.7780     78.701     45.466  32.386025     3.8700     0.1515     0.1278     0.1269 1.7941e-01     5.0476      4.200      6.091    10.6030 0.0000e+00
      4.194     -0.346     8.7736     78.642     45.476  32.396670     3.8700     0.1134     0.1278     0.1269 2.2653e-01     5.0476      4.113      5.966    10.6048 0.0000e+00
      4.104     -0.350     8.7686     78.581     45.494  32.414443     3.7800     0.1439     0.1278     0.2115 2.1200e-01     5.1829      4.025      5.838    10.6070 0.0000e+00
      4.013     -0.353     8.7627     78.515     45.528  32.444081     3.7800     0.1172     0.1278     0.2115 2.8957e-01     5.0476      3.936      5.708    10.6097 0.0000e+00
      3.922     -0.355     8.7558     78.436     45.570  32.481608     3.7800     0.1325     0.1278     0.2115 2.8366e-01     5.0626      3.847      5.579    10.6130 0.0000e+00
      3.832     -0.357     8.7484     78.334     45.621  32.529109     3.7800     0.1477     0.1278     0.2115 3.3401e-01     5.0626      3.758      5.451    10.6173 0.0000e+00
      3.742     -0.360     8.7406     78.202     45.674  32.583409     3.7800     0.1439     0.1278     0.0423 3.4336e-01     5.0776      3.670      5.323    10.6224 0.0000e+00
      3.652     -0.364     8.7320     78.021     45.705  32.627305     3.7800     0.1515     0.1278     0.0423 3.5435e-01     5.2730      3.581      5.194    10.6286 0.0000e+00
      3.558     -0.368     8.7216     77.751     45.714  32.660621     3.7800     0.1134     0.1278     0.0423 3.9058e-01     5.4384      3.490      5.061    10.6369 0.0000e+00
      3.463     -0.372     8.7080     77.329     45.728  32.704124     3.7800     0.1821     0.1278     0.0423 4.6696e-01     5.3031      3.396      4.925    10.6490 0.0000e+00
      3.366     -0.375     8.6898     76.683     45.760  32.773375     3.7800     0.1515     0.1278     0.0846 5.0430e-01     5.2730      3.301      4.787    10.6669 0.0000e+00
      3.269     -0.378     8.6651     75.747     45.779  32.853178     3.7800     0.1363     0.1278     0.0846 5.0485e-01     5.7841      3.206      4.650    10.6910 0.0000e+00
      3.173     -0.379     8.6296     74.477     45.734  32.909366     3.7800     0.1363     0.1278     0.0846 5.3792e-01     5.8592      3.112      4.513    10.7208 0.0000e+00
      3.077     -0.380     8.5762     72.805     45.621  32.935143     3.7800     0.1401     0.1278     0.0846 6.2930e-01     5.7089      3.017      4.376    10.7579 0.0000e+00
      2.980     -0.381     8.4956     70.580     45.441  32.937385     3.7800     0.1172     0.1278     0.0846 6.7623e-01     5.7690      2.923      4.239    10.8091 0.0000e+00
      2.883     -0.383     8.3792     67.629     45.161  32.904810     3.8700     0.1782     0.1278     0.1269 7.0672e-01     5.7239      2.827      4.100    10.8826 0.0000e+00
      2.785     -0.385     8.2222     63.870     44.781  32.844579     3.8700     0.2088     0.1278     0.1269 7.9575e-01     5.7841      2.731      3.961    10.9806 0.0000e+00
      2.687     -0.386     8.0184     59.292     44.369  32.786186     3.8700     0.1973     0.1278     0.1269 8.6990e-01     5.7239      2.635      3.821    11.1006 0.0000e+00
      2.587     -0.387     7.7510     53.837     43.977  32.735856     3.8700     0.1973     0.1278     0.1269 9.1906e-01     5.8592      2.537      3.680    11.2484 0.0000e+00
      2.488     -0.387     7.3993     47.410     43.612  32.684138     4.0500     0.2469     0.1278     0.1269 9.8932e-01     4.8372      2.440      3.538    11.4406 0.0000e+00
      2.389     -0.387     6.9548     40.049     43.245  32.621206     4.0500     0.2698     0.1278     0.1269 1.0279e+00     4.8221      2.343      3.397    11.6850 0.0000e+00
      2.291     -0.388     6.4215     32.058     42.847  32.546126     4.0500     0.2431     0.1278     0.1269 1.0962e+00     4.7770      2.246      3.258    11.9611 0.0000e+00
      2.193     -0.388     5.8006     23.964     42.437  32.488387     4.0500     0.2469     0.1278     0.1269 1.1382e+00     4.8973      2.151      3.119    12.2336 0.0000e+00
      2.094     -0.390     5.0858     16.324     42.054  32.474188     3.8700     0.3232     0.0852     0.2961 1.2399e+00     3.9354      2.054      2.979    12.4864 0.0000e+00
      1.995     -0.392     4.2805      9.600     41.706  32.499752     3.8700     0.2965     0.0852     0.2961 1.3312e+00     3.8151      1.956      2.837    12.7321 0.0000e+00
      1.895     -0.395     3.4159      4.161     41.387  32.563986     3.8700     0.3003     0.0852     0.2961 1.4648e+00     3.9203      1.858      2.695    12.9965 0.0000e+00
      1.794     -0.398     2.5469      0.269     41.112  32.684029     3.8700     0.2965     0.0852     0.2961 1.5405e+00     3.8452      1.759      2.551    13.2967 0.0000e+00
      1.692     -0.400     1.7329     -1.986     40.899  32.862201     3.8700     0.3537     0.0852     0.2115 1.6932e+00     2.0416      1.659      2.406    13.6282 0.0000e+00
      1.589     -0.401     1.0225     -2.691     40.720  33.056916     3.8700     0.3919     0.0852     0.2115 2.0354e+00     2.0115      1.558      2.259    13.9803 0.0000e+00
      1.485     -0.399     0.4523     -2.047     40.557  33.236942     3.8700     0.3766     0.0852     0.2115 2.3290e+00     2.0416      1.456      2.112    14.3574 0.0000e+00
      1.382     -0.396     0.0469     -0.257     40.448  33.426534     3.8700     0.3766     0.0852     0.2115 2.8437e+00     2.0566      1.355      1.965    14.7644 0.0000e+00
      1.281     -0.391    -0.1877      2.550     40.383  33.632691     3.8700     0.5178     0.0852     0.2115 3.2923e+00     1.8161      1.255      1.821    15.1863 0.0000e+00
      1.181     -0.384    -0.2638      6.275     40.303  33.821279     4.2300     0.5025     0.0426     0.3807 3.9645e+00     1.8161      1.158      1.680    15.5998 0.0000e+00
      1.084     -0.374    -0.2048     10.798     40.183  33.977247     4.2300     0.4949     0.0426     0.3807 5.7862e+00     1.8762      1.062      1.541    15.9822 0.0000e+00
      0.988     -0.361    -0.0338     15.989     40.058  34.122391     4.2300     0.5139     0.0426     0.3807 8.2743e+00     1.8462      0.969      1.406    16.3250 0.0000e+00
      0.896     -0.345     0.2346     21.751     39.991  34.299388     4.2300     1.0594     0.0426     0.3807 1.2654e+01     3.4694      0.878      1.274    16.6443 0.0000e+00
      0.808     -0.325     0.5889     28.058     40.039  34.559407     4.5900     1.0442     0.0852     1.0998 2.0481e+01     3.4544      0.792      1.149    16.9602 0.0000e+00
      0.725     -0.301     1.0160     34.947     40.251  34.967831     4.5900     1.0175     0.0852     1.0998 2.7988e+01     3.4394      0.711      1.032    17.2779 0.0000e+00
      0.650     -0.273     1.5023     42.482     40.635  35.554360     4.5900     1.0671     0.0852     1.0998 4.0469e+01     3.4243      0.638      0.925    17.5879 0.0000e+00
      0.583     -0.244     2.0377     50.792     41.119  36.261521     4.5900     1.8300     0.0852     1.0998 6.2920e+01     6.7610      0.572      0.830    17.8760 0.0000e+00
      0.526     -0.216     2.6189     60.161     41.558  36.945169     5.3100     1.8300     0.2130     5.7528 6.3732e+01     6.7911      0.516      0.748    18.1444 0.0000e+00
      0.477     -0.191     3.2471     71.031     41.813  37.448936     5.3100     1.8491     0.2130     5.7528 6.2145e+01     6.7310      0.468      0.678    18.4180 0.0000e+00
      0.435     -0.172     3.9256     83.819     41.900  37.758623     5.3100     1.8338     0.2130     5.7528 6.1194e+01     6.7610      0.427      0.619    18.7239 0.0000e+00
      0.398     -0.160     4.6645     98.603     41.929  37.962765     5.3100     3.2491     0.2130     5.7528 5.9541e+01    18.7551      0.390      0.566    19.0674 0.0000e+00
      0.363     -0.156     5.4905    114.914     42.001  38.163344     6.3000     3.2567     0.3408    13.9590 5.8009e+01    18.7250      0.356      0.516    19.4258 0.0000e+00
      0.327     -0.160     6.4465    131.714     42.277  38.530712     6.3000     3.2491     0.3408    13.9590 5.9761e+01    18.7701      0.320      0.464    19.7614 0.0000e+00
      0.288     -0.168     7.5740    147.599     42.831  39.166793     6.3000     3.2567     0.3408    13.9590 6.8306e+01    18.6949      0.282      0.409    20.0414 0.0000e+00
      0.244     -0.177     8.8820    161.208     43.507  39.955975     6.3000     3.1919     0.3408    13.9590 8.8810e+01    15.9294      0.239      0.346    20.2552 0.0000e+00
      0.195     -0.184    10.3277    171.605     44.108  40.720465     6.3000     3.1881     0.3408    13.9590 1.5578e+02    15.9745      0.191      0.277    20.4152 0.0000e+00
      0.143     -0.186    11.8135    178.497     44.531  41.341234     6.7500     3.2110     0.3834    17.8929 2.5197e+02    15.9745      0.140      0.202    20.5501 0.0000e+00
      0.091     -0.184    13.2051    182.233     44.803  41.815443     6.7500     3.1995     0.3834    17.8929 3.1938e+02    15.9745      0.089      0.129    20.7003 0.0000e+00
      0.042     -0.178    14.3728    183.519     45.075  42.267581     6.7500     3.8824     0.3834    17.8929 3.7469e+02    20.6639      0.041      0.059    20.8958 0.0000e+00
     -0.002     -0.170    15.2339    183.097     45.409  42.762751     6.7500     3.8862     0.3834    17.8929 4.3154e+02    20.6639     -0.002     -0.003    21.1365 0.0000e+00
     -0.041     -0.164    15.7719    181.642     45.795  43.310172     7.0200     3.8595     0.2982    20.4732 3.4477e+02    20.7240     -0.040     -0.058    21.3979 0.0000e+00
     -0.078     -0.161    16.0303    179.704     46.209  43.905251     7.0200     3.8709     0.2982    20.4732 3.3575e+02    20.6188     -0.077     -0.111    21.6479 0.0000e+00
     -0.116     -0.161    16.0800    177.633     46.499  44.407505     7.0200     3.4933     0.2982    20.4732 4.1544e+02    20.1980     -0.114     -0.166    21.8688 0.0000e+00
     -0.158     -0.164    15.9855    175.589     46.535  44.673491     7.0200     3.4933     0.2982    20.4732 6.8703e+02    20.2130     -0.155     -0.224    22.0694 0.0000e+00
     -0.201     -0.171    15.8001    173.552     46.333  44.690931     6.7500     3.4742     0.4686    19.4157 6.8763e+02    20.2130     -0.197     -0.286    22.2714 0.0000e+00
     -0.245     -0.178    15.5671    171.339     45.884  44.438728     6.7500     3.4856     0.4686    19.4157 7.0702e+02    20.2581     -0.240     -0.348    22.4942 0.0000e+00
     -0.290     -0.185    15.3162    168.709     45.039  43.772358     6.7500     3.4170     0.4686    19.4157 7.5580e+02    18.9956     -0.284     -0.412    22.7425 0.0000e+00
     -0.338     -0.189    15.0675    165.489     43.555  42.450719     6.7500     3.4132     0.4686    19.4157 8.0321e+02    18.9956     -0.331     -0.481    22.9963 0.0000e+00
     -0.388     -0.190    14.8271    161.623     41.120  40.164974     6.3900     3.4589     0.4686    16.9623 7.6289e+02    18.9805     -0.381     -0.553    23.2291 0.0000e+00
     -0.440     -0.187    14.5821    157.233     37.166  36.355133     6.3900     3.4437     0.4686    16.9623 7.2475e+02    19.0106     -0.432     -0.627    23.4303 0.0000e+00
     -0.491     -0.178    14.3117    152.608     30.688  30.040907     6.3900     1.0518     0.4686    16.9623 6.7887e+02    12.9083     -0.481     -0.699    23.6015 0.0000e+00
     -0.538     -0.163    14.0011    148.152     22.565  22.092349     6.3900     1.0327     0.4686    16.9623 6.2629e+02    12.9083     -0.527     -0.765    23.7410 0.0000e+00
     -0.578     -0.144    13.6468    144.235     16.004  15.663311     6.3900     1.0175     0.4686    16.9623 5.6696e+02    12.8633     -0.567     -0.822    23.8441 0.0000e+00
     -0.611     -0.123    13.2592    141.109     12.081  11.814461     6.4800     1.0518     0.4260    16.9200 5.3071e+02    12.9685     -0.599     -0.869    23.9085 0.0000e+00
     -0.637     -0.103    12.8618    138.922      9.740   9.513510     6.4800    -0.1155     0.4260    16.9200 4.2080e+02    -0.4084     -0.624     -0.906    23.9355 0.0000e+00
     -0.657     -0.085    12.4870    137.635      8.568   8.354529     6.4800    -0.1155     0.4260    16.9200 3.3575e+02    -0.3783     -0.644     -0.935    23.9290 0.0000e+00
     -0.673     -0.070    12.1644    137.023      7.985   7.773319     6.4800    -0.0926     0.4260    16.9200 3.1807e+02    -0.4534     -0.659     -0.957    23.8938 0.0000e+00
     -0.685     -0.058    11.9130    136.811      7.281   7.076950     3.9600    -0.0773     0.0426     3.8070 2.5368e+02    -0.3482     -0.671     -0.974    23.8375 0.0000e+00
     -0.694     -0.051    11.7435    136.747      6.916   6.712555     3.9600    -0.1346     0.0426     3.8070 2.4342e+02    -0.3482     -0.680     -0.987    23.7688 0.0000e+00
     -0.701     -0.046    11.6510    136.663      7.470   7.241496     3.9600    -0.1002     0.0426     3.8070 2.2628e+02    -0.3783     -0.687     -0.997    23.6950 0.0000e+00
     -0.706     -0.045    11.6155    136.603      7.972   7.724919     3.9600    -0.1231     0.0426     3.8070 2.0457e+02    -0.3482     -0.692     -1.004    23.6212 0.0000e+00
     -0.710 -9.990e-29    11.6125 -9.990e-29 -9.990e-29 -9.990e-29     0.0000 -9.990e-29     0.1704    -0.2115 2.0391e+02 -9.990e-29     -0.696     -1.009    23.5539 0.0000e+00
     -0.712 -9.990e-29    11.6189 -9.990e-29 -9.990e-29 -9.990e-29     0.0000 -9.990e-29     0.1704    -0.2115 2.0258e+02 -9.990e-29     -0.698     -1.013    23.4998 0.0000e+00
     -0.714 -9.990e-29    11.6197 -9.990e-29 -9.990e-29 -9.990e-29     0.0000 -9.990e-29     0.1704    -0.2115 1.9604e+02 -9.990e-29     -0.700     -1.014    23.4635 0.0000e+00
     -0.714 -9.990e-29    11.6175 -9.990e-29 -9.990e-29 -9.990e-29     0.0000 -9.990e-29     0.1704    -0.2115 2.0489e+02 -9.990e-29     -0.700     -1.015    23.4503 0.0000e+00
