* Sea-Bird SBE19plus  Data File:
* FileName = C:\DATA\062818_FCR_0002.hex
* Software version 2.6.3.104
* Temperature SN = 7809
* Conductivity SN = 7809
* System UpLoad Time = Jun 28 2018 14:57:09
* <ApplicationData>
* <Seaterm232>
* <SoftwareVersion>2.6.3.104</SoftwareVersion>
* <BuildDate>30-Jun-2017</BuildDate>
* </Seaterm232>
* </ApplicationData>
* <InstrumentState>
* <HardwareData DeviceType='SBE19plus' SerialNumber='01907809'>
*
*    <Manufacturer>Sea-Bird Electronics, Inc.</Manufacturer>
*
*    <FirmwareVersion>3.1.8</FirmwareVersion>
*
*    <FirmwareDate>Mar  9 2016 16:22:29</FirmwareDate>
*
*    <CommandSetVersion>1.4</CommandSetVersion>
*
*    <PCBAssembly PCBSerialNum='120721' AssemblyNum='41054J'/>
*
*    <PCBAssembly PCBSerialNum='120715' AssemblyNum='41967A'/>
*
*    <PCBAssembly PCBSerialNum='116699' AssemblyNum='41606'/>
*
*    <PCBAssembly PCBSerialNum='120719' AssemblyNum='41059D'/>
*
*    <MfgDate>28-Apr-2017</MfgDate>
*
*    <InternalSensors>
*
*       <Sensor id='Main Temperature'>
*
*          <type>temperature0</type>
*
*          <SerialNumber>01907809</SerialNumber>
*
*       </Sensor>
*
*       <Sensor id='Main Conductivity'>
*
*          <type>conductivity-0</type>
*
*          <SerialNumber>01907809</SerialNumber>
*
*       </Sensor>
*
*       <Sensor id='Main Pressure'>
*
*          <type>strain-0</type>
*
*          <SerialNumber>10586018</SerialNumber>
*
*       </Sensor>
*
*    </InternalSensors>
*
*    <ExternalSensors>
*
*       <Sensor id='volt 0'>
*
*          <type>pH</type>
*
*          <SerialNumber>27-0363</SerialNumber>
*
*       </Sensor>
*
*       <Sensor id='volt 1'>
*
*          <type>ORP</type>
*
*          <SerialNumber>27-0363</SerialNumber>
*
*       </Sensor>
*
*       <Sensor id='volt 2'>
*
*          <type>OXY</type>
*
*          <SerialNumber>43-0434</SerialNumber>
*
*       </Sensor>
*
*       <Sensor id='volt 3'>
*
*          <type>PAR</type>
*
*          <SerialNumber>1122</SerialNumber>
*
*       </Sensor>
*
*       <Sensor id='volt 4'>
*
*          <type>ECO AFL/FL</type>
*
*          <SerialNumber>FLNTURT-2496</SerialNumber>
*
*       </Sensor>
*
*       <Sensor id='volt 5'>
*
*          <type>ECO-NTU</type>
*
*          <SerialNumber>FLNTURT-2496</SerialNumber>
*
*       </Sensor>
*
*       <Sensor id='serial'>
*
*          <type>not assigned</type>
*
*          <SerialNumber>not assigned</SerialNumber>
*
*       </Sensor>
*
*    </ExternalSensors>
*
* </HardwareData>
* <StatusData DeviceType='SBE19plus' SerialNumber='01907809'>
*
*    <DateTime>2018-06-28T18:56:08</DateTime>
*
*    <LoggingState>not logging</LoggingState>
*
*    <EventSummary numEvents='0'/>
*
*    <Power>
*
*       <vMain>12.4</vMain>
*
*       <vLith>8.8</vLith>
*
*       <iMain>63.3</iMain>
*
*       <iPump>43.1</iPump>
*
*       <iExt01>13.7</iExt01>
*
*       <iExt2345>42.4</iExt2345>
*
*    </Power>
*
*    <MemorySummary>
*
*       <Bytes>44643</Bytes>
*
*       <Samples>1941</Samples>
*
*       <SamplesFree>2858847</SamplesFree>
*
*       <SampleLength>23</SampleLength>
*
*       <Profiles>2</Profiles>
*
*    </MemorySummary>
*
* </StatusData>
* <ConfigurationData DeviceType='SBE19plus' SerialNumber='01907809'>
*
*    <ProfileMode>
*
*       <ScansToAverage>1</ScansToAverage>
*
*       <MinimumCondFreq>5</MinimumCondFreq>
*
*       <PumpDelay>45</PumpDelay>
*
*       <AutoRun>no</AutoRun>
*
*       <IgnoreSwitch>no</IgnoreSwitch>
*
*    </ProfileMode>
*
*    <Battery>
*
*       <Type>alkaline</Type>
*
*       <CutOff>7.5</CutOff>
*
*    </Battery>
*
*    <DataChannels>
*
*       <ExtVolt0>yes</ExtVolt0>
*
*       <ExtVolt1>yes</ExtVolt1>
*
*       <ExtVolt2>yes</ExtVolt2>
*
*       <ExtVolt3>yes</ExtVolt3>
*
*       <ExtVolt4>yes</ExtVolt4>
*
*       <ExtVolt5>yes</ExtVolt5>
*
*       <SBE38>no</SBE38>
*
*       <WETLABS>no</WETLABS>
*
*       <OPTODE>no</OPTODE>
*
*       <SBE63>no</SBE63>
*
*       <SeaFET>no</SeaFET>
*
*       <GTD>no</GTD>
*
*    </DataChannels>
*
*    <EchoCharacters>yes</EchoCharacters>
*
*    <OutputExecutedTag>yes</OutputExecutedTag>
*
*    <OutputFormat>raw HEX</OutputFormat>
*
* </ConfigurationData>
* <CalibrationCoefficients DeviceType='SBE19plus' SerialNumber='01907809'>
*
*    <Calibration format='TEMP1' id='Main Temperature'>
*
*       <SerialNum>01907809</SerialNum>
*
*       <CalDate>09-Mar-18</CalDate>
*
*       <TA0>1.210932e-03</TA0>
*
*       <TA1>2.843566e-04</TA1>
*
*       <TA2>-1.945074e-06</TA2>
*
*       <TA3>2.128067e-07</TA3>
*
*       <TOFFSET>0.000000e+00</TOFFSET>
*
*    </Calibration>
*
*    <Calibration format='WBCOND0' id='Main Conductivity'>
*
*       <SerialNum>01907809</SerialNum>
*
*       <CalDate>09-Mar-18</CalDate>
*
*       <G>-1.006721e+00</G>
*
*       <H>1.269065e-01</H>
*
*       <I>-1.405844e-04</I>
*
*       <J>2.478371e-05</J>
*
*       <CPCOR>-9.570000e-08</CPCOR>
*
*       <CTCOR>3.250000e-06</CTCOR>
*
*       <CSLOPE>1.000000e+00</CSLOPE>
*
*    </Calibration>
*
*    <Calibration format='STRAIN0' id='Main Pressure'>
*
*       <SerialNum>10586018</SerialNum>
*
*       <CalDate>07-Mar-18</CalDate>
*
*       <PA0>-4.081764e-02</PA0>
*
*       <PA1>4.851884e-04</PA1>
*
*       <PA2>-3.511682e-12</PA2>
*
*       <PTCA0>5.252134e+05</PTCA0>
*
*       <PTCA1>1.795324e+00</PTCA1>
*
*       <PTCA2>-2.843535e-01</PTCA2>
*
*       <PTCB0>2.516687e+01</PTCB0>
*
*       <PTCB1>3.750000e-04</PTCB1>
*
*       <PTCB2>0.000000e+00</PTCB2>
*
*       <PTEMPA0>-5.378069e+01</PTEMPA0>
*
*       <PTEMPA1>5.366207e+01</PTEMPA1>
*
*       <PTEMPA2>4.872143e-02</PTEMPA2>
*
*       <POFFSET>5.000000e-01</POFFSET>
*
*       <PRANGE>1.600000e+02</PRANGE>
*
*    </Calibration>
*
*    <Calibration format='VOLT0' id='Volt 0'>
*
*       <OFFSET>-4.920000e-02</OFFSET>
*
*       <SLOPE>1.248122e+00</SLOPE>
*
*    </Calibration>
*
*    <Calibration format='VOLT0' id='Volt 1'>
*
*       <OFFSET>-4.784000e-02</OFFSET>
*
*       <SLOPE>1.248871e+00</SLOPE>
*
*    </Calibration>
*
*    <Calibration format='VOLT0' id='Volt 2'>
*
*       <OFFSET>-4.864632e-02</OFFSET>
*
*       <SLOPE>1.248714e+00</SLOPE>
*
*    </Calibration>
*
*    <Calibration format='VOLT0' id='Volt 3'>
*
*       <OFFSET>-4.743790e-02</OFFSET>
*
*       <SLOPE>1.248571e+00</SLOPE>
*
*    </Calibration>
*
*    <Calibration format='VOLT0' id='Volt 4'>
*
*       <OFFSET>-4.671263e-02</OFFSET>
*
*       <SLOPE>1.248951e+00</SLOPE>
*
*    </Calibration>
*
*    <Calibration format='VOLT0' id='Volt 5'>
*
*       <OFFSET>-4.871053e-02</OFFSET>
*
*       <SLOPE>1.249136e+00</SLOPE>
*
*    </Calibration>
*
*    <Calibration format='FREQ0' id='external frequency channel'>
*
*       <EXTFREQSF>1.000014e+00</EXTFREQSF>
*
*    </Calibration>
*
* </CalibrationCoefficients>
* <EventCounters DeviceType='SBE19plus' SerialNumber='01907809'>
*
*    <EventSummary numEvents='0'/>
*
* </EventCounters></InstrumentState>
* <Headers>
*
* cast   2 28 Jun 2018 15:00:35 samples 920 to 1941, avg = 1, stop = mag switch
*
# nquan = 17
# nvalues = 917                         
# units = specified
# name 0 = depFM: Depth [fresh water, m]
# name 1 = tv290C: Temperature [ITS-90, deg C]
# name 2 = sbeox0Mg/L: Oxygen, SBE 43 [mg/l]
# name 3 = sbeox0PS: Oxygen, SBE 43 [% saturation]
# name 4 = c0uS/cm: Conductivity [uS/cm]
# name 5 = specc: Specific Conductance [uS/cm]
# name 6 = ph: pH
# name 7 = orp: Oxidation Reduction Potential [mV]
# name 8 = flECO-AFL: Fluorescence, WET Labs ECO-AFL/FL [mg/m^3]
# name 9 = turbWETntu0: Turbidity, WET Labs ECO [NTU]
# name 10 = sal00: Salinity, Practical [PSU]
# name 11 = dz/dtM: Descent Rate [m/s]
# name 12 = prdM: Pressure, Strain Gauge [db]
# name 13 = prdE: Pressure, Strain Gauge [psi]
# name 14 = scan: Scan Count
# name 15 = par/sat/log: PAR/Logarithmic, Satlantic
# name 16 = flag:  0.000e+00
# span 0 =     -0.692,     10.341       
# span 1 =     7.4741,    24.8535       
# span 2 =     0.0741,     9.9607       
# span 3 =      0.621,    118.712       
# span 4 =   0.643894,  74.933027       
# span 5 =      0.623,    115.351       
# span 6 =     -2.503,      8.856       
# span 7 = -1240.7455,   391.9999       
# span 8 =    -0.7602,     4.8645       
# span 9 =    -0.8957,    40.9323       
# span 10 =     0.0118,     0.0529      
# span 11 =     -0.226,      0.140      
# span 12 =     -0.678,     10.140      
# span 13 =     -0.983,     14.707      
# span 14 =          1,        917      
# span 15 = 1.2331e-01, 1.6614e+03      
# span 16 = 0.0000e+00, 0.0000e+00      
# interval = seconds: 0.25
# start_time = Jun 28 2018 15:00:35 [Instrument's time stamp, header]
# bad_flag = -9.990e-29
# <Sensors count="9" >
#   <sensor Channel="1" >
#     <!-- Count, Temperature -->
#     <TemperatureSensor SensorID="58" >
#       <SerialNumber>7809</SerialNumber>
#       <CalibrationDate>09-Mar-18</CalibrationDate>
#       <A0>1.21093245e-003</A0>
#       <A1>2.84356597e-004</A1>
#       <A2>-1.94507398e-006</A2>
#       <A3>2.12806664e-007</A3>
#       <Slope>1.00000000</Slope>
#       <Offset>0.0000</Offset>
#     </TemperatureSensor>
#   </sensor>
#   <sensor Channel="2" >
#     <!-- Frequency 0, Conductivity -->
#     <ConductivitySensor SensorID="3" >
#       <SerialNumber>7809</SerialNumber>
#       <CalibrationDate>09-Mar-18</CalibrationDate>
#       <UseG_J>1</UseG_J>
#       <!-- Cell const and series R are applicable only for wide range sensors. -->
#       <SeriesR>0.0000</SeriesR>
#       <CellConst>2000.0000</CellConst>
#       <ConductivityType>0</ConductivityType>
#       <Coefficients equation="0" >
#         <A>0.00000000e+000</A>
#         <B>0.00000000e+000</B>
#         <C>0.00000000e+000</C>
#         <D>0.00000000e+000</D>
#         <M>0.0</M>
#         <CPcor>-9.57000000e-008</CPcor>
#       </Coefficients>
#       <Coefficients equation="1" >
#         <G>-1.00672082e+000</G>
#         <H>1.26906489e-001</H>
#         <I>-1.40584351e-004</I>
#         <J>2.47837121e-005</J>
#         <CPcor>-9.57000000e-008</CPcor>
#         <CTcor>3.2500e-006</CTcor>
#         <!-- WBOTC not applicable unless ConductivityType = 1. -->
#         <WBOTC>0.00000000e+000</WBOTC>
#       </Coefficients>
#       <Slope>1.00000000</Slope>
#       <Offset>0.00000</Offset>
#     </ConductivitySensor>
#   </sensor>
#   <sensor Channel="3" >
#     <!-- Count, Pressure, Strain Gauge -->
#     <PressureSensor SensorID="46" >
#       <SerialNumber>7809</SerialNumber>
#       <CalibrationDate>07-Mar-18</CalibrationDate>
#       <PA0>-4.08176359e-002</PA0>
#       <PA1>4.85188419e-004</PA1>
#       <PA2>-3.51168169e-012</PA2>
#       <PTEMPA0>-5.37806900e+001</PTEMPA0>
#       <PTEMPA1>5.36620721e+001</PTEMPA1>
#       <PTEMPA2>4.87214332e-002</PTEMPA2>
#       <PTCA0>5.25213435e+005</PTCA0>
#       <PTCA1>1.79532409e+000</PTCA1>
#       <PTCA2>-2.84353509e-001</PTCA2>
#       <PTCB0>2.51668750e+001</PTCB0>
#       <PTCB1>3.75000000e-004</PTCB1>
#       <PTCB2>0.00000000e+000</PTCB2>
#       <Offset>0.000000</Offset>
#     </PressureSensor>
#   </sensor>
#   <sensor Channel="4" >
#     <!-- A/D voltage 0, pH -->
#     <pH_Sensor SensorID="43" >
#       <SerialNumber>0363</SerialNumber>
#       <CalibrationDate>16-Mar-18</CalibrationDate>
#       <Slope>4.6194</Slope>
#       <Offset>2.5947</Offset>
#     </pH_Sensor>
#   </sensor>
#   <sensor Channel="5" >
#     <!-- A/D voltage 1, Oxidation Reduction Potential -->
#     <OxidationReductionPotentialSensor SensorID="41" >
#       <SerialNumber>0363</SerialNumber>
#       <CalibrationDate>16-Mar-18</CalibrationDate>
#       <B>2.499480</B>
#       <M>-0.496195</M>
#       <Offset>0.0</Offset>
#     </OxidationReductionPotentialSensor>
#   </sensor>
#   <sensor Channel="6" >
#     <!-- A/D voltage 2, Oxygen, SBE 43 -->
#     <OxygenSensor SensorID="38" >
#       <SerialNumber>0434</SerialNumber>
#       <CalibrationDate>13-Mar-18</CalibrationDate>
#       <Use2007Equation>1</Use2007Equation>
#       <CalibrationCoefficients equation="0" >
#         <!-- Coefficients for Owens-Millard equation. -->
#         <Boc>0.0000</Boc>
#         <Soc>0.0000e+000</Soc>
#         <offset>0.0000</offset>
#         <Pcor>0.00e+000</Pcor>
#         <Tcor>0.0000</Tcor>
#         <Tau>0.0</Tau>
#       </CalibrationCoefficients>
#       <CalibrationCoefficients equation="1" >
#         <!-- Coefficients for Sea-Bird equation - SBE calibration in 2007 and later. -->
#         <Soc>4.5718e-001</Soc>
#         <offset>-0.6113</offset>
#         <A>-4.0649e-003</A>
#         <B> 2.0945e-004</B>
#         <C>-3.3182e-006</C>
#         <D0> 2.5826e+000</D0>
#         <D1> 1.92634e-004</D1>
#         <D2>-4.64803e-002</D2>
#         <E> 3.6000e-002</E>
#         <Tau20> 1.2200</Tau20>
#         <H1>-3.3000e-002</H1>
#         <H2> 5.0000e+003</H2>
#         <H3> 1.4500e+003</H3>
#       </CalibrationCoefficients>
#     </OxygenSensor>
#   </sensor>
#   <sensor Channel="7" >
#     <!-- A/D voltage 3, PAR/Logarithmic, Satlantic -->
#     <PARLog_SatlanticSensor SensorID="76" >
#       <SerialNumber>1122</SerialNumber>
#       <CalibrationDate>22-Jun-2017</CalibrationDate>
#       <a0>9.6090e-001</a0>
#       <a1>8.0780e-001</a1>
#       <Im>1.3589e+000</Im>
#       <Multiplier>1.0000e+000</Multiplier>
#     </PARLog_SatlanticSensor>
#   </sensor>
#   <sensor Channel="8" >
#     <!-- A/D voltage 4, Fluorometer, WET Labs ECO-AFL/FL -->
#     <FluoroWetlabECO_AFL_FL_Sensor SensorID="20" >
#       <SerialNumber>FLNTURT-2496</SerialNumber>
#       <CalibrationDate>25-Jan-2017</CalibrationDate>
#       <ScaleFactor>5.30000000e+001</ScaleFactor>
#       <!-- Dark output -->
#       <Vblank>0.0560</Vblank>
#     </FluoroWetlabECO_AFL_FL_Sensor>
#   </sensor>
#   <sensor Channel="9" >
#     <!-- A/D voltage 5, Turbidity Meter, WET Labs, ECO-NTU -->
#     <TurbidityMeter SensorID="67" >
#       <SerialNumber>FLNTURT-2496</SerialNumber>
#       <CalibrationDate>25-Jan-2017</CalibrationDate>
#       <ScaleFactor>176.000000</ScaleFactor>
#       <!-- Dark output -->
#       <DarkVoltage>0.072000</DarkVoltage>
#     </TurbidityMeter>
#   </sensor>
# </Sensors>
# datcnv_date = Jun 28 2018 15:00:38, 7.26.7.114 [datcnv_vars = 16]
# datcnv_in = C:\DATA\062818_BVR50.hex C:\DATA\SBE19plusV2_7809.xmlcon
# datcnv_skipover = 0
# datcnv_ox_hysteresis_correction = yes
# datcnv_ox_tau_correction = yes
# filter_date = Jun 28 2018 15:01:10, 7.26.7.114
# filter_in = C:\DATA\062818_BVR50.cnv
# filter_low_pass_tc_A = 0.030
# filter_low_pass_tc_B = 0.150
# filter_low_pass_A_vars = tv290C c0uS/cm par/sat/log
# filter_low_pass_B_vars = prdM prdE
# alignctd_date = Jun 28 2018 15:01:36, 7.26.7.114
# alignctd_in = C:\DATA\062818_BVR50.cnv
# alignctd_adv = tv290C 0.500, sbeox0Mg/L 3.000, sbeox0PS 3.000                                                                                                                                                                      
# file_type = ascii
*END*
     -0.691    24.8498     7.8476     94.717   0.660852      0.679     -2.499 -1240.7455    -0.1658    -0.1303     0.0118      0.000     -0.677     -0.982          1 3.2703e+02 0.0000e+00
     -0.691    24.8501     7.8492     94.736   0.643894      0.623     -2.499 -1240.7455    -0.1455    -0.0497     0.0118      0.000     -0.677     -0.982          2 2.5863e+02 0.0000e+00
     -0.690    24.8505     7.8521     94.757   1.211170      1.211     -2.499 -1240.7455    -0.1496    -0.2780     0.0118      0.000     -0.677     -0.982          3 2.1865e+02 0.0000e+00
     -0.690    24.8510     7.8650     94.722   1.760917      1.798     -2.499 -1240.7455    -0.1658    -0.1706     0.0118      0.000     -0.677     -0.982          4 2.2354e+02 0.0000e+00
     -0.691    24.8509     7.8870     94.738   1.647357      1.630     -2.499 -1240.7455    -0.1617    -0.1840     0.0118      0.000     -0.677     -0.982          5 2.0697e+02 0.0000e+00
     -0.690    24.8511     7.9002     94.745   1.796605      1.798     -2.499 -1240.7455    -0.1698    -0.2646     0.0118      0.000     -0.677     -0.982          6 2.1116e+02 0.0000e+00
     -0.690    24.8508     7.9098     94.766   2.137735      2.162     -2.499 -1240.7455    -0.1900    -0.1706     0.0119      0.000     -0.677     -0.982          7 1.9694e+02 0.0000e+00
     -0.691    24.8516     7.9145     94.762   2.111071      2.106     -2.499 -1240.7455    -0.1617    -0.1437     0.0119      0.000     -0.677     -0.982          8 2.9028e+02 0.0000e+00
     -0.691    24.8510     7.9218     94.796   2.037043      2.050     -2.499 -1240.7455    -0.1496    -0.2109     0.0119      0.000     -0.677     -0.982          9 2.7454e+02 0.0000e+00
     -0.691    24.8521     7.9260     94.796   1.933778      1.938     -2.499 -1240.7455    -0.1779    -0.1974     0.0119     -0.000     -0.678     -0.983         10 4.0762e+02 0.0000e+00
     -0.691    24.8502     7.9308     94.810   1.795459      1.798     -2.499 -1240.7455    -0.1698    -0.2109     0.0118     -0.000     -0.678     -0.983         11 1.0369e+03 0.0000e+00
     -0.691    24.8535     7.9332     94.804   1.617017      1.630     -2.499 -1240.7455    -0.1334    -0.3049     0.0118     -0.000     -0.678     -0.983         12 1.2180e+03 0.0000e+00
     -0.692    24.8402     7.9356     94.801   1.593297      1.574     -2.499 -1240.7455    -0.1698    -0.1706     0.0118     -0.000     -0.678     -0.983         13 1.1997e+03 0.0000e+00
     -0.690    24.7349     7.9369     94.774   1.528900      1.574     -2.499 -1240.7455    -0.1779    -0.2243     0.0118     -0.000     -0.677     -0.982         14 1.2400e+03 0.0000e+00
     -0.690    24.5944     7.9442     94.822   1.578726      1.519     -2.500 -1240.7455    -0.1172    -0.1974     0.0118     -0.000     -0.672     -0.975         15 1.1000e+03 0.0000e+00
     -0.675    24.5064     7.9543     94.907   1.531291      1.634     -2.503 -1240.7455    -0.1577    -0.2512     0.0118      0.004     -0.661     -0.959         16 1.0452e+03 0.0000e+00
     -0.658    24.4533     7.9694     95.057   5.081911      4.789     -1.098 -1240.7455     1.0514     5.9928     0.0124      0.012     -0.646     -0.938         17 6.9913e+02 0.0000e+00
     -0.646    24.4162     7.9813     95.176   8.264605      8.941      2.433 -1240.7455     1.0271     5.9794     0.0136      0.020     -0.632     -0.917         18 8.0757e+02 0.0000e+00
     -0.630    24.3859     8.0082     95.481  10.897006     10.192      4.481 -1240.7455     1.0352     6.0197     0.0140      0.030     -0.612     -0.888         19 1.2676e+03 0.0000e+00
     -0.593    24.3571     8.0244     95.663  21.565696     22.403      5.936 -1240.7455     1.0352     5.9123     0.0185      0.045     -0.583     -0.846         20 1.2248e+03 0.0000e+00
     -0.564    24.3324     8.0436     95.889  28.352503     28.582      6.755   391.9999     0.6308    -0.8554     0.0209      0.062     -0.549     -0.796         21 1.3839e+03 0.0000e+00
     -0.520    24.3136     8.0458     95.912  27.967338     28.400      7.530   311.1368     0.6308    -0.8554     0.0208      0.082     -0.511     -0.741         22 1.4719e+03 0.0000e+00
     -0.480    24.2949     8.0595     96.073  27.914165     28.245      7.994   299.4011     0.5944    -0.8957     0.0208      0.101     -0.472     -0.684         23 1.4247e+03 0.0000e+00
     -0.443    24.2714     8.0611     96.090  27.736814     28.142      8.263   295.1989     0.6268    -0.7748     0.0207      0.116     -0.435     -0.631         24 1.4449e+03 0.0000e+00
     -0.408    24.2485     8.0618     96.094  27.713713     28.096      8.439   289.1417    -0.6995    40.9189     0.0207      0.130     -0.401     -0.582         25 1.4446e+03 0.0000e+00
     -0.378    24.2287     8.0524     95.977  27.646460     28.053      8.520   290.8075    -0.7197    40.8786     0.0207      0.139     -0.371     -0.539         26 1.4272e+03 0.0000e+00
     -0.352    24.2118     8.0077     95.436  27.642642     28.066      8.572   289.1796    -0.7197    40.9323     0.0207      0.140     -0.344     -0.500         27 1.4528e+03 0.0000e+00
     -0.325    24.1989     7.9354     94.564  27.570240     27.992      8.583   281.9489    -0.7359    40.9055     0.0206      0.135     -0.317     -0.461         28 1.2321e+03 0.0000e+00
     -0.294    24.1898     7.8357     93.367  27.558694     28.002      8.569   281.9489    -0.7602    40.8383     0.0206      0.130     -0.290     -0.421         29 8.0642e+02 0.0000e+00
     -0.270    24.1839     7.7124     91.893  27.568081     28.009      8.552   278.9581     1.7671     3.9518     0.0206      0.121     -0.265     -0.385         30 1.2585e+03 0.0000e+00
     -0.248    24.1820     7.6154     90.738  27.558563     28.014      8.556   276.4596     1.7833     3.9518     0.0206      0.113     -0.244     -0.355         31 1.2006e+03 0.0000e+00
     -0.229    24.1803     7.5705     90.207  27.570543     28.018      8.503   277.2167     1.7671     4.0458     0.0206      0.105     -0.229     -0.331         32 8.0580e+02 0.0000e+00
     -0.223    24.1788     7.6093     90.674  27.582821     28.047      8.484   280.2074     1.7671     4.0458     0.0206      0.095     -0.221     -0.320         33 1.3313e+03 0.0000e+00
     -0.223    24.1779     7.7420     92.262  27.572931     28.020      8.510   280.1696     1.8439     3.8041     0.0206      0.081     -0.219     -0.318         34 1.4622e+03 0.0000e+00
     -0.225    24.1755     7.9162     94.343  27.553206     28.021      8.564   278.6931     1.8156     3.7235     0.0206      0.065     -0.219     -0.317         35 1.3842e+03 0.0000e+00
     -0.221    24.1723     8.0901     96.418  27.518429     27.964      8.622   277.2924     1.8237     3.7504     0.0206      0.049     -0.215     -0.311         36 1.4205e+03 0.0000e+00
     -0.210    24.1677     8.2362     98.163  27.497626     27.966      8.666   276.2703     1.8439     3.8041     0.0206      0.035     -0.206     -0.298         37 1.3895e+03 0.0000e+00
     -0.198    24.1621     8.3302     99.288  27.460513     27.911      8.703   274.3017     1.9612     3.7369     0.0206      0.027     -0.199     -0.287         38 1.4190e+03 0.0000e+00
     -0.200    24.1571     8.3688     99.751  27.505323     27.970      8.727   276.1188     1.9652     3.7369     0.0206      0.021     -0.200     -0.289         39 1.4150e+03 0.0000e+00
     -0.215    24.1541     8.3403     99.419  27.530799     28.002      8.714   272.4467     1.9652     3.8175     0.0206      0.013     -0.209     -0.303         40 1.4208e+03 0.0000e+00
     -0.225    24.1544     8.2709     98.598  27.458459     27.919      8.703   271.0838     1.9572     3.7504     0.0206      0.006     -0.216     -0.314         41 1.4230e+03 0.0000e+00
     -0.223    24.1568     8.1784     97.499  27.447122     27.921      8.707   271.6517     1.9733     3.6295     0.0206      0.001     -0.216     -0.314         42 1.4267e+03 0.0000e+00
     -0.215    24.1599     8.0886     96.433  27.455970     27.921      8.718   270.7431     1.9612     3.5758     0.0206     -0.001     -0.211     -0.305         43 1.4247e+03 0.0000e+00
     -0.208    24.1636     7.9963     95.335  27.447449     27.919      8.726   269.1910     1.9855     3.4952     0.0206     -0.003     -0.203     -0.294         44 1.4174e+03 0.0000e+00
     -0.199    24.1665     7.9199     94.424  27.457727     27.918      8.733   270.0995     1.9572     3.6967     0.0206     -0.002     -0.195     -0.283         45 1.4151e+03 0.0000e+00
     -0.191    24.1679     7.8600     93.709  27.472824     27.944      8.729   268.5095     2.0259     3.8309     0.0206      0.004     -0.189     -0.275         46 1.4282e+03 0.0000e+00
     -0.190    24.1703     7.8132     93.147  27.458305     27.914      8.738   268.2445     2.0340     3.7638     0.0206      0.012     -0.186     -0.271         47 1.4347e+03 0.0000e+00
     -0.189    24.1723     7.7953     92.929  27.505440     27.970      8.748   268.3203     2.0138     3.8175     0.0206      0.019     -0.186     -0.270         48 1.4257e+03 0.0000e+00
     -0.191    24.1741     7.8013     92.993  27.443810     27.912      8.751   267.2224     2.0097     3.7504     0.0206      0.020     -0.187     -0.271         49 1.4380e+03 0.0000e+00
     -0.193    24.1781     7.8456     93.518  27.475710     27.911      8.760   265.8595     2.0178     3.6832     0.0206      0.015     -0.183     -0.265         50 1.4303e+03 0.0000e+00
     -0.172    24.1815     7.9124     94.310  27.613970     28.109      8.767   266.9195     2.0785     3.7772     0.0207      0.015     -0.170     -0.246         51 1.3790e+03 0.0000e+00
     -0.154    24.1836     7.9929     95.269  27.538562     27.964      8.745   266.5410     2.1149     3.8041     0.0206      0.019     -0.156     -0.227         52 1.3776e+03 0.0000e+00
     -0.153    24.1862     8.0763     96.262  27.569553     28.047      8.748   265.6324     2.0866     3.7504     0.0206      0.021     -0.150     -0.218         53 1.3683e+03 0.0000e+00
     -0.150    24.1875     8.1627     97.289  27.664337     28.103      8.758   264.8374     2.1149     3.7504     0.0207      0.024     -0.147     -0.213         54 1.3538e+03 0.0000e+00
     -0.147    24.1873     8.2147     97.906  27.746711     28.215      8.765   265.1402     2.0340     3.9921     0.0207      0.027     -0.144     -0.208         55 1.3521e+03 0.0000e+00
     -0.143    24.1868     8.2311     98.099  27.822795     28.271      8.769   264.9131     2.0421     3.9249     0.0207      0.028     -0.140     -0.203         56 1.3457e+03 0.0000e+00
     -0.140    24.1850     8.2245     98.017  27.866116     28.328      8.783   264.0045     2.0259     3.9786     0.0207      0.027     -0.137     -0.199         57 1.3538e+03 0.0000e+00
     -0.137    24.1816     8.2185     97.941  27.870676     28.328      8.791   263.8152     2.0461     4.0592     0.0207      0.023     -0.136     -0.197         58 1.3530e+03 0.0000e+00
     -0.138    24.1781     8.1978     97.689  27.876411     28.329      8.791   264.5345     2.0421     3.8041     0.0207      0.014     -0.136     -0.197         59 1.3490e+03 0.0000e+00
     -0.140    24.1756     8.1652     97.287  27.918273     28.388      8.794   264.1938     2.0259     3.7772     0.0208      0.009     -0.136     -0.197         60 1.3444e+03 0.0000e+00
     -0.139    24.1740     8.1215     96.758  27.877875     28.333      8.799   263.5881     2.0138     3.8041     0.0207      0.007     -0.135     -0.196         61 1.3433e+03 0.0000e+00
     -0.135    24.1734     8.0859     96.332  27.867394     28.335      8.807   263.4367     2.0380     3.7772     0.0207      0.006     -0.132     -0.192         62 1.3436e+03 0.0000e+00
     -0.131    24.1726     8.0617     96.046  27.872024     28.336      8.807   263.7017     2.1553     3.7907     0.0207      0.006     -0.130     -0.189         63 1.3434e+03 0.0000e+00
     -0.132    24.1710     8.0471     95.878  27.872113     28.336      8.808   263.6638     2.1634     3.8712     0.0207      0.005     -0.130     -0.189         64 1.3435e+03 0.0000e+00
     -0.135    24.1694     8.0317     95.699  27.926576     28.393      8.813   263.3610     2.1391     3.7235     0.0208      0.004     -0.131     -0.191         65 1.3437e+03 0.0000e+00
     -0.136    24.1682     8.0193     95.555  27.922832     28.394      8.811   262.6417     2.1634     3.8309     0.0208      0.003     -0.132     -0.192         66 1.3446e+03 0.0000e+00
     -0.134    24.1665     8.0155     95.508  27.876774     28.338      8.804   262.4524     2.2321     3.8578     0.0207      0.002     -0.132     -0.192         67 1.3477e+03 0.0000e+00
     -0.135    24.1645     8.0203     95.565  27.865309     28.339      8.799   262.3767     2.2362     3.8309     0.0207      0.002     -0.133     -0.193         68 1.3496e+03 0.0000e+00
     -0.136    24.1607     8.0322     95.706  27.877808     28.340      8.799   261.4302     2.2159     3.7907     0.0207     -0.000     -0.133     -0.193         69 1.3460e+03 0.0000e+00
     -0.135    24.1538     8.0341     95.726  27.920514     28.398      8.790   261.7709     2.2079     3.7504     0.0208     -0.001     -0.132     -0.191         70 1.3416e+03 0.0000e+00
     -0.132    24.1491     8.0313     95.693  27.930748     28.400      8.788   261.5817     2.2443     3.7907     0.0208     -0.001     -0.129     -0.188         71 1.3387e+03 0.0000e+00
     -0.130    24.1477     8.0103     95.446  27.924366     28.404      8.794   260.6731     2.2240     4.0592     0.0208      0.001     -0.127     -0.185         72 1.3388e+03 0.0000e+00
     -0.129    24.1491     7.9621     94.877  27.928460     28.407      8.797   261.0517     2.2443     4.0055     0.0208      0.003     -0.126     -0.183         73 1.3322e+03 0.0000e+00
     -0.128    24.1525     7.8903     94.022  27.984947     28.465      8.801   261.3924     2.2362     3.9786     0.0208      0.004     -0.126     -0.183         74 1.3371e+03 0.0000e+00
     -0.129    24.1552     7.7970     92.910  27.972655     28.464      8.804   259.5374     2.2281     4.0055     0.0208      0.004     -0.126     -0.183         75 1.3360e+03 0.0000e+00
     -0.128    24.1568     7.7023     91.780  28.003051     28.462      8.788   258.6667     2.2159     4.0324     0.0208      0.004     -0.125     -0.181         76 1.3420e+03 0.0000e+00
     -0.125    24.1567     7.5960     90.514  28.154646     28.659      8.777   259.1209     2.2240     3.9786     0.0209      0.004     -0.125     -0.180         77 1.3359e+03 0.0000e+00
     -0.129    24.1560     7.4976     89.343  28.199051     28.658      8.773   259.6888     2.2200     4.0861     0.0209      0.003     -0.127     -0.183         78 1.3543e+03 0.0000e+00
     -0.133    24.1554     7.3898     88.061  28.214611     28.715      8.781   259.2345     2.2240     4.0458     0.0209      0.000     -0.129     -0.187         79 1.3232e+03 0.0000e+00
     -0.133    24.1543     7.2924     86.901  28.194576     28.659      8.788   258.2502     2.2362     3.7504     0.0209     -0.002     -0.130     -0.189         80 1.1877e+03 0.0000e+00
     -0.132    24.1544     7.1982     85.781  28.164690     28.659      8.787   257.9474     2.2038     3.7638     0.0209     -0.002     -0.129     -0.188         81 1.1805e+03 0.0000e+00
     -0.131    24.1564     7.1156     84.799  28.133215     28.603      8.786   258.5531     2.2240     3.8309     0.0208     -0.002     -0.129     -0.187         82 1.2012e+03 0.0000e+00
     -0.133    24.1586     7.0374     83.869  28.115158     28.603      8.786   258.4774     2.1998     3.7772     0.0208     -0.003     -0.130     -0.188         83 1.1849e+03 0.0000e+00
     -0.133    24.1595     6.9703     83.072  28.127869     28.602      8.787   258.0231     2.1796     3.8712     0.0208     -0.003     -0.130     -0.188         84 1.1948e+03 0.0000e+00
     -0.132    24.1591     6.9042     82.287  28.176691     28.657      8.787   257.3416     2.1634     3.7907     0.0209     -0.002     -0.129     -0.187         85 1.1862e+03 0.0000e+00
     -0.130    24.1586     6.8475     81.613  28.172986     28.657      8.787   256.3574     2.1715     3.8846     0.0209     -0.000     -0.127     -0.185         86 1.1537e+03 0.0000e+00
     -0.130    24.1590     6.7845     80.865  28.132479     28.600      8.789   257.4931     2.1593     3.7907     0.0208      0.001     -0.127     -0.185         87 1.1269e+03 0.0000e+00
     -0.131    24.1599     6.7346     80.272  28.167807     28.657      8.792   257.6824     2.1391     3.7907     0.0209      0.001     -0.128     -0.186         88 1.1295e+03 0.0000e+00
     -0.131    24.1610     6.6850     79.683  28.129021     28.600      8.796   256.3952     2.1715     3.8578     0.0208      0.001     -0.128     -0.186         89 1.1327e+03 0.0000e+00
     -0.131    24.1620     6.6380     79.125  28.121455     28.600      8.805   256.5466     2.1796     3.8309     0.0208      0.001     -0.128     -0.186         90 1.1349e+03 0.0000e+00
     -0.130    24.1631     6.5926     78.586  28.177223     28.656      8.810   255.8274     2.1553     3.8309     0.0209      0.001     -0.127     -0.185         91 1.1347e+03 0.0000e+00
     -0.130    24.1647     6.5484     78.062  28.178205     28.655      8.815   256.3574     2.1432     3.7369     0.0209      0.001     -0.127     -0.185         92 1.1354e+03 0.0000e+00
     -0.130    24.1662     6.5056     77.555  28.120232     28.598      8.815   256.2816     2.1391     3.8175     0.0208      0.000     -0.127     -0.185         93 1.1357e+03 0.0000e+00
     -0.129    24.1678     6.4589     77.001  28.130781     28.597      8.817   255.8274     2.1796     3.7235     0.0208      0.000     -0.127     -0.184         94 1.1358e+03 0.0000e+00
     -0.129    24.1694     6.4143     76.470  28.165077     28.653      8.818   255.6759     2.1755     3.8309     0.0209      0.001     -0.127     -0.184         95 1.1368e+03 0.0000e+00
     -0.129    24.1708     6.3719     75.969  28.136845     28.595      8.818   255.2595     2.1593     3.7772     0.0208      0.001     -0.127     -0.184         96 1.1417e+03 0.0000e+00
     -0.130    24.1723     6.3357     75.539  28.165914     28.651      8.822   255.7895     2.2362     3.7638     0.0209      0.001     -0.127     -0.185         97 1.1445e+03 0.0000e+00
     -0.131    24.1740     6.2940     75.043  28.188194     28.650      8.817   255.7138     2.2564     3.8846     0.0209      0.000     -0.128     -0.186         98 1.1447e+03 0.0000e+00
     -0.131    24.1756     6.2610     74.652  28.168412     28.649      8.815   255.7138     2.2362     3.7772     0.0209     -0.001     -0.128     -0.186         99 1.1452e+03 0.0000e+00
     -0.131    24.1770     6.2273     74.253  28.131238     28.591      8.816   255.5624     2.2483     3.8444     0.0208     -0.001     -0.128     -0.186        100 1.1474e+03 0.0000e+00
     -0.130    24.1787     6.1884     73.792  28.175161     28.647      8.813   255.7138     2.3453     3.9786     0.0209     -0.001     -0.127     -0.185        101 1.1504e+03 0.0000e+00
     -0.130    24.1805     6.1574     73.424  28.173043     28.647      8.808   255.6002     2.3534     4.0458     0.0209     -0.001     -0.127     -0.185        102 1.1492e+03 0.0000e+00
     -0.131    24.1821     6.1246     73.035  28.133873     28.589      8.806   255.4866     2.3898     4.0324     0.0208     -0.001     -0.128     -0.186        103 1.1500e+03 0.0000e+00
     -0.131    24.1838     6.0933     72.664  28.164614     28.644      8.804   255.0702     2.3494     3.9384     0.0209     -0.001     -0.129     -0.187        104 1.1513e+03 0.0000e+00
     -0.131    24.1856     6.0623     72.297  28.134786     28.587      8.805   254.9188     2.4424     3.9652     0.0208     -0.000     -0.129     -0.187        105 1.1498e+03 0.0000e+00
     -0.132    24.1875     6.0381     72.010  28.170993     28.643      8.804   254.1995     2.4100     4.0189     0.0209     -0.000     -0.130     -0.188        106 1.1529e+03 0.0000e+00
     -0.133    24.1888     6.0047     71.614  28.178849     28.641      8.806   254.3509     2.4060     3.9652     0.0209     -0.001     -0.131     -0.190        107 1.1567e+03 0.0000e+00
     -0.133    24.1905     5.9774     71.290  28.125008     28.584      8.806   254.8431     2.4141     4.0324     0.0208     -0.002     -0.131     -0.190        108 1.1572e+03 0.0000e+00
     -0.134    24.1924     5.9502     70.967  28.119407     28.583      8.803   255.1459     2.3817     3.8846     0.0208     -0.002     -0.131     -0.191        109 1.1556e+03 0.0000e+00
     -0.134    24.1939     5.9262     70.682  28.126525     28.582      8.801   254.9188     2.3696     3.9786     0.0208     -0.002     -0.131     -0.191        110 1.1537e+03 0.0000e+00
     -0.133    24.1955     5.8989     70.359  28.116152     28.581      8.800   254.6159     2.3656     3.9115     0.0208     -0.002     -0.131     -0.190        111 1.1542e+03 0.0000e+00
     -0.132    24.1971     5.8548     69.834  28.132317     28.580      8.798   254.3131     2.3656     4.0592     0.0208     -0.001     -0.130     -0.189        112 1.1521e+03 0.0000e+00
     -0.133    24.1987     5.8495     69.773  28.165701     28.636      8.798   254.0859     2.3534     4.0055     0.0209     -0.000     -0.130     -0.189        113 1.1503e+03 0.0000e+00
     -0.133    24.2003     5.8278     69.514  28.133898     28.578      8.798   254.5781     2.3413     4.0592     0.0208      0.000     -0.130     -0.189        114 1.1497e+03 0.0000e+00
     -0.133    24.2017     5.8065     69.262  28.171893     28.634      8.798   254.0481     2.3373     3.9518     0.0209      0.000     -0.130     -0.189        115 1.1465e+03 0.0000e+00
     -0.133    24.2032     5.7849     69.007  28.177708     28.633      8.797   253.9345     2.3656     4.0055     0.0209      0.001     -0.130     -0.189        116 1.1446e+03 0.0000e+00
     -0.133    24.2048     5.7691     68.819  28.185953     28.632      8.797   253.3666     2.3817     4.0189     0.0209      0.000     -0.131     -0.190        117 1.1409e+03 0.0000e+00
     -0.133    24.2063     5.7494     68.584  28.220928     28.688      8.797   254.0481     2.3373     3.5758     0.0209      0.000     -0.131     -0.190        118 1.1371e+03 0.0000e+00
     -0.134    24.2075     5.7328     68.389  28.134185     28.574      8.795   254.4266     2.3373     3.5355     0.0208     -0.000     -0.131     -0.190        119 1.1347e+03 0.0000e+00
     -0.134    24.2087     5.7150     68.177  28.116020     28.573      8.795   253.3666     2.3615     3.5221     0.0208     -0.001     -0.131     -0.190        120 1.1333e+03 0.0000e+00
     -0.133    24.2099     5.6878     67.855  28.184239     28.629      8.798   253.4424     2.3656     3.4818     0.0209     -0.000     -0.130     -0.189        121 1.1312e+03 0.0000e+00
     -0.132    24.2112     5.6736     67.687  28.167877     28.628      8.796   253.2531     2.3615     3.9384     0.0209      0.000     -0.129     -0.187        122 1.1267e+03 0.0000e+00
     -0.131    24.2125     5.6599     67.524  28.136382     28.571      8.796   253.0638     2.3736     3.9921     0.0208      0.001     -0.129     -0.187        123 1.1233e+03 0.0000e+00
     -0.132    24.2136     5.6383     67.268  28.164138     28.627      8.795   252.5716     2.3736     4.0189     0.0209      0.001     -0.129     -0.187        124 1.1222e+03 0.0000e+00
     -0.131    24.2147     5.6317     67.190  28.192628     28.626      8.797   252.2309     2.3615     3.9384     0.0209      0.001     -0.129     -0.187        125 1.1212e+03 0.0000e+00
     -0.132    24.2157     5.6163     67.008  28.219514     28.682      8.795   252.1173     2.3575     3.7907     0.0209      0.001     -0.129     -0.187        126 1.1181e+03 0.0000e+00
     -0.131    24.2167     5.6013     66.829  28.189972     28.624      8.793   252.4581     2.3615     3.8309     0.0209      0.001     -0.129     -0.187        127 1.1183e+03 0.0000e+00
     -0.130    24.2175     5.5891     66.686  28.170098     28.624      8.787   252.5716     2.3292     3.7638     0.0209      0.001     -0.128     -0.186        128 1.1158e+03 0.0000e+00
     -0.130    24.2187     5.5742     66.509  28.184953     28.623      8.783   252.6852     2.3373     3.7772     0.0209      0.001     -0.128     -0.185        129 1.1106e+03 0.0000e+00
     -0.130    24.2200     5.5598     66.338  28.171485     28.623      8.782   252.2688     2.4505     3.8981     0.0209      0.001     -0.128     -0.185        130 1.1097e+03 0.0000e+00
     -0.131    24.2213     5.5489     66.210  28.127564     28.565      8.775   251.6631     2.4060     3.9786     0.0208      0.000     -0.128     -0.185        131 1.1074e+03 0.0000e+00
     -0.130    24.2223     5.5367     66.064  28.121024     28.565      8.775   251.7766     2.3979     4.0324     0.0208      0.001     -0.128     -0.185        132 1.1087e+03 0.0000e+00
     -0.130    24.2232     5.5246     65.922  28.120330     28.564      8.774   251.8902     2.4383     4.0592     0.0208      0.001     -0.128     -0.186        133 1.1104e+03 0.0000e+00
     -0.131    24.2242     5.5155     65.815  28.128428     28.563      8.772   252.1552     2.4343     3.9115     0.0208      0.000     -0.129     -0.187        134 1.1091e+03 0.0000e+00
     -0.132    24.2250     5.5074     65.719  28.170239     28.620      8.774   251.4359     2.3130     3.8309     0.0209     -0.001     -0.129     -0.187        135 1.1096e+03 0.0000e+00
     -0.131    24.2259     5.4969     65.594  28.186883     28.619      8.778   251.0952     2.3009     3.8041     0.0209     -0.001     -0.129     -0.187        136 1.1089e+03 0.0000e+00
     -0.131    24.2268     5.4950     65.569  28.167008     28.619      8.774   251.8523     2.2968     3.7907     0.0209     -0.001     -0.129     -0.187        137 1.1085e+03 0.0000e+00
     -0.130    24.2279     5.4830     65.423  28.135681     28.561      8.772   251.7009     2.3211     3.7638     0.0208     -0.000     -0.128     -0.186        138 1.1058e+03 0.0000e+00
     -0.130    24.2289     5.4700     65.264  28.166576     28.618      8.769   251.5116     2.2240     4.0458     0.0209     -0.000     -0.127     -0.185        139 1.1061e+03 0.0000e+00
     -0.129    24.2296     5.4596     65.135  28.128558     28.560      8.769   251.2466     2.2281     4.0324     0.0208      0.001     -0.126     -0.183        140 1.1076e+03 0.0000e+00
     -0.126    24.2304     5.4448     64.957  28.123698     28.560      8.768   251.7009     2.2159     3.9921     0.0208      0.002     -0.124     -0.180        141 1.1062e+03 0.0000e+00
     -0.126    24.2311     5.4338     64.825  28.113330     28.559      8.767   251.2466     2.2321     3.9786     0.0208      0.003     -0.124     -0.179        142 1.1062e+03 0.0000e+00
     -0.126    24.2324     5.4190     64.643  28.052522     28.474      8.769   251.2845     2.2806     3.9786     0.0208      0.004     -0.125     -0.181        143 1.1118e+03 0.0000e+00
     -0.129    24.2340     5.4179     64.635  28.110432     28.558      8.770   250.7545     2.2968     3.9786     0.0208      0.002     -0.126     -0.184        144 1.1111e+03 0.0000e+00
     -0.130    24.2344     5.4317     64.902  28.130200     28.558      8.770   250.0731     2.2968     4.0055     0.0208      0.001     -0.126     -0.184        145 1.1205e+03 0.0000e+00
     -0.126    24.2346     5.5289     66.179  28.116861     28.557      8.773   250.1488     2.2726     4.0055     0.0208      0.001     -0.124     -0.180        146 1.1162e+03 0.0000e+00
     -0.123    24.2333     5.7801     69.241  28.127033     28.556      8.768   249.9595     2.3736     3.8309     0.0208      0.002     -0.119     -0.172        147 1.1372e+03 0.0000e+00
     -0.115    24.2305     6.1556     73.739  28.176834     28.613      8.761   249.3916     2.3534     3.7504     0.0209      0.004     -0.112     -0.162        148 1.1154e+03 0.0000e+00
     -0.104    24.2270     6.6087     79.122  28.173470     28.614      8.769   248.8995     2.3736     3.7101     0.0209      0.009     -0.102     -0.149        149 8.7042e+02 0.0000e+00
     -0.095    24.2242     7.0408     84.235  28.131219     28.559      8.785   249.3159     2.3575     3.7638     0.0208      0.015     -0.092     -0.134        150 8.7632e+02 0.0000e+00
     -0.083    24.2214     7.4274     88.801  28.110829     28.560      8.802   249.2402     2.4262     3.9384     0.0208      0.022     -0.082     -0.119        151 1.0842e+03 0.0000e+00
     -0.074    24.2220     7.7242     92.299  28.020967     28.449      8.815   247.8773     2.4181     3.9786     0.0208      0.029     -0.072     -0.104        152 8.7488e+02 0.0000e+00
     -0.061    24.2150     7.9148     94.537  28.035525     28.478      8.825   238.2616     2.4424     3.9921     0.0208      0.035     -0.060     -0.086        153 5.9369e+02 0.0000e+00
     -0.043    24.2248     7.9872     95.378  28.033419     28.479      8.796   237.9966     2.4343     3.8578     0.0208      0.040     -0.054     -0.078        154 5.0632e+02 0.0000e+00
     -0.061    24.3059     7.9388     94.779  27.934649     28.368      8.794   239.0566     2.4222     3.9249     0.0208      0.037     -0.075     -0.109        155 8.5833e+02 0.0000e+00
     -0.125    24.3999     7.8187     93.329  27.921269     28.365      8.807   238.7916     2.4909     4.0324     0.0208      0.014     -0.133     -0.194        156 1.0765e+03 0.0000e+00
     -0.222    24.4425     7.6626     91.460  27.872181     28.260      8.806   239.2837     2.4909     3.9786     0.0208     -0.032     -0.218     -0.316        157 9.8232e+02 0.0000e+00
     -0.319    24.4426     7.4923     89.423  27.817833     28.149      8.821   250.6788     2.4990     3.9786     0.0207     -0.092     -0.302     -0.438        158 1.3037e+03 0.0000e+00
     -0.380    24.4128     7.3252     87.420  27.870287     28.182      8.844   249.8459     2.4869     4.0055     0.0208     -0.152     -0.364     -0.528        159 1.0787e+03 0.0000e+00
     -0.417    24.3736     7.1687     85.546  27.925471     28.238      8.854   250.4895     2.1917     3.6295     0.0208     -0.199     -0.403     -0.584        160 5.9758e+02 0.0000e+00
     -0.436    24.3384     7.0297     83.884  27.927035     28.255      8.852   249.9595     2.1553     3.6698     0.0208     -0.226     -0.422     -0.612        161 5.8138e+02 0.0000e+00
     -0.438    24.3090     6.9159     82.522  27.927642     28.278      8.840   250.1488     2.1715     3.4818     0.0208     -0.226     -0.425     -0.615        162 6.4116e+02 0.0000e+00
     -0.425    24.2869     6.8172     81.342  27.924728     28.298      8.834   250.4138     2.1593     3.5758     0.0208     -0.191     -0.412     -0.597        163 9.5352e+02 0.0000e+00
     -0.396    24.2730     6.7418     80.441  27.871381     28.258      8.833   249.3916     2.7618    13.8079     0.0208     -0.130     -0.393     -0.569        164 1.3509e+03 0.0000e+00
     -0.383    24.2614     6.6710     79.595  27.875458     28.271      8.834   249.8838     2.7457    13.6468     0.0207     -0.064     -0.380     -0.551        165 1.4541e+03 0.0000e+00
     -0.386    24.2521     6.6131     78.903  27.919664     28.335      8.842   249.2402     2.7376    13.7139     0.0208     -0.014     -0.380     -0.551        166 1.1985e+03 0.0000e+00
     -0.392    24.2486     6.5658     78.338  27.875666     28.286      8.847   249.6188     2.7214    13.6333     0.0207      0.013     -0.385     -0.559        167 9.5998e+02 0.0000e+00
     -0.401    24.2457     6.5323     77.939  27.870926     28.291      8.849   249.4673     1.8520     3.7235     0.0207      0.022     -0.391     -0.566        168 1.0150e+03 0.0000e+00
     -0.400    24.2404     6.4983     77.532  27.866275     28.293      8.851   249.6566     1.8439     3.8578     0.0207      0.022     -0.391     -0.566        169 1.1649e+03 0.0000e+00
     -0.392    24.2364     6.4745     77.248  27.822162     28.238      8.849   249.7323     1.8399     3.7504     0.0207      0.016     -0.386     -0.559        170 1.1498e+03 0.0000e+00
     -0.387    24.2342     6.4752     77.254  27.866532     28.298      8.840   249.6945     1.8439     3.8846     0.0207      0.007     -0.383     -0.555        171 1.0335e+03 0.0000e+00
     -0.391    24.2315     6.6177     78.933  27.870352     28.300      8.838   250.0352     1.8520    11.6057     0.0207     -0.001     -0.384     -0.556        172 8.8943e+02 0.0000e+00
     -0.394    24.2302     7.0562     84.139  27.817409     28.244      8.837   249.4673     1.8642    11.5386     0.0207     -0.003     -0.386     -0.559        173 8.5240e+02 0.0000e+00
     -0.394    24.2294     7.7028     91.835  27.813835     28.246      8.837   249.2023     1.8803    11.6057     0.0207     -0.000     -0.386     -0.559        174 8.0119e+02 0.0000e+00
     -0.390    24.2287     8.3318     99.325  27.815508     28.247      8.837   249.2023     1.8278    11.4983     0.0207      0.003     -0.384     -0.557        175 5.5520e+02 0.0000e+00
     -0.391    24.2282     8.8991    106.082  27.815327     28.247      8.830   249.0509     1.8358    11.5654     0.0207      0.004     -0.386     -0.560        176 4.8762e+02 0.0000e+00
     -0.401    24.2276     9.3464    111.411  27.814061     28.248      8.827   249.6566     1.9005     3.7638     0.0207     -0.001     -0.394     -0.571        177 6.1877e+02 0.0000e+00
     -0.414    24.2278     9.6991    115.609  27.817083     28.248      8.832   248.2559     1.9046     3.7504     0.0207     -0.008     -0.406     -0.588        178 9.9120e+02 0.0000e+00
     -0.428    24.2268     9.8943    117.931  27.811565     28.248      8.841   249.6566     1.9127     3.7504     0.0207     -0.016     -0.417     -0.605        179 1.1712e+03 0.0000e+00
     -0.435    24.2273     9.9607    118.712  27.820928     28.248      8.844   249.1645     1.9046     3.7101     0.0207     -0.021     -0.425     -0.616        180 1.0384e+03 0.0000e+00
     -0.436    24.2249     9.8966    117.933  27.805432     28.249      8.847   248.6345     0.4206     2.2733     0.0207     -0.025     -0.425     -0.616        181 8.9849e+02 0.0000e+00
     -0.428    24.2108     9.7716    116.435  27.712266     28.135      8.853   249.1266     0.4287     2.3002     0.0207     -0.025     -0.419     -0.607        182 6.3062e+02 0.0000e+00
     -0.416    24.1952     9.6615    115.123  27.699702     28.136      8.854   247.8395     0.4327     2.3404     0.0207     -0.020     -0.409     -0.593        183 5.2139e+02 0.0000e+00
     -0.408    24.1872     9.5677    114.012  27.702484     28.144      8.850   248.9752     0.4367     2.3002     0.0207     -0.010     -0.402     -0.582        184 5.2495e+02 0.0000e+00
     -0.404    24.1825     9.5023    113.236  27.768100     28.210      8.853   247.6880     0.6996     7.5773     0.0207      0.002     -0.399     -0.577        185 5.2692e+02 0.0000e+00
     -0.405    24.1795     9.4389    112.481  27.795926     28.271      8.851   248.6723     0.6794     7.6310     0.0207      0.012     -0.399     -0.578        186 5.1364e+02 0.0000e+00
     -0.408    24.1775     9.3875    111.868  27.727152     28.160      8.848   248.7859     0.7077     7.6579     0.0207      0.016     -0.400     -0.581        187 5.3544e+02 0.0000e+00
     -0.411    24.1751     9.3536    111.464  27.735105     28.219      8.849   247.0445     0.7319     7.6042     0.0207      0.015     -0.401     -0.583        188 5.0195e+02 0.0000e+00
     -0.408    24.1727     9.3252    111.122  27.726737     28.163      8.852   248.8995     0.5257    21.3544     0.0207      0.012     -0.399     -0.580        189 5.7419e+02 0.0000e+00
     -0.404    24.1679     9.3027    110.846  27.737568     28.222      8.849   248.4452     0.5257    21.4215     0.0207      0.007     -0.395     -0.573        190 1.0729e+03 0.0000e+00
     -0.398    24.1614     9.2861    110.641  27.721627     28.166      8.848   248.0288     0.5055    21.4752     0.0207      0.005     -0.387     -0.562        191 1.4173e+03 0.0000e+00
     -0.384    24.1574     9.2800    110.562  27.746574     28.226      8.850   248.4831     0.4974    21.4350     0.0207      0.008     -0.372     -0.540        192 1.5203e+03 0.0000e+00
     -0.357    24.1575     9.2587    110.299  27.706523     28.173      8.851   247.1202     1.6256    24.1206     0.0207      0.019     -0.348     -0.505        193 1.5752e+03 0.0000e+00
     -0.326    24.1602     9.2615    110.324  27.652889     28.118      8.848   248.0288     1.6458    24.1206     0.0207      0.035     -0.322     -0.467        194 1.5718e+03 0.0000e+00
     -0.303    24.1621     9.2569    110.265  27.635446     28.118      8.840   245.3030     1.6862    24.1340     0.0207      0.052     -0.301     -0.437        195 1.6214e+03 0.0000e+00
     -0.292    24.1619     9.2559    110.251  27.580001     28.031      8.846   245.0002     1.6579    24.1743     0.0206      0.065     -0.289     -0.420        196 1.6353e+03 0.0000e+00
     -0.288    24.1619     9.2537    110.191  27.632952     28.115      8.845   247.4230     1.6458    24.1743     0.0207      0.070     -0.289     -0.419        197 1.6400e+03 0.0000e+00
     -0.307    24.1620     9.2480    110.079  27.658487     28.115      8.839   246.7038     1.8561     3.7369     0.0207      0.063     -0.296     -0.428        198 1.6187e+03 0.0000e+00
     -0.308    24.1601     9.2431    110.012  27.637160     28.116      8.848   245.9845     1.8197     3.7235     0.0207      0.050     -0.295     -0.427        199 1.6009e+03 0.0000e+00
     -0.287    24.1564     9.2406    109.952  27.659492     28.115      8.852   244.2430     1.8803     3.7772     0.0207      0.038     -0.278     -0.401        200 1.6186e+03 0.0000e+00
     -0.253    24.1531     9.2395    109.895  27.630694     28.116      8.844   242.9180     1.8237     3.7504     0.0207      0.033     -0.249     -0.360        201 1.6614e+03 0.0000e+00
     -0.221    24.1497     9.2361    109.820  27.584060     28.033      8.843   234.7030     1.8399     3.9518     0.0206      0.037     -0.220     -0.319        202 1.6149e+03 0.0000e+00
     -0.200    24.1457     9.2439    109.892  27.628591     28.121      8.843   233.7187     1.8358     4.0995     0.0207      0.047     -0.195     -0.282        203 1.6315e+03 0.0000e+00
     -0.174    24.1414     9.2572    110.044  27.575280     28.037      8.841   239.4730     1.8601     3.9652     0.0206      0.063     -0.170     -0.246        204 1.5152e+03 0.0000e+00
     -0.146    24.1395     9.2747    110.241  27.561468     28.039      8.843   242.6909     1.8278     4.0324     0.0206      0.082     -0.144     -0.208        205 6.9450e+02 0.0000e+00
     -0.121    24.1381     9.3016    110.539  27.586488     28.070      8.847   242.9938     2.0259     3.8981     0.0206      0.099     -0.115     -0.168        206 5.5816e+02 0.0000e+00
     -0.085    24.1213     9.3101    110.628  27.514498     27.986      8.847   235.8387     2.0340     3.9249     0.0206      0.108     -0.085     -0.124        207 9.9741e+02 0.0000e+00
     -0.054    24.1016     9.3082    110.596  27.502830     27.987      8.834   234.5516     2.0259     4.0324     0.0206      0.110     -0.060     -0.087        208 7.4338e+02 0.0000e+00
     -0.048    24.0957     9.2997    110.495  27.512074     27.996      8.828   240.9116     2.0421     3.9921     0.0206      0.105     -0.045     -0.065        209 8.5084e+02 0.0000e+00
     -0.034    24.0820     9.2810    110.281  27.502999     28.008      8.835   240.7602     2.2726     3.9249     0.0206      0.098     -0.029     -0.042        210 7.7655e+02 0.0000e+00
     -0.005    24.0604     9.2540    109.973  27.514130     28.011      8.845   240.2302     2.2847     3.9518     0.0206      0.095     -0.002     -0.003        211 4.2856e+02 0.0000e+00
      0.035    24.0431     9.2362    109.766  27.527873     28.048      8.843   239.5109     2.2806     3.9921     0.0206      0.096      0.029      0.043        212 4.0467e+02 0.0000e+00
      0.061    24.0331     9.2299    109.693  27.456255     27.974      8.841   231.1823     2.2847     3.9115     0.0206      0.096      0.053      0.077        213 5.5049e+02 0.0000e+00
      0.067    24.0304     9.2132    109.490  27.455033     27.984      8.842   230.2359     2.3130     3.8712     0.0206      0.092      0.067      0.096        214 9.2176e+02 0.0000e+00
      0.077    24.0245     9.2018    109.341  27.499755     28.047      8.848   229.3273     2.2847     3.8309     0.0206      0.085      0.081      0.116        215 6.3902e+02 0.0000e+00
      0.105    24.0146     9.2002    109.318  27.459898     27.991      8.853   229.0623     2.2928     3.8041     0.0206      0.084      0.101      0.146        216 3.8430e+02 0.0000e+00
      0.125    24.0078     9.2319    109.693  27.445345     27.995      8.853   229.0244     2.3130     3.8578     0.0206      0.085      0.119      0.173        217 4.6082e+02 0.0000e+00
      0.135    24.0042     9.2492    109.896  27.458575     28.001      8.852   229.1759     2.2766     3.8175     0.0206      0.080      0.129      0.186        218 3.0441e+02 0.0000e+00
      0.132    24.0037     9.2682    110.115  27.473082     28.033      8.846   229.1001     2.3939     3.8309     0.0206      0.067      0.130      0.187        219 2.4952e+02 0.0000e+00
      0.129    24.0082     9.2697    110.126  27.456939     28.007      8.848   229.1001     2.3656     3.7369     0.0206      0.051      0.130      0.187        220 2.7236e+02 0.0000e+00
      0.133    24.0139     9.2698    110.123  27.449019     28.007      8.852   228.8351     2.3656     3.7369     0.0206      0.040      0.136      0.197        221 2.3782e+02 0.0000e+00
      0.156    24.0164     9.2753    110.189  27.453293     28.004      8.856   229.3273     2.3656     3.8041     0.0206      0.038      0.154      0.224        222 2.1142e+02 0.0000e+00
      0.184    24.0173     9.2819    110.267  27.451619     28.001      8.844   229.2516     2.4181     3.7235     0.0206      0.039      0.178      0.258        223 2.2847e+02 0.0000e+00
      0.202    24.0145     9.2939    110.399  27.451100     28.000      8.834   229.0623     2.3979     3.7907     0.0206      0.040      0.200      0.290        224 2.2828e+02 0.0000e+00
      0.228    24.0088     9.3001    110.456  27.453938     27.999      8.835   229.4409     2.4262     3.7504     0.0206      0.048      0.223      0.323        225 2.1729e+02 0.0000e+00
      0.250    24.0065     9.3041    110.487  27.477734     28.029      8.836   230.1601     2.4222     3.7504     0.0206      0.062      0.243      0.352        226 2.0596e+02 0.0000e+00
      0.263    24.0056     9.3102    110.540  27.510427     28.061      8.835   229.7059     2.5030     3.9786     0.0206      0.073      0.258      0.374        227 1.9276e+02 0.0000e+00
      0.275    24.0044     9.3099    110.521  27.502193     28.062      8.840   230.2737     2.4869     3.9518     0.0206      0.079      0.274      0.396        228 1.8483e+02 0.0000e+00
      0.299    24.0014     9.3082    110.491  27.458336     28.006      8.845   231.2580     2.4909     3.9518     0.0206      0.081      0.294      0.426        229 1.7721e+02 0.0000e+00
      0.323    23.9975     9.2912    110.286  27.446422     28.006      8.844   231.1066     2.4828     3.9384     0.0206      0.078      0.315      0.457        230 1.6392e+02 0.0000e+00
      0.342    23.9958     9.2770    110.116  27.457728     28.008      8.844   231.3716     2.8104     3.9786     0.0206      0.076      0.334      0.485        231 1.6153e+02 0.0000e+00
      0.356    23.9959     9.2745    110.087  27.473913     28.039      8.843   231.5987     2.8063     3.9786     0.0206      0.075      0.348      0.505        232 1.5312e+02 0.0000e+00
      0.365    23.9956     9.2646    109.973  27.455928     28.011      8.846   231.9773     2.8144     3.9115     0.0206      0.070      0.359      0.520        233 1.5354e+02 0.0000e+00
      0.375    23.9908     9.2552    109.864  27.450466     28.011      8.848   231.9394     2.7901     3.9384     0.0206      0.066      0.370      0.536        234 1.5272e+02 0.0000e+00
      0.392    23.9831     9.2578    109.896  27.451065     28.011      8.852   232.3180     2.8751     4.0189     0.0206      0.064      0.383      0.555        235 1.4867e+02 0.0000e+00
      0.405    23.9748     9.2690    110.026  27.455181     28.014      8.847   232.5073     2.8872     3.9249     0.0206      0.060      0.397      0.575        236 1.5173e+02 0.0000e+00
      0.417    23.9654     9.2771    110.114  27.445345     28.019      8.851   232.0530     2.8548     4.0324     0.0206      0.054      0.409      0.594        237 1.4727e+02 0.0000e+00
      0.430    23.9576     9.2839    110.191  27.404019     27.966      8.853   232.7723     2.8751     4.0324     0.0205      0.051      0.420      0.610        238 1.4379e+02 0.0000e+00
      0.439    23.9531     9.2807    110.146  27.417676     28.000      8.845   232.3559     2.8427     3.8981     0.0206      0.049      0.429      0.622        239 1.4261e+02 0.0000e+00
      0.444    23.9513     9.2694    110.006  27.398705     27.976      8.844   232.7723     2.9640     3.9384     0.0205      0.046      0.434      0.630        240 1.3815e+02 0.0000e+00
      0.446    23.9510     9.2675    109.981  27.397985     27.979      8.842   232.5830     2.9357     3.9652     0.0205      0.043      0.439      0.636        241 1.3263e+02 0.0000e+00
      0.453    23.9513     9.2704    110.011  27.388928     27.980      8.846   232.6209     2.9559     3.9786     0.0205      0.038      0.446      0.646        242 1.3059e+02 0.0000e+00
      0.465    23.9528     9.2727    110.036  27.409977     27.980      8.848   232.7344     2.9559     3.9518     0.0205      0.033      0.457      0.663        243 1.2744e+02 0.0000e+00
      0.481    23.9539     9.2754    110.067  27.431083     28.037      8.851   232.7344     3.0085     3.8175     0.0206      0.033      0.472      0.685        244 1.2382e+02 0.0000e+00
      0.498    23.9543     9.2788    110.105  27.421954     27.979      8.854   233.3780     2.9964     3.7504     0.0205      0.035      0.487      0.708        245 1.2413e+02 0.0000e+00
      0.514    23.9529     9.2831    110.154  27.450983     28.064      8.851   233.9080     3.0085     3.7504     0.0206      0.040      0.502      0.728        246 1.2154e+02 0.0000e+00
      0.523    23.9495     9.2752    110.060  27.424603     27.978      8.843   233.3402     2.9721     3.6832     0.0205      0.044      0.513      0.744        247 1.1983e+02 0.0000e+00
      0.531    23.9471     9.2736    110.038  27.425138     28.036      8.842   233.2266     3.2309     3.9786     0.0206      0.048      0.523      0.759        248 1.1752e+02 0.0000e+00
      0.547    23.9441     9.2725    110.020  27.361379     27.924      8.845   233.5673     3.2026     3.9786     0.0205      0.052      0.537      0.779        249 1.1372e+02 0.0000e+00
      0.566    23.9411     9.2796    110.095  27.385367     27.982      8.843   233.5673     3.2066     4.0055     0.0205      0.054      0.554      0.804        250 1.1197e+02 0.0000e+00
      0.582    23.9395     9.2852    110.160  27.454581     28.041      8.844   233.8702     3.1905     4.0055     0.0206      0.055      0.570      0.826        251 1.0932e+02 0.0000e+00
      0.596    23.9378     9.2909    110.230  27.423475     28.014      8.847   233.8323     3.2349     4.0055     0.0205      0.055      0.582      0.843        252 1.0777e+02 0.0000e+00
      0.602    23.9366     9.3015    110.336  27.453722     28.043      8.842   234.0973     3.2633     3.9921     0.0206      0.053      0.588      0.853        253 1.0527e+02 0.0000e+00
      0.600    23.9360     9.3037    110.330  27.446584     28.045      8.842   233.7944     3.2511     4.0324     0.0206      0.049      0.589      0.854        254 1.0321e+02 0.0000e+00
      0.598    23.9354     9.3128    110.416  27.402713     27.988      8.841   233.5673     3.2390     3.9518     0.0205      0.042      0.588      0.854        255 1.0268e+02 0.0000e+00
      0.601    23.9348     9.3106    110.382  27.449028     28.045      8.843   233.9459     3.2794     3.5758     0.0206      0.034      0.592      0.860        256 9.9771e+01 0.0000e+00
      0.613    23.9341     9.2975    110.233  27.448240     28.046      8.849   233.8323     3.2713     3.6564     0.0206      0.026      0.603      0.876        257 9.8360e+01 0.0000e+00
      0.633    23.9328     9.2782    110.019  27.403696     27.989      8.850   234.2109     3.2673     3.5624     0.0205      0.024      0.620      0.900        258 9.8616e+01 0.0000e+00
      0.652    23.9300     9.2632    109.862  27.415525     28.018      8.850   234.2487     3.2713     3.6027     0.0205      0.027      0.640      0.928        259 9.8061e+01 0.0000e+00
      0.673    23.9255     9.2635    109.873  27.403874     27.990      8.851   234.4759     3.2754     3.5221     0.0205      0.035      0.660      0.957        260 9.7174e+01 0.0000e+00
      0.695    23.9252     9.2624    109.850  27.388551     27.992      8.837   234.7787     3.2713     4.2069     0.0205      0.048      0.680      0.985        261 9.6123e+01 0.0000e+00
      0.709    23.9259     9.2609    109.824  27.404949     27.994      8.835   234.3244     3.2754     4.2741     0.0205      0.059      0.696      1.010        262 9.5132e+01 0.0000e+00
      0.727    23.9161     9.2489    109.678  27.383467     27.995      8.834   234.1352     3.2592     4.1532     0.0205      0.068      0.715      1.037        263 9.2170e+01 0.0000e+00
      0.753    23.9013     9.2507    109.700  27.296701     27.880      8.831   234.6273     3.2390     4.2338     0.0205      0.075      0.737      1.069        264 8.8688e+01 0.0000e+00
      0.775    23.8905     9.2504    109.685  27.335054     27.943      8.824   234.8544     3.4452     3.9518     0.0205      0.078      0.756      1.097        265 8.6931e+01 0.0000e+00
      0.786    23.8868     9.2458    109.622  27.365386     27.980      8.821   234.2487     3.4331     3.9786     0.0205      0.077      0.769      1.115        266 8.5051e+01 0.0000e+00
      0.792    23.8897     9.2358    109.497  27.347895     27.957      8.830   234.6273     3.5018     3.9249     0.0205      0.072      0.777      1.127        267 8.3603e+01 0.0000e+00
      0.799    23.8968     9.2540    109.707  27.386472     28.017      8.830   234.6273     3.4654     3.9518     0.0205      0.065      0.782      1.135        268 8.3035e+01 0.0000e+00
      0.800    23.9067     9.2497    109.653  27.347025     27.958      8.834   234.2866     3.7849     3.9249     0.0205      0.056      0.786      1.140        269 8.2231e+01 0.0000e+00
      0.806    23.9103     9.2713    109.910  27.337694     27.954      8.839   234.4759     3.7606     4.0324     0.0205      0.047      0.792      1.149        270 8.1762e+01 0.0000e+00
      0.818    23.9061     9.2886    110.115  27.338790     27.948      8.841   234.3623     3.7647     4.0995     0.0205      0.038      0.802      1.163        271 8.1549e+01 0.0000e+00
      0.830    23.9014     9.2976    110.224  27.316013     27.917      8.844   234.8544     3.7970     4.0055     0.0205      0.032      0.815      1.182        272 8.1570e+01 0.0000e+00
      0.845    23.9002     9.2923    110.164  27.336394     27.948      8.849   234.7787     4.0882     4.1666     0.0205      0.031      0.829      1.202        273 8.1869e+01 0.0000e+00
      0.861    23.8998     9.2821    110.044  27.343073     27.951      8.850   235.0437     4.1084     4.1264     0.0205      0.035      0.845      1.225        274 8.1441e+01 0.0000e+00
      0.880    23.8949     9.2623    109.808  27.337348     27.952      8.846   235.0816     4.1245     4.1801     0.0205      0.042      0.864      1.253        275 7.9515e+01 0.0000e+00
      0.903    23.8903     9.2761    109.969  27.343519     27.952      8.846   235.2330     4.1084     4.2338     0.0205      0.052      0.884      1.283        276 7.8741e+01 0.0000e+00
      0.923    23.8877     9.2745    109.949  27.335394     27.955      8.838   235.1573     4.0922     4.0861     0.0205      0.061      0.904      1.311        277 7.7793e+01 0.0000e+00
      0.941    23.8846     9.2404    109.542  27.347461     27.957      8.839   235.0059     4.0396     4.1666     0.0205      0.068      0.924      1.340        278 7.5891e+01 0.0000e+00
      0.964    23.8830     9.2470    109.617  27.358148     27.988      8.838   235.1194     4.0194     4.2472     0.0205      0.073      0.946      1.372        279 7.4657e+01 0.0000e+00
      0.989    23.8832     9.2372    109.503  27.351741     27.961      8.833   235.1952     4.0437     4.2338     0.0205      0.078      0.970      1.406        280 7.2733e+01 0.0000e+00
      1.012    23.8839     9.2515    109.676  27.385082     28.019      8.832   235.0059     4.0396     4.2203     0.0205      0.082      0.991      1.438        281 7.1157e+01 0.0000e+00
      1.031    23.8847     9.2449    109.601  27.346303     27.961      8.828   235.4980     3.8294     4.4352     0.0205      0.084      1.010      1.465        282 6.9452e+01 0.0000e+00
      1.047    23.8860     9.2433    109.581  27.340711     27.961      8.828   235.6494     3.8698     4.3815     0.0205      0.083      1.025      1.487        283 6.7900e+01 0.0000e+00
      1.058    23.8865     9.2405    109.541  27.332750     27.961      8.822   235.4980     3.8374     4.4083     0.0205      0.080      1.037      1.504        284 6.7115e+01 0.0000e+00
      1.067    23.8859     9.2233    109.332  27.296918     27.903      8.818   235.2709     3.8294     4.3546     0.0205      0.074      1.048      1.520        285 6.5859e+01 0.0000e+00
      1.080    23.8850     9.2296    109.403  27.355657     27.988      8.818   235.6873     4.0396     3.9921     0.0205      0.068      1.060      1.538        286 6.5255e+01 0.0000e+00
      1.094    23.8840     9.2273    109.376  27.348587     27.960      8.823   235.7630     4.0396     3.9518     0.0205      0.061      1.074      1.558        287 6.4871e+01 0.0000e+00
      1.112    23.8826     9.2385    109.510  27.335362     27.960      8.824   236.0659     4.0518     4.0324     0.0205      0.056      1.090      1.582        288 6.3942e+01 0.0000e+00
      1.129    23.8815     9.2510    109.654  27.342471     27.961      8.826   235.7252     4.0477     3.9921     0.0205      0.054      1.106      1.605        289 6.3998e+01 0.0000e+00
      1.143    23.8822     9.2555    109.706  27.339741     27.962      8.828   235.3466     4.2054     3.8981     0.0205      0.055      1.121      1.627        290 6.3892e+01 0.0000e+00
      1.160    23.8839     9.2603    109.762  27.338760     27.963      8.830   236.3309     4.2378     4.0055     0.0205      0.057      1.136      1.649        291 6.3412e+01 0.0000e+00
      1.173    23.8857     9.2645    109.811  27.343693     27.962      8.829   236.2173     4.2216     3.9921     0.0205      0.059      1.151      1.670        292 6.3068e+01 0.0000e+00
      1.190    23.8848     9.2475    109.608  27.363247     27.990      8.828   235.8766     4.2499     3.9786     0.0205      0.061      1.167      1.692        293 6.2197e+01 0.0000e+00
      1.206    23.8817     9.2347    109.456  27.344070     27.960      8.829   235.8387     4.3106     4.2472     0.0205      0.061      1.182      1.714        294 6.1101e+01 0.0000e+00
      1.220    23.8791     9.2281    109.375  27.337913     27.961      8.828   236.1037     4.2822     4.2069     0.0205      0.061      1.197      1.736        295 5.9987e+01 0.0000e+00
      1.236    23.8776     9.2281    109.373  27.341263     27.962      8.830   236.1416     4.2903     4.2203     0.0205      0.060      1.211      1.757        296 5.9065e+01 0.0000e+00
      1.249    23.8779     9.2514    109.648  27.339902     27.964      8.828   236.2173     4.2903     4.3278     0.0205      0.059      1.225      1.777        297 5.7949e+01 0.0000e+00
      1.262    23.8779     9.2566    109.709  27.339610     27.965      8.829   235.9144     4.2822     4.2069     0.0205      0.059      1.239      1.798        298 5.6624e+01 0.0000e+00
      1.281    23.8764     9.2688    109.853  27.371274     27.993      8.830   235.9523     4.1609     4.2338     0.0205      0.059      1.256      1.821        299 5.4920e+01 0.0000e+00
      1.300    23.8753     9.2644    109.801  27.389433     28.022      8.829   236.1037     4.1529     4.2338     0.0205      0.060      1.273      1.845        300 5.3589e+01 0.0000e+00
      1.310    23.8747     9.2939    110.151  27.346656     27.965      8.826   236.2173     4.1690     4.2069     0.0205      0.059      1.283      1.860        301 5.3021e+01 0.0000e+00
      1.314    23.8745     9.2916    110.122  27.335573     27.966      8.822   235.8766     4.1529     4.1801     0.0205      0.056      1.289      1.870        302 5.2362e+01 0.0000e+00
      1.322    23.8742     9.2674    109.833  27.343934     27.966      8.824   235.8766     4.1690     3.9518     0.0205      0.052      1.299      1.885        303 5.1758e+01 0.0000e+00
      1.340    23.8737     9.2618    109.761  27.336250     27.966      8.826   235.8387     4.1650     3.9249     0.0205      0.050      1.317      1.910        304 5.0859e+01 0.0000e+00
      1.367    23.8726     9.2321    109.401  27.345136     27.967      8.826   236.1037     4.1529     3.9786     0.0205      0.052      1.342      1.947        305 4.9527e+01 0.0000e+00
      1.400    23.8712     9.2187    109.233  27.362522     27.996      8.822   236.1416     4.1569     3.9921     0.0205      0.059      1.372      1.988        306 4.8666e+01 0.0000e+00
      1.427    23.8708     9.2162    109.198  27.344261     27.968      8.819   236.2930     4.2984     4.1935     0.0205      0.067      1.397      2.026        307 4.8089e+01 0.0000e+00
      1.447    23.8704     9.2078    109.097  27.338218     27.968      8.816   236.5202     4.2903     4.2069     0.0205      0.076      1.417      2.056        308 4.7615e+01 0.0000e+00
      1.462    23.8700     9.2051    109.064  27.340397     27.969      8.814   236.3687     4.2903     4.1264     0.0205      0.084      1.433      2.079        309 4.7287e+01 0.0000e+00
      1.476    23.8706     9.2080    109.101  27.341549     27.969      8.815   236.2173     4.2944     4.2069     0.0205      0.088      1.449      2.102        310 4.6030e+01 0.0000e+00
      1.498    23.8708     9.2181    109.224  27.336785     27.969      8.814   236.6337     4.3469     4.1532     0.0205      0.088      1.468      2.128        311 4.4651e+01 0.0000e+00
      1.515    23.8699     9.2230    109.288  27.287034     27.912      8.809   236.6716     4.3510     4.2338     0.0205      0.084      1.484      2.152        312 4.3936e+01 0.0000e+00
      1.525    23.8685     9.2258    109.329  27.314526     27.940      8.801   236.2552     4.3753     4.1532     0.0205      0.075      1.496      2.171        313 4.3002e+01 0.0000e+00
      1.540    23.8660     9.2295    109.377  27.332218     27.969      8.809   236.0659     4.3510     4.2338     0.0205      0.067      1.511      2.193        314 4.1666e+01 0.0000e+00
      1.560    23.8618     9.2279    109.362  27.294663     27.913      8.811   236.0659     4.2944     4.2875     0.0205      0.064      1.530      2.220        315 4.0493e+01 0.0000e+00
      1.582    23.8577     9.2347    109.446  27.331617     27.971      8.817   236.3687     4.3025     4.2069     0.0205      0.065      1.550      2.249        316 3.9643e+01 0.0000e+00
      1.602    23.8551     9.2396    109.505  27.345522     27.974      8.819   236.0659     4.2701     4.2069     0.0205      0.067      1.570      2.278        317 3.8704e+01 0.0000e+00
      1.620    23.8539     9.2377    109.485  27.336652     27.976      8.817   236.5580     4.2742     4.0995     0.0205      0.069      1.589      2.305        318 3.8007e+01 0.0000e+00
      1.639    23.8536     9.2437    109.549  27.342656     27.978      8.821   236.4066     4.2822     4.2203     0.0205      0.070      1.606      2.330        319 3.7428e+01 0.0000e+00
      1.655    23.8546     9.2444    109.549  27.308405     27.950      8.818   236.2173     4.4804     4.1935     0.0205      0.072      1.624      2.355        320 3.6618e+01 0.0000e+00
      1.675    23.8562     9.2475    109.577  27.290341     27.921      8.816   236.4823     4.4925     4.2069     0.0205      0.075      1.644      2.384        321 3.5737e+01 0.0000e+00
      1.700    23.8592     9.2449    109.540  27.335492     27.978      8.814   236.7473     4.5006     4.1801     0.0205      0.076      1.667      2.419        322 3.4815e+01 0.0000e+00
      1.727    23.8630     9.2463    109.553  27.341153     27.977      8.815   237.2016     4.4844     4.0726     0.0205      0.078      1.692      2.455        323 3.3963e+01 0.0000e+00
      1.751    23.8654     9.2466    109.553  27.342587     27.975      8.813   237.5802     4.3874     4.2472     0.0205      0.081      1.716      2.490        324 3.3343e+01 0.0000e+00
      1.774    23.8673     9.2366    109.433  27.333706     27.973      8.814   237.0502     4.3550     4.1935     0.0205      0.085      1.740      2.523        325 3.2594e+01 0.0000e+00
      1.797    23.8686     9.2296    109.351  27.322557     27.943      8.814   236.7852     4.3874     4.2472     0.0205      0.089      1.761      2.553        326 3.1850e+01 0.0000e+00
      1.814    23.8697     9.2230    109.273  27.326815     27.971      8.812   237.2016     4.3712     4.2472     0.0205      0.090      1.778      2.578        327 3.1352e+01 0.0000e+00
      1.827    23.8701     9.2133    109.159  27.298763     27.913      8.814   236.7473     4.4925     4.2472     0.0205      0.088      1.791      2.598        328 3.0710e+01 0.0000e+00
      1.839    23.8675     9.2038    109.045  27.327822     27.969      8.815   237.2016     4.5087     4.2338     0.0205      0.082      1.805      2.617        329 3.0265e+01 0.0000e+00
      1.854    23.8630     9.2046    109.051  27.290650     27.912      8.817   236.8987     4.4763     4.1129     0.0205      0.075      1.820      2.639        330 2.9736e+01 0.0000e+00
      1.873    23.8586     9.2029    109.030  27.285731     27.913      8.819   236.8230     4.4804     4.1264     0.0205      0.069      1.836      2.664        331 2.9071e+01 0.0000e+00
      1.891    23.8557     9.1978    108.970  27.333946     27.973      8.819   237.0880     4.6098     4.1801     0.0205      0.065      1.853      2.689        332 2.8520e+01 0.0000e+00
      1.907    23.8541     9.1917    108.898  27.319587     27.947      8.821   236.4066     4.6340     4.1264     0.0205      0.063      1.871      2.715        333 2.7723e+01 0.0000e+00
      1.929    23.8527     9.1927    108.907  27.333246     27.977      8.821   236.8609     4.6300     4.2203     0.0205      0.064      1.891      2.742        334 2.7119e+01 0.0000e+00
      1.946    23.8518     9.1956    108.942  27.287302     27.921      8.819   236.5959     4.6138     4.2069     0.0205      0.066      1.909      2.768        335 2.6683e+01 0.0000e+00
      1.965    23.8519     9.1959    108.946  27.287828     27.922      8.821   236.8230     4.5532     4.0055     0.0205      0.069      1.929      2.797        336 2.6040e+01 0.0000e+00
      1.991    23.8521     9.1998    108.991  27.332593     27.980      8.821   236.7852     4.5491     3.9921     0.0205      0.073      1.951      2.831        337 2.5427e+01 0.0000e+00
      2.014    23.8523     9.2088    109.096  27.290884     27.922      8.817   236.8230     4.5491     4.0055     0.0205      0.077      1.973      2.862        338 2.4970e+01 0.0000e+00
      2.030    23.8520     9.2175    109.196  27.339733     27.979      8.817   236.8987     4.5491     3.9249     0.0205      0.079      1.990      2.887        339 2.4544e+01 0.0000e+00
      2.044    23.8505     9.2236    109.266  27.360738     28.008      8.818   236.7094     4.5168     4.0324     0.0205      0.078      2.007      2.911        340 2.3972e+01 0.0000e+00
      2.067    23.8498     9.2208    109.232  27.294391     27.922      8.818   237.0502     4.4076     3.8846     0.0205      0.079      2.028      2.941        341 2.3265e+01 0.0000e+00
      2.092    23.8503     9.2242    109.272  27.274073     27.923      8.815   237.2016     4.4036     3.9384     0.0205      0.079      2.049      2.972        342 2.2754e+01 0.0000e+00
      2.108    23.8500     9.2186    109.206  27.297086     27.923      8.814   236.7852     4.4157     4.0458     0.0205      0.079      2.065      2.996        343 2.2371e+01 0.0000e+00
      2.118    23.8491     9.2156    109.169  27.325043     27.980      8.814   237.0123     4.4076     3.8981     0.0205      0.076      2.076      3.012        344 2.2202e+01 0.0000e+00
      2.126    23.8492     9.2085    109.083  27.357864     27.981      8.811   236.7852     4.4116     4.0189     0.0205      0.069      2.085      3.024        345 2.1866e+01 0.0000e+00
      2.133    23.8491     9.1974    108.948  27.345181     28.010      8.811   237.0123     4.4238     3.9384     0.0205      0.062      2.095      3.038        346 2.1267e+01 0.0000e+00
      2.149    23.8485     9.1909    108.860  27.251891     27.867      8.811   236.2552     4.4197     4.0055     0.0205      0.058      2.111      3.061        347 2.0904e+01 0.0000e+00
      2.174    23.8478     9.1911    108.834  27.266440     27.924      8.813   236.9366     4.4399     4.0324     0.0205      0.057      2.134      3.096        348 2.0290e+01 0.0000e+00
      2.207    23.8464     9.1884    108.780  27.297430     27.924      8.808   237.1259     4.5532     3.9786     0.0205      0.059      2.163      3.139        349 1.9531e+01 0.0000e+00
      2.238    23.8452     9.1837    108.710  27.272619     27.925      8.806   237.3152     4.5330     3.9921     0.0205      0.066      2.191      3.179        350 1.9014e+01 0.0000e+00
      2.258    23.8447     9.1804    108.668  27.297318     27.925      8.801   237.3152     4.5451     4.0592     0.0205      0.076      2.213      3.209        351 1.8770e+01 0.0000e+00
      2.273    23.8448     9.1859    108.737  27.325982     27.983      8.804   236.8987     4.5653     3.9518     0.0205      0.084      2.230      3.233        352 1.8401e+01 0.0000e+00
      2.290    23.8446     9.1846    108.732  27.325884     27.955      8.806   236.8609     4.6543     4.4352     0.0205      0.089      2.246      3.258        353 1.7942e+01 0.0000e+00
      2.309    23.8442     9.1861    108.759  27.327086     27.984      8.808   236.8609     4.6017     4.4083     0.0205      0.090      2.264      3.284        354 1.7635e+01 0.0000e+00
      2.327    23.8435     9.1978    108.893  27.294839     27.926      8.808   236.8230     4.5774     4.4083     0.0205      0.086      2.283      3.311        355 1.7167e+01 0.0000e+00
      2.348    23.8418     9.2082    108.989  27.277078     27.927      8.809   237.1637     4.6098     4.5023     0.0205      0.080      2.303      3.340        356 1.6776e+01 0.0000e+00
      2.369    23.8355     9.2192    109.100  27.289898     27.927      8.806   237.3152     4.5491     4.1801     0.0205      0.075      2.323      3.369        357 1.6462e+01 0.0000e+00
      2.389    23.8228     9.2205    109.110  27.219594     27.871      8.799   237.6180     4.5532     4.1398     0.0205      0.074      2.341      3.396        358 1.6160e+01 0.0000e+00
      2.403    23.8110     9.2061    108.939  27.186700     27.817      8.799   237.5423     4.5249     4.1532     0.0204      0.074      2.356      3.418        359 1.5874e+01 0.0000e+00
      2.417    23.8045     9.1845    108.681  27.241900     27.910      8.798   237.5423     4.5532     4.1532     0.0205      0.073      2.368      3.435        360 1.5779e+01 0.0000e+00
      2.424    23.8026     9.1628    108.419  27.239838     27.888      8.798   237.8830     4.5491     4.1801     0.0205      0.069      2.375      3.445        361 1.5867e+01 0.0000e+00
      2.425    23.8045     9.1446    108.196  27.218916     27.892      8.796   237.8452     4.1407     4.2069     0.0205      0.061      2.380      3.452        362 1.5818e+01 0.0000e+00
      2.432    23.8094     9.1293    108.012  27.238294     27.893      8.795   237.9587     4.1407     4.0995     0.0205      0.051      2.387      3.462        363 1.5712e+01 0.0000e+00
      2.446    23.8145     9.1206    107.906  27.275014     27.949      8.798   237.8830     4.1771     4.2203     0.0205      0.044      2.400      3.481        364 1.5515e+01 0.0000e+00
      2.465    23.8120     9.1199    107.880  27.291802     27.946      8.801   237.7316     4.1690     4.2741     0.0205      0.040      2.419      3.509        365 1.5192e+01 0.0000e+00
      2.491    23.7997     9.1220    107.870  27.276694     27.944      8.798   238.2616     4.1367     3.9384     0.0205      0.043      2.443      3.542        366 1.4871e+01 0.0000e+00
      2.516    23.7896     9.1337    107.960  27.204878     27.859      8.795   238.4130     4.1569     4.0189     0.0205      0.051      2.464      3.574        367 1.4741e+01 0.0000e+00
      2.530    23.7869     9.1413    107.953  27.173658     27.838      8.792   237.9587     4.1529     3.9115     0.0204      0.058      2.480      3.598        368 1.4615e+01 0.0000e+00
      2.542    23.7867     9.1374    107.761  27.226614     27.901      8.794   238.0723     4.1812     3.9921     0.0205      0.065      2.491      3.614        369 1.4532e+01 0.0000e+00
      2.548    23.7854     9.1433    107.502  27.227914     27.902      8.791   237.7694     4.3591     3.8846     0.0205      0.068      2.499      3.625        370 1.4510e+01 0.0000e+00
      2.555    23.7831     9.1914    106.768  27.172040     27.845      8.792   237.8073     4.3510     4.0189     0.0204      0.065      2.509      3.639        371 1.4257e+01 0.0000e+00
      2.572    23.7793     9.1418    104.849  27.177566     27.846      8.796   237.3909     4.3469     3.9249     0.0204      0.060      2.524      3.661        372 1.3992e+01 0.0000e+00
      2.593    23.7784     9.0449    102.670  27.191393     27.876      8.797   237.9209     4.3348     4.0055     0.0204      0.056      2.542      3.687        373 1.3756e+01 0.0000e+00
      2.611    23.7750     8.8122     99.110  27.184480     27.849      8.797   237.5423     4.1084     3.9518     0.0204      0.053      2.560      3.714        374 1.3508e+01 0.0000e+00
      2.629    23.7684     8.4653     94.750  27.215816     27.907      8.797   237.7316     4.1165     4.0055     0.0205      0.054      2.578      3.740        375 1.3252e+01 0.0000e+00
      2.649    23.7481     8.1104     90.788  27.182042     27.851      8.796   238.1102     4.1084     3.9249     0.0204      0.059      2.598      3.769        376 1.2907e+01 0.0000e+00
      2.671    23.7297     7.7833     87.288  27.167221     27.856      8.793   238.6780     4.1043     4.0055     0.0204      0.066      2.618      3.797        377 1.2724e+01 0.0000e+00
      2.687    23.6717     7.5277     84.429  27.086038     27.780      8.790   238.6023     4.2135     4.0861     0.0204      0.071      2.633      3.818        378 1.2618e+01 0.0000e+00
      2.695    23.6168     7.3684     82.020  26.986626     27.679      8.788   238.5645     4.2135     3.9518     0.0204      0.072      2.643      3.833        379 1.2541e+01 0.0000e+00
      2.702    23.4232     7.2560     79.730  26.994494     27.735      8.785   238.5266     4.2378     3.9652     0.0204      0.067      2.654      3.849        380 1.2367e+01 0.0000e+00
      2.723    22.8144     7.1743     77.952  26.750168     27.517      8.789   238.6780     4.2297     3.9249     0.0203      0.063      2.673      3.876        381 1.1949e+01 0.0000e+00
      2.751    22.1385     7.0904     76.416  26.342084     27.177      8.784   239.2080     4.2095     4.0324     0.0201      0.063      2.697      3.911        382 1.1657e+01 0.0000e+00
      2.774    21.6044     6.9589     74.649  26.079501     27.277      8.783   239.6245     4.4157     3.9518     0.0199      0.066      2.718      3.942        383 1.1499e+01 0.0000e+00
      2.789    21.1326     6.7658     72.370  25.921011     27.485      8.785   239.5487     4.4116     4.0055     0.0198      0.067      2.733      3.964        384 1.1341e+01 0.0000e+00
      2.798    20.8889     6.5040     69.394  25.857736     27.741      8.788   239.8137     4.3914     3.8712     0.0197      0.067      2.741      3.976        385 1.1359e+01 0.0000e+00
      2.799    20.8875     6.2192     66.209  25.980581     28.148      8.783   239.7759     4.4399     4.0592     0.0198      0.064      2.745      3.981        386 1.1447e+01 0.0000e+00
      2.799    20.9849     5.9440     63.157  26.064726     28.421      8.784   239.8895     4.8645     3.9518     0.0198      0.058      2.746      3.982        387 1.1474e+01 0.0000e+00
      2.800    20.9781     5.6992     60.427  26.049545     28.356      8.786   240.1545     4.8524     4.0189     0.0198      0.048      2.751      3.990        388 1.1375e+01 0.0000e+00
      2.817    20.5969     5.4540     57.706  25.999488     28.298      8.786   240.9495     4.8403     3.8578     0.0198      0.038      2.769      4.015        389 1.0997e+01 0.0000e+00
      2.852    19.9532     5.2635     55.610  25.682346     27.900      8.764   242.0473     4.8443     3.9652     0.0196      0.036      2.795      4.054        390 1.0738e+01 0.0000e+00
      2.877    19.3863     5.0885     53.708  25.436360     27.891      8.731   242.4259     4.7432     4.1801     0.0195      0.042      2.819      4.089        391 1.0537e+01 0.0000e+00
      2.895    18.9861     4.9645     52.351  25.446075     28.297      8.703   242.8423     4.7513     4.1532     0.0194      0.051      2.838      4.117        392 1.0303e+01 0.0000e+00
      2.911    18.7509     4.8565     51.149  25.433308     28.656      8.673   243.2966     4.7513     4.2203     0.0194      0.062      2.853      4.139        393 1.0236e+01 0.0000e+00
      2.923    18.6099     4.7628     50.062  25.393153     28.856      8.650   243.1830     4.7270     4.2472     0.0194      0.071      2.867      4.158        394 1.0083e+01 0.0000e+00
      2.937    18.4849     4.6801     49.098  25.377613     29.008      8.631   243.5995     4.6745     3.9249     0.0193      0.075      2.881      4.178        395 9.8617e+00 0.0000e+00
      2.952    18.3773     4.5945     48.117  25.393449     29.102      8.611   243.9780     4.6704     3.9115     0.0193      0.075      2.896      4.200        396 9.7133e+00 0.0000e+00
      2.969    18.2820     4.4948     47.014  25.373502     29.186      8.585   244.8866     4.6987     3.8846     0.0193      0.069      2.913      4.224        397 9.5590e+00 0.0000e+00
      2.989    18.1784     4.3344     45.292  25.343194     29.194      8.562   245.0002     4.6583     3.9786     0.0193      0.063      2.931      4.251        398 9.3679e+00 0.0000e+00
      3.009    18.0766     4.1438     43.259  25.312633     29.257      8.536   246.2495     4.7513     4.1532     0.0193      0.062      2.950      4.278        399 9.1518e+00 0.0000e+00
      3.025    18.0053     3.9377     41.046  25.292997     29.263      8.507   248.5966     4.7715     4.1398     0.0192      0.064      2.965      4.300        400 9.0333e+00 0.0000e+00
      3.038    17.9559     3.7477     39.006  25.308378     29.398      8.479   249.7323     4.7513     4.2069     0.0193      0.065      2.978      4.319        401 8.9662e+00 0.0000e+00
      3.048    17.9125     3.5809     37.191  25.293524     29.381      8.458   250.1866     4.7392     4.1398     0.0192      0.065      2.991      4.337        402 8.7781e+00 0.0000e+00
      3.062    17.8498     3.3932     35.135  25.311510     29.480      8.438   251.4359     4.7513     4.1264     0.0193      0.063      3.007      4.360        403 8.5240e+00 0.0000e+00
      3.087    17.7558     3.2339     33.399  25.345300     29.510      8.414   251.8902     4.5491     3.9652     0.0193      0.063      3.027      4.390        404 8.3212e+00 0.0000e+00
      3.109    17.6605     3.1045     32.004  25.488636     29.747      8.390   252.2309     4.5370     3.9921     0.0193      0.064      3.047      4.420        405 8.1545e+00 0.0000e+00
      3.125    17.5791     2.9901     30.781  25.548163     29.880      8.368   252.9502     4.5289     3.9249     0.0193      0.065      3.065      4.446        406 7.9670e+00 0.0000e+00
      3.144    17.5165     2.8854     29.668  25.508399     29.880      8.344   253.2909     4.5451     3.9518     0.0193      0.067      3.082      4.471        407 7.8320e+00 0.0000e+00
      3.160    17.4716     2.7905     28.671  25.538155     30.004      8.322   254.0481     4.8160     3.7101     0.0193      0.069      3.099      4.495        408 7.7116e+00 0.0000e+00
      3.177    17.4225     2.6999     27.727  25.451873     29.916      8.303   254.0859     4.8281     3.7772     0.0193      0.072      3.116      4.519        409 7.5615e+00 0.0000e+00
      3.193    17.3530     2.5982     26.658  25.497222     30.014      8.282   254.3509     4.7917     3.7235     0.0193      0.072      3.131      4.541        410 7.4410e+00 0.0000e+00
      3.209    17.2777     2.5060     25.671  25.600312     30.179      8.262   254.5402     4.7998     3.7504     0.0194      0.070      3.146      4.562        411 7.3750e+00 0.0000e+00
      3.221    17.1746     2.4163     24.682  25.560748     30.164      8.246   255.1459     4.2378     2.3404     0.0193      0.066      3.159      4.581        412 7.3176e+00 0.0000e+00
      3.232    17.0325     2.3258     23.685  25.546482     30.217      8.230   255.5624     4.2539     2.3136     0.0193      0.062      3.170      4.599        413 7.1997e+00 0.0000e+00
      3.246    16.9074     2.2319     22.687  25.558807     30.290      8.213   256.0166     4.2337     2.3002     0.0193      0.059      3.183      4.617        414 7.0777e+00 0.0000e+00
      3.259    16.8194     2.1435     21.741  25.545448     30.394      8.195   256.2816     4.2539     2.3136     0.0193      0.056      3.195      4.634        415 7.0427e+00 0.0000e+00
      3.270    16.7514     2.0552     20.794  25.503866     30.418      8.178   255.9788     4.5330     1.8167     0.0193      0.053      3.207      4.651        416 6.9913e+00 0.0000e+00
      3.283    16.6959     1.9626     19.820  25.551310     30.549      8.165   256.3195     4.5208     1.8436     0.0193      0.051      3.221      4.671        417 6.8238e+00 0.0000e+00
      3.301    16.6612     1.8827     18.985  25.605011     30.665      8.150   257.0388     4.5410     1.9376     0.0193      0.051      3.237      4.695        418 6.6323e+00 0.0000e+00
      3.318    16.6368     1.8073     18.196  25.614922     30.706      8.134   257.0388     4.5572     1.9107     0.0193      0.052      3.252      4.716        419 6.5423e+00 0.0000e+00
      3.326    16.5947     1.7296     17.388  25.657571     30.799      8.114   256.6981     4.5532     1.9376     0.0193      0.053      3.262      4.731        420 6.5018e+00 0.0000e+00
      3.335    16.5171     1.6537     16.604  25.670524     30.816      8.096   256.9252     3.8374     2.2464     0.0193      0.052      3.272      4.746        421 6.3809e+00 0.0000e+00
      3.350    16.3811     1.5895     15.946  25.628456     30.814      8.080   256.8116     3.8374     2.2196     0.0193      0.052      3.287      4.767        422 6.2175e+00 0.0000e+00
      3.371    16.2412     1.5263     15.308  25.561721     30.770      8.064   257.2659     3.8577     2.1927     0.0193      0.053      3.305      4.792        423 6.0416e+00 0.0000e+00
      3.386    16.1499     1.4641     14.688  25.605386     30.939      8.047   257.0766     3.8496     2.2464     0.0193      0.055      3.322      4.817        424 5.8747e+00 0.0000e+00
      3.404    16.0486     1.4230     14.284  25.603804     31.047      8.034   257.5309     3.6838     1.9376     0.0193      0.057      3.338      4.842        425 5.7843e+00 0.0000e+00
      3.421    15.9334     1.3827     13.885  25.563735     31.044      8.014   257.3416     3.7364     1.9913     0.0193      0.059      3.353      4.864        426 5.7207e+00 0.0000e+00
      3.432    15.8455     1.3636     13.668  25.596001     31.190      7.996   257.4174     3.7121     1.9913     0.0193      0.060      3.365      4.881        427 5.6612e+00 0.0000e+00
      3.442    15.7727     1.3609     13.589  25.563685     31.210      7.982   258.0231     3.7081     1.9107     0.0192      0.061      3.376      4.897        428 5.5803e+00 0.0000e+00
      3.456    15.7024     1.3730     13.669  25.544700     31.277      7.966   258.2881     2.6244     1.6959     0.0192      0.060      3.389      4.915        429 5.4813e+00 0.0000e+00
      3.470    15.6321     1.3902     13.804  25.501085     31.264      7.950   258.7424     2.6041     1.7362     0.0192      0.057      3.403      4.936        430 5.4376e+00 0.0000e+00
      3.484    15.5720     1.3954     13.811  25.440129     31.250      7.938   259.4238     2.6486     1.7362     0.0192      0.054      3.417      4.956        431 5.3595e+00 0.0000e+00
      3.499    15.5340     1.4099     13.913  25.442722     31.303      7.923   259.9159     2.6163     1.7630     0.0192      0.053      3.430      4.975        432 5.2914e+00 0.0000e+00
      3.510    15.5206     1.4022     13.802  25.438594     31.351      7.908   260.0295     2.4464     1.7228     0.0192      0.051      3.441      4.991        433 5.2852e+00 0.0000e+00
      3.517    15.5317     1.3961     13.711  25.445286     31.379      7.895   260.5595     2.4950     1.6422     0.0192      0.050      3.449      5.003        434 5.2655e+00 0.0000e+00
      3.525    15.5612     1.3716     13.447  25.434406     31.391      7.879   260.8624     2.4747     1.7765     0.0192      0.048      3.458      5.016        435 5.2319e+00 0.0000e+00
      3.536    15.5793     1.3351     13.071  25.452138     31.380      7.864   261.3167     2.4828     1.8167     0.0192      0.046      3.470      5.033        436 5.2097e+00 0.0000e+00
      3.553    15.4920     1.3021     12.731  25.363930     31.291      7.854   261.5817     2.4828     1.4676     0.0191      0.045      3.486      5.056        437 5.1454e+00 0.0000e+00
      3.575    15.3164     1.2609     12.311  25.158806     30.964      7.837   261.8845     2.4788     1.3736     0.0190      0.047      3.506      5.083        438 5.0553e+00 0.0000e+00
      3.594    15.1759     1.2362     12.054  25.173828     31.100      7.819   261.5059     2.4586     1.5348     0.0190      0.051      3.523      5.109        439 5.0280e+00 0.0000e+00
      3.605    15.0549     1.2176     11.870  25.197047     31.239      7.802   261.6574     2.4909     1.5616     0.0190      0.054      3.538      5.131        440 4.9923e+00 0.0000e+00
      3.624    14.9062     1.1984     11.684  25.070676     31.208      7.791   261.9602     2.5030     1.5348     0.0190      0.059      3.556      5.157        441 4.9200e+00 0.0000e+00
      3.648    14.7671     1.1936     11.620  24.975426     31.161      7.778   261.9602     2.7861     1.6959     0.0189      0.066      3.577      5.189        442 4.8342e+00 0.0000e+00
      3.670    14.6508     1.1999     11.653  24.930268     31.244      7.764   262.2252     2.7740     1.7228     0.0189      0.071      3.598      5.220        443 4.7569e+00 0.0000e+00
      3.691    14.5485     1.2163     11.785  24.860133     31.247      7.751   263.3610     2.8023     1.7899     0.0188      0.075      3.617      5.247        444 4.7087e+00 0.0000e+00
      3.704    14.4671     1.2209     11.806  24.795967     31.269      7.739   263.4367     2.8184     1.6959     0.0188      0.075      3.632      5.267        445 4.7055e+00 0.0000e+00
      3.714    14.4041     1.2183     11.766  24.713734     31.244      7.728   263.3610     1.9814     1.6690     0.0187      0.072      3.642      5.283        446 4.6848e+00 0.0000e+00
      3.725    14.3446     1.2210     11.785  24.666077     31.237      7.716   263.5881     1.9652     1.6690     0.0187      0.069      3.654      5.299        447 4.6653e+00 0.0000e+00
      3.739    14.2764     1.2160     11.718  24.647804     31.287      7.705   264.2317     1.9895     1.7362     0.0187      0.065      3.668      5.319        448 4.6465e+00 0.0000e+00
      3.756    14.2185     1.2031     11.569  24.558641     31.192      7.698   264.2317     1.9733     1.7362     0.0186      0.061      3.685      5.344        449 4.5800e+00 0.0000e+00
      3.778    14.2114     1.1913     11.434  24.510276     31.211      7.683   264.0045     1.7792     1.6422     0.0186      0.058      3.704      5.371        450 4.5313e+00 0.0000e+00
      3.796    14.2132     1.1798     11.307  24.500518     31.222      7.670   264.1938     1.7631     1.7630     0.0186      0.058      3.721      5.396        451 4.5158e+00 0.0000e+00
      3.808    14.1447     1.1766     11.262  24.481875     31.228      7.660   264.0424     1.7550     1.7496     0.0186      0.059      3.734      5.416        452 4.4781e+00 0.0000e+00
      3.820    14.0346     1.1716     11.202  24.444556     31.152      7.647   264.0045     1.7792     1.7362     0.0186      0.061      3.747      5.435        453 4.4081e+00 0.0000e+00
      3.835    13.9323     1.1786     11.257  24.369113     31.138      7.637   264.2695     1.6377     1.6690     0.0185      0.062      3.761      5.455        454 4.3783e+00 0.0000e+00
      3.849    13.8400     1.1748     11.214  24.249719     31.047      7.626   264.4967     1.6296     1.7899     0.0184      0.062      3.776      5.475        455 4.3804e+00 0.0000e+00
      3.864    13.7820     1.1778     11.238  24.237467     31.129      7.618   264.8374     1.6377     1.7899     0.0184      0.060      3.791      5.497        456 4.3240e+00 0.0000e+00
      3.883    13.7517     1.1838     11.290  24.236183     31.202      7.607   265.3674     1.6296     1.8033     0.0184      0.059      3.807      5.522        457 4.2491e+00 0.0000e+00
      3.900    13.6842     1.1817     11.260  24.132777     31.107      7.597   265.2160     1.5164     1.9510     0.0184      0.058      3.824      5.546        458 4.2294e+00 0.0000e+00
      3.915    13.5878     1.1803     11.235  24.069753     31.055      7.587   265.5567     1.5447     1.8033     0.0183      0.059      3.839      5.568        459 4.1642e+00 0.0000e+00
      3.929    13.5039     1.1734     11.159  24.018210     31.040      7.579   265.4810     1.5083     1.8839     0.0183      0.061      3.853      5.588        460 4.1234e+00 0.0000e+00
      3.943    13.4346     1.1667     11.094  23.959808     31.044      7.571   265.2917     1.5043     1.9107     0.0183      0.062      3.867      5.607        461 4.1253e+00 0.0000e+00
      3.956    13.3784     1.1456     10.895  23.905327     31.040      7.558   265.6324     1.4881     1.9107     0.0182      0.061      3.879      5.625        462 4.0953e+00 0.0000e+00
      3.965    13.3254     1.1395     10.830  23.848904     31.023      7.549   265.5567     1.5730     1.7362     0.0182      0.058      3.891      5.642        463 4.0398e+00 0.0000e+00
      3.982    13.2794     1.1123     10.557  23.822558     31.032      7.541   266.1624     1.5973     1.7362     0.0182      0.056      3.903      5.661        464 4.0280e+00 0.0000e+00
      3.992    13.2517     1.0849     10.286  23.760284     31.002      7.526   265.8974     1.5487     1.7093     0.0181      0.053      3.912      5.674        465 4.0632e+00 0.0000e+00
      3.993    13.2359     1.0530      9.976  23.778212     31.040      7.515   266.3517     1.5568     1.7899     0.0181      0.048      3.917      5.680        466 4.0502e+00 0.0000e+00
      3.998    13.2146     1.0029      9.493  23.829904     31.171      7.506   266.3138     1.3951     1.6959     0.0182      0.042      3.923      5.689        467 4.0243e+00 0.0000e+00
      4.010    13.1787     0.9477      8.961  23.784889     31.075      7.500   266.2002     1.3587     1.5885     0.0181      0.038      3.933      5.704        468 3.9876e+00 0.0000e+00
      4.024    13.1306     0.8893      8.400  23.745314     31.091      7.494   266.6167     1.3627     1.6959     0.0181      0.037      3.946      5.724        469 3.9766e+00 0.0000e+00
      4.038    13.0878     0.8235      7.773  23.671672     30.975      7.489   266.9952     1.4072     1.8302     0.0181      0.037      3.959      5.743        470 3.9333e+00 0.0000e+00
      4.051    13.0815     0.7587      7.153  23.698699     31.086      7.482   267.2602     1.5164     1.7093     0.0181      0.039      3.972      5.762        471 3.8905e+00 0.0000e+00
      4.062    13.0879     0.7036      6.626  23.770977     31.197      7.473   267.1845     1.5245     1.7228     0.0181      0.040      3.984      5.779        472 3.8518e+00 0.0000e+00
      4.074    13.0578     0.6461      6.076  23.759583     31.200      7.468   267.4117     1.4840     1.7093     0.0181      0.044      3.996      5.796        473 3.7874e+00 0.0000e+00
      4.089    12.9994     0.5788      5.435  23.772166     31.195      7.461   267.4117     1.5245     1.7630     0.0181      0.049      4.010      5.816        474 3.7597e+00 0.0000e+00
      4.104    12.9526     0.5143      4.822  23.755320     31.220      7.453   267.6767     1.2414     1.7362     0.0181      0.052      4.024      5.835        475 3.7186e+00 0.0000e+00
      4.115    12.9177     0.4505      4.220  23.721274     31.195      7.445   267.7524     1.2414     1.7496     0.0181      0.051      4.037      5.854        476 3.6799e+00 0.0000e+00
      4.130    12.8776     0.3891      3.643  23.695986     31.233      7.440   268.0931     1.2697     1.7362     0.0181      0.051      4.050      5.874        477 3.6431e+00 0.0000e+00
      4.144    12.8302     0.3196      2.990  23.668239     31.187      7.434   267.9795     1.2616     1.7228     0.0180      0.052      4.063      5.894        478 3.6340e+00 0.0000e+00
      4.158    12.7880     0.2518      2.355  23.696534     31.295      7.426   268.1310     1.3304     1.5079     0.0181      0.053      4.078      5.915        479 3.6270e+00 0.0000e+00
      4.173    12.7526     0.1891      1.767  23.660787     31.259      7.419   267.9795     1.3061     1.5348     0.0180      0.054      4.092      5.935        480 3.5513e+00 0.0000e+00
      4.187    12.7028     0.1415      1.321  23.594175     31.223      7.412   268.3960     1.3304     1.5348     0.0180      0.055      4.105      5.954        481 3.5047e+00 0.0000e+00
      4.197    12.6489     0.1108      1.034  23.601598     31.249      7.404   268.5095     1.3142     1.5213     0.0180      0.054      4.117      5.971        482 3.4988e+00 0.0000e+00
      4.211    12.5884     0.0773      0.720  23.592280     31.293      7.398   268.3203     1.3061     1.5616     0.0180      0.054      4.130      5.991        483 3.4568e+00 0.0000e+00
      4.228    12.5210     0.0741      0.690  23.546502     31.261      7.391   268.0931     1.3708     1.4542     0.0180      0.054      4.146      6.013        484 3.4312e+00 0.0000e+00
      4.243    12.4624     0.0755      0.703  23.599302     31.387      7.383   268.3581     1.3708     1.5213     0.0180      0.055      4.161      6.035        485 3.4134e+00 0.0000e+00
      4.257    12.4176     0.0803      0.747  23.645157     31.518      7.375   268.8503     1.3910     1.4273     0.0180      0.055      4.173      6.052        486 3.3803e+00 0.0000e+00
      4.264    12.3898     0.0921      0.856  23.548742     31.418      7.365   269.0774     1.3910     1.5616     0.0179      0.054      4.180      6.063        487 3.3535e+00 0.0000e+00
      4.267    12.3649     0.1006      0.933  23.541461     31.456      7.358   268.8881     1.3425     1.6153     0.0179      0.050      4.186      6.071        488 3.3720e+00 0.0000e+00
      4.276    12.3301     0.1140      1.058  23.535666     31.479      7.349   268.9638     1.3061     1.5348     0.0179      0.046      4.196      6.086        489 3.3456e+00 0.0000e+00
      4.295    12.2896     0.1270      1.177  23.496680     31.425      7.343   269.5317     1.3142     1.4408     0.0179      0.045      4.211      6.108        490 3.2708e+00 0.0000e+00
      4.312    12.2517     0.1330      1.231  23.471423     31.455      7.335   269.6074     1.3304     1.5616     0.0179      0.044      4.227      6.131        491 3.2586e+00 0.0000e+00
      4.325    12.2139     0.1391      1.286  23.448545     31.414      7.327   270.0238     1.4194     1.2931     0.0179      0.044      4.244      6.156        492 3.2258e+00 0.0000e+00
      4.348    12.1774     0.1477      1.365  23.465882     31.521      7.318   270.0995     1.3830     1.2796     0.0179      0.049      4.263      6.184        493 3.2010e+00 0.0000e+00
      4.368    12.1516     0.1491      1.378  23.449860     31.478      7.304   270.0238     1.3951     1.2393     0.0179      0.055      4.281      6.210        494 3.1617e+00 0.0000e+00
      4.382    12.1265     0.1595      1.473  23.468495     31.584      7.295   270.1374     1.3708     1.2931     0.0179      0.062      4.297      6.233        495 3.1053e+00 0.0000e+00
      4.398    12.0882     0.1567      1.447  23.442703     31.531      7.286   270.5917     1.2455     1.5079     0.0178      0.067      4.312      6.255        496 3.1073e+00 0.0000e+00
      4.413    12.0424     0.1578      1.457  23.363404     31.476      7.280   270.8945     1.2536     1.4945     0.0178      0.068      4.327      6.276        497 3.0869e+00 0.0000e+00
      4.427    11.9983     0.1563      1.443  23.300421     31.396      7.274   271.3110     1.2616     1.4676     0.0178      0.066      4.339      6.294        498 3.0480e+00 0.0000e+00
      4.436    11.9697     0.1587      1.462  23.283969     31.435      7.263   271.3867     1.2616     1.5616     0.0178      0.063      4.349      6.307        499 3.0671e+00 0.0000e+00
      4.440    11.9426     0.1644      1.513  23.294970     31.473      7.252   271.1217     1.1808     1.5348     0.0178      0.057      4.359      6.322        500 3.0966e+00 0.0000e+00
      4.461    11.9033     0.1604      1.474  23.257102     31.459      7.245   272.0303     1.1929     1.4676     0.0177      0.052      4.376      6.347        501 3.0285e+00 0.0000e+00
      4.486    11.8618     0.1653      1.517  23.242182     31.444      7.233   271.8788     1.1686     1.4273     0.0177      0.053      4.397      6.378        502 2.9669e+00 0.0000e+00
      4.504    11.8222     0.1621      1.486  23.224624     31.479      7.225   272.2574     1.1767     1.5079     0.0177      0.056      4.415      6.404        503 2.9737e+00 0.0000e+00
      4.518    11.7964     0.1614      1.478  23.190042     31.437      7.220   272.0303     1.1686     1.4945     0.0177      0.059      4.428      6.421        504 2.9611e+00 0.0000e+00
      4.522    11.7889     0.1666      1.524  23.225952     31.548      7.206   271.9545     1.3344     1.4676     0.0177      0.058      4.434      6.430        505 2.9709e+00 0.0000e+00
      4.523    11.7857     0.1676      1.531  23.239229     31.569      7.198   272.0303     1.3142     1.5213     0.0177      0.055      4.437      6.435        506 2.9801e+00 0.0000e+00
      4.529    11.7757     0.1624      1.483  23.232808     31.577      7.194   272.3710     1.3304     1.6288     0.0177      0.051      4.442      6.443        507 2.9539e+00 0.0000e+00
      4.536    11.7489     0.1614      1.472  23.233946     31.578      7.188   272.2953     1.3061     1.4945     0.0177      0.044      4.450      6.454        508 2.9618e+00 0.0000e+00
      4.548    11.6941     0.1643      1.499  23.178534     31.512      7.187   272.2953     1.2091     1.4676     0.0177      0.036      4.460      6.470        509 2.9519e+00 0.0000e+00
      4.561    11.6285     0.1593      1.453  23.183208     31.533      7.184   272.4845     1.1767     1.5213     0.0177      0.031      4.474      6.489        510 2.9067e+00 0.0000e+00
      4.577    11.5715     0.1567      1.428  23.168856     31.582      7.184   272.6738     1.1646     1.4945     0.0177      0.032      4.489      6.510        511 2.9069e+00 0.0000e+00
      4.592    11.5204     0.1524      1.388  23.137129     31.561      7.178   272.4467     1.1525     1.5348     0.0176      0.037      4.504      6.532        512 2.8783e+00 0.0000e+00
      4.609    11.4650     0.1544      1.405  23.222711     31.764      7.175   272.9388     1.3304     1.5616     0.0177      0.044      4.519      6.555        513 2.8213e+00 0.0000e+00
      4.625    11.4096     0.1483      1.349  23.240213     31.807      7.165   273.0903     1.3061     1.5348     0.0177      0.052      4.534      6.576        514 2.7999e+00 0.0000e+00
      4.636    11.3622     0.1430      1.301  23.174647     31.780      7.161   272.9388     1.3061     1.4810     0.0177      0.055      4.546      6.594        515 2.7827e+00 0.0000e+00
      4.648    11.3218     0.1416      1.288  23.126481     31.751      7.155   272.9388     1.3263     1.4408     0.0176      0.057      4.557      6.610        516 2.7743e+00 0.0000e+00
      4.658    11.2907     0.1406      1.277  23.063047     31.716      7.152   273.1660     2.0623     1.9913     0.0176      0.055      4.567      6.623        517 2.7661e+00 0.0000e+00
      4.664    11.2693     0.1482      1.344  23.075760     31.751      7.144   273.2796     2.0461     1.8436     0.0176      0.052      4.574      6.635        518 2.7623e+00 0.0000e+00
      4.672    11.2502     0.1489      1.349  23.110673     31.856      7.142   273.5067     2.0299     1.9645     0.0176      0.047      4.583      6.648        519 2.7333e+00 0.0000e+00
      4.685    11.2229     0.1491      1.349  23.078891     31.797      7.141   273.3931     2.0057     1.9376     0.0176      0.043      4.595      6.666        520 2.7212e+00 0.0000e+00
      4.701    11.1915     0.1455      1.315  23.056038     31.814      7.136   273.5067     2.3696     2.3404     0.0176      0.042      4.610      6.687        521 2.7117e+00 0.0000e+00
      4.716    11.1689     0.1556      1.405  23.079837     31.838      7.132   273.5824     2.3494     2.3404     0.0176      0.043      4.625      6.708        522 2.6527e+00 0.0000e+00
      4.731    11.1565     0.1505      1.358  23.108562     31.943      7.127   273.4688     2.3453     2.1659     0.0176      0.045      4.639      6.729        523 2.6339e+00 0.0000e+00
      4.743    11.1438     0.1450      1.308  23.079580     31.886      7.121   273.6203     2.3292     2.3002     0.0176      0.048      4.651      6.745        524 2.6327e+00 0.0000e+00
      4.752    11.1338     0.1436      1.294  23.115913     31.974      7.116   274.0746     2.3332     2.2867     0.0176      0.050      4.660      6.758        525 2.5930e+00 0.0000e+00
      4.760    11.1141     0.1413      1.273  23.063353     31.908      7.113   274.1124     2.8225     2.9447     0.0176      0.050      4.670      6.773        526 2.6013e+00 0.0000e+00
      4.774    11.0652     0.1355      1.221  23.026430     31.840      7.107   273.9988     2.8225     2.9447     0.0175      0.050      4.683      6.791        527 2.5735e+00 0.0000e+00
      4.790    11.0091     0.1410      1.271  23.102584     32.010      7.105   273.9610     2.7982     2.8238     0.0176      0.049      4.698      6.814        528 2.5093e+00 0.0000e+00
      4.809    10.9573     0.1357      1.223  23.087152     31.978      7.099   273.9231     2.8063     2.9044     0.0176      0.049      4.716      6.841        529 2.5318e+00 0.0000e+00
      4.830    10.9070     0.1303      1.174  23.104932     32.104      7.094   274.0367     2.9964     2.9044     0.0176      0.052      4.734      6.867        530 2.4580e+00 0.0000e+00
      4.844    10.8631     0.1343      1.209  23.080474     32.073      7.087   273.6960     3.0045     2.9447     0.0175      0.056      4.748      6.887        531 2.4074e+00 0.0000e+00
      4.853    10.8269     0.1363      1.226  23.058325     32.118      7.080   273.7717     2.9964     2.8641     0.0175      0.058      4.759      6.903        532 2.4302e+00 0.0000e+00
      4.863    10.7945     0.1295      1.165  23.073232     32.158      7.075   273.8096     3.0085     2.8507     0.0175      0.059      4.769      6.918        533 2.4022e+00 0.0000e+00
      4.874    10.7609     0.1314      1.181  23.121219     32.268      7.069   273.5824     3.0085     3.3744     0.0176      0.058      4.780      6.933        534 2.4062e+00 0.0000e+00
      4.886    10.7330     0.1317      1.182  23.176463     32.375      7.065   273.5067     3.0085     3.3207     0.0176      0.054      4.790      6.948        535 2.4119e+00 0.0000e+00
      4.894    10.7199     0.1289      1.154  23.182337     32.406      7.061   272.9010     2.9559     3.3475     0.0176      0.050      4.800      6.961        536 2.4091e+00 0.0000e+00
      4.904    10.7227     0.1315      1.176  23.232480     32.509      7.057   272.9388     3.0045     3.3475     0.0176      0.044      4.810      6.976        537 2.3781e+00 0.0000e+00
      4.917    10.7347     0.1368      1.221  23.232632     32.521      7.053   272.5224     2.9357     4.2472     0.0176      0.041      4.821      6.992        538 2.3290e+00 0.0000e+00
      4.927    10.7353     0.1365      1.217  23.241434     32.519      7.049   272.4088     2.9519     4.2203     0.0176      0.041      4.832      7.008        539 2.2932e+00 0.0000e+00
      4.938    10.7045     0.1368      1.219  23.280808     32.586      7.045   272.1438     2.9357     4.1532     0.0177      0.041      4.843      7.025        540 2.2505e+00 0.0000e+00
      4.953    10.6643     0.1423      1.266  23.302196     32.585      7.039   271.6517     2.9317     4.1935     0.0177      0.043      4.857      7.045        541 2.2185e+00 0.0000e+00
      4.969    10.6475     0.1454      1.293  23.363024     32.731      7.036   271.9545     3.0085     3.9652     0.0177      0.045      4.872      7.066        542 2.1978e+00 0.0000e+00
      4.981    10.6386     0.1399      1.243  23.382960     32.768      7.031   271.3867     2.9883     3.8981     0.0177      0.047      4.885      7.084        543 2.1582e+00 0.0000e+00
      4.992    10.6001     0.1432      1.272  23.366318     32.783      7.029   271.1974     2.9964     3.9518     0.0177      0.049      4.898      7.104        544 2.1249e+00 0.0000e+00
      5.011    10.5263     0.1391      1.235  23.324461     32.712      7.024   271.3110     2.9883     3.9249     0.0177      0.052      4.917      7.132        545 2.0562e+00 0.0000e+00
      5.040    10.4464     0.1310      1.163  23.435057     32.904      7.018   271.0838     2.9762     4.0324     0.0177      0.058      4.941      7.167        546 1.9257e+00 0.0000e+00
      5.064    10.3747     0.1354      1.201  23.584390     33.209      7.006   271.0460     2.7335     4.2338     0.0178      0.065      4.966      7.203        547 1.8291e+00 0.0000e+00
      5.089    10.3119     0.1310      1.161  23.553619     33.206      6.995   271.2731     2.7376     4.1666     0.0178      0.073      4.989      7.236        548 1.7471e+00 0.0000e+00
      5.109    10.2684     0.1232      1.092  23.473376     33.194      6.987   270.9703     2.7295     4.2069     0.0178      0.078      5.009      7.265        549 1.6737e+00 0.0000e+00
      5.126    10.2401     0.1291      1.143  23.447143     33.174      6.980   270.1753     2.7457     4.2069     0.0177      0.082      5.027      7.291        550 1.6444e+00 0.0000e+00
      5.144    10.2070     0.1357      1.201  23.527004     33.373      6.975   269.4938     2.5799     3.8309     0.0178      0.085      5.045      7.317        551 1.5829e+00 0.0000e+00
      5.163    10.1617     0.1257      1.112  23.551855     33.400      6.965   268.9638     2.5475     3.8175     0.0178      0.085      5.062      7.343        552 1.5257e+00 0.0000e+00
      5.180    10.1181     0.1274      1.126  23.534792     33.431      6.960   268.8124     2.5152     3.7638     0.0178      0.081      5.077      7.364        553 1.4810e+00 0.0000e+00
      5.189    10.0896     0.1257      1.111  23.488966     33.395      6.954   269.0395     2.5233     3.8041     0.0177      0.074      5.087      7.378        554 1.4547e+00 0.0000e+00
      5.194    10.0750     0.1216      1.075  23.490333     33.437      6.947   268.5474     2.4100     3.5892     0.0177      0.065      5.093      7.387        555 1.4820e+00 0.0000e+00
      5.198    10.0623     0.1224      1.083  23.473822     33.464      6.942   267.8281     2.4100     3.5490     0.0177      0.056      5.099      7.396        556 1.4319e+00 0.0000e+00
      5.208    10.0449     0.1162      1.027  23.390959     33.318      6.937   266.2381     2.4262     3.5758     0.0177      0.048      5.107      7.407        557 1.3660e+00 0.0000e+00
      5.216    10.0273     0.1142      1.009  23.415613     33.410      6.933   265.4810     2.4060     3.4684     0.0177      0.041      5.116      7.420        558 1.3802e+00 0.0000e+00
      5.225    10.0049     0.1177      1.038  23.502427     33.506      6.930   264.5724     2.2362     3.0790     0.0177      0.036      5.131      7.442        559 1.3383e+00 0.0000e+00
      5.259     9.9768     0.1194      1.053  23.757189     33.922      6.926   260.8245     2.2321     3.1327     0.0179      0.038      5.156      7.478        560 1.2385e+00 0.0000e+00
      5.287     9.9490     0.1203      1.061  23.958180     34.223      6.916   258.5152     2.2200     3.1058     0.0180      0.047      5.182      7.516        561 1.1617e+00 0.0000e+00
      5.306     9.9251     0.1199      1.056  24.022991     34.331      6.910   253.7831     2.2079     3.1058     0.0180      0.058      5.203      7.546        562 1.1234e+00 0.0000e+00
      5.325     9.9114     0.1175      1.035  24.121173     34.517      6.902   251.0195     2.2443     3.6832     0.0181      0.068      5.221      7.571        563 1.1130e+00 0.0000e+00
      5.339     9.9162     0.1252      1.102  24.191712     34.621      6.898   247.6123     2.2443     3.4952     0.0181      0.075      5.236      7.594        564 1.0382e+00 0.0000e+00
      5.355     9.9349     0.1205      1.061  24.320566     34.834      6.896   244.1295     2.2079     3.4952     0.0182      0.079      5.251      7.616        565 9.7050e-01 0.0000e+00
      5.368     9.9347     0.1238      1.089  24.375814     34.911      6.892   242.7287     2.2119     3.5758     0.0183      0.078      5.265      7.636        566 9.5247e-01 0.0000e+00
      5.382     9.8999     0.1227      1.079  24.419381     34.930      6.891   240.1166     2.2159     3.5490     0.0183      0.074      5.280      7.658        567 9.3299e-01 0.0000e+00
      5.403     9.8589     0.1210      1.064  24.533130     35.131      6.888   238.4509     2.0785     3.3878     0.0184      0.067      5.297      7.683        568 9.2328e-01 0.0000e+00
      5.418     9.8349     0.1113      0.978  24.501041     35.086      6.883   237.2773     2.1068     3.3744     0.0183      0.063      5.312      7.704        569 8.9418e-01 0.0000e+00
      5.429     9.8198     0.1146      1.007  24.429683     35.048      6.881   235.4980     2.0906     3.3207     0.0183      0.061      5.324      7.722        570 8.5175e-01 0.0000e+00
      5.440     9.8013     0.1149      1.009  24.444092     35.071      6.882   232.4316     2.1027     3.3744     0.0183      0.058      5.335      7.738        571 8.3342e-01 0.0000e+00
      5.453     9.7788     0.1127      0.989  24.423832     35.087      6.881   230.3116     1.8237     2.9850     0.0183      0.057      5.347      7.756        572 8.1908e-01 0.0000e+00
      5.465     9.7528     0.1120      0.982  24.395615     35.025      6.877   228.6080     1.8278     2.9178     0.0183      0.055      5.359      7.773        573 7.9385e-01 0.0000e+00
      5.477     9.7273     0.1089      0.955  24.449572     35.169      6.880   227.2073     1.8601     2.9447     0.0183      0.053      5.372      7.791        574 8.0231e-01 0.0000e+00
      5.492     9.7111     0.1126      0.987  24.445619     35.154      6.879   225.8823     1.8318     2.8910     0.0183      0.051      5.385      7.810        575 7.9896e-01 0.0000e+00
      5.502     9.6975     0.1163      1.019  24.430183     35.181      6.872   225.0494     1.7752     2.7567     0.0183      0.048      5.396      7.826        576 7.8235e-01 0.0000e+00
      5.512     9.6798     0.1176      1.030  24.439147     35.196      6.871   223.8001     1.7711     2.8238     0.0183      0.047      5.407      7.843        577 7.7916e-01 0.0000e+00
      5.527     9.6592     0.1156      1.012  24.434472     35.210      6.872   222.4751     1.7833     2.6761     0.0183      0.048      5.422      7.865        578 7.4573e-01 0.0000e+00
      5.550     9.6346     0.1149      1.007  24.673151     35.551      6.868   220.6201     1.7671     2.4881     0.0184      0.051      5.442      7.893        579 7.2318e-01 0.0000e+00
      5.571     9.6148     0.1123      0.983  25.179636     36.337      6.860   219.2573     1.7752     4.4083     0.0188      0.056      5.461      7.921        580 7.0127e-01 0.0000e+00
      5.584     9.6020     0.1165      1.019  25.434562     36.726      6.853   218.5380     1.7752     4.4755     0.0189      0.059      5.475      7.941        581 6.6799e-01 0.0000e+00
      5.595     9.5901     0.1200      1.050  25.571306     36.909      6.850   217.2887     1.7671     4.4352     0.0190      0.060      5.487      7.958        582 6.6397e-01 0.0000e+00
      5.608     9.5772     0.1132      0.990  25.720932     37.205      6.846   216.9858     1.7671     4.3949     0.0191      0.061      5.499      7.976        583 6.6672e-01 0.0000e+00
      5.622     9.5625     0.1124      0.982  25.574450     36.935      6.847   215.8501     1.7792     2.9715     0.0190      0.061      5.513      7.996        584 6.8472e-01 0.0000e+00
      5.636     9.5471     0.1119      0.978  25.486803     36.868      6.844   214.5251     1.8884     2.9313     0.0189      0.060      5.527      8.015        585 6.5912e-01 0.0000e+00
      5.648     9.5335     0.1125      0.983  25.503923     36.884      6.841   213.5787     1.9127     2.8910     0.0189      0.057      5.540      8.035        586 6.2640e-01 0.0000e+00
      5.663     9.5254     0.1105      0.966  25.493860     36.900      6.839   212.0265     1.8965     2.8776     0.0189      0.053      5.554      8.056        587 6.6622e-01 0.0000e+00
      5.680     9.5239     0.1126      0.984  25.440042     36.834      6.833   209.9065     1.8803     2.8373     0.0189      0.053      5.569      8.078        588 6.3760e-01 0.0000e+00
      5.693     9.5184     0.1041      0.909  25.393039     36.761      6.832   208.0136     2.0542     3.1864     0.0189      0.054      5.583      8.098        589 5.9498e-01 0.0000e+00
      5.706     9.4985     0.1074      0.938  25.374492     36.763      6.831   206.7644     2.0340     3.0924     0.0189      0.055      5.597      8.118        590 6.0337e-01 0.0000e+00
      5.723     9.4724     0.1106      0.965  25.196327     36.485      6.828   204.4172     2.0219     3.0924     0.0187      0.056      5.614      8.143        591 5.9220e-01 0.0000e+00
      5.748     9.4476     0.1177      1.027  25.140459     36.426      6.824   202.3729     2.0178     3.1461     0.0187      0.060      5.635      8.174        592 5.7016e-01 0.0000e+00
      5.769     9.4257     0.1142      0.996  25.266161     36.656      6.816   200.5179     1.6256     2.7030     0.0188      0.064      5.655      8.201        593 5.3638e-01 0.0000e+00
      5.781     9.4101     0.1121      0.977  25.336343     36.764      6.809   199.1929     1.6377     2.7433     0.0188      0.066      5.667      8.220        594 5.3917e-01 0.0000e+00
      5.787     9.4002     0.1110      0.968  25.379211     36.868      6.800   198.0572     1.6498     2.7970     0.0189      0.065      5.677      8.232        595 5.3966e-01 0.0000e+00
      5.798     9.3949     0.1048      0.913  25.390684     36.885      6.797   196.8458     1.6377     2.6493     0.0189      0.062      5.687      8.247        596 5.2071e-01 0.0000e+00
      5.811     9.3951     0.1015      0.885  25.440650     36.977      6.794   195.6343     1.3668     2.1122     0.0189      0.059      5.698      8.265        597 5.2503e-01 0.0000e+00
      5.823     9.3956     0.1073      0.934  25.435612     36.982      6.790   194.9529     1.3870     2.1659     0.0189      0.056      5.710      8.282        598 5.0500e-01 0.0000e+00
      5.834     9.3877     0.1035      0.900  25.396955     36.901      6.792   193.9686     1.3789     2.1659     0.0189      0.050      5.720      8.297        599 4.9655e-01 0.0000e+00
      5.843     9.3713     0.1023      0.890  25.429470     36.981      6.790   192.1515     1.3708     2.1524     0.0189      0.045      5.731      8.312        600 4.9024e-01 0.0000e+00
      5.856     9.3532     0.1048      0.912  25.395149     36.909      6.786   189.9936     1.5771     2.1927     0.0189      0.043      5.743      8.330        601 4.8104e-01 0.0000e+00
      5.870     9.3388     0.1057      0.920  25.321092     36.845      6.787   188.5172     1.5407     2.3002     0.0188      0.044      5.757      8.350        602 4.8168e-01 0.0000e+00
      5.884     9.3288     0.1092      0.950  25.284483     36.783      6.786   187.6843     1.5690     2.1659     0.0188      0.047      5.770      8.370        603 4.8381e-01 0.0000e+00
      5.898     9.3219     0.1086      0.944  25.262849     36.799      6.786   186.3972     1.5730     2.1659     0.0188      0.048      5.785      8.390        604 4.8397e-01 0.0000e+00
      5.914     9.3146     0.1064      0.925  25.199800     36.687      6.783   184.7314     1.5649     2.1793     0.0187      0.050      5.800      8.412        605 4.6281e-01 0.0000e+00
      5.930     9.3047     0.1083      0.941  25.185088     36.695      6.779   183.3307     1.5124     1.9376     0.0187      0.053      5.814      8.432        606 4.7421e-01 0.0000e+00
      5.941     9.2896     0.1069      0.929  25.192229     36.702      6.778   182.5736     1.5245     1.9510     0.0187      0.055      5.827      8.452        607 4.7727e-01 0.0000e+00
      5.956     9.2705     0.1149      0.997  25.190915     36.713      6.776   181.5136     1.4881     1.9107     0.0187      0.056      5.841      8.472        608 4.5491e-01 0.0000e+00
      5.972     9.2525     0.1004      0.872  25.216371     36.770      6.773   180.1507     1.5124     1.9107     0.0188      0.056      5.855      8.492        609 4.3505e-01 0.0000e+00
      5.985     9.2402     0.1069      0.928  25.190197     36.750      6.773   179.5450     1.5730     2.1659     0.0187      0.056      5.868      8.512        610 4.4775e-01 0.0000e+00
      5.996     9.2363     0.0960      0.833  25.193850     36.769      6.769   178.1064     1.5366     2.1390     0.0187      0.056      5.880      8.529        611 4.7206e-01 0.0000e+00
      6.009     9.2310     0.1015      0.881  25.182189     36.783      6.767   176.8193     1.5892     2.1659     0.0187      0.054      5.892      8.546        612 4.5499e-01 0.0000e+00
      6.020     9.2214     0.0963      0.835  25.204713     36.786      6.768   176.1378     1.5771     2.1659     0.0187      0.052      5.905      8.564        613 4.5218e-01 0.0000e+00
      6.035     9.2148     0.1009      0.875  25.314040     36.996      6.767   175.1157     1.5124     2.2867     0.0188      0.051      5.920      8.586        614 4.6162e-01 0.0000e+00
      6.055     9.2096     0.1128      0.978  25.401864     37.088      6.763   174.2071     1.5164     2.2599     0.0189      0.053      5.937      8.611        615 4.3939e-01 0.0000e+00
      6.073     9.1966     0.1118      0.969  25.421507     37.177      6.762   172.8821     1.5285     2.4076     0.0189      0.055      5.956      8.638        616 4.3261e-01 0.0000e+00
      6.093     9.1734     0.1165      1.010  25.586041     37.346      6.762   172.5793     1.5245     2.3270     0.0190      0.058      5.975      8.666        617 4.4224e-01 0.0000e+00
      6.114     9.1498     0.1145      0.991  25.878933     37.891      6.757   171.6707     1.8116     2.1659     0.0192      0.063      5.994      8.694        618 4.4692e-01 0.0000e+00
      6.132     9.1350     0.1077      0.932  25.768486     37.672      6.754   171.2543     1.8278     2.1927     0.0191      0.068      6.011      8.719        619 4.1006e-01 0.0000e+00
      6.145     9.1291     0.1041      0.901  25.545628     37.411      6.752   170.3835     1.8520     2.1927     0.0190      0.070      6.024      8.737        620 3.8087e-01 0.0000e+00
      6.154     9.1242     0.1040      0.900  25.563389     37.428      6.748   169.8535     1.8439     2.0987     0.0190      0.069      6.034      8.751        621 3.9922e-01 0.0000e+00
      6.161     9.1146     0.0956      0.827  25.538876     37.434      6.749   168.7557     1.7469     2.1390     0.0190      0.064      6.043      8.764        622 3.9077e-01 0.0000e+00
      6.172     9.1042     0.0991      0.857  25.665070     37.562      6.745   167.9607     1.7752     2.0719     0.0190      0.058      6.052      8.778        623 3.9175e-01 0.0000e+00
      6.179     9.1019     0.1016      0.878  25.821371     37.900      6.742   167.1278     1.7752     2.1927     0.0192      0.051      6.060      8.789        624 4.1157e-01 0.0000e+00
      6.185     9.0963     0.1043      0.901  25.907616     37.912      6.743   166.5978     1.7752     2.1122     0.0192      0.043      6.067      8.799        625 4.1518e-01 0.0000e+00
      6.195     9.0774     0.1044      0.901  26.298872     38.611      6.743   165.8028     1.7671     2.1122     0.0195      0.037      6.077      8.814        626 4.0856e-01 0.0000e+00
      6.210     9.0547     0.1095      0.945  26.342402     38.617      6.739   165.2350     1.5002     2.1390     0.0195      0.036      6.091      8.834        627 3.7716e-01 0.0000e+00
      6.226     9.0333     0.1073      0.926  26.090607     38.270      6.739   164.8564     1.5083     2.1927     0.0193      0.038      6.106      8.856        628 3.5743e-01 0.0000e+00
      6.243     9.0146     0.1080      0.932  26.137904     38.377      6.739   164.2507     1.5285     2.1659     0.0193      0.042      6.123      8.880        629 3.7890e-01 0.0000e+00
      6.263     8.9984     0.1098      0.947  26.253903     38.566      6.732   163.6828     1.5245     2.1390     0.0194      0.048      6.141      8.907        630 3.5392e-01 0.0000e+00
      6.282     8.9852     0.1054      0.909  26.390939     38.792      6.732   163.0014     1.3061     2.1659     0.0195      0.055      6.159      8.932        631 3.5043e-01 0.0000e+00
      6.295     8.9749     0.1067      0.920  26.500995     38.975      6.732   162.8121     1.2859     2.1524     0.0196      0.060      6.174      8.955        632 3.8710e-01 0.0000e+00
      6.312     8.9639     0.1017      0.877  26.561636     39.072      6.729   162.1685     1.3142     2.1659     0.0196      0.065      6.191      8.979        633 3.4935e-01 0.0000e+00
      6.333     8.9507     0.1062      0.915  26.819461     39.454      6.729   161.3735     1.3263     2.1927     0.0198      0.068      6.211      9.007        634 3.2311e-01 0.0000e+00
      6.353     8.9356     0.0974      0.839  27.010235     39.796      6.726   160.9571     1.1080     1.6422     0.0199      0.070      6.230      9.035        635 3.5637e-01 0.0000e+00
      6.371     8.9212     0.1059      0.912  27.272913     40.099      6.720   160.2757     1.1242     1.6959     0.0200      0.071      6.246      9.059        636 3.5659e-01 0.0000e+00
      6.385     8.9083     0.1005      0.865  27.648801     40.817      6.716   159.5942     1.1363     1.7630     0.0203      0.070      6.260      9.079        637 3.4687e-01 0.0000e+00
      6.392     8.9005     0.0984      0.847  27.609755     40.629      6.713   158.9128     1.1242     1.7362     0.0202      0.067      6.271      9.095        638 3.7884e-01 0.0000e+00
      6.407     8.8993     0.1000      0.860  27.617983     40.767      6.712   158.7235     1.0392     1.5885     0.0203      0.064      6.285      9.116        639 3.7422e-01 0.0000e+00
      6.429     8.8881     0.1007      0.866  27.727509     40.860      6.710   158.1556     1.0433     1.4542     0.0203      0.064      6.304      9.143        640 3.4340e-01 0.0000e+00
      6.449     8.8689     0.1019      0.876  27.799578     41.025      6.705   157.7771     1.0635     1.4945     0.0204      0.063      6.323      9.170        641 3.4244e-01 0.0000e+00
      6.466     8.8557     0.1026      0.881  27.824773     41.039      6.700   157.1335     1.0635     1.5482     0.0204      0.062      6.341      9.195        642 3.4339e-01 0.0000e+00
      6.481     8.8442     0.1079      0.927  27.874046     41.145      6.699   156.6414     1.0554     1.4676     0.0204      0.063      6.356      9.218        643 3.3526e-01 0.0000e+00
      6.495     8.8308     0.1038      0.891  28.064394     41.450      6.696   156.1871     1.0352     1.5213     0.0206      0.064      6.369      9.237        644 3.3606e-01 0.0000e+00
      6.505     8.8167     0.1079      0.927  28.180856     41.629      6.695   155.4678     1.0635     1.4676     0.0206      0.064      6.380      9.254        645 3.4481e-01 0.0000e+00
      6.518     8.8013     0.1015      0.871  28.411028     41.976      6.692   154.9756     1.0473     1.5616     0.0208      0.063      6.393      9.273        646 3.3355e-01 0.0000e+00
      6.536     8.7858     0.1008      0.866  28.874960     42.696      6.689   154.1049     1.0473     1.4408     0.0211      0.061      6.409      9.296        647 3.1880e-01 0.0000e+00
      6.553     8.7734     0.1027      0.881  29.056310     43.004      6.688   152.8556     1.1080     1.5348     0.0212      0.058      6.427      9.321        648 3.2927e-01 0.0000e+00
      6.572     8.7591     0.0965      0.828  29.104476     43.024      6.685   152.0228     1.1242     1.5348     0.0212      0.058      6.447      9.350        649 3.3354e-01 0.0000e+00
      6.597     8.7406     0.0966      0.830  29.526625     43.743      6.684   151.1142     1.1080     1.4810     0.0215      0.062      6.469      9.382        650 3.1388e-01 0.0000e+00
      6.620     8.7246     0.0952      0.818  29.894870     44.258      6.680   150.3949     1.1646     1.4139     0.0217      0.067      6.491      9.414        651 3.1414e-01 0.0000e+00
      6.637     8.7122     0.0997      0.855  30.128735     44.655      6.676   149.3349     1.1161     1.5213     0.0219      0.072      6.508      9.439        652 3.1563e-01 0.0000e+00
      6.651     8.7020     0.0942      0.808  30.303027     44.925      6.673   148.1235     1.1161     1.4810     0.0220      0.075      6.522      9.460        653 3.0353e-01 0.0000e+00
      6.665     8.6950     0.0986      0.845  30.508211     45.232      6.670   147.0635     1.1242     1.5616     0.0221      0.075      6.536      9.480        654 2.9076e-01 0.0000e+00
      6.679     8.6907     0.0993      0.851  31.148428     46.199      6.666   146.0792     1.1282     1.5482     0.0225      0.072      6.548      9.497        655 2.9530e-01 0.0000e+00
      6.689     8.6858     0.1019      0.873  31.730232     47.121      6.667   144.4892     1.1161     1.2662     0.0229      0.067      6.558      9.512        656 3.0954e-01 0.0000e+00
      6.696     8.6794     0.1034      0.886  32.008146     47.458      6.664   143.4292     1.1201     1.2662     0.0231      0.060      6.567      9.524        657 3.0897e-01 0.0000e+00
      6.705     8.6722     0.0976      0.837  32.225947     47.880      6.663   142.3692     1.1120     1.3333     0.0233      0.051      6.575      9.536        658 3.1822e-01 0.0000e+00
      6.712     8.6705     0.1003      0.860  32.289500     47.889      6.662   141.3470     1.1484     1.2662     0.0233      0.045      6.583      9.547        659 3.1425e-01 0.0000e+00
      6.721     8.6833     0.0990      0.848  32.225598     47.899      6.662   140.4006     1.0473     1.0379     0.0233      0.040      6.591      9.559        660 2.8991e-01 0.0000e+00
      6.729     8.6869     0.1005      0.860  31.742046     47.114      6.661   139.0377     1.0554     1.0916     0.0229      0.037      6.601      9.574        661 2.9351e-01 0.0000e+00
      6.745     8.6674     0.1021      0.873  31.645805     46.929      6.661   138.1292     1.0352     1.0245     0.0229      0.036      6.616      9.596        662 3.1357e-01 0.0000e+00
      6.766     8.6402     0.0997      0.852  32.819848     48.707      6.659   136.4256     1.0352     1.0648     0.0236      0.039      6.635      9.623        663 3.1031e-01 0.0000e+00
      6.785     8.6159     0.0954      0.816  34.343734     51.019      6.654   135.5549     1.0473     1.4945     0.0246      0.045      6.652      9.648        664 3.1150e-01 0.0000e+00
      6.799     8.6033     0.0960      0.821  34.731571     51.682      6.652   134.3434     1.0595     1.4676     0.0249      0.051      6.666      9.668        665 3.0830e-01 0.0000e+00
      6.809     8.5963     0.0964      0.823  34.531801     51.265      6.651   133.3591     1.0595     1.4408     0.0247      0.055      6.676      9.683        666 2.9392e-01 0.0000e+00
      6.817     8.5940     0.0960      0.819  34.829617     51.906      6.651   132.4506     1.0392     1.5213     0.0250      0.056      6.684      9.695        667 2.9106e-01 0.0000e+00
      6.823     8.6009     0.1026      0.876  35.043085     52.084      6.649   131.5799     1.0433     1.3199     0.0251      0.054      6.692      9.706        668 2.9001e-01 0.0000e+00
      6.832     8.5972     0.0982      0.838  35.274529     52.545      6.648   131.0120     0.9948     1.3736     0.0253      0.050      6.701      9.719        669 3.0149e-01 0.0000e+00
      6.844     8.5744     0.1007      0.859  35.816923     53.241      6.649   129.9520     1.0190     1.2393     0.0256      0.045      6.713      9.736        670 3.0153e-01 0.0000e+00
      6.859     8.5469     0.1018      0.868  36.503570     54.369      6.651   128.2863     0.9867     1.2393     0.0261      0.041      6.728      9.758        671 2.9078e-01 0.0000e+00
      6.880     8.5216     0.1002      0.854  36.792815     54.782      6.648   127.8698     0.9907     1.2662     0.0262      0.042      6.747      9.785        672 2.9740e-01 0.0000e+00
      6.899     8.5017     0.0967      0.824  37.028983     55.159      6.647   126.6963     0.9705     1.3199     0.0264      0.047      6.764      9.810        673 2.7916e-01 0.0000e+00
      6.912     8.4879     0.1060      0.903  37.277484     55.660      6.643   126.5827     0.9907     1.3333     0.0266      0.053      6.776      9.829        674 2.8875e-01 0.0000e+00
      6.919     8.4761     0.0991      0.844  37.254772     55.526      6.640   126.3934     1.0029     1.2259     0.0265      0.056      6.786      9.844        675 3.1270e-01 0.0000e+00
      6.931     8.4632     0.0947      0.807  37.086919     55.465      6.639   125.5227     0.9907     1.3333     0.0265      0.057      6.800      9.863        676 2.7743e-01 0.0000e+00
      6.952     8.4445     0.0992      0.845  37.605031     55.986      6.639   124.5006     1.0473     1.2662     0.0267      0.059      6.819      9.890        677 2.6745e-01 0.0000e+00
      6.976     8.4230     0.0952      0.811  37.410870     56.217      6.635   124.1598     1.0716     1.2393     0.0268      0.061      6.841      9.921        678 2.8068e-01 0.0000e+00
      6.997     8.4106     0.0963      0.821  37.476867     55.537      6.628   123.1755     1.0635     1.3602     0.0265      0.063      6.862      9.952        679 2.8188e-01 0.0000e+00
      7.018     8.4012     0.0902      0.768  38.501811     58.166      6.622   122.9484     1.0312     1.3333     0.0277      0.066      6.883      9.982        680 2.7247e-01 0.0000e+00
      7.041     8.3867     0.0953      0.812  37.766821     56.012      6.618   122.5320     0.9665     1.4542     0.0267      0.071      6.903     10.012        681 2.7785e-01 0.0000e+00
      7.059     8.3764     0.0909      0.774  38.213555     57.534      6.613   121.3205     1.0190     1.5213     0.0274      0.077      6.921     10.037        682 2.9221e-01 0.0000e+00
      7.070     8.3710     0.0979      0.834  38.865405     58.020      6.614   119.3898     0.9988     1.5750     0.0276      0.079      6.932     10.054        683 2.7634e-01 0.0000e+00
      7.078     8.3678     0.0965      0.821  38.676075     58.038      6.613   117.4970     0.9907     1.4945     0.0276      0.075      6.941     10.067        684 2.7062e-01 0.0000e+00
      7.086     8.3664     0.0947      0.806  38.923799     58.257      6.617   115.4905     1.0433     1.5616     0.0277      0.067      6.948     10.078        685 2.6467e-01 0.0000e+00
      7.091     8.3656     0.1019      0.867  38.764770     58.136      6.620   113.2948     1.0392     1.4676     0.0276      0.057      6.955     10.087        686 2.6073e-01 0.0000e+00
      7.098     8.3655     0.0977      0.831  38.844323     58.139      6.621   111.1748     1.0554     1.4945     0.0276      0.048      6.962     10.097        687 2.6301e-01 0.0000e+00
      7.108     8.3643     0.1054      0.896  39.299429     58.936      6.622   109.2441     1.0797     1.6153     0.0280      0.040      6.972     10.112        688 2.5858e-01 0.0000e+00
      7.122     8.3578     0.0980      0.833  39.829957     59.648      6.625   107.5784     1.0352     1.4945     0.0283      0.035      6.985     10.131        689 2.6077e-01 0.0000e+00
      7.137     8.3490     0.0993      0.844  40.201320     60.279      6.628   105.4962     1.0029     1.2125     0.0286      0.035      7.000     10.154        690 2.6391e-01 0.0000e+00
      7.156     8.3417     0.1014      0.861  40.676555     60.919      6.630   104.2091     0.9988     1.2528     0.0288      0.040      7.017     10.179        691 2.7889e-01 0.0000e+00
      7.176     8.3333     0.0977      0.830  41.137197     61.732      6.632   102.5812     0.9665     1.3736     0.0292      0.047      7.037     10.206        692 2.6116e-01 0.0000e+00
      7.197     8.3263     0.0961      0.816  41.526759     62.206      6.630   101.0291     0.9826     1.3333     0.0294      0.055      7.055     10.233        693 2.2121e-01 0.0000e+00
      7.211     8.3241     0.0959      0.814  41.912487     62.935      6.632    99.8933     1.1120     1.4676     0.0297      0.062      7.070     10.254        694 2.6711e-01 0.0000e+00
      7.221     8.3205     0.0946      0.803  42.288933     63.368      6.632    98.6819     1.0999     1.4542     0.0299      0.064      7.083     10.273        695 2.5265e-01 0.0000e+00
      7.238     8.3090     0.0974      0.826  42.601066     64.001      6.634    96.9405     1.1242     1.4005     0.0302      0.066      7.099     10.297        696 2.1205e-01 0.0000e+00
      7.258     8.2937     0.0966      0.819  42.710815     64.008      6.632    95.5398     1.1242     1.6153     0.0302      0.066      7.119     10.326        697 2.5104e-01 0.0000e+00
      7.283     8.2774     0.0970      0.822  43.487508     65.289      6.631    94.5933     1.0473     1.2125     0.0307      0.068      7.144     10.361        698 2.4998e-01 0.0000e+00
      7.313     8.2600     0.0978      0.829  44.245519     66.495      6.627    93.6469     1.0756     1.2662     0.0313      0.072      7.170     10.399        699 2.5235e-01 0.0000e+00
      7.336     8.2463     0.0882      0.747  44.200522     66.360      6.622    93.1547     1.0271     1.3065     0.0312      0.077      7.192     10.431        700 2.2589e-01 0.0000e+00
      7.352     8.2364     0.0893      0.757  44.136944     66.395      6.620    92.2462     1.0554     1.2662     0.0312      0.080      7.209     10.455        701 2.3443e-01 0.0000e+00
      7.365     8.2251     0.0975      0.827  43.998260     66.128      6.620    90.8076     1.1242     1.7228     0.0311      0.082      7.222     10.475        702 2.3495e-01 0.0000e+00
      7.376     8.2141     0.0894      0.758  43.957712     66.147      6.623    89.3690     1.1201     1.7228     0.0311      0.081      7.234     10.492        703 1.9472e-01 0.0000e+00
      7.389     8.2038     0.0941      0.797  44.098396     66.338      6.623    88.3469     1.1444     1.6422     0.0312      0.076      7.246     10.510        704 2.0616e-01 0.0000e+00
      7.401     8.1925     0.0986      0.835  44.060563     66.360      6.626    87.2112     1.0999     1.6556     0.0312      0.068      7.259     10.529        705 2.0751e-01 0.0000e+00
      7.418     8.1827     0.0978      0.828  44.004802     66.212      6.625    86.3404     1.0473     1.5616     0.0311      0.061      7.273     10.549        706 2.2048e-01 0.0000e+00
      7.430     8.1744     0.0961      0.814  44.049109     66.403      6.630    85.2047     1.0554     1.5348     0.0312      0.055      7.286     10.567        707 2.0387e-01 0.0000e+00
      7.440     8.1625     0.0990      0.838  44.064773     66.339      6.629    83.7661     1.0392     1.4139     0.0311      0.051      7.297     10.583        708 2.2414e-01 0.0000e+00
      7.453     8.1568     0.0960      0.812  44.430396     66.987      6.633    82.1761     1.0473     1.5079     0.0314      0.050      7.309     10.601        709 2.4934e-01 0.0000e+00
      7.466     8.1601     0.0923      0.781  44.662303     67.349      6.633    81.3054     1.0352     1.5348     0.0316      0.050      7.322     10.620        710 1.9333e-01 0.0000e+00
      7.480     8.1573     0.0915      0.774  44.725691     67.404      6.637    79.5261     1.0635     1.4139     0.0316      0.050      7.337     10.643        711 1.7760e-01 0.0000e+00
      7.500     8.1467     0.0922      0.780  44.944971     67.816      6.639    78.0118     1.0595     1.5885     0.0318      0.052      7.357     10.670        712 2.0770e-01 0.0000e+00
      7.524     8.1330     0.0905      0.766  45.338952     68.288      6.644    77.4818     1.0514     1.4408     0.0320      0.057      7.380     10.703        713 2.2248e-01 0.0000e+00
      7.552     8.1221     0.0911      0.770  46.134513     69.657      6.645    77.0654     1.0473     1.4810     0.0326      0.063      7.403     10.738        714 2.2824e-01 0.0000e+00
      7.571     8.1153     0.0916      0.775  46.536580     70.194      6.644    76.9518     1.0312     1.7362     0.0328      0.070      7.422     10.765        715 1.9926e-01 0.0000e+00
      7.582     8.1099     0.0893      0.755  46.589402     70.343      6.646    75.7783     1.0635     1.7630     0.0329      0.074      7.434     10.782        716 1.7587e-01 0.0000e+00
      7.589     8.1063     0.0900      0.761  46.662291     70.443      6.648    75.1726     1.0797     1.6825     0.0329      0.074      7.444     10.796        717 2.1704e-01 0.0000e+00
      7.600     8.1018     0.1009      0.853  46.920688     70.834      6.648    74.0368     1.0312     1.7630     0.0331      0.070      7.454     10.812        718 2.0678e-01 0.0000e+00
      7.615     8.0930     0.0913      0.772  47.989069     72.447      6.651    73.3933     1.1120     1.5079     0.0338      0.065      7.469     10.834        719 2.0515e-01 0.0000e+00
      7.635     8.0824     0.0962      0.813  48.953328     74.019      6.654    72.4090     1.1161     1.5079     0.0345      0.061      7.486     10.857        720 2.2480e-01 0.0000e+00
      7.649     8.0753     0.0942      0.796  49.074281     74.081      6.658    71.6897     1.1363     1.5079     0.0346      0.056      7.499     10.876        721 1.9558e-01 0.0000e+00
      7.657     8.0724     0.0925      0.782  49.055366     74.189      6.658    70.5161     1.0959     1.5616     0.0346      0.052      7.509     10.891        722 2.1391e-01 0.0000e+00
      7.666     8.0696     0.0974      0.822  49.006554     74.037      6.661    69.5697     1.0554     1.4676     0.0345      0.050      7.518     10.904        723 1.9926e-01 0.0000e+00
      7.676     8.0651     0.0976      0.824  48.986636     74.085      6.661    68.8504     1.0473     1.5885     0.0345      0.049      7.528     10.918        724 1.7759e-01 0.0000e+00
      7.688     8.0545     0.0964      0.813  49.109835     74.219      6.663    67.8282     1.0797     1.4676     0.0346      0.049      7.540     10.935        725 2.0012e-01 0.0000e+00
      7.701     8.0408     0.0949      0.800  49.268748     74.524      6.668    67.1468     1.0716     1.4945     0.0347      0.047      7.551     10.952        726 1.7521e-01 0.0000e+00
      7.710     8.0320     0.0974      0.822  49.293426     74.548      6.667    66.3140     1.0716     1.2393     0.0347      0.044      7.561     10.966        727 1.8628e-01 0.0000e+00
      7.720     8.0296     0.0972      0.820  49.346246     74.664      6.672    65.6325     1.0554     1.2931     0.0348      0.041      7.570     10.979        728 1.6552e-01 0.0000e+00
      7.727     8.0298     0.0945      0.797  49.410779     74.811      6.675    64.8754     1.0271     1.2259     0.0348      0.040      7.579     10.992        729 1.4130e-01 0.0000e+00
      7.739     8.0247     0.0973      0.820  49.302159     74.605      6.677    64.0425     1.0473     1.2662     0.0348      0.040      7.590     11.009        730 1.9578e-01 0.0000e+00
      7.753     8.0132     0.0854      0.720  49.392385     74.773      6.677    63.0204     1.0878     1.5616     0.0348      0.042      7.604     11.029        731 1.9871e-01 0.0000e+00
      7.770     7.9989     0.0950      0.801  49.446894     74.870      6.680    62.6418     1.0635     1.4945     0.0349      0.043      7.621     11.054        732 1.7382e-01 0.0000e+00
      7.791     7.9839     0.0867      0.731  49.471764     74.895      6.682    62.3768     1.0595     1.4810     0.0349      0.047      7.643     11.086        733 1.5431e-01 0.0000e+00
      7.822     7.9699     0.0861      0.725  49.747282     75.395      6.681    61.3925     1.0676     1.4945     0.0351      0.056      7.669     11.123        734 1.5884e-01 0.0000e+00
      7.848     7.9588     0.0931      0.785  49.935069     75.683      6.681    60.5975     1.0392     1.4542     0.0352      0.067      7.692     11.156        735 1.7582e-01 0.0000e+00
      7.859     7.9519     0.0873      0.735  49.861359     75.631      6.681    59.7647     1.0554     1.5616     0.0352      0.074      7.706     11.176        736 1.5720e-01 0.0000e+00
      7.867     7.9473     0.0891      0.750  49.839022     75.571      6.679    58.9696     1.0352     1.4676     0.0351      0.076      7.716     11.191        737 1.5747e-01 0.0000e+00
      7.879     7.9415     0.0863      0.727  49.992557     75.884      6.685    58.2882     1.0473     1.5079     0.0353      0.074      7.728     11.209        738 1.5028e-01 0.0000e+00
      7.894     7.9337     0.0942      0.793  50.056139     75.937      6.684    58.2882     1.0392     1.5482     0.0353      0.071      7.742     11.229        739 1.5221e-01 0.0000e+00
      7.911     7.9243     0.0863      0.727  50.175427     76.163      6.688    58.6289     1.0595     1.3333     0.0354      0.066      7.758     11.252        740 1.6707e-01 0.0000e+00
      7.928     7.9154     0.0978      0.823  50.289321     76.350      6.686    58.4396     1.0716     1.2931     0.0355      0.061      7.774     11.274        741 1.3657e-01 0.0000e+00
      7.941     7.9091     0.0955      0.804  50.478343     76.627      6.691    57.7961     1.0473     1.3333     0.0356      0.055      7.787     11.294        742 1.2758e-01 0.0000e+00
      7.954     7.9056     0.0918      0.773  50.711911     77.073      6.692    57.1146     1.0635     1.3333     0.0358      0.054      7.800     11.314        743 1.4144e-01 0.0000e+00
      7.969     7.9033     0.0949      0.798  50.621964     76.875      6.696    56.6982     1.0433     1.4139     0.0357      0.056      7.815     11.335        744 1.7705e-01 0.0000e+00
      7.985     7.8981     0.0902      0.759  50.709010     77.053      6.695    56.0546     1.0756     1.4408     0.0358      0.058      7.830     11.357        745 1.6214e-01 0.0000e+00
      7.999     7.8902     0.0919      0.773  50.930086     77.398      6.701    55.6004     1.0797     1.4676     0.0359      0.058      7.844     11.377        746 1.3451e-01 0.0000e+00
      8.013     7.8817     0.0936      0.787  51.059206     77.581      6.704    54.9189     1.0676     1.4945     0.0360      0.058      7.859     11.397        747 1.5249e-01 0.0000e+00
      8.028     7.8771     0.0885      0.744  51.290379     77.982      6.707    54.4268     1.0595     1.6422     0.0362      0.057      7.874     11.419        748 1.3045e-01 0.0000e+00
      8.046     7.8761     0.0859      0.723  51.414141     78.173      6.707    53.3289     1.0554     1.7362     0.0363      0.058      7.889     11.443        749 1.3726e-01 0.0000e+00
      8.060     7.8738     0.0898      0.755  51.409792     78.184      6.709    52.8746     1.0473     1.7630     0.0363      0.059      7.903     11.463        750 1.4137e-01 0.0000e+00
      8.071     7.8699     0.0867      0.729  51.562937     78.398      6.714    51.7011     1.0635     1.7228     0.0364      0.058      7.914     11.478        751 1.2826e-01 0.0000e+00
      8.079     7.8662     0.0889      0.748  51.698483     78.659      6.715    51.7389     1.0312     1.4676     0.0365      0.056      7.922     11.490        752 1.4324e-01 0.0000e+00
      8.084     7.8636     0.0879      0.739  51.686355     78.583      6.719    50.7546     1.0716     1.4676     0.0365      0.051      7.929     11.500        753 1.4537e-01 0.0000e+00
      8.092     7.8596     0.0854      0.719  51.637398     78.593      6.720    50.1111     1.0271     1.4408     0.0365      0.047      7.938     11.513        754 1.4582e-01 0.0000e+00
      8.108     7.8545     0.0829      0.697  51.818776     78.769      6.720    50.0353     1.0676     1.4676     0.0365      0.044      7.955     11.538        755 1.3558e-01 0.0000e+00
      8.137     7.8505     0.0847      0.713  52.083985     79.332      6.722    49.6189     1.1242     1.4408     0.0368      0.046      7.980     11.574        756 1.2522e-01 0.0000e+00
      8.168     7.8444     0.0903      0.760  52.435327     79.685      6.724    49.1646     1.1323     1.5213     0.0369      0.053      8.007     11.613        757 1.2549e-01 0.0000e+00
      8.188     7.8385     0.0874      0.735  52.509526     80.077      6.723    49.0889     1.1161     1.4945     0.0371      0.062      8.029     11.645        758 1.2575e-01 0.0000e+00
      8.206     7.8387     0.0886      0.745  53.000913     80.433      6.721    48.3318     1.1403     1.4945     0.0373      0.071      8.046     11.671        759 1.2489e-01 0.0000e+00
      8.222     7.8425     0.0927      0.779  54.525203     83.259      6.726    47.9153     1.0999     1.4945     0.0385      0.078      8.061     11.692        760 1.2679e-01 0.0000e+00
      8.232     7.8452     0.0924      0.777  54.976434     83.557      6.727    47.9910     1.0554     1.4676     0.0387      0.080      8.074     11.710        761 1.2336e-01 0.0000e+00
      8.245     7.8434     0.0969      0.814  54.933025     83.717      6.728    47.2718     1.0635     1.5885     0.0387      0.078      8.088     11.730        762 1.2913e-01 0.0000e+00
      8.264     7.8394     0.0921      0.774  55.083915     83.796      6.729    46.7039     1.0473     1.6422     0.0388      0.073      8.104     11.753        763 1.4431e-01 0.0000e+00
      8.278     7.8383     0.0924      0.777  54.996469     83.757      6.731    46.0225     1.0878     1.5348     0.0388      0.065      8.119     11.774        764 1.2914e-01 0.0000e+00
      8.292     7.8361     0.0922      0.775  55.071540     83.811      6.736    45.6818     1.0595     1.5482     0.0388      0.059      8.135     11.799        765 1.2331e-01 0.0000e+00
      8.317     7.8327     0.0897      0.754  55.465505     84.451      6.736    45.6060     1.0473     1.7093     0.0391      0.060      8.156     11.829        766 1.2703e-01 0.0000e+00
      8.341     7.8314     0.0918      0.772  55.871859     85.097      6.737    45.1518     1.0554     1.7362     0.0394      0.064      8.179     11.862        767 1.2478e-01 0.0000e+00
      8.361     7.8290     0.0874      0.734  56.169040     85.489      6.741    44.7353     1.0514     1.7899     0.0395      0.069      8.199     11.892        768 1.2616e-01 0.0000e+00
      8.382     7.8238     0.0886      0.745  56.609835     86.259      6.742    44.0160     1.3223     2.0047     0.0399      0.075      8.218     11.919        769 1.2535e-01 0.0000e+00
      8.397     7.8184     0.0914      0.768  56.570273     86.138      6.743    43.5996     1.3304     1.8570     0.0398      0.077      8.233     11.941        770 1.2566e-01 0.0000e+00
      8.407     7.8140     0.0899      0.755  56.574555     86.151      6.741    43.5239     1.3223     1.9376     0.0398      0.075      8.245     11.959        771 1.2536e-01 0.0000e+00
      8.421     7.8088     0.0892      0.750  56.693580     86.422      6.744    43.1075     1.3102     1.9645     0.0399      0.073      8.260     11.979        772 1.2566e-01 0.0000e+00
      8.439     7.8046     0.0873      0.733  56.570603     86.134      6.745    42.1610     1.0716     1.5616     0.0398      0.070      8.276     12.003        773 1.2546e-01 0.0000e+00
      8.457     7.8008     0.0895      0.751  56.697912     86.447      6.746    41.8960     1.0635     1.5482     0.0399      0.066      8.293     12.028        774 1.2557e-01 0.0000e+00
      8.473     7.7939     0.0920      0.773  56.683601     86.373      6.748    41.5932     1.0595     1.4945     0.0399      0.062      8.307     12.049        775 1.2553e-01 0.0000e+00
      8.482     7.7878     0.0843      0.708  56.558725     86.211      6.750    41.2146     1.0433     1.4273     0.0398      0.059      8.319     12.065        776 1.2553e-01 0.0000e+00
      8.494     7.7852     0.0933      0.783  56.526729     86.188      6.750    41.0253     1.0433     1.4945     0.0398      0.057      8.329     12.080        777 1.2549e-01 0.0000e+00
      8.505     7.7855     0.0885      0.743  56.426524     86.033      6.754    40.0410     1.0716     1.4810     0.0398      0.055      8.339     12.095        778 1.2542e-01 0.0000e+00
      8.511     7.7866     0.0920      0.772  56.297463     85.869      6.756    40.2682     1.0676     1.5348     0.0397      0.053      8.348     12.108        779 1.2547e-01 0.0000e+00
      8.522     7.7846     0.0813      0.682  56.271685     85.783      6.757    40.0410     1.0676     1.4676     0.0396      0.048      8.358     12.123        780 1.2557e-01 0.0000e+00
      8.536     7.7833     0.0857      0.719  56.339845     85.950      6.760    39.7760     1.1403     1.5482     0.0397      0.045      8.373     12.144        781 1.2559e-01 0.0000e+00
      8.555     7.7814     0.0825      0.692  56.272019     85.785      6.761    38.9432     1.1444     1.4676     0.0396      0.044      8.391     12.170        782 1.2555e-01 0.0000e+00
      8.578     7.7715     0.0859      0.720  56.177954     85.703      6.763    38.7160     1.1323     1.6019     0.0396      0.048      8.411     12.199        783 1.2549e-01 0.0000e+00
      8.596     7.7620     0.0871      0.731  56.278770     85.792      6.766    38.6782     1.1323     1.5348     0.0396      0.054      8.429     12.225        784 1.2560e-01 0.0000e+00
      8.613     7.7567     0.0821      0.688  56.384078     86.076      6.768    37.9210     1.1120     1.4810     0.0398      0.060      8.446     12.250        785 1.2564e-01 0.0000e+00
      8.630     7.7508     0.0869      0.729  56.343806     85.930      6.768    37.3532     1.0473     1.4945     0.0397      0.065      8.464     12.275        786 1.2553e-01 0.0000e+00
      8.650     7.7456     0.0853      0.715  56.388274     86.115      6.771    37.8074     1.0554     1.4810     0.0398      0.070      8.481     12.300        787 1.2562e-01 0.0000e+00
      8.663     7.7411     0.0857      0.718  56.447504     86.130      6.773    37.0882     1.0999     1.6019     0.0398      0.071      8.496     12.322        788 1.2562e-01 0.0000e+00
      8.677     7.7361     0.0833      0.698  56.567001     86.400      6.776    37.0503     1.0473     1.6019     0.0399      0.070      8.510     12.343        789 1.2559e-01 0.0000e+00
      8.694     7.7324     0.0872      0.732  56.684918     86.540      6.780    36.5960     1.0595     1.8033     0.0400      0.067      8.526     12.366        790 1.2564e-01 0.0000e+00
      8.711     7.7289     0.0850      0.713  56.716426     86.639      6.783    35.9146     1.0595     1.6959     0.0400      0.065      8.542     12.389        791 1.2555e-01 0.0000e+00
      8.724     7.7245     0.0901      0.755  56.795007     86.734      6.784    35.5739     1.0433     1.7362     0.0400      0.063      8.557     12.410        792 1.2550e-01 0.0000e+00
      8.742     7.7204     0.0837      0.702  56.884034     86.914      6.786    35.3089     1.0352     1.6153     0.0401      0.062      8.572     12.433        793 1.2540e-01 0.0000e+00
      8.757     7.7178     0.0889      0.745  56.961926     87.011      6.788    34.8546     1.0514     1.2259     0.0402      0.061      8.586     12.453        794 1.2550e-01 0.0000e+00
      8.767     7.7155     0.0866      0.726  57.024675     87.151      6.791    34.3624     1.0554     1.2393     0.0402      0.059      8.597     12.469        795 1.2559e-01 0.0000e+00
      8.777     7.7130     0.0834      0.699  57.102856     87.243      6.794    33.7946     1.0514     1.1856     0.0403      0.058      8.608     12.486        796 1.2545e-01 0.0000e+00
      8.791     7.7111     0.0866      0.726  57.220925     87.463      6.798    33.7189     1.0554     1.2931     0.0404      0.055      8.623     12.506        797 1.2544e-01 0.0000e+00
      8.811     7.7095     0.0833      0.698  57.323108     87.598      6.799    33.1131     1.0716     1.4810     0.0404      0.055      8.641     12.532        798 1.2547e-01 0.0000e+00
      8.832     7.7075     0.0871      0.730  57.450753     87.817      6.802    32.9996     1.0392     1.5750     0.0405      0.056      8.662     12.562        799 1.2554e-01 0.0000e+00
      8.854     7.7045     0.0833      0.698  57.566831     87.992      6.802    32.6589     1.0554     1.4810     0.0406      0.060      8.682     12.591        800 1.2555e-01 0.0000e+00
      8.872     7.7021     0.0741      0.621  57.653719     88.126      6.806    32.4317     1.0756     1.5616     0.0407      0.064      8.698     12.615        801 1.2547e-01 0.0000e+00
      8.882     7.7005     0.0795      0.667  57.669234     88.177      6.805    32.2046     1.1080     1.7093     0.0407      0.066      8.709     12.631        802 1.2558e-01 0.0000e+00
      8.888     7.6999     0.0757      0.635  57.636601     88.098      6.807    31.7503     1.1080     1.7228     0.0406      0.066      8.716     12.642        803 1.2575e-01 0.0000e+00
      8.896     7.7004     0.0897      0.752  57.605257     88.102      6.809    31.6367     1.1080     1.7228     0.0406      0.062      8.726     12.656        804 1.2562e-01 0.0000e+00
      8.912     7.7009     0.0834      0.700  57.737934     88.232      6.810    30.9553     1.1484     1.6825     0.0407      0.057      8.741     12.678        805 1.2556e-01 0.0000e+00
      8.934     7.7015     0.0801      0.671  58.005944     88.744      6.810    30.4631     1.0716     1.4139     0.0409      0.054      8.759     12.705        806 1.2552e-01 0.0000e+00
      8.951     7.7034     0.0826      0.693  58.459416     89.299      6.813    30.1224     1.0554     1.4945     0.0412      0.053      8.777     12.730        807 1.2545e-01 0.0000e+00
      8.967     7.7062     0.0880      0.738  59.044248     90.367      6.814    29.7817     1.0635     1.4408     0.0417      0.053      8.792     12.753        808 1.2553e-01 0.0000e+00
      8.981     7.7089     0.0922      0.774  59.148808     90.362      6.816    29.5924     1.0392     1.5348     0.0417      0.056      8.807     12.773        809 1.2550e-01 0.0000e+00
      8.996     7.7103     0.0872      0.731  59.279487     90.653      6.816    29.1003     1.0473     1.4945     0.0418      0.060      8.821     12.793        810 1.2556e-01 0.0000e+00
      9.006     7.7122     0.0855      0.717  59.534892     90.988      6.819    29.0246     1.0312     1.5616     0.0419      0.062      8.832     12.810        811 1.2562e-01 0.0000e+00
      9.016     7.7149     0.0837      0.702  59.632708     91.155      6.821    28.4946     1.0878     1.4676     0.0420      0.060      8.842     12.825        812 1.2560e-01 0.0000e+00
      9.029     7.7160     0.0899      0.754  59.781341     91.364      6.822    28.1917     1.0554     1.5213     0.0421      0.056      8.855     12.844        813 1.2563e-01 0.0000e+00
      9.047     7.7158     0.0909      0.762  60.062597     91.784      6.823    27.7374     1.0271     1.4542     0.0423      0.053      8.872     12.868        814 1.2560e-01 0.0000e+00
      9.065     7.7152     0.0898      0.753  60.292327     92.166      6.824    27.3210     1.0473     1.5348     0.0425      0.053      8.889     12.893        815 1.2549e-01 0.0000e+00
      9.081     7.7147     0.0845      0.708  60.326919     92.166      6.825    27.2074     1.0312     1.4408     0.0425      0.055      8.905     12.915        816 1.2549e-01 0.0000e+00
      9.095     7.7137     0.0892      0.747  60.405591     92.339      6.829    26.9046     1.0635     1.5482     0.0426      0.056      8.917     12.934        817 1.2547e-01 0.0000e+00
      9.104     7.7122     0.0846      0.709  60.431986     92.341      6.830    26.5638     1.0918     1.5750     0.0426      0.057      8.927     12.948        818 1.2543e-01 0.0000e+00
      9.111     7.7117     0.0846      0.709  60.412855     92.343      6.832    26.4881     0.9786     1.2528     0.0426      0.056      8.936     12.959        819 1.2552e-01 0.0000e+00
      9.120     7.7113     0.0882      0.740  60.429402     92.348      6.832    25.8446     0.9988     1.2393     0.0426      0.053      8.945     12.973        820 1.2551e-01 0.0000e+00
      9.131     7.7100     0.0906      0.759  60.470787     92.434      6.835    25.8446     0.9948     1.2259     0.0426      0.048      8.957     12.992        821 1.2545e-01 0.0000e+00
      9.152     7.7068     0.0820      0.687  60.480135     92.436      6.836    24.9738     1.0109     1.4408     0.0426      0.046      8.976     13.019        822 1.2547e-01 0.0000e+00
      9.176     7.7026     0.0889      0.745  60.477161     92.439      6.835    24.8603     1.0595     1.5750     0.0426      0.049      8.997     13.049        823 1.2553e-01 0.0000e+00
      9.196     7.6983     0.0874      0.732  60.533885     92.534      6.834    24.5953     1.0595     1.4945     0.0426      0.054      9.017     13.078        824 1.2553e-01 0.0000e+00
      9.213     7.6942     0.0803      0.672  60.528332     92.545      6.833    24.5195     1.0514     1.4810     0.0426      0.060      9.034     13.103        825 1.2554e-01 0.0000e+00
      9.228     7.6921     0.0823      0.690  60.484073     92.472      6.835    24.4817     1.0716     1.4408     0.0426      0.065      9.049     13.124        826 1.2555e-01 0.0000e+00
      9.242     7.6918     0.0836      0.700  60.470182     92.484      6.836    24.0653     1.0150     1.7093     0.0426      0.069      9.063     13.144        827 1.2543e-01 0.0000e+00
      9.254     7.6918     0.0876      0.734  60.486231     92.490      6.838    23.7624     0.9948     1.6825     0.0426      0.069      9.074     13.161        828 1.2558e-01 0.0000e+00
      9.264     7.6904     0.0829      0.694  60.523495     92.577      6.837    23.5353     0.9826     1.7630     0.0427      0.065      9.083     13.174        829 1.2561e-01 0.0000e+00
      9.268     7.6891     0.0870      0.729  60.542592     92.576      6.841    23.3081     0.9826     1.7496     0.0427      0.057      9.092     13.186        830 1.2550e-01 0.0000e+00
      9.282     7.6888     0.0867      0.726  60.521857     92.580      6.842    23.3838     0.9867     1.6153     0.0427      0.050      9.105     13.205        831 1.2562e-01 0.0000e+00
      9.301     7.6855     0.0882      0.738  60.489909     92.499      6.843    22.5131     0.9260     1.4542     0.0426      0.048      9.123     13.232        832 1.2554e-01 0.0000e+00
      9.324     7.6797     0.0876      0.734  60.463569     92.499      6.845    22.4753     0.9341     1.5348     0.0426      0.050      9.144     13.262        833 1.2544e-01 0.0000e+00
      9.347     7.6736     0.0846      0.709  60.554638     92.595      6.848    22.0967     0.9260     1.4945     0.0427      0.055      9.167     13.295        834 1.2544e-01 0.0000e+00
      9.370     7.6687     0.0849      0.711  60.703236     92.910      6.846    22.0210     0.9341     1.4542     0.0428      0.062      9.187     13.325        835 1.2546e-01 0.0000e+00
      9.387     7.6648     0.0799      0.669  60.813179     93.014      6.847    21.8317     0.9867     1.7228     0.0428      0.069      9.205     13.352        836 1.2560e-01 0.0000e+00
      9.404     7.6613     0.0801      0.670  60.774176     93.070      6.851    22.0967     0.9867     1.7630     0.0429      0.075      9.224     13.378        837 1.2559e-01 0.0000e+00
      9.426     7.6595     0.0819      0.686  60.840868     93.039      6.847    21.4531     0.9745     1.7899     0.0428      0.079      9.244     13.407        838 1.2552e-01 0.0000e+00
      9.447     7.6595     0.0779      0.652  61.324124     93.948      6.850    21.1124     1.0029     1.7630     0.0433      0.080      9.263     13.435        839 1.2559e-01 0.0000e+00
      9.464     7.6594     0.0882      0.738  61.598230     94.253      6.853    20.7338     1.0392     1.5482     0.0434      0.079      9.282     13.462        840 1.2556e-01 0.0000e+00
      9.485     7.6590     0.0836      0.700  61.776731     94.596      6.851    20.4688     1.0352     1.4945     0.0435      0.078      9.300     13.488        841 1.2554e-01 0.0000e+00
      9.500     7.6587     0.0843      0.705  61.963217     94.853      6.855    20.1281     1.0271     1.4945     0.0437      0.075      9.316     13.512        842 1.2552e-01 0.0000e+00
      9.514     7.6576     0.0793      0.664  62.108601     95.069      6.858    19.5602     1.0514     1.5482     0.0438      0.073      9.331     13.533        843 1.2562e-01 0.0000e+00
      9.530     7.6557     0.0855      0.716  62.308564     95.412      6.860    18.9167     1.0635     1.6959     0.0439      0.071      9.346     13.555        844 1.2570e-01 0.0000e+00
      9.547     7.6530     0.0816      0.683  62.456831     95.587      6.861    18.6895     1.0797     1.7899     0.0440      0.069      9.361     13.577        845 1.2553e-01 0.0000e+00
      9.559     7.6491     0.0812      0.679  62.488361     95.721      6.861    18.3488     1.0554     1.7228     0.0441      0.065      9.374     13.595        846 1.2562e-01 0.0000e+00
      9.569     7.6444     0.0829      0.694  62.239630     95.258      6.866    18.1217     1.0473     1.7362     0.0438      0.060      9.384     13.610        847 1.2553e-01 0.0000e+00
      9.578     7.6397     0.0864      0.723  62.083306     95.098      6.864    17.6295     0.9907     1.5750     0.0438      0.056      9.393     13.624        848 1.2547e-01 0.0000e+00
      9.589     7.6359     0.0865      0.723  61.999840     94.940      6.869    17.2888     0.9665     1.5348     0.0437      0.051      9.402     13.637        849 1.2560e-01 0.0000e+00
      9.595     7.6332     0.0865      0.724  61.898032     94.825      6.870    17.0617     1.0029     1.5213     0.0436      0.047      9.410     13.648        850 1.2557e-01 0.0000e+00
      9.601     7.6310     0.0868      0.726  61.913025     94.836      6.871    17.1374     0.9867     1.5616     0.0436      0.042      9.416     13.658        851 1.2557e-01 0.0000e+00
      9.611     7.6283     0.0822      0.687  61.981184     94.972      6.873    16.7967     1.0109     1.2796     0.0437      0.038      9.426     13.672        852 1.2554e-01 0.0000e+00
      9.624     7.6261     0.0838      0.701  62.050799     95.065      6.875    16.3424     1.0069     1.2662     0.0437      0.036      9.438     13.689        853 1.2552e-01 0.0000e+00
      9.636     7.6257     0.0820      0.686  62.093679     95.158      6.875    16.3424     0.9665     1.3602     0.0438      0.036      9.453     13.710        854 1.2562e-01 0.0000e+00
      9.656     7.6247     0.0798      0.667  62.106012     95.165      6.879    15.3581     1.0109     1.3065     0.0438      0.040      9.473     13.741        855 1.2559e-01 0.0000e+00
      9.690     7.6214     0.0881      0.737  62.154244     95.252      6.878    14.8660     0.9988     1.4810     0.0438      0.049      9.502     13.782        856 1.2539e-01 0.0000e+00
      9.721     7.6179     0.0832      0.695  62.211848     95.340      6.879    14.8660     0.9867     1.5348     0.0439      0.062      9.531     13.823        857 1.2552e-01 0.0000e+00
      9.744     7.6143     0.0883      0.739  62.271916     95.436      6.879    14.4495     1.0029     1.5213     0.0439      0.075      9.554     13.858        858 1.2567e-01 0.0000e+00
      9.764     7.6105     0.0824      0.689  62.524973     95.832      6.878    14.2981     0.9422     1.5750     0.0441      0.085      9.572     13.883        859 1.2557e-01 0.0000e+00
      9.775     7.6081     0.0885      0.740  62.639397     96.057      6.876    14.1467     0.9907     1.4945     0.0442      0.089      9.584     13.900        860 1.2558e-01 0.0000e+00
      9.780     7.6064     0.0866      0.724  62.545307     95.854      6.879    14.5252     1.0029     1.4945     0.0441      0.086      9.594     13.914        861 1.2559e-01 0.0000e+00
      9.794     7.6034     0.0852      0.712  62.671769     96.118      6.881    13.6924     0.9907     1.5616     0.0442      0.079      9.606     13.932        862 1.2556e-01 0.0000e+00
      9.811     7.5993     0.0836      0.699  63.016607     96.595      6.882    13.0867     1.0029     1.5348     0.0444      0.070      9.623     13.958        863 1.2558e-01 0.0000e+00
      9.835     7.5946     0.0818      0.683  63.274447     97.076      6.884    12.6702     0.9867     1.4676     0.0446      0.063      9.645     13.989        864 1.2556e-01 0.0000e+00
      9.858     7.5901     0.0820      0.685  63.509188     97.346      6.886    12.5945     0.9665     1.5616     0.0448      0.061      9.667     14.020        865 1.2567e-01 0.0000e+00
      9.879     7.5861     0.0827      0.691  63.793690     97.918      6.887    12.8217     1.0069     1.4408     0.0450      0.064      9.686     14.048        866 1.2564e-01 0.0000e+00
      9.893     7.5831     0.0842      0.703  64.108422     98.276      6.890    12.3674     0.9867     1.5079     0.0452      0.067      9.702     14.071        867 1.2560e-01 0.0000e+00
      9.908     7.5811     0.0847      0.707  64.275856     98.717      6.892    12.2917     0.9867     1.5616     0.0454      0.071      9.717     14.093        868 1.2569e-01 0.0000e+00
      9.926     7.5781     0.0834      0.696  64.298158     98.554      6.890    11.9509     1.0109     1.4676     0.0453      0.074      9.735     14.119        869 1.2555e-01 0.0000e+00
      9.948     7.5740     0.0876      0.731  64.852921     99.591      6.894    11.6859     0.9867     1.5348     0.0458      0.075      9.756     14.150        870 1.2552e-01 0.0000e+00
      9.971     7.5683     0.0821      0.686  65.605227    100.631      6.894    11.6102     1.0029     1.4139     0.0462      0.075      9.779     14.183        871 1.2566e-01 0.0000e+00
      9.995     7.5609     0.0867      0.723  66.361939    101.890      6.894    11.4967     0.9988     1.5885     0.0468      0.075      9.802     14.216        872 1.2558e-01 0.0000e+00
     10.018     7.5529     0.0860      0.718  67.297489    103.283      6.894    10.9667     1.0635     1.9376     0.0474      0.077      9.825     14.250        873 1.2543e-01 0.0000e+00
     10.041     7.5451     0.0812      0.678  67.857057    104.252      6.895    10.9288     1.0473     1.9107     0.0479      0.081      9.847     14.282        874 1.2543e-01 0.0000e+00
     10.064     7.5367     0.0807      0.674  68.220297    104.708      6.896    10.4745     1.0352     1.9107     0.0481      0.086      9.870     14.314        875 1.2550e-01 0.0000e+00
     10.088     7.5287     0.0795      0.664  68.984373    106.023      6.895     9.8688     1.0433     1.9376     0.0487      0.090      9.890     14.344        876 1.2545e-01 0.0000e+00
     10.101     7.5244     0.0824      0.688  69.550203    106.868      6.896     9.8309     1.0069     1.4945     0.0490      0.088      9.904     14.364        877 1.2544e-01 0.0000e+00
     10.107     7.5239     0.0851      0.710  69.536317    106.895      6.897     9.7931     0.9948     1.5348     0.0490      0.082      9.912     14.377        878 1.2563e-01 0.0000e+00
     10.116     7.5244     0.0792      0.661  69.447294    106.737      6.899     9.1116     1.0029     1.4945     0.0490      0.074      9.920     14.388        879 1.2555e-01 0.0000e+00
     10.124     7.5236     0.0804      0.671  69.482740    106.824      6.897     8.7709     0.9907     1.4676     0.0490      0.064      9.929     14.402        880 1.2544e-01 0.0000e+00
     10.135     7.5225     0.0829      0.692  69.611044    106.995      6.897     8.5059     0.9867     1.4945     0.0491      0.055      9.940     14.417        881 1.2552e-01 0.0000e+00
     10.148     7.5226     0.0824      0.688  69.762973    107.256      6.902     8.0516     0.9099     1.2662     0.0492      0.048      9.952     14.435        882 1.2574e-01 0.0000e+00
     10.163     7.5221     0.0811      0.676  70.125540    107.776      6.902     7.6352     0.9139     1.2528     0.0494      0.043      9.965     14.454        883 1.2560e-01 0.0000e+00
     10.173     7.5223     0.0759      0.633  70.615631    108.593      6.902     7.7488     0.9260     1.3468     0.0498      0.041      9.976     14.469        884 1.2531e-01 0.0000e+00
     10.182     7.5269     0.0837      0.698  70.698003    108.681      6.904     7.1431     0.9220     1.2931     0.0499      0.042      9.985     14.483        885 1.2551e-01 0.0000e+00
     10.192     7.5290     0.0782      0.652  70.884641    108.939      6.908     6.4238     0.9139     1.3065     0.0500      0.043      9.995     14.497        886 1.2556e-01 0.0000e+00
     10.203     7.5238     0.0826      0.689  71.452976    109.870      6.907     6.4238     0.9018     1.3333     0.0504      0.044     10.006     14.512        887 1.2546e-01 0.0000e+00
     10.213     7.5156     0.0829      0.691  71.921987    110.508      6.906     5.7045     0.9058     1.2125     0.0507      0.043     10.017     14.529        888 1.2541e-01 0.0000e+00
     10.228     7.5078     0.0818      0.682  72.291693    111.171      6.908     5.1745     0.9139     1.2259     0.0510      0.044     10.032     14.549        889 1.2548e-01 0.0000e+00
     10.247     7.5005     0.0833      0.695  72.240827    111.071      6.909     5.1745     0.9745     1.2931     0.0509      0.045     10.049     14.574        890 1.2557e-01 0.0000e+00
     10.266     7.4926     0.0837      0.698  72.638988    111.657      6.909     5.0231     1.0109     1.3333     0.0512      0.049     10.066     14.598        891 1.2551e-01 0.0000e+00
     10.277     7.4844     0.0896      0.747  73.965349    113.836      6.913     4.4931     0.9948     1.3602     0.0522      0.053     10.077     14.615        892 1.2558e-01 0.0000e+00
     10.284     7.4782     0.0800      0.667  74.423419    114.553      6.914     4.7202     1.0109     1.2931     0.0525      0.054     10.083     14.624        893 1.2561e-01 0.0000e+00
     10.284     7.4747     0.0869      0.725  73.940990    113.764      6.914     4.3038     1.0352     1.4408     0.0521      0.051     10.086     14.629        894 1.2564e-01 0.0000e+00
     10.287     7.4748     0.0779      0.650  73.793116    113.613      6.918     4.1523     1.0473     1.5348     0.0521      0.045     10.088     14.632        895 1.2564e-01 0.0000e+00
     10.290     7.4783     0.0817      0.682  73.894267    113.755      6.920     3.5466     1.0514     1.5616     0.0521      0.038     10.091     14.635        896 1.2554e-01 0.0000e+00
     10.292     7.4789     0.0849      0.709  73.666535    113.453      6.919     3.3952     1.0676     1.5213     0.0520      0.028     10.094     14.639        897 1.2555e-01 0.0000e+00
     10.296     7.4757     0.0841      0.702  73.987378    113.784      6.922     3.0923     0.9260     1.2931     0.0522      0.020     10.098     14.646        898 1.2566e-01 0.0000e+00
     10.303     7.4741     0.0804      0.671  74.832214    115.334      6.921     2.7516     0.9260     1.2528     0.0529      0.015     10.103     14.654        899 1.2557e-01 0.0000e+00
     10.308     7.4743     0.0779      0.651  74.933027    115.261      6.924     2.2973     0.9179     1.2662     0.0528      0.014     10.108     14.661        900 1.2547e-01 0.0000e+00
     10.311     7.4769     0.0858      0.716  74.872280    115.351      6.926     2.1081     0.9139     1.2796     0.0529      0.014     10.112     14.666        901 1.2541e-01 0.0000e+00
     10.314     7.4815     0.0856      0.715  74.848382    115.179      6.929     1.9566     0.9665     1.5348     0.0528      0.016     10.114     14.670        902 1.2539e-01 0.0000e+00
     10.315     7.4868     0.0774      0.646  74.606164    114.911      6.929     1.6538     0.9948     1.5616     0.0527      0.015     10.116     14.672        903 1.2553e-01 0.0000e+00
     10.317     7.4927     0.0781      0.652  74.371359    114.420      6.929     1.1238     1.0150     1.5348     0.0524      0.014     10.117     14.675        904 1.2546e-01 0.0000e+00
     10.320     7.4983     0.0830      0.693  74.367954    114.488      6.930     1.1995     0.9624     1.4542     0.0525      0.013     10.120     14.678        905 1.2550e-01 0.0000e+00
     10.323     7.5067 -9.990e-29 -9.990e-29  74.342946    114.380      6.931     0.7452     1.0029     1.2393     0.0524      0.011     10.123     14.682        906 1.2566e-01 0.0000e+00
     10.326     7.5127 -9.990e-29 -9.990e-29  74.283610    114.275      6.935     0.5559     0.9867     1.3065     0.0524      0.010     10.126     14.687        907 1.2562e-01 0.0000e+00
     10.329     7.5132 -9.990e-29 -9.990e-29  74.382358    114.418      6.937     0.8209     0.9867     1.2662     0.0525      0.010     10.129     14.692        908 1.2546e-01 0.0000e+00
     10.333     7.5141 -9.990e-29 -9.990e-29  74.546929    114.611      6.935     0.5181     0.9705     1.3602     0.0526      0.010     10.133     14.697        909 1.2549e-01 0.0000e+00
     10.337     7.5123 -9.990e-29 -9.990e-29  74.791998    115.042      6.938     0.3288     0.9745     1.3199     0.0527      0.012     10.137     14.702        910 1.2560e-01 0.0000e+00
     10.339     7.5078 -9.990e-29 -9.990e-29  74.760858    114.951      6.940     0.2909     1.0392     1.3736     0.0527      0.012     10.139     14.705        911 1.2565e-01 0.0000e+00
     10.339     7.5123 -9.990e-29 -9.990e-29  74.377665    114.398      6.939     0.4045     1.0514     1.5079     0.0525      0.012     10.139     14.705        912 1.2568e-01 0.0000e+00
     10.339     7.5159 -9.990e-29 -9.990e-29  73.812773    113.510      6.942     0.3288     1.0595     1.3871     0.0520      0.011     10.139     14.706        913 1.2560e-01 0.0000e+00
     10.340     7.5208 -9.990e-29 -9.990e-29  73.324312    112.763      6.942     0.1016     1.0595     1.5348     0.0517      0.009     10.139     14.706        914 1.2565e-01 0.0000e+00
     10.339     7.5284 -9.990e-29 -9.990e-29  72.905472    112.100      6.944    -0.3905     0.9948     1.2931     0.0514      0.007     10.139     14.706        915 1.2564e-01 0.0000e+00
     10.340 -9.990e-29 -9.990e-29 -9.990e-29  72.877983    112.005      6.946    -0.4662     0.9826     1.2662     0.0514      0.005     10.140     14.707        916 1.2561e-01 0.0000e+00
     10.341 -9.990e-29 -9.990e-29 -9.990e-29  73.091084    112.398      6.946    -0.5041     1.0029     1.2528     0.0516      0.003     10.140     14.707        917 1.2566e-01 0.0000e+00
