* Sea-Bird SBE19plus  Data File:
* FileName = C:\R\Reservoirs\Data\DataNotYetUploadedToEDI\Raw_CTD\RawDownloads\070522_bvr40_SBE19plus01907809_0004.hex
* Software version 2.8.0.119
* Temperature SN = 7809
* Conductivity SN = 7809
* System UpLoad Time = Jul 05 2022 16:51:54
* <ApplicationData>
* <Seaterm232>
* <SoftwareVersion>2.8.0.119</SoftwareVersion>
* <BuildDate>07-Nov-2018</BuildDate>
* </Seaterm232>
* </ApplicationData>
* <InstrumentState>
* <HardwareData DeviceType='SBE19plus' SerialNumber='01907809'>
*
*    <Manufacturer>Sea-Bird Electronics, Inc.</Manufacturer>
*
*    <FirmwareVersion>3.1.8</FirmwareVersion>
*
*    <FirmwareDate>Mar  9 2016 16:22:29</FirmwareDate>
*
*    <CommandSetVersion>1.4</CommandSetVersion>
*
*    <PCBAssembly PCBSerialNum='120721' AssemblyNum='41054J'/>
*
*    <PCBAssembly PCBSerialNum='120715' AssemblyNum='41967A'/>
*
*    <PCBAssembly PCBSerialNum='116699' AssemblyNum='41606'/>
*
*    <PCBAssembly PCBSerialNum='120719' AssemblyNum='41059D'/>
*
*    <MfgDate>28-Apr-2017</MfgDate>
*
*    <InternalSensors>
*
*       <Sensor id='Main Temperature'>
*
*          <type>temperature0</type>
*
*          <SerialNumber>01907809</SerialNumber>
*
*       </Sensor>
*
*       <Sensor id='Main Conductivity'>
*
*          <type>conductivity-0</type>
*
*          <SerialNumber>01907809</SerialNumber>
*
*       </Sensor>
*
*       <Sensor id='Main Pressure'>
*
*          <type>strain-0</type>
*
*          <SerialNumber>10586018</SerialNumber>
*
*       </Sensor>
*
*    </InternalSensors>
*
*    <ExternalSensors>
*
*       <Sensor id='volt 0'>
*
*          <type>pH</type>
*
*          <SerialNumber>27-0363</SerialNumber>
*
*       </Sensor>
*
*       <Sensor id='volt 1'>
*
*          <type>ORP</type>
*
*          <SerialNumber>27-0363</SerialNumber>
*
*       </Sensor>
*
*       <Sensor id='volt 2'>
*
*          <type>OXY</type>
*
*          <SerialNumber>43-0434</SerialNumber>
*
*       </Sensor>
*
*       <Sensor id='volt 3'>
*
*          <type>PAR</type>
*
*          <SerialNumber>1122</SerialNumber>
*
*       </Sensor>
*
*       <Sensor id='volt 4'>
*
*          <type>ECO AFL/FL</type>
*
*          <SerialNumber>FLNTURT-2496</SerialNumber>
*
*       </Sensor>
*
*       <Sensor id='volt 5'>
*
*          <type>ECO-NTU</type>
*
*          <SerialNumber>FLNTURT-2496</SerialNumber>
*
*       </Sensor>
*
*       <Sensor id='serial'>
*
*          <type>not assigned</type>
*
*          <SerialNumber>not assigned</SerialNumber>
*
*       </Sensor>
*
*    </ExternalSensors>
*
* </HardwareData>
* <StatusData DeviceType='SBE19plus' SerialNumber='01907809'>
*
*    <DateTime>2022-07-05T13:45:48</DateTime>
*
*    <LoggingState>not logging</LoggingState>
*
*    <EventSummary numEvents='0'/>
*
*    <Power>
*
*       <vMain>12.4</vMain>
*
*       <vLith>8.5</vLith>
*
*       <iMain>63.1</iMain>
*
*       <iPump>164.0</iPump>
*
*       <iExt01>19.7</iExt01>
*
*       <iExt2345>37.3</iExt2345>
*
*    </Power>
*
*    <MemorySummary>
*
*       <Bytes>388930</Bytes>
*
*       <Samples>16910</Samples>
*
*       <SamplesFree>2843878</SamplesFree>
*
*       <SampleLength>23</SampleLength>
*
*       <Profiles>6</Profiles>
*
*    </MemorySummary>
*
* </StatusData>
* <ConfigurationData DeviceType='SBE19plus' SerialNumber='01907809'>
*
*    <ProfileMode>
*
*       <ScansToAverage>1</ScansToAverage>
*
*       <MinimumCondFreq>5</MinimumCondFreq>
*
*       <PumpDelay>40</PumpDelay>
*
*       <AutoRun>no</AutoRun>
*
*       <IgnoreSwitch>no</IgnoreSwitch>
*
*    </ProfileMode>
*
*    <Battery>
*
*       <Type>alkaline</Type>
*
*       <CutOff>7.5</CutOff>
*
*    </Battery>
*
*    <DataChannels>
*
*       <ExtVolt0>yes</ExtVolt0>
*
*       <ExtVolt1>yes</ExtVolt1>
*
*       <ExtVolt2>yes</ExtVolt2>
*
*       <ExtVolt3>yes</ExtVolt3>
*
*       <ExtVolt4>yes</ExtVolt4>
*
*       <ExtVolt5>yes</ExtVolt5>
*
*       <SBE38>no</SBE38>
*
*       <WETLABS>no</WETLABS>
*
*       <OPTODE>no</OPTODE>
*
*       <SBE63>no</SBE63>
*
*       <SeaFET>no</SeaFET>
*
*       <GTD>no</GTD>
*
*    </DataChannels>
*
*    <EchoCharacters>yes</EchoCharacters>
*
*    <OutputExecutedTag>yes</OutputExecutedTag>
*
*    <OutputFormat>raw HEX</OutputFormat>
*
* </ConfigurationData>
* <CalibrationCoefficients DeviceType='SBE19plus' SerialNumber='01907809'>
*
*    <Calibration format='TEMP1' id='Main Temperature'>
*
*       <SerialNum>01907809</SerialNum>
*
*       <CalDate>25-Sep-21</CalDate>
*
*       <TA0>1.232513e-03</TA0>
*
*       <TA1>2.763223e-04</TA1>
*
*       <TA2>-9.501887e-07</TA2>
*
*       <TA3>1.718014e-07</TA3>
*
*       <TOFFSET>0.000000e+00</TOFFSET>
*
*    </Calibration>
*
*    <Calibration format='WBCOND0' id='Main Conductivity'>
*
*       <SerialNum>01907809</SerialNum>
*
*       <CalDate>25-Sep-21</CalDate>
*
*       <G>-1.004440e+00</G>
*
*       <H>1.264604e-01</H>
*
*       <I>-7.854363e-05</I>
*
*       <J>2.210938e-05</J>
*
*       <CPCOR>-9.570000e-08</CPCOR>
*
*       <CTCOR>3.250000e-06</CTCOR>
*
*       <CSLOPE>1.000000e+00</CSLOPE>
*
*    </Calibration>
*
*    <Calibration format='STRAIN0' id='Main Pressure'>
*
*       <SerialNum>10586018</SerialNum>
*
*       <CalDate>10-Sep-21</CalDate>
*
*       <PA0>4.789196e-02</PA0>
*
*       <PA1>4.853655e-04</PA1>
*
*       <PA2>-3.689276e-12</PA2>
*
*       <PTCA0>5.254946e+05</PTCA0>
*
*       <PTCA1>1.325193e+01</PTCA1>
*
*       <PTCA2>-3.889275e-01</PTCA2>
*
*       <PTCB0>2.516687e+01</PTCB0>
*
*       <PTCB1>3.750000e-04</PTCB1>
*
*       <PTCB2>0.000000e+00</PTCB2>
*
*       <PTEMPA0>-5.401644e+01</PTEMPA0>
*
*       <PTEMPA1>5.390655e+01</PTEMPA1>
*
*       <PTEMPA2>-2.194112e-02</PTEMPA2>
*
*       <POFFSET>-1.280000e-01</POFFSET>
*
*       <PRANGE>1.600000e+02</PRANGE>
*
*    </Calibration>
*
*    <Calibration format='VOLT0' id='Volt 0'>
*
*       <OFFSET>-4.920000e-02</OFFSET>
*
*       <SLOPE>1.248122e+00</SLOPE>
*
*    </Calibration>
*
*    <Calibration format='VOLT0' id='Volt 1'>
*
*       <OFFSET>-4.784000e-02</OFFSET>
*
*       <SLOPE>1.248871e+00</SLOPE>
*
*    </Calibration>
*
*    <Calibration format='VOLT0' id='Volt 2'>
*
*       <OFFSET>-4.864632e-02</OFFSET>
*
*       <SLOPE>1.248714e+00</SLOPE>
*
*    </Calibration>
*
*    <Calibration format='VOLT0' id='Volt 3'>
*
*       <OFFSET>-4.743790e-02</OFFSET>
*
*       <SLOPE>1.248571e+00</SLOPE>
*
*    </Calibration>
*
*    <Calibration format='VOLT0' id='Volt 4'>
*
*       <OFFSET>-4.671263e-02</OFFSET>
*
*       <SLOPE>1.248951e+00</SLOPE>
*
*    </Calibration>
*
*    <Calibration format='VOLT0' id='Volt 5'>
*
*       <OFFSET>-4.871053e-02</OFFSET>
*
*       <SLOPE>1.249136e+00</SLOPE>
*
*    </Calibration>
*
*    <Calibration format='FREQ0' id='external frequency channel'>
*
*       <EXTFREQSF>1.000014e+00</EXTFREQSF>
*
*    </Calibration>
*
* </CalibrationCoefficients>
* <EventCounters DeviceType='SBE19plus' SerialNumber='01907809'>
*
*    <EventSummary numEvents='0'/>
*
* </EventCounters></InstrumentState>
* <Headers>
*
* cast   4 05 Jul 2022 07:38:57 samples 13638 to 14178, avg = 1, stop = mag switch
*
# nquan = 15
# nvalues = 541                         
# units = specified
# name 0 = depFM: Depth [fresh water, m]
# name 1 = dz/dtM: Descent Rate [m/s]
# name 2 = sbeox0Mg/L: Oxygen, SBE 43 [mg/l]
# name 3 = sbeox0PS: Oxygen, SBE 43 [% saturation]
# name 4 = specc: Specific Conductance [uS/cm]
# name 5 = c0uS/cm: Conductivity [uS/cm]
# name 6 = flECO-AFL: Fluorescence, WET Labs ECO-AFL/FL [mg/m^3]
# name 7 = ph: pH
# name 8 = orp: Oxidation Reduction Potential [mV]
# name 9 = par/sat/log: PAR/Logarithmic, Satlantic
# name 10 = turbWETntu0: Turbidity, WET Labs ECO [NTU]
# name 11 = prdM: Pressure, Strain Gauge [db]
# name 12 = prdE: Pressure, Strain Gauge [psi]
# name 13 = tv290C: Temperature [ITS-90, deg C]
# name 14 = flag:  0.000e+00
# span 0 =     -0.718,      2.278       
# span 1 =     -0.351,      0.159       
# span 2 =     0.0305,     7.9886       
# span 3 =      0.347,    100.512       
# span 4 =      3.381,    158.648       
# span 5 =   3.402147, 133.557299       
# span 6 =    -0.0669,     4.1989       
# span 7 =      7.411,      9.542       
# span 8 =    28.0671,   213.3273       
# span 9 = 3.1944e+00, 1.7423e+03       
# span 10 =    -0.3444,    27.5823      
# span 11 =     -0.706,      2.237      
# span 12 =     -1.024,      3.245      
# span 13 =    17.0473,    28.2215      
# span 14 = 0.0000e+00, 0.0000e+00      
# interval = seconds: 0.25
# start_time = Jul 05 2022 07:38:57 [Instrument's time stamp, header]
# bad_flag = -9.990e-29
# <Sensors count="9" >
#   <sensor Channel="1" >
#     <!-- Count, Temperature -->
#     <TemperatureSensor SensorID="58" >
#       <SerialNumber>7809</SerialNumber>
#       <CalibrationDate>25-Sep-21</CalibrationDate>
#       <A0>1.23251324e-003</A0>
#       <A1>2.76322262e-004</A1>
#       <A2>-9.50188734e-007</A2>
#       <A3>1.71801404e-007</A3>
#       <Slope>1.00000000</Slope>
#       <Offset>0.0000</Offset>
#     </TemperatureSensor>
#   </sensor>
#   <sensor Channel="2" >
#     <!-- Frequency 0, Conductivity -->
#     <ConductivitySensor SensorID="3" >
#       <SerialNumber>7809</SerialNumber>
#       <CalibrationDate>25-Sep-21</CalibrationDate>
#       <UseG_J>1</UseG_J>
#       <!-- Cell const and series R are applicable only for wide range sensors. -->
#       <SeriesR>0.0000</SeriesR>
#       <CellConst>2000.0000</CellConst>
#       <ConductivityType>0</ConductivityType>
#       <Coefficients equation="0" >
#         <A>0.00000000e+000</A>
#         <B>0.00000000e+000</B>
#         <C>0.00000000e+000</C>
#         <D>0.00000000e+000</D>
#         <M>0.0</M>
#         <CPcor>-9.57000000e-008</CPcor>
#       </Coefficients>
#       <Coefficients equation="1" >
#         <G>-1.00443970e+000</G>
#         <H>1.26460406e-001</H>
#         <I>-7.85436262e-005</I>
#         <J>2.21093811e-005</J>
#         <CPcor>-9.57000000e-008</CPcor>
#         <CTcor>3.2500e-006</CTcor>
#         <!-- WBOTC not applicable unless ConductivityType = 1. -->
#         <WBOTC>0.00000000e+000</WBOTC>
#       </Coefficients>
#       <Slope>1.00000000</Slope>
#       <Offset>0.00000</Offset>
#     </ConductivitySensor>
#   </sensor>
#   <sensor Channel="3" >
#     <!-- Count, Pressure, Strain Gauge -->
#     <PressureSensor SensorID="46" >
#       <SerialNumber>7809</SerialNumber>
#       <CalibrationDate>10-Sep-21</CalibrationDate>
#       <PA0>4.78919585e-002</PA0>
#       <PA1>4.85365526e-004</PA1>
#       <PA2>-3.68927597e-012</PA2>
#       <PTEMPA0>-5.40164371e+001</PTEMPA0>
#       <PTEMPA1>5.39065456e+001</PTEMPA1>
#       <PTEMPA2>-2.19411190e-002</PTEMPA2>
#       <PTCA0>5.25494622e+005</PTCA0>
#       <PTCA1>1.32519328e+001</PTCA1>
#       <PTCA2>-3.88927502e-001</PTCA2>
#       <PTCB0>2.51668750e+001</PTCB0>
#       <PTCB1>3.75000000e-004</PTCB1>
#       <PTCB2>0.00000000e+000</PTCB2>
#       <Offset>0.000000</Offset>
#     </PressureSensor>
#   </sensor>
#   <sensor Channel="4" >
#     <!-- A/D voltage 0, Oxygen, SBE 43 -->
#     <OxygenSensor SensorID="38" >
#       <SerialNumber>0434</SerialNumber>
#       <CalibrationDate>25-Sep-21</CalibrationDate>
#       <Use2007Equation>1</Use2007Equation>
#       <CalibrationCoefficients equation="0" >
#         <!-- Coefficients for Owens-Millard equation. -->
#         <Boc>0.0000</Boc>
#         <Soc>0.0000e+000</Soc>
#         <offset>0.0000</offset>
#         <Pcor>0.00e+000</Pcor>
#         <Tcor>0.0000</Tcor>
#         <Tau>0.0</Tau>
#       </CalibrationCoefficients>
#       <CalibrationCoefficients equation="1" >
#         <!-- Coefficients for Sea-Bird equation - SBE calibration in 2007 and later. -->
#         <Soc>4.7287e-001</Soc>
#         <offset>-0.5046</offset>
#         <A>-3.6094e-003</A>
#         <B> 1.1544e-004</B>
#         <C>-1.3802e-006</C>
#         <D0> 2.5826e+000</D0>
#         <D1> 1.92634e-004</D1>
#         <D2>-4.64803e-002</D2>
#         <E> 3.6000e-002</E>
#         <Tau20> 0.7700</Tau20>
#         <H1>-3.3000e-002</H1>
#         <H2> 5.0000e+003</H2>
#         <H3> 1.4500e+003</H3>
#       </CalibrationCoefficients>
#     </OxygenSensor>
#   </sensor>
#   <sensor Channel="5" >
#     <!-- A/D voltage 1, PAR/Logarithmic, Satlantic -->
#     <PARLog_SatlanticSensor SensorID="76" >
#       <SerialNumber>1122</SerialNumber>
#       <CalibrationDate>08-Sep-2021</CalibrationDate>
#       <a0>9.6751e-001</a0>
#       <a1>8.0992e-001</a1>
#       <Im>1.3589e+000</Im>
#       <Multiplier>1.0000e+000</Multiplier>
#     </PARLog_SatlanticSensor>
#   </sensor>
#   <sensor Channel="6" >
#     <!-- A/D voltage 2, pH -->
#     <pH_Sensor SensorID="43" >
#       <SerialNumber>0363</SerialNumber>
#       <CalibrationDate>16-Sep-21</CalibrationDate>
#       <Slope>4.5144</Slope>
#       <Offset>2.4957</Offset>
#     </pH_Sensor>
#   </sensor>
#   <sensor Channel="7" >
#     <!-- A/D voltage 3, Oxidation Reduction Potential -->
#     <OxidationReductionPotentialSensor SensorID="41" >
#       <SerialNumber>0363</SerialNumber>
#       <CalibrationDate>16-Sep-21</CalibrationDate>
#       <B>2.499480</B>
#       <M>-0.496195</M>
#       <Offset>0.0</Offset>
#     </OxidationReductionPotentialSensor>
#   </sensor>
#   <sensor Channel="8" >
#     <!-- A/D voltage 4, Fluorometer, WET Labs ECO-AFL/FL -->
#     <FluoroWetlabECO_AFL_FL_Sensor SensorID="20" >
#       <SerialNumber>FLNTURT-2496</SerialNumber>
#       <CalibrationDate>02-Sep-2021</CalibrationDate>
#       <ScaleFactor>4.80000000e+001</ScaleFactor>
#       <!-- Dark output -->
#       <Vblank>0.0550</Vblank>
#     </FluoroWetlabECO_AFL_FL_Sensor>
#   </sensor>
#   <sensor Channel="9" >
#     <!-- A/D voltage 5, Turbidity Meter, WET Labs, ECO-NTU -->
#     <TurbidityMeter SensorID="67" >
#       <SerialNumber>FLNTURT-2496</SerialNumber>
#       <CalibrationDate>02-Sep-2021</CalibrationDate>
#       <ScaleFactor>197.000000</ScaleFactor>
#       <!-- Dark output -->
#       <DarkVoltage>0.070000</DarkVoltage>
#     </TurbidityMeter>
#   </sensor>
# </Sensors>
# datcnv_date = Jul 05 2022 22:57:53, 7.26.7.129 [datcnv_vars = 14]
# datcnv_in = C:\R\Reservoirs\Data\DataNotYetUploadedToEDI\Raw_CTD\RawDownloads\070522_bvr40_SBE19plus01907809_0004.hex C:\R\Reservoirs\Data\DataNotYetUploadedToEDI\Raw_CTD\RawDownloads\SBE19plusV2_7809_Old_CTD.xmlcon
# datcnv_skipover = 0
# datcnv_ox_hysteresis_correction = yes
# datcnv_ox_tau_correction = yes
# filter_date = Jul 05 2022 22:59:01, 7.26.7.129
# filter_in = C:\R\Reservoirs\Data\DataNotYetUploadedToEDI\Raw_CTD\RawDownloads\070522_bvr40_SBE19plus01907809_0004.cnv
# filter_low_pass_tc_A = 0.030
# filter_low_pass_tc_B = 0.150
# filter_low_pass_A_vars = sbeox0Mg/L prdM prdE tv290C
# filter_low_pass_B_vars = depFM dz/dtM sbeox0PS specc c0uS/cm flECO-AFL ph orp par/sat/log turbWETntu0
# alignctd_date = Jul 05 2022 22:59:58, 7.26.7.129
# alignctd_in = C:\R\Reservoirs\Data\DataNotYetUploadedToEDI\Raw_CTD\RawDownloads\070522_bvr40_SBE19plus01907809_0004.cnv
# alignctd_adv = dz/dtM 1.000, sbeox0PS 1.000, specc 1.000, c0uS/cm 1.000, flECO-AFL 1.000, ph 1.000, orp 1.000, turbWETntu0 1.000                                                                                                   
# file_type = ascii
*END*
     -0.106     -0.002     6.8657     89.128     30.468  32.329783     3.6949      9.078   200.9403 2.6012e+02    27.0613     -0.103     -0.150    28.1281 0.0000e+00
     -0.109      0.003     6.9018     89.252     30.428  32.300234     3.7051      9.119   211.5555 2.6384e+02    27.0026     -0.108     -0.156    28.0806 0.0000e+00
     -0.110      0.011     6.9355     89.324     30.411  32.292638     3.7024      9.151   213.1564 2.7389e+02    26.8491     -0.107     -0.156    28.0534 0.0000e+00
     -0.108      0.021     6.9563     89.355     30.420  32.301352     3.6874      9.174   213.3273 2.8707e+02    26.5711     -0.106     -0.155    28.0387 0.0000e+00
     -0.103      0.030     6.9743     89.354     30.466  32.342194     3.6562      9.192   212.5034 2.7284e+02    26.3744     -0.104     -0.151    28.0373 0.0000e+00
     -0.091      0.037     6.9772     89.345     30.536  32.406049     3.6169      9.210   211.6260 2.5370e+02    26.2813     -0.091     -0.132    28.0740 0.0000e+00
     -0.075      0.039     6.9804     89.325     30.572  32.439411     3.5958      9.229   211.6671 2.5716e+02    26.2994     -0.073     -0.106    28.0953 0.0000e+00
     -0.060      0.038     6.9839     89.248     30.563  32.428570     3.7005      9.245   211.9682 2.9196e+02    26.6269     -0.056     -0.081    28.0907 0.0000e+00
     -0.050      0.033     6.9838     88.930     30.539  32.401769     3.9082      9.258   211.5670 3.5921e+02    27.1671     -0.046     -0.067    28.0722 0.0000e+00
     -0.046      0.026     6.9873     88.287     30.514  32.368944     4.0181      9.269   210.6020 4.3196e+02    27.4677     -0.045     -0.065    28.0519 0.0000e+00
     -0.043      0.018     6.9853     87.583     30.505  32.348674     4.0227      9.277   209.8502 5.1008e+02    27.4952     -0.043     -0.062    28.0430 0.0000e+00
     -0.039      0.012     6.9860     87.028     30.512  32.346870     4.0555      9.281   209.6185 5.8105e+02    27.4652     -0.039     -0.056    28.0463 0.0000e+00
     -0.036      0.009     6.9678     86.442     30.518  32.347119     4.1398      9.282   209.4356 6.6125e+02    27.4810     -0.036     -0.052    28.0476 0.0000e+00
     -0.034      0.007     6.9066     85.570     30.525  32.351678     4.1930      9.283   209.1018 7.0882e+02    27.5492     -0.033     -0.047    28.0345 0.0000e+00
     -0.032      0.005     6.8451     84.521     30.512  32.338591     4.1989      9.284   208.6801 6.4236e+02    27.5718     -0.032     -0.046    28.0142 0.0000e+00
     -0.032      0.004     6.8116     83.571     30.487  32.315679     4.1947      9.285   208.0363 6.0676e+02    27.5490     -0.032     -0.046    27.9978 0.0000e+00
     -0.032      0.004     6.7787     82.757     30.494  32.328252     4.1847      9.286   207.3406 6.4104e+02    27.5470     -0.031     -0.045    27.9881 0.0000e+00
     -0.031      0.004     6.7057     81.978     30.522  32.363822     4.1852      9.286   206.8072 6.2266e+02    27.5823     -0.032     -0.046    27.9836 0.0000e+00
     -0.030      0.005     6.6109     81.175     30.518  32.365367     4.1924      9.285   206.2335 5.9172e+02    27.5662     -0.031     -0.043    27.9850 0.0000e+00
     -0.029      0.005     6.5378     80.361     30.497  32.346942     4.1554      9.284   205.6516 5.9814e+02    27.3173     -0.028     -0.041    27.9916 0.0000e+00
     -0.027      0.004     6.4763     79.465     30.479  32.331249     4.0709      9.284   205.1064 5.9345e+02    26.9303     -0.026     -0.038    28.0006 0.0000e+00
     -0.025      0.002     6.4168     78.389     30.450  32.302432     4.0197      9.286   204.6315 5.8026e+02    26.7819     -0.024     -0.035    28.0106 0.0000e+00
     -0.025      0.000     6.3507     77.278     30.463  32.315510     4.0197      9.290   204.4701 6.5906e+02    26.8209     -0.023     -0.034    28.0192 0.0000e+00
     -0.026     -0.002     6.2875     76.368     30.508  32.362575     4.0203      9.294   204.3600 7.6447e+02    26.8208     -0.024     -0.035    28.0265 0.0000e+00
     -0.028     -0.003     6.2240     75.719     30.510  32.364302     4.0101      9.297   203.9881 7.8748e+02    26.7461     -0.027     -0.040    28.0341 0.0000e+00
     -0.030     -0.003     6.1324     75.196     30.482  32.336387     4.0047      9.299   203.5009 7.7764e+02    26.6008     -0.030     -0.044    28.0372 0.0000e+00
     -0.031     -0.002     6.0380     74.688     30.487  32.342054     4.0057      9.300   203.1151 7.8382e+02    26.5336     -0.031     -0.045    28.0348 0.0000e+00
     -0.030      0.000     5.9647     74.207     30.515  32.369419     4.0129      9.300   202.7656 7.9290e+02    26.5824     -0.029     -0.042    28.0316 0.0000e+00
     -0.029      0.001     5.9202     73.789     30.500  32.350262     4.0421      9.299   202.3720 7.4900e+02    26.5422     -0.028     -0.040    28.0314 0.0000e+00
     -0.029      0.002     5.8829     73.437     30.459  32.300625     4.0843      9.299   202.1415 6.7796e+02    26.3891     -0.028     -0.041    28.0352 0.0000e+00
     -0.028      0.002     5.8404     73.073     30.444  32.276442     4.1150      9.299   201.9580 6.2466e+02    26.3365     -0.028     -0.040    28.0371 0.0000e+00
     -0.028      0.001     5.8032     72.640     30.428  32.248045     4.1300      9.298   201.2729 6.1764e+02    26.3849     -0.028     -0.040    28.0340 0.0000e+00
     -0.028      0.001     5.7691     72.215     30.406  32.210855     4.1084      9.295   199.7083 6.6554e+02    26.3934     -0.027     -0.040    28.0281 0.0000e+00
     -0.027      0.001     5.7465     72.017     30.418  32.207153     4.0610      9.290   198.6132 7.2227e+02    26.3367     -0.027     -0.039    28.0183 0.0000e+00
     -0.027      0.001     5.7217     72.319     30.428  32.203259     4.0314      9.287   199.0444 7.6602e+02    26.2798     -0.026     -0.038    28.0043 0.0000e+00
     -0.027      0.001     5.6872     73.152     30.402  32.163746     4.0169      9.287   199.4154 7.6031e+02    26.2863     -0.026     -0.038    27.9864 0.0000e+00
     -0.027      0.001     5.6510     74.274     30.359  32.109778     4.0189      9.289   199.3135 7.2261e+02    26.3127     -0.027     -0.040    27.9625 0.0000e+00
     -0.027      0.001     5.6272     75.451     30.318  32.057915     4.0303      9.293   199.4479 7.0316e+02    26.3263     -0.028     -0.040    27.9351 0.0000e+00
     -0.026      0.001     5.6525     76.601     30.316  32.043846     4.0307      9.298   199.4054 6.7381e+02    26.3141     -0.025     -0.036    27.9082 0.0000e+00
     -0.025      0.001     5.7296     77.707     30.351  32.066441     4.0239      9.302   198.9705 6.4298e+02    26.2670     -0.024     -0.034    27.8870 0.0000e+00
     -0.025      0.001     5.8259     78.686     30.376  32.077505     3.9894      9.303   198.4055 6.4512e+02    26.1664     -0.025     -0.036    27.8762 0.0000e+00
     -0.026      0.001     5.9205     79.347     30.363  32.050798     3.9376      9.301   197.9951 6.5052e+02    26.0205     -0.025     -0.037    27.8660 0.0000e+00
     -0.026      0.000     6.0124     79.532     30.324  31.997102     3.9144      9.296   197.9665 6.4764e+02    25.9378     -0.026     -0.037    27.8455 0.0000e+00
     -0.026 -4.508e-07     6.1037     79.294     30.283  31.935430     3.9087      9.292   198.2320 6.6453e+02    25.8842     -0.026     -0.038    27.8187 0.0000e+00
     -0.025      0.000     6.1897     78.886     30.246  31.875684     3.9010      9.290   198.5370 6.9735e+02    25.8153     -0.025     -0.036    27.7928 0.0000e+00
     -0.025      0.000     6.2500     78.563     30.235  31.845261     3.8882      9.289   198.7297 7.0950e+02    25.8231     -0.024     -0.035    27.7731 0.0000e+00
     -0.025     -0.001     6.2649     78.414     30.223  31.821142     3.8706      9.289   198.6693 7.0058e+02    25.8754     -0.023     -0.034    27.7560 0.0000e+00
     -0.025     -0.002     6.2411     78.414     30.186  31.774237     3.8551      9.288   198.4091 6.9494e+02    25.8664     -0.025     -0.035    27.7253 0.0000e+00
     -0.026     -0.003     6.2047     78.498     30.141  31.721917     3.8423      9.287   198.2508 6.9228e+02    25.8179     -0.024     -0.036    27.6844 0.0000e+00
     -0.027     -0.004     6.1818     78.639     30.120  31.695704     3.8239      9.286   198.2176 6.9046e+02    25.8353     -0.026     -0.037    27.6518 0.0000e+00
     -0.028     -0.004     6.1728     78.845     30.138  31.710884     3.7986      9.286   198.0081 6.8549e+02    25.9062     -0.028     -0.040    27.6333 0.0000e+00
     -0.029     -0.004     6.1763     79.060     30.146  31.715254     3.7945      9.286   197.5251 6.8244e+02    25.9235     -0.029     -0.042    27.6236 0.0000e+00
     -0.030     -0.002     6.1852     79.207     30.121  31.685141     3.8078      9.290   197.0231 6.9375e+02    25.8730     -0.030     -0.043    27.6148 0.0000e+00
     -0.031      0.002     6.1949     79.272     30.102  31.663766     3.8433      9.299   196.7572 7.1022e+02    25.9110     -0.030     -0.044    27.6077 0.0000e+00
     -0.031      0.007     6.2143     79.248     30.087  31.647005     3.9149      9.310   196.8054 7.3147e+02    26.1090     -0.031     -0.046    27.6026 0.0000e+00
     -0.030      0.012     6.2349     79.091     30.048  31.609270     3.9668      9.318   197.1750 7.4279e+02    26.2865     -0.031     -0.045    27.5966 0.0000e+00
     -0.027      0.015     6.2469     78.762     30.019  31.587905     3.9715      9.322   197.4403 7.2241e+02    26.3487     -0.027     -0.041    27.5898 0.0000e+00
     -0.019      0.015     6.2522     78.330     30.003  31.578889     3.8878      9.325   197.1738 6.9216e+02    26.1780     -0.020     -0.029    27.5866 0.0000e+00
     -0.009      0.014     6.2518     77.985     29.989  31.563665     3.7368      9.327   196.7060 6.6755e+02    25.8275     -0.008     -0.012    27.5851 0.0000e+00
     -0.004      0.011     6.2413     77.950     30.025  31.594030     3.6615      9.326   196.5169 6.4976e+02    25.6642     -0.001     -0.003    27.5873 0.0000e+00
     -0.005      0.006     6.2113     78.273     30.069  31.629034     3.6683      9.322   196.5220 6.4658e+02    25.6725     -0.004     -0.006    27.6063 0.0000e+00
     -0.008      0.001     6.1698     78.711     30.058  31.606491     3.7192      9.317   196.4230 6.3339e+02    25.6880     -0.009     -0.013    27.6258 0.0000e+00
     -0.010     -0.002     6.1347     78.951     30.036  31.575041     3.7940      9.311   196.2662 6.0449e+02    25.7152     -0.010     -0.015    27.6254 0.0000e+00
     -0.010     -0.002     6.1306     78.824     30.031  31.565745     3.8229      9.307   196.1756 6.0788e+02    25.7623     -0.009     -0.014    27.6094 0.0000e+00
     -0.010      0.000     6.1682     78.349     30.026  31.557479     3.8271      9.307   196.1011 6.4785e+02    25.8473     -0.009     -0.013    27.5864 0.0000e+00
     -0.010      0.002     6.2144     77.635     30.009  31.538489     3.8461      9.309   195.9681 6.8847e+02    25.8555     -0.010     -0.015    27.5671 0.0000e+00
     -0.009      0.003     6.2396     76.737     29.996  31.526326     3.8768      9.312   195.8578 7.0364e+02    25.7580     -0.010     -0.014    27.5552 0.0000e+00
     -0.008      0.004     6.2297     75.704     30.002  31.537216     3.9154      9.314   195.8860 6.9284e+02    25.7280     -0.008     -0.012    27.5472 0.0000e+00
     -0.006      0.004     6.1876     74.651     30.005  31.543373     3.9394      9.315   195.8791 6.7525e+02    25.7660     -0.006     -0.009    27.5411 0.0000e+00
     -0.004      0.004     6.1313     73.741     29.997  31.537380     3.9498      9.317   195.7742 6.5875e+02    25.8077     -0.004     -0.006    27.5397 0.0000e+00
     -0.004      0.003     6.0592     73.110     29.986  31.528158     3.9488      9.317   195.6507 6.4535e+02    25.8231     -0.004     -0.005    27.5446 0.0000e+00
     -0.003      0.002     5.9732     72.765     29.952  31.495267     3.9278      9.314   195.5041 6.3329e+02    25.7124     -0.003     -0.005    27.5519 0.0000e+00
     -0.003      0.001     5.8852     72.623     29.911  31.456673     3.9041      9.307   195.3784 6.2454e+02    25.5629     -0.003     -0.004    27.5575 0.0000e+00
     -0.003      0.000     5.8075     72.565     29.891  31.441908     3.9041      9.300   194.8192 6.2602e+02    25.5180     -0.003     -0.004    27.5606 0.0000e+00
     -0.004      0.000     5.7584     72.474     29.885  31.443550     3.9606      9.296   188.5705 6.3634e+02    25.5108     -0.004     -0.006    27.5635 0.0000e+00
     -0.004      0.001     5.7333     72.327     29.850  31.413144     4.0549      9.292   173.9447 6.4993e+02    25.4755     -0.004     -0.006    27.5682 0.0000e+00
     -0.003      0.001     5.7242     72.160     29.766  31.327862     4.1036      9.285   160.7190 6.6149e+02    25.4335     -0.003     -0.005    27.5758 0.0000e+00
     -0.003     -0.003     5.7233     71.943     29.679  31.236566     4.1001      9.277   155.9120 6.6274e+02    25.3788     -0.003     -0.005    27.5865 0.0000e+00
     -0.002     -0.017     5.7149     71.589     29.644  31.196841     4.0704      9.272   165.7255 6.5633e+02    25.2927     -0.004     -0.005    27.6006 0.0000e+00
     -0.001     -0.047     5.6996     71.097     29.670  31.227914     4.0189      9.283   187.1397 6.6517e+02    25.2127     -0.000      0.000    27.6134 0.0000e+00
     -0.003     -0.095     5.6869     70.626     29.653  31.231897     3.9854      9.313   199.8168 7.2256e+02    25.1967      0.000      0.001    27.6189 0.0000e+00
     -0.018     -0.149     5.6736     70.513     29.569  31.181637     3.9567      9.352   201.8184 9.3130e+02    25.2015     -0.009     -0.012    27.6160 0.0000e+00
     -0.059     -0.192     5.6468     71.172     29.550  31.190853     3.7717      9.384   202.2203 1.1219e+03    25.4411     -0.043     -0.061    27.6121 0.0000e+00
     -0.136     -0.214     5.6040     72.639     29.510  31.153188     3.4556      9.406   201.9226 9.3781e+02    25.9763     -0.124     -0.179    27.6052 0.0000e+00
     -0.235     -0.211     5.5554     74.407     29.356  30.979817     3.2888      9.423   201.8334 6.1562e+02    26.3088     -0.238     -0.345    27.6384 0.0000e+00
     -0.316     -0.185     5.5217     75.943     29.262  30.869674     3.2700      9.435   202.6048 5.1985e+02    26.3193     -0.330     -0.478    27.7309 0.0000e+00
     -0.354     -0.141     5.5636     77.043     29.287  30.899158     3.2445      9.440   203.6777 7.0819e+02    26.2398     -0.358     -0.519    27.7870 0.0000e+00
     -0.361     -0.088     5.6996     77.723     29.327  30.955941     3.0640      9.439   204.1375 1.0459e+03    26.0655     -0.355     -0.515    27.7864 0.0000e+00
     -0.360     -0.044     5.8576     78.133     29.343  30.985707     2.7521      9.435   203.8610 1.0451e+03    25.8171     -0.353     -0.512    27.7625 0.0000e+00
     -0.358     -0.019     5.9854     78.414     29.356  31.005502     2.5941      9.434   203.5176 7.0729e+02    25.6960     -0.351     -0.510    27.7285 0.0000e+00
     -0.357     -0.014     6.0706     78.528     29.352  31.005103     2.5859      9.437   203.7720 5.3206e+02    25.6601     -0.349     -0.508    27.7373 0.0000e+00
     -0.360     -0.017     6.1149     78.324     29.326  30.980889     2.6439      9.442   204.3552 5.0658e+02    25.6557     -0.350     -0.509    27.7766 0.0000e+00
     -0.368     -0.018     6.1394     77.759     29.309  30.966311     2.7717      9.445   204.3746 5.0295e+02    25.7459     -0.358     -0.520    27.7948 0.0000e+00
     -0.380     -0.016     6.1619     76.889     29.296  30.955634     2.8488      9.445   203.8348 5.0778e+02    25.8287     -0.373     -0.542    27.8022 0.0000e+00
     -0.389     -0.012     6.1772     75.815     29.255  30.915192     2.8684      9.445   203.5931 4.5572e+02    25.8711     -0.385     -0.559    27.8089 0.0000e+00
     -0.389     -0.006     6.1608     74.660     29.199  30.857708     3.0091      9.445   203.6031 4.6045e+02    25.9843     -0.384     -0.557    27.8145 0.0000e+00
     -0.385      0.002     6.1136     73.480     29.174  30.831157     3.2769      9.446   202.4928 6.3130e+02    26.1723     -0.376     -0.546    27.8199 0.0000e+00
     -0.380      0.013     6.0431     72.336     29.188  30.847737     3.4344      9.449   189.7383 9.4830e+02    26.3000     -0.371     -0.538    27.8243 0.0000e+00
     -0.377      0.031     5.9524     71.371     29.263  30.931397     3.4489      9.453   165.8004 1.2131e+03    26.3678     -0.369     -0.535    27.8302 0.0000e+00
     -0.375      0.057     5.8619     70.886     29.343  31.018557     3.4272      9.463   151.6490 1.1967e+03    26.6160     -0.369     -0.536    27.8335 0.0000e+00
     -0.370      0.090     5.7677     71.247     29.282  30.950658     3.3880      9.475   149.1564 9.1797e+02    27.0461     -0.367     -0.533    27.8308 0.0000e+00
     -0.351      0.124     5.6745     72.537     29.156  30.807764     3.3571      9.481   148.0514 6.3963e+02    27.2646     -0.353     -0.512    27.8338 0.0000e+00
     -0.308      0.149     5.5898     74.467     29.106  30.748896     3.3616      9.482   147.0651 5.3736e+02    27.2766     -0.310     -0.451    27.8473 0.0000e+00
     -0.245      0.159     5.5363     76.632     29.094  30.746036     3.4091      9.481   146.1793 5.1121e+02    27.1226     -0.239     -0.347    27.8529 0.0000e+00
     -0.181      0.153     5.5640     78.887     29.101  30.773198     3.4653      9.480   145.6014 6.6124e+02    26.7336     -0.170     -0.247    27.8476 0.0000e+00
     -0.134      0.130     5.6760     81.158     29.133  30.823759     3.4834      9.476   145.4118 1.0242e+03    26.4684     -0.122     -0.177    27.8242 0.0000e+00
     -0.110      0.096     5.8453     82.979     29.147  30.850241     3.4787      9.471   145.3496 1.2038e+03    26.4444     -0.103     -0.149    27.8008 0.0000e+00
     -0.101      0.059     6.0164     83.866     29.129  30.839845     3.4757      9.465   145.1936 1.1103e+03    26.4771     -0.099     -0.143    27.8244 0.0000e+00
     -0.099      0.029     6.1820     83.762     29.111  30.824864     3.4465      9.461   144.9885 1.0128e+03    26.3516     -0.096     -0.139    27.8703 0.0000e+00
     -0.099      0.011     6.3761     82.876     29.083  30.795902     3.3835      9.461   144.7629 9.7989e+02    26.0542     -0.097     -0.140    27.8983 0.0000e+00
     -0.100      0.002     6.5337     81.494     29.036  30.743245     3.3381      9.462   144.8751 9.5679e+02    25.8871     -0.098     -0.142    27.9177 0.0000e+00
     -0.100     -0.003     6.5997     79.930     28.992  30.695330     3.3223      9.462   150.1306 9.5343e+02    25.8685     -0.099     -0.144    27.9326 0.0000e+00
     -0.100     -0.008     6.5843     78.475     28.956  30.660321     3.2923      9.462   168.2120 1.0089e+03    25.8639     -0.100     -0.144    27.9407 0.0000e+00
     -0.099     -0.012     6.5067     77.224     28.929  30.636935     3.2504      9.463   190.4715 1.0280e+03    25.8647     -0.095     -0.138    27.9397 0.0000e+00
     -0.102     -0.016     6.3915     76.140     28.896  30.602760     3.2229      9.466   200.6421 1.1972e+03    25.8443     -0.096     -0.139    27.9319 0.0000e+00
     -0.111     -0.017     6.2590     75.222     28.862  30.564080     3.2095      9.469   201.7026 1.4905e+03    25.8224     -0.110     -0.160    27.9284 0.0000e+00
     -0.121     -0.017     6.1423     74.437     28.853  30.549616     3.1969      9.473   201.7458 1.3450e+03    25.8389     -0.123     -0.178    27.9356 0.0000e+00
     -0.125     -0.013     6.0465     73.719     28.861  30.554650     3.1706      9.478   202.0243 9.9646e+02    25.8731     -0.124     -0.179    27.9473 0.0000e+00
     -0.127     -0.006     5.9596     73.096     28.870  30.561545     3.1500      9.481   202.6609 9.3909e+02    25.8937     -0.125     -0.181    27.9487 0.0000e+00
     -0.128     -0.001     5.8892     72.638     28.875  30.569600     3.1471      9.481   202.9046 1.0409e+03    25.8829     -0.127     -0.185    27.9420 0.0000e+00
     -0.125     -0.004     5.8324     72.369     28.885  30.588648     3.1605      9.481   202.2171 1.0451e+03    25.8111     -0.125     -0.181    27.9330 0.0000e+00
     -0.120     -0.019     5.7754     72.302     28.883  30.601674     3.1955      9.483   200.9735 1.0137e+03    25.7095     -0.118     -0.170    27.9247 0.0000e+00
     -0.116     -0.045     5.7233     72.379     28.863  30.600336     3.2206      9.484   200.4298 1.0728e+03    25.6108     -0.112     -0.161    27.9209 0.0000e+00
     -0.121     -0.083     5.6885     72.464     28.823  30.572509     3.1886      9.486   201.7522 1.1720e+03    25.3353     -0.111     -0.162    27.9243 0.0000e+00
     -0.145     -0.131     5.6640     72.465     28.765  30.518818     2.8424      9.496   205.3472 1.2630e+03    22.9239     -0.134     -0.195    27.9368 0.0000e+00
     -0.188     -0.180     5.6576     72.397     28.763  30.521716     2.2227      9.506   209.3091 1.1097e+03    18.5913     -0.182     -0.263    27.9651 0.0000e+00
     -0.245     -0.215     5.6647     72.332     28.898  30.670953     1.8877      9.507   209.9905 8.8599e+02    16.2639     -0.236     -0.341    28.0061 0.0000e+00
     -0.316     -0.221     5.6714     72.437     29.132  30.928579     1.8640      9.497   207.3912 9.5080e+02    16.0304     -0.305     -0.442    28.0326 0.0000e+00
     -0.399     -0.197     5.6698     73.052     29.342  31.164291     1.8440      9.488   204.6396 9.8374e+02    15.7685     -0.393     -0.570    28.0419 0.0000e+00
     -0.474     -0.150     5.6612     74.441     29.458  31.302135     1.5638      9.483   202.8765 8.8259e+02    13.2336     -0.479     -0.694    28.0499 0.0000e+00
     -0.513     -0.089     5.6529     76.388     29.468  31.327354     1.0394      9.482   201.9058 8.6618e+02     8.6105     -0.520     -0.755    28.0581 0.0000e+00
     -0.510     -0.021     5.6484     78.257     29.412  31.279053     0.7469      9.487   201.4204 9.1393e+02     6.1570     -0.507     -0.736    28.0719 0.0000e+00
     -0.485      0.045     5.6829     79.527     29.296  31.161914     0.7658      9.494   200.8802 9.7800e+02     6.3865     -0.476     -0.691    28.0980 0.0000e+00
     -0.456      0.099     5.7943     80.030     29.191  31.052163     1.3091      9.500   200.6222 1.0412e+03    11.4192     -0.446     -0.647    28.1251 0.0000e+00
     -0.427      0.134     5.9666     79.796     29.229  31.093172     2.3131      9.504   201.3125 1.0647e+03    20.7547     -0.421     -0.610    28.1508 0.0000e+00
     -0.391      0.151     6.1259     79.012     29.343  31.213983     2.8758      9.508   202.6015 1.0981e+03    25.8693     -0.389     -0.565    28.1719 0.0000e+00
     -0.344      0.156     6.2258     77.957     29.431  31.308377     2.9435      9.513   203.7312 1.2323e+03    26.3247     -0.338     -0.490    28.1788 0.0000e+00
     -0.294      0.155     6.2648     76.849     29.405  31.283552     3.0239      9.519   204.3888 1.3855e+03    26.3632     -0.286     -0.414    28.1810 0.0000e+00
     -0.250      0.145     6.2411     75.812     29.235  31.104012     3.1663      9.526   204.6156 1.4951e+03    26.4027     -0.243     -0.353    28.1824 0.0000e+00
     -0.213      0.127     6.1708     74.916     29.055  30.912645     3.2500      9.534   204.5806 1.5807e+03    26.4608     -0.206     -0.299    28.1805 0.0000e+00
     -0.183      0.105     6.0827     74.215     28.956  30.808195     3.2701      9.538   204.3965 1.5897e+03    26.5200     -0.175     -0.254    28.1818 0.0000e+00
     -0.162      0.083     5.9925     73.703     28.939  30.792027     3.3009      9.540   204.1961 1.4877e+03    26.5379     -0.156     -0.226    28.1870 0.0000e+00
     -0.147      0.066     5.9102     73.268     28.985  30.843948     3.3476      9.541   204.1367 1.3691e+03    26.5064     -0.144     -0.208    28.1895 0.0000e+00
     -0.136      0.053     5.8383     72.797     29.063  30.928820     3.3768      9.542   204.3672 1.3138e+03    26.4799     -0.134     -0.194    28.1897 0.0000e+00
     -0.127      0.043     5.7828     72.325     29.123  30.994094     3.3883      9.540   204.6601 1.2678e+03    26.4910     -0.124     -0.180    28.1913 0.0000e+00
     -0.117      0.035     5.7464     71.962     29.127  30.999225     3.4788      9.539   204.6663 1.2121e+03    26.5041     -0.114     -0.166    28.1954 0.0000e+00
     -0.107      0.028     5.7166     71.707     29.058  30.927468     3.6386      9.539   204.5281 9.7512e+02    26.4341     -0.104     -0.151    28.2010 0.0000e+00
     -0.097      0.020     5.6780     71.468     28.959  30.823820     3.7219      9.539   204.4514 5.1855e+02    26.3274     -0.093     -0.135    28.2055 0.0000e+00
     -0.092      0.012     5.6354     71.145     28.899  30.760339     3.7284      9.537   204.5998 2.5066e+02    26.2727     -0.088     -0.128    28.2062 0.0000e+00
     -0.092      0.003     5.6084     70.721     28.871  30.730478     3.7264      9.536   205.0315 2.2309e+02    26.2509     -0.090     -0.131    28.2069 0.0000e+00
     -0.095     -0.004     5.5910     70.275     28.857  30.716342     3.7555      9.537   205.6265 2.2330e+02    26.1326     -0.092     -0.134    28.2105 0.0000e+00
     -0.098     -0.009     5.5751     69.816     28.856  30.716209     3.8138      9.539   206.1159 2.2841e+02    25.9015     -0.096     -0.139    28.2130 0.0000e+00
     -0.102     -0.009     5.5516     69.286     28.867  30.728872     3.8397      9.541   206.2171 2.3170e+02    25.7795     -0.100     -0.144    28.2142 0.0000e+00
     -0.106     -0.007     5.5134     68.664     28.879  30.742662     3.8442      9.541   205.9028 2.2812e+02    25.8527     -0.103     -0.150    28.2150 0.0000e+00
     -0.109     -0.003     5.4794     67.979     28.892  30.756153     3.9093      9.541   204.6391 2.2062e+02    26.2407     -0.107     -0.155    28.2149 0.0000e+00
     -0.109      0.002     5.4457     67.297     28.901  30.765203     4.0188      9.541   194.2930 2.1222e+02    26.8154     -0.108     -0.156    28.2165 0.0000e+00
     -0.106      0.007     5.4049     66.702     28.984  30.852091     4.0698      9.539   183.9707 2.0217e+02    27.0628     -0.103     -0.151    28.2187 0.0000e+00
     -0.102      0.012     5.3547     66.461     29.360  31.236155     4.0692      9.535   185.6607 1.9710e+02    27.0454     -0.100     -0.146    28.2200 0.0000e+00
     -0.098      0.017     5.3009     67.681     29.885  31.731930     4.0787      9.535   189.0014 2.0020e+02    27.0830     -0.095     -0.140    28.2191 0.0000e+00
     -0.094      0.019     5.2433     71.787     30.216  31.964881     4.1009      9.537   194.9381 2.0070e+02    27.1758     -0.093     -0.136    28.2192 0.0000e+00
     -0.089      0.018     5.1976     78.444     30.391  32.023863     4.1041      9.538   191.4488 1.9684e+02    27.2449     -0.089     -0.129    28.2184 0.0000e+00
     -0.080      0.016     5.1508     85.564     30.514  32.064492     4.0844      9.536   171.6771 1.9953e+02    27.2004     -0.077     -0.113    28.2215 0.0000e+00
     -0.074      0.012     5.1891     91.498     30.570  32.075583     4.0539      9.533   157.3839 2.3591e+02    26.8430     -0.070     -0.102    28.1321 0.0000e+00
     -0.073      0.006     5.5446     95.882     30.549  32.031095     4.0272      9.530   153.0245 4.8186e+02    26.3398     -0.072     -0.103    27.8870 0.0000e+00
     -0.073      0.000     6.1723     98.800     30.442  31.906953     4.0278      9.528   151.3187 7.1076e+02    26.1383     -0.072     -0.104    27.6510 0.0000e+00
     -0.073     -0.004     6.7995    100.296     30.336  31.779140     4.0281      9.528   150.1817 6.1301e+02    26.1146     -0.071     -0.103    27.5128 0.0000e+00
     -0.076      0.000     7.2756    100.512     30.335  31.753640     3.9969      9.532   149.4296 6.8031e+02    26.1899     -0.074     -0.107    27.4428 0.0000e+00
     -0.082      0.014     7.6215     99.775     30.394  31.788786     3.8167      9.537   149.1085 8.1685e+02    26.3992     -0.081     -0.118    27.4148 0.0000e+00
     -0.086      0.034     7.8558     98.623     30.388  31.760266     3.5058      9.537   148.8807 6.1626e+02    26.5282     -0.089     -0.128    27.4011 0.0000e+00
     -0.079      0.057     7.9724     97.570     30.253  31.598964     3.3347      9.535   148.3955 4.9364e+02    26.5881     -0.083     -0.119    27.3799 0.0000e+00
     -0.059      0.079     7.9886     96.767     30.047  31.359991     3.3043      9.532   147.8878 5.4408e+02    26.6106     -0.062     -0.089    27.3336 0.0000e+00
     -0.027      0.094     7.9210     96.122     29.939  31.216490     3.2881      9.530   147.6465 5.2023e+02    26.5276     -0.029     -0.041    27.2847 0.0000e+00
      0.011      0.102     7.8159     95.521     29.948  31.195168     3.2965      9.530   147.5432 4.3893e+02    26.4031      0.013      0.019    27.2485 0.0000e+00
      0.044      0.105     7.7345     94.806     29.880  31.102138     3.3225      9.529   147.5854 4.0774e+02    26.3352      0.047      0.070    27.2214 0.0000e+00
      0.067      0.102     7.6810     93.920     29.720  30.915781     3.3363      9.527   147.8981 4.4713e+02    26.3556      0.070      0.101    27.1844 0.0000e+00
      0.082      0.098     7.6383     92.990     29.554  30.716974     3.2473      9.522   148.5706 4.5613e+02    26.4447      0.079      0.114    27.1284 0.0000e+00
      0.102      0.099     7.6057     92.034     29.352  30.473379     3.0696      9.513   149.4365 3.9532e+02    26.5251      0.095      0.138    27.0655 0.0000e+00
      0.130      0.105     7.5555     90.819     29.192  30.252607     2.9781      9.500   150.1937 3.3655e+02    26.5757      0.130      0.189    27.0353 0.0000e+00
      0.158      0.115     7.4820     89.221     29.162  30.139519     2.9727      9.482   150.9285 3.0580e+02    26.6127      0.153      0.223    27.0132 0.0000e+00
      0.188      0.124     7.4104     87.145     29.234  30.120190     2.8635      9.457   151.6952 2.7784e+02    26.6316      0.178      0.259    26.9613 0.0000e+00
      0.225      0.127     7.3542     84.417     29.340  30.145549     2.6395      9.430   152.2369 2.4881e+02    26.6329      0.221      0.321    26.9152 0.0000e+00
      0.264      0.124     7.2691     81.144     29.445  30.192426     2.5032      9.405   152.8320 2.2262e+02    26.5939      0.261      0.379    26.8273 0.0000e+00
      0.297      0.119     7.1596     77.611     29.601  30.306530     2.4892      9.383   153.7290 2.0261e+02    26.5356      0.294      0.427    26.6808 0.0000e+00
      0.326      0.110     7.0285     74.066     29.785  30.447423     2.4862      9.363   154.6497 1.8696e+02    26.3391      0.320      0.463    26.5012 0.0000e+00
      0.351      0.098     6.8208     70.721     29.892  30.501243     2.4602      9.348   155.3605 1.7113e+02    25.9939      0.344      0.499    26.3489 0.0000e+00
      0.375      0.086     6.5589     67.666     29.954  30.513424     2.4317      9.336   155.7844 1.5748e+02    25.8117      0.369      0.536    26.2546 0.0000e+00
      0.395      0.076     6.2757     64.850     30.006  30.531231     2.4165      9.325   156.4190 1.4627e+02    25.8101      0.388      0.563    26.1840 0.0000e+00
      0.412      0.068     5.9897     62.381     30.023  30.526307     2.3514      9.315   157.0965 1.3676e+02    25.8380      0.404      0.587    26.1177 0.0000e+00
      0.428      0.062     5.7256     60.442     30.030  30.517251     2.2264      9.306   157.0928 1.2899e+02    25.8406      0.421      0.611    26.0088 0.0000e+00
      0.441      0.057     5.4935     58.992     30.009  30.485101     2.1538      9.299   156.8045 1.2298e+02    25.8071      0.434      0.629    25.9135 0.0000e+00
      0.453      0.057     5.2661     57.992     29.985  30.454542     2.1483      9.291   156.7945 1.1811e+02    25.8436      0.445      0.644    25.8633 0.0000e+00
      0.466      0.059     5.0571     57.445     30.000  30.464720     2.1503      9.282   156.9727 1.1341e+02    25.9058      0.458      0.664    25.8266 0.0000e+00
      0.480      0.063     4.9088     57.311     30.021  30.481373     2.1874      9.271   157.1520 1.0886e+02    25.8761      0.469      0.682    25.8042 0.0000e+00
      0.496      0.069     4.7923     57.536     30.072  30.529089     2.2559      9.260   157.3273 1.0330e+02    25.8256      0.484      0.702    25.7846 0.0000e+00
      0.516      0.077     4.7097     57.953     30.159  30.597891     2.2790      9.247   157.8877 9.7155e+01    25.8082      0.506      0.734    25.7748 0.0000e+00
      0.537      0.083     4.6693     58.374     30.221  30.615899     2.2666      9.236   159.3669 9.1289e+01    25.8022      0.527      0.764    25.7710 0.0000e+00
      0.559      0.085     4.6577     58.670     30.274  30.619960     2.2644      9.227   161.2741 8.5097e+01    25.5482      0.548      0.793    25.7568 0.0000e+00
      0.583      0.082     4.6826     58.658     30.334  30.646918     2.2689      9.218   162.5356 7.8562e+01    24.9912      0.572      0.829    25.7632 0.0000e+00
      0.608      0.075     4.7244     58.245     30.393  30.688219     2.2715      9.208   162.4023 7.2945e+01    24.6360      0.597      0.866    25.7439 0.0000e+00
      0.630      0.067     4.7682     57.575     30.459  30.738930     2.2629      9.199   161.2976 6.9260e+01    24.5670      0.620      0.900    25.6477 0.0000e+00
      0.645      0.058     4.8076     56.809     30.494  30.752889     2.2313      9.190   160.6212 6.7123e+01    24.3618      0.634      0.920    25.5544 0.0000e+00
      0.654      0.052     4.8164     56.003     30.486  30.730174     2.1802      9.180   160.4189 6.5680e+01    23.9662      0.642      0.931    25.5001 0.0000e+00
      0.662      0.047     4.7771     55.198     30.472  30.717829     2.1438      9.167   160.2280 6.4028e+01    23.7122      0.649      0.941    25.4774 0.0000e+00
      0.672      0.046     4.7184     54.424     30.479  30.730422     2.1329      9.154   160.1205 6.1770e+01    23.6481      0.657      0.953    25.4603 0.0000e+00
      0.684      0.047     4.6599     53.772     30.510  30.755659     2.1314      9.141   160.2367 5.9185e+01    23.6347      0.671      0.973    25.4152 0.0000e+00
      0.699      0.048     4.5943     53.337     30.538  30.769380     2.1427      9.129   160.7736 5.6671e+01    23.6525      0.686      0.994    25.3783 0.0000e+00
      0.713      0.048     4.5277     53.068     30.554  30.769507     2.1527      9.119   161.3629 5.4651e+01    23.6928      0.700      1.016    25.3930 0.0000e+00
      0.727      0.043     4.4595     52.840     30.554  30.757174     2.1449      9.109   162.0276 5.2915e+01    23.7119      0.713      1.035    25.4172 0.0000e+00
      0.738      0.038     4.4022     52.592     30.549  30.747030     2.1396      9.101   163.1317 5.1412e+01    23.7119      0.724      1.051    25.4007 0.0000e+00
      0.747      0.034     4.3716     52.342     30.578  30.773636     2.1467      9.093   164.1298 5.0769e+01    23.7958      0.735      1.066    25.3710 0.0000e+00
      0.752      0.034     4.3566     52.112     30.648  30.825288     2.1559      9.083   164.3729 5.0814e+01    23.9413      0.739      1.073    25.3450 0.0000e+00
      0.755      0.036     4.3413     51.869     30.737  30.864371     2.1591      9.075   164.0065 5.0175e+01    24.0019      0.738      1.071    25.3206 0.0000e+00
      0.761      0.039     4.3204     51.494     30.813  30.865735     2.1526      9.067   163.9151 4.8185e+01    23.9481      0.745      1.079    25.3155 0.0000e+00
      0.776      0.042     4.2980     50.778     30.863  30.841665     2.1445      9.060   164.3873 4.5815e+01    23.7347      0.760      1.102    25.3213 0.0000e+00
      0.793      0.043     4.2817     49.569     30.898  30.826815     2.1517      9.052   164.6395 4.3985e+01    23.4371      0.778      1.129    25.3039 0.0000e+00
      0.807      0.042     4.2711     47.954     30.904  30.812893     2.1650      9.043   164.3828 4.2720e+01    23.2872      0.794      1.151    25.2200 0.0000e+00
      0.817      0.040     4.2582     46.195     30.892  30.800100     2.1637      9.035   164.2083 4.1897e+01    23.2550      0.803      1.165    25.0753 0.0000e+00
      0.823      0.037     4.2163     44.589     30.890  30.798926     2.1528      9.028   164.5083 4.1324e+01    23.1845      0.807      1.172    24.9436 0.0000e+00
      0.829      0.036     4.1187     43.329     30.888  30.798706     2.1416      9.022   164.9129 4.0571e+01    23.0827      0.811      1.178    24.8601 0.0000e+00
      0.837      0.037     3.9784     42.387     30.875  30.797437     2.1442      9.015   165.3154 3.9365e+01    23.0494      0.818      1.187    24.8337 0.0000e+00
      0.847      0.038     3.8226     41.640     30.848  30.783601     2.1599      9.006   166.1911 3.7823e+01    23.0209      0.830      1.203    24.8502 0.0000e+00
      0.860      0.038     3.6824     41.105     30.824  30.758235     2.1733      9.000   167.4136 3.6318e+01    22.9088      0.844      1.223    24.8453 0.0000e+00
      0.872      0.038     3.5806     40.865     30.841  30.744314     2.1811      8.996   168.4811 3.5069e+01    22.7869      0.856      1.242    24.8415 0.0000e+00
      0.882      0.037     3.5065     40.800     30.888  30.742016     2.1874      8.991   169.2037 3.4122e+01    22.7430      0.866      1.255    24.8669 0.0000e+00
      0.890      0.035     3.4426     40.644     30.929  30.730374     2.2004      8.986   169.6122 3.3507e+01    22.7544      0.873      1.266    24.8962 0.0000e+00
      0.896      0.035     3.3903     40.199     30.980  30.730266     2.2047      8.982   169.9775 3.2903e+01    22.7529      0.878      1.275    24.9127 0.0000e+00
      0.903      0.035     3.3801     39.403     31.015  30.740633     2.1975      8.978   170.5225 3.2034e+01    22.7254      0.885      1.284    24.8459 0.0000e+00
      0.913      0.036     3.3901     38.345     30.990  30.728895     2.2050      8.973   170.9541 3.1129e+01    22.7293      0.895      1.298    24.7523 0.0000e+00
      0.924      0.037     3.3866     37.179     30.963  30.715156     2.2207      8.968   171.0657 3.0265e+01    22.7311      0.906      1.314    24.6818 0.0000e+00
      0.935      0.037     3.3596     36.034     30.963  30.701325     2.2375      8.962   171.1832 2.9479e+01    22.1330      0.917      1.330    24.5726 0.0000e+00
      0.945      0.035     3.2920     34.982     30.976  30.688431     2.2578      8.955   171.2565 2.8828e+01    20.9973      0.927      1.344    24.5206 0.0000e+00
      0.954      0.032     3.1961     34.053     31.000  30.686008     2.2593      8.949   171.2639 2.8201e+01    20.3739      0.936      1.358    24.5775 0.0000e+00
      0.962      0.030     3.0924     33.264     31.019  30.671991     2.2547      8.943   171.5308 2.7786e+01    20.3353      0.944      1.370    24.6172 0.0000e+00
      0.968      0.029     2.9980     32.672     31.030  30.645694     2.2683      8.938   171.8165 2.7530e+01    20.3929      0.950      1.378    24.5740 0.0000e+00
      0.973      0.029     2.9120     32.316     31.046  30.621580     2.2996      8.932   171.8787 2.7064e+01    20.2850      0.953      1.383    24.5245 0.0000e+00
      0.980      0.030     2.8364     32.087     31.098  30.633940     2.3411      8.925   171.8522 2.6381e+01    20.0212      0.960      1.393    24.4952 0.0000e+00
      0.989      0.030     2.7720     31.780     31.152  30.668292     2.3632      8.916   171.8411 2.5571e+01    19.9025      0.970      1.407    24.4341 0.0000e+00
      0.999      0.029     2.7222     31.260     31.134  30.656535     2.3670      8.909   171.9171 2.4782e+01    19.9769      0.979      1.420    24.3779 0.0000e+00
      1.008      0.028     2.6996     30.585     31.099  30.618588     2.3369      8.902   171.9963 2.4199e+01    20.5448      0.989      1.434    24.3178 0.0000e+00
      1.015      0.027     2.6917     29.969     31.107  30.589850     2.2645      8.895   172.1107 2.3799e+01    21.4748      0.997      1.445    24.2329 0.0000e+00
      1.020      0.025     2.6730     29.494     31.132  30.562578     2.2159      8.888   172.3534 2.3514e+01    21.9633      1.001      1.452    24.1973 0.0000e+00
      1.024      0.025     2.6259     28.968     31.162  30.542343     2.2075      8.882   172.6078 2.3193e+01    22.0112      1.003      1.455    24.2326 0.0000e+00
      1.029      0.026     2.5596     28.216     31.203  30.535308     2.2301      8.877   172.7775 2.2727e+01    21.8145      1.008      1.462    24.2507 0.0000e+00
      1.036      0.028     2.5073     27.275     31.245  30.540847     2.2728      8.872   172.8567 2.2252e+01    21.4985      1.016      1.473    24.1681 0.0000e+00
      1.044      0.031     2.4811     26.256     31.257  30.545860     2.2901      8.866   173.0492 2.1917e+01    21.3670      1.023      1.484    24.0713 0.0000e+00
      1.052      0.036     2.4473     25.269     31.235  30.532521     2.2818      8.859   173.4700 2.1617e+01    21.3175      1.032      1.497    24.0048 0.0000e+00
      1.061      0.039     2.3837     24.462     31.215  30.506369     2.3055      8.851   173.9011 2.1149e+01    21.1046      1.040      1.508    23.9203 0.0000e+00
      1.071      0.040     2.3045     23.942     31.225  30.483222     2.3692      8.843   174.2172 2.0529e+01    20.8083      1.049      1.522    23.8448 0.0000e+00
      1.084      0.038     2.2160     23.651     31.231  30.442784     2.4025      8.834   174.5385 1.9815e+01    20.6731      1.063      1.541    23.8449 0.0000e+00
      1.097      0.034     2.1263     23.406     31.226  30.397734     2.3920      8.826   175.1192 1.9189e+01    20.6312      1.078      1.563    23.8830 0.0000e+00
      1.107      0.028     2.0536     23.050     31.236  30.382219     2.3746      8.820   175.8180 1.8909e+01    20.4724      1.089      1.579    23.8755 0.0000e+00
      1.112      0.023     2.0145     22.546     31.252  30.381944     2.3588      8.814   176.2768 1.8879e+01    20.2566      1.092      1.584    23.8180 0.0000e+00
      1.113      0.020     1.9998     21.930     31.271  30.394380     2.3431      8.808   176.6229 1.8884e+01    20.1394      1.092      1.583    23.7241 0.0000e+00
      1.114      0.019     1.9869     21.180     31.276  30.405788     2.3341      8.802   176.9907 1.8768e+01    20.1149      1.091      1.583    23.6570 0.0000e+00
      1.117      0.021     1.9593     20.336     31.249  30.393104     2.3329      8.794   177.2822 1.8429e+01    20.1306      1.094      1.587    23.6250 0.0000e+00
      1.124      0.024     1.9136     19.540     31.216  30.367829     2.3284      8.787   177.6520 1.7939e+01    20.2609      1.102      1.598    23.5990 0.0000e+00
      1.134      0.028     1.8649     18.880     31.209  30.353779     2.3307      8.779   178.1925 1.7443e+01    20.4949      1.112      1.613    23.5823 0.0000e+00
      1.143      0.030     1.8007     18.398     31.233  30.350000     2.3435      8.772   178.5685 1.7048e+01    20.6034      1.122      1.626    23.5983 0.0000e+00
      1.150      0.031     1.7208     18.090     31.244  30.322094     2.3495      8.766   178.5857 1.6784e+01    20.5818      1.129      1.636    23.6303 0.0000e+00
      1.158      0.030     1.6518     17.866     31.225  30.269885     2.3452      8.760   178.5718 1.6549e+01    20.4721      1.135      1.647    23.6416 0.0000e+00
      1.165      0.029     1.5946     17.622     31.211  30.225851     2.3418      8.752   178.8309 1.6268e+01    20.2686      1.142      1.657    23.6389 0.0000e+00
      1.173      0.029     1.5543     17.321     31.201  30.170006     2.3423      8.745   179.1374 1.6028e+01    20.1708      1.150      1.668    23.5907 0.0000e+00
      1.180      0.030     1.5342     16.982     31.195  30.101746     2.3343      8.740   179.3520 1.5865e+01    20.1091      1.158      1.680    23.5111 0.0000e+00
      1.186      0.032     1.5202     16.547     31.191  30.034361     2.3200      8.734   179.6183 1.5689e+01    19.6933      1.163      1.687    23.4589 0.0000e+00
      1.193      0.035     1.5018     15.875     31.140  29.925701     2.3189      8.729   179.9481 1.5399e+01    19.0717      1.169      1.695    23.4285 0.0000e+00
      1.203      0.040     1.4759     14.915     31.074  29.802136     2.3294      8.724   180.2433 1.5031e+01    18.7765      1.180      1.710    23.3542 0.0000e+00
      1.214      0.045     1.4514     13.755     31.087  29.744716     2.3299      8.718   180.4342 1.4642e+01    18.6855      1.191      1.727    23.2411 0.0000e+00
      1.226      0.048     1.4239     12.506     31.159  29.738476     2.2679      8.711   180.7074 1.4162e+01    17.8348      1.201      1.741    23.1359 0.0000e+00
      1.241      0.048     1.3703     11.215     31.213  29.726581     2.1529      8.705   181.1372 1.3599e+01    16.2451      1.216      1.764    23.0429 0.0000e+00
      1.256      0.046     1.2863      9.873     31.257  29.727582     2.0886      8.698   181.5003 1.3099e+01    15.3833      1.233      1.788    22.9569 0.0000e+00
      1.268      0.041     1.1855      8.549     31.297  29.750525     2.0816      8.692   181.8293 1.2748e+01    15.3396      1.245      1.806    22.8407 0.0000e+00
      1.278      0.037     1.0790      7.380     31.293  29.750399     2.0763      8.686   182.1889 1.2508e+01    15.3073      1.254      1.818    22.7069 0.0000e+00
      1.284      0.033     0.9716      6.451     31.263  29.726060     2.0416      8.679   182.3213 1.2329e+01    15.1288      1.260      1.828    22.6001 0.0000e+00
      1.290      0.031     0.8550      5.822     31.251  29.709829     1.9860      8.672   182.2255 1.2140e+01    14.8891      1.265      1.834    22.5324 0.0000e+00
      1.297      0.031     0.7341      5.506     31.238  29.680923     1.9620      8.666   182.2355 1.1900e+01    14.8008      1.271      1.843    22.5133 0.0000e+00
      1.306      0.032     0.6316      5.403     31.211  29.630099     1.9674      8.660   182.3558 1.1635e+01    14.8118      1.280      1.857    22.5294 0.0000e+00
      1.316      0.032     0.5493      5.390     31.212  29.602421     1.9183      8.653   182.4758 1.1396e+01    14.5099      1.291      1.873    22.5446 0.0000e+00
      1.326      0.032     0.4927      5.387     31.241  29.599796     1.8008      8.648   182.5675 1.1235e+01    13.9524      1.301      1.887    22.5368 0.0000e+00
      1.334      0.031     0.4707      5.347     31.271  29.598316     1.7290      8.642   182.6037 1.1114e+01    13.7070      1.308      1.897    22.5061 0.0000e+00
      1.341      0.029     0.4659      5.225     31.281  29.584477     1.7242      8.635   182.7413 1.0987e+01    13.6955      1.315      1.907    22.4627 0.0000e+00
      1.348      0.027     0.4676      4.995     31.266  29.559225     1.7017      8.628   183.0267 1.0873e+01    13.4718      1.322      1.917    22.4175 0.0000e+00
      1.354      0.026     0.4687      4.692     31.259  29.546550     1.6478      8.621   183.2154 1.0795e+01    13.0862      1.328      1.926    22.3684 0.0000e+00
      1.359      0.025     0.4669      4.377     31.280  29.557995     1.6129      8.614   183.2162 1.0691e+01    12.8926      1.332      1.933    22.3162 0.0000e+00
      1.366      0.025     0.4588      4.084     31.305  29.570812     1.6129      8.605   183.3807 1.0523e+01    12.9074      1.339      1.942    22.2749 0.0000e+00
      1.373      0.025     0.4366      3.810     31.309  29.574726     1.6066      8.598   183.9141 1.0373e+01    12.7864      1.348      1.955    22.2632 0.0000e+00
      1.380      0.030     0.4085      3.573     31.335  29.605319     1.5781      8.591   184.4175 1.0290e+01    12.4541      1.353      1.963    22.2592 0.0000e+00
      1.385      0.037     0.3797      3.419     31.430  29.687157     1.5594      8.583   184.5621 1.0239e+01    12.2380      1.357      1.969    22.2447 0.0000e+00
      1.390      0.044     0.3553      3.348     31.583  29.803507     1.5471      8.577   184.7157 1.0070e+01    12.2224      1.360      1.973    22.2170 0.0000e+00
      1.402      0.049     0.3314      3.307     31.700  29.870997     1.4795      8.571   185.0703 9.7067e+00    11.9589      1.372      1.989    22.2157 0.0000e+00
      1.422      0.053     0.3073      3.240     31.738  29.869187     1.3580      8.563   185.2359 9.3435e+00    11.3739      1.396      2.025    22.2476 0.0000e+00
      1.441      0.055     0.2949      3.100     31.785  29.908351     1.2770      8.555   185.1689 9.1180e+00    11.0253      1.417      2.054    22.2341 0.0000e+00
      1.456      0.052     0.2907      2.862     31.889  30.027558     1.2569      8.547   185.1214 8.9760e+00    10.9892      1.428      2.071    22.1864 0.0000e+00
      1.468      0.046     0.2893      2.576     32.031  30.169472     1.2646      8.538   185.1776 8.8540e+00    10.9031      1.439      2.088    22.1131 0.0000e+00
      1.478      0.039     0.2852      2.349     32.194  30.292987     1.2786      8.530   185.3324 8.7325e+00    10.7351      1.450      2.103    22.0253 0.0000e+00
      1.487      0.033     0.2744      2.234     32.348  30.379837     1.2769      8.523   185.5309 8.6165e+00    10.6329      1.458      2.115    22.0211 0.0000e+00
      1.494      0.028     0.2523      2.194     32.491  30.458757     1.2692      8.517   185.6839 8.5214e+00    10.5891      1.465      2.125    22.0885 0.0000e+00
      1.499      0.024     0.2218      2.160     32.635  30.549789     1.2679      8.510   185.8056 8.4365e+00    10.5807      1.470      2.132    22.1144 0.0000e+00
      1.504      0.023     0.2013      2.098     32.733  30.592914     1.2703      8.504   185.8843 8.3081e+00    10.6343      1.474      2.139    22.0612 0.0000e+00
      1.509      0.023     0.1928      2.010     32.862  30.663143     1.2729      8.496   185.9468 8.1728e+00    10.7248      1.480      2.147    21.9471 0.0000e+00
      1.514      0.025     0.1925      1.890     33.147  30.891689     1.2747      8.488   186.2170 8.0612e+00    10.7878      1.485      2.154    21.8547 0.0000e+00
      1.520      0.028     0.1910      1.739     33.595  31.264144     1.2668      8.481   186.5700 7.9216e+00    10.8148      1.490      2.161    21.8087 0.0000e+00
      1.527      0.032     0.1848      1.564     34.119  31.679608     1.2435      8.473   186.6873 7.7697e+00    10.8463      1.497      2.171    21.7286 0.0000e+00
      1.536      0.037     0.1779      1.374     34.538  31.984286     1.2179      8.465   186.7751 7.6228e+00    10.8266      1.506      2.184    21.6353 0.0000e+00
      1.547      0.041     0.1678      1.204     34.732  32.094926     1.2076      8.457   186.9429 7.4535e+00    10.7472      1.516      2.199    21.5969 0.0000e+00
      1.558      0.043     0.1537      1.071     34.744  32.066259     1.2020      8.449   186.9089 7.2934e+00    10.6722      1.528      2.216    21.5491 0.0000e+00
      1.570      0.044     0.1392      0.956     34.706  32.018019     1.1755      8.439   186.7091 7.1852e+00    10.2273      1.541      2.235    21.4265 0.0000e+00
      1.582      0.043     0.1212      0.860     34.706  32.018852     1.1360      8.428   186.5056 7.0848e+00     9.3986      1.552      2.251    21.2888 0.0000e+00
      1.594      0.040     0.1050      0.790     34.761  32.076325     1.1084      8.417   186.2550 6.9904e+00     8.9539      1.563      2.268    21.1820 0.0000e+00
      1.605      0.036     0.0953      0.751     34.897  32.205731     1.0904      8.407   185.8309 6.9484e+00     8.9158      1.575      2.286    21.1251 0.0000e+00
      1.614      0.033     0.0841      0.744     35.104  32.378905     1.1015      8.399   185.3352 6.9362e+00     8.9720      1.584      2.297    21.1179 0.0000e+00
      1.620      0.031     0.0757      0.747     35.304  32.521725     1.1425      8.392   184.9937 6.9382e+00     9.1203      1.589      2.305    21.1213 0.0000e+00
      1.625      0.031     0.0694      0.754     35.435  32.601092     1.1619      8.383   184.5412 6.9281e+00     9.2058      1.592      2.310    21.1315 0.0000e+00
      1.630      0.030     0.0652      0.781     35.446  32.577647     1.1538      8.373   183.5647 6.8443e+00     9.1860      1.597      2.316    21.1520 0.0000e+00
      1.640      0.029     0.0662      0.810     35.382  32.491817     1.1354      8.364   182.3923 6.7046e+00     9.1196      1.607      2.331    21.1338 0.0000e+00
      1.652      0.026     0.0669      0.816     35.343  32.450897     1.1148      8.357   181.6372 6.5866e+00     8.8811      1.621      2.352    21.0499 0.0000e+00
      1.661      0.023     0.0660      0.806     35.342  32.463287     1.1043      8.350   181.1458 6.5412e+00     8.4896      1.632      2.366    20.9899 0.0000e+00
      1.665      0.020     0.0695      0.790     35.398  32.514852     1.0994      8.343   180.4941 6.5475e+00     8.2798      1.634      2.369    20.9538 0.0000e+00
      1.665      0.019     0.0735      0.778     35.488  32.567152     1.0894      8.336   179.6948 6.5527e+00     8.2578      1.633      2.369    20.8939 0.0000e+00
      1.666      0.019     0.0731      0.772     35.557  32.588393     1.0830      8.329   178.8809 6.5334e+00     8.2225      1.632      2.367    20.8897 0.0000e+00
      1.669      0.022     0.0724      0.764     35.654  32.644808     1.0975      8.322   178.2243 6.4690e+00     8.2297      1.635      2.372    20.9317 0.0000e+00
      1.677      0.027     0.0701      0.746     35.799  32.742010     1.1137      8.316   177.6933 6.3549e+00     8.2419      1.644      2.384    20.9419 0.0000e+00
      1.688      0.032     0.0693      0.721     36.014  32.875985     1.1042      8.307   176.9345 6.2341e+00     8.1649      1.655      2.400    20.8872 0.0000e+00
      1.698      0.035     0.0690      0.704     36.308  33.059972     1.0994      8.297   176.0183 6.1405e+00     7.9139      1.666      2.417    20.8094 0.0000e+00
      1.708      0.036     0.0690      0.694     36.543  33.191193     1.1219      8.288   175.0476 6.0781e+00     7.5300      1.675      2.429    20.7730 0.0000e+00
      1.716      0.035     0.0672      0.674     36.686  33.257808     1.1435      8.279   172.8552 6.0359e+00     7.3155      1.683      2.441    20.7447 0.0000e+00
      1.725      0.034     0.0642      0.649     36.775  33.294685     1.1523      8.270   168.5252 6.0003e+00     7.2662      1.691      2.453    20.6520 0.0000e+00
      1.734      0.032     0.0627      0.627     36.840  33.319997     1.1454      8.262   163.7348 5.9678e+00     7.1387      1.701      2.467    20.5174 0.0000e+00
      1.742      0.031     0.0635      0.596     37.001  33.437004     1.1189      8.254   160.3631 5.9207e+00     6.9355      1.709      2.478    20.3984 0.0000e+00
      1.750      0.031     0.0611      0.574     37.321  33.694914     1.0975      8.244   158.3026 5.8694e+00     6.8240      1.716      2.489    20.3120 0.0000e+00
      1.757      0.031     0.0579      0.568     37.660  33.965541     1.0950      8.234   156.9756 5.8336e+00     6.7821      1.724      2.500    20.2587 0.0000e+00
      1.764      0.031     0.0579      0.573     37.861  34.109472     1.1052      8.225   155.5899 5.7991e+00     6.6685      1.730      2.508    20.2154 0.0000e+00
      1.771      0.031     0.0532      0.582     37.968  34.167009     1.1210      8.216   153.5074 5.7451e+00     6.5088      1.737      2.518    20.1805 0.0000e+00
      1.780      0.032     0.0516      0.587     37.998  34.153906     1.1362      8.208   151.2407 5.6823e+00     6.4572      1.746      2.532    20.1411 0.0000e+00
      1.789      0.033     0.0511      0.587     37.961  34.077803     1.1478      8.201   149.6073 5.6405e+00     6.5231      1.755      2.546    20.0912 0.0000e+00
      1.796      0.034     0.0516      0.577     38.005  34.071088     1.1523      8.193   148.2993 5.6043e+00     6.5873      1.762      2.554    20.0414 0.0000e+00
      1.805      0.035     0.0535      0.562     38.410  34.389677     1.1573      8.183   146.0945 5.5300e+00     6.5858      1.769      2.565    19.9882 0.0000e+00
      1.815      0.036     0.0531      0.551     39.152  35.013022     1.1593      8.174   143.4266 5.4290e+00     6.5387      1.780      2.582    19.9386 0.0000e+00
      1.824      0.038     0.0540      0.542     39.697  35.457257     1.1592      8.166   141.9405 5.3636e+00     6.5302      1.790      2.597    19.8829 0.0000e+00
      1.833      0.038     0.0528      0.540     39.948  35.639256     1.1645      8.156   141.5476 5.3178e+00     6.5515      1.796      2.607    19.8178 0.0000e+00
      1.843      0.037     0.0510      0.541     40.252  35.881878     1.1815      8.146   141.1716 5.2352e+00     6.5228      1.806      2.619    19.7590 0.0000e+00
      1.855      0.035     0.0504      0.540     40.519  36.107915     1.2077      8.137   140.2340 5.1464e+00     6.3883      1.821      2.640    19.7131 0.0000e+00
      1.866      0.031     0.0492      0.545     40.570  36.152809     1.2147      8.127   138.3844 5.1012e+00     6.2564      1.832      2.656    19.6589 0.0000e+00
      1.873      0.027     0.0492      0.554     40.865  36.424689     1.2163      8.119   135.7580 5.0757e+00     6.2609      1.836      2.663    19.5916 0.0000e+00
      1.878      0.025     0.0501      0.546     41.705  37.175701     1.2442      8.111   133.2572 5.0448e+00     6.2030      1.842      2.672    19.5587 0.0000e+00
      1.882      0.024     0.0492      0.530     42.661  38.003923     1.2765      8.102   131.5498 5.0326e+00     6.0009      1.847      2.678    19.5491 0.0000e+00
      1.885      0.026     0.0495      0.520     43.451  38.638358     1.2818      8.094   130.4292 5.0031e+00     5.8664      1.847      2.679    19.5452 0.0000e+00
      1.891      0.029     0.0518      0.519     44.136  39.138771     1.2666      8.086   129.5174 4.9395e+00     5.8070      1.852      2.687    19.5650 0.0000e+00
      1.900      0.032     0.0502      0.519     44.730  39.551320     1.2600      8.077   127.7526 4.8977e+00     5.7952      1.864      2.703    19.5756 0.0000e+00
      1.911      0.035     0.0482      0.515     45.287  39.947790     1.2675      8.068   122.7708 4.8441e+00     5.8259      1.874      2.717    19.5573 0.0000e+00
      1.921      0.036     0.0475      0.514     45.937  40.443989     1.2666      8.059   115.0562 4.7621e+00     5.8367      1.885      2.732    19.4777 0.0000e+00
      1.931      0.036     0.0476      0.514     46.554  40.920644     1.2572      8.049   108.2973 4.7070e+00     5.8241      1.895      2.748    19.3345 0.0000e+00
      1.940      0.035     0.0483      0.514     46.941  41.207590     1.2621      8.040   103.6863 4.6647e+00     5.7758      1.902      2.759    19.1979 0.0000e+00
      1.948      0.033     0.0473      0.519     47.245  41.439678     1.2681      8.031   100.3463 4.6140e+00     5.7313      1.909      2.769    19.0939 0.0000e+00
      1.956      0.031     0.0474      0.516     47.712  41.823875     1.2629      8.022    97.5104 4.5658e+00     5.6950      1.918      2.782    19.0142 0.0000e+00
      1.965      0.029     0.0482      0.508     48.369  42.364185     1.2657      8.013    94.4351 4.5099e+00     5.6105      1.927      2.794    18.9412 0.0000e+00
      1.972      0.029     0.0469      0.511     49.049  42.897930     1.2690      8.005    91.2981 4.4538e+00     5.5630      1.934      2.805    18.8795 0.0000e+00
      1.978      0.030     0.0491      0.514     49.638  43.329482     1.2695      7.999    88.7481 4.4134e+00     5.5990      1.940      2.814    18.8485 0.0000e+00
      1.984      0.031     0.0484      0.518     50.105  43.648991     1.2798      7.992    86.9207 4.3765e+00     5.6357      1.945      2.821    18.8286 0.0000e+00
      1.992      0.032     0.0463      0.516     50.356  43.779481     1.2851      7.984    85.6365 4.3340e+00     5.6322      1.954      2.832    18.7995 0.0000e+00
      2.002      0.034     0.0483      0.505     50.481  43.828696     1.2753      7.976    84.8355 4.2804e+00     5.5903      1.964      2.848    18.7357 0.0000e+00
      2.012      0.034     0.0476      0.496     50.676  43.990216     1.2620      7.968    84.3781 4.2256e+00     5.5043      1.972      2.862    18.6395 0.0000e+00
      2.021      0.033     0.0487      0.487     50.926  44.209904     1.2570      7.958    83.9778 4.1885e+00     5.4128      1.982      2.876    18.5572 0.0000e+00
      2.030      0.032     0.0492      0.479     51.194  44.391479     1.2648      7.948    83.5224 4.1597e+00     5.4068      1.991      2.887    18.4598 0.0000e+00
      2.037      0.030     0.0470      0.484     51.418  44.472720     1.2731      7.938    83.0882 4.1325e+00     5.3968      1.998      2.898    18.3775 0.0000e+00
      2.044      0.029     0.0464      0.494     51.522  44.430756     1.2983      7.929    82.6859 4.0931e+00     5.3254      2.005      2.908    18.3936 0.0000e+00
      2.050      0.027     0.0460      0.489     51.529  44.328010     1.3445      7.921    81.9264 4.0354e+00     5.2958      2.010      2.916    18.4271 0.0000e+00
      2.056      0.027     0.0443      0.481     51.378  44.118430     1.3740      7.911    80.2723 3.9943e+00     5.3462      2.016      2.925    18.3787 0.0000e+00
      2.064      0.028     0.0450      0.486     51.076  43.799774     1.3892      7.901    78.0013 3.9706e+00     5.4222      2.024      2.936    18.2468 0.0000e+00
      2.071      0.028     0.0476      0.483     50.809  43.520102     1.3951      7.892    75.7202 3.9461e+00     5.4287      2.032      2.947    18.1028 0.0000e+00
      2.078      0.029     0.0465      0.471     50.583  43.274352     1.3870      7.883    73.1688 3.9132e+00     5.3916      2.038      2.955    17.9982 0.0000e+00
      2.086      0.030     0.0444      0.465     50.310  42.985172     1.3750      7.872    70.0399 3.8650e+00     5.3491      2.045      2.966    17.9235 0.0000e+00
      2.094      0.030     0.0469      0.465     50.030  42.687862     1.3750      7.861    66.7122 3.8222e+00     5.3244      2.055      2.979    17.8711 0.0000e+00
      2.102      0.031     0.0464      0.479     49.846  42.470627     1.4038      7.851    63.9078 3.7892e+00     5.2302      2.062      2.989    17.8231 0.0000e+00
      2.110      0.033     0.0441      0.487     49.825  42.388411     1.4393      7.840    61.8579 3.7577e+00     4.9960      2.069      3.000    17.7715 0.0000e+00
      2.118      0.034     0.0446      0.470     49.913  42.391470     1.4469      7.829    60.3394 3.7313e+00     4.8494      2.077      3.012    17.7184 0.0000e+00
      2.126      0.035     0.0435      0.459     49.984  42.380657     1.4452      7.816    59.4003 3.7010e+00     4.8570      2.084      3.024    17.6572 0.0000e+00
      2.136      0.037     0.0454      0.464     49.984  42.321015     1.4691      7.804    58.9343 3.6652e+00     4.8834      2.094      3.039    17.5987 0.0000e+00
      2.145      0.038     0.0488      0.459     49.950  42.241155     1.5018      7.792    58.7486 3.6365e+00     4.8958      2.104      3.051    17.5384 0.0000e+00
      2.155      0.038     0.0441      0.451     49.935  42.176214     1.5087      7.781    58.7043 3.5958e+00     4.9048      2.113      3.065    17.4615 0.0000e+00
      2.165      0.037     0.0431      0.451     50.067  42.233500     1.5029      7.771    58.5712 3.5388e+00     4.8897      2.123      3.080    17.3846 0.0000e+00
      2.175      0.036     0.0456      0.450     50.502  42.553134     1.5061      7.762    58.3441 3.5065e+00     4.8149      2.134      3.095    17.3255 0.0000e+00
      2.185      0.034     0.0440      0.442     51.046  42.996009     1.5223      7.752    58.1949 3.4920e+00     4.6844      2.144      3.109    17.2813 0.0000e+00
      2.194      0.031     0.0429      0.444     51.415  43.338178     1.5488      7.742    58.1444 3.4709e+00     4.5755      2.152      3.122    17.2290 0.0000e+00
      2.201      0.028     0.0433      0.450     51.863  43.772302     1.5606      7.733    58.0775 3.4509e+00     4.4890      2.159      3.132    17.1709 0.0000e+00
      2.207      0.027     0.0444      0.451     53.035  44.819452     1.5566      7.726    57.9030 3.4249e+00     4.3891      2.164      3.139    17.1175 0.0000e+00
      2.213      0.027     0.0416      0.461     55.108  46.610070     1.5582      7.719    57.6687 3.4062e+00     4.3589      2.170      3.146    17.0882 0.0000e+00
      2.219      0.028     0.0426      0.468     57.265  48.419549     1.5722      7.711    57.4816 3.3898e+00     4.3971      2.175      3.155    17.1330 0.0000e+00
      2.225      0.028     0.0440      0.459     59.812  50.518533     1.5839      7.703    57.1886 3.3466e+00     4.4414      2.181      3.164    17.1982 0.0000e+00
      2.234      0.027     0.0425      0.453     68.437  57.774695     1.5754      7.696    56.5349 3.3051e+00     4.4508      2.191      3.177    17.2499 0.0000e+00
      2.243      0.026     0.0442      0.457     81.461  68.788775     1.5442      7.688    55.8590 3.2721e+00     4.3400      2.201      3.192    17.3070 0.0000e+00
      2.250      0.024     0.0462      0.458    101.345  85.590726     1.5066      7.681    54.5221 3.2431e+00     4.1950      2.208      3.202    17.2924 0.0000e+00
      2.255      0.023     0.0438      0.456    133.992 113.101115     1.4870      7.676    50.9545 3.2342e+00     4.1650      2.212      3.208    17.2135 0.0000e+00
      2.259      0.021     0.0429      0.454    157.984 133.185849     1.4811      7.672    46.4502 3.2275e+00     4.1825      2.215      3.213    17.1852 0.0000e+00
      2.263      0.017     0.0443      0.437    158.648 133.557299     1.4689      7.667    42.8232 3.2139e+00     4.1330      2.218      3.218    17.2209 0.0000e+00
      2.269      0.010     0.0443      0.414    131.600 110.713681     1.4477      7.661    39.3656 3.2030e+00     4.0447      2.224      3.225    17.2345 0.0000e+00
      2.275      0.000     0.0435      0.417     86.500  72.792795     1.4407      7.655    36.0491 3.1944e+00     4.0039      2.232      3.237    17.2222 0.0000e+00
      2.278     -0.016     0.0443      0.427     58.387  49.212209     1.4435      7.648    33.9557 3.1946e+00     3.9814      2.237      3.245    17.1576 0.0000e+00
      2.274     -0.041     0.0432      0.417     51.801  43.779710     1.4069      7.641    33.2409 3.2153e+00     3.9432      2.233      3.238    17.0667 0.0000e+00
      2.262     -0.079     0.0377      0.380     49.955  42.389702     1.3473      7.631    33.3435 3.2677e+00     3.9178      2.220      3.219    17.0473 0.0000e+00
      2.244     -0.127     0.0406      0.347     48.195  41.159872     1.3306      7.622    33.3890 3.3849e+00     3.9471      2.203      3.195    17.0703 0.0000e+00
      2.217     -0.168     0.0418      0.352     46.646  40.200812     1.3375      7.614    33.0171 3.6095e+00     4.0246      2.182      3.163    17.1334 0.0000e+00
      2.167     -0.188     0.0415      0.382     46.265  40.245060     1.3147      7.609    32.9770 4.0120e+00     4.3082      2.139      3.103    17.2414 0.0000e+00
      2.085     -0.188     0.0367      0.424     46.981  41.124582     1.2711      7.604    33.2485 4.6126e+00     4.7804      2.048      2.972    17.3885 0.0000e+00
      2.000     -0.173     0.0305      0.474     48.192  42.272631     1.2430      7.599    33.1152 5.1244e+00     5.0538      1.942      2.816    17.6562 0.0000e+00
      1.951     -0.151     0.0333      0.527     48.592  42.581738     1.2500      7.593    32.7422 5.2850e+00     5.1535      1.898      2.753    18.0867 0.0000e+00
      1.941     -0.141     0.0352      0.575     46.850  40.992474     1.2720      7.587    32.6112 5.2621e+00     5.2687      1.902      2.759    18.5414 0.0000e+00
      1.942     -0.157     0.0392      0.588     44.001  38.533326     1.2598      7.582    32.8216 5.2556e+00     6.2418      1.905      2.765    18.8320 0.0000e+00
      1.936     -0.195     0.0440      0.568     41.634  36.632809     1.2197      7.579    32.9629 5.4496e+00     8.1747      1.907      2.767    18.9047 0.0000e+00
      1.899     -0.230     0.0489      0.565     39.924  35.390444     1.2031      7.574    33.0289 6.2740e+00     9.3396      1.886      2.735    18.8227 0.0000e+00
      1.803     -0.239     0.0548      0.583     39.169  34.990049     1.2084      7.567    33.1899 8.1575e+00     9.5324      1.790      2.597    18.6976 0.0000e+00
      1.662     -0.220     0.0570      0.579     39.224  35.216244     1.1842      7.562    33.5322 1.0557e+01    10.1294      1.618      2.346    18.7152 0.0000e+00
      1.552     -0.190     0.0514      0.588     39.083  35.145359     1.1277      7.557    34.4146 1.1565e+01    11.2292      1.480      2.145    18.9583 0.0000e+00
      1.536     -0.155     0.0504      0.653     38.508  34.640330     1.0982      7.552    35.3408 1.0476e+01    11.8639      1.479      2.146    19.3197 0.0000e+00
      1.583     -0.105     0.0553      0.741     38.018  34.246074     1.1029      7.547    35.8688 9.2600e+00    12.0654      1.563      2.268    19.7086 0.0000e+00
      1.608     -0.044     0.0525      0.811     38.068  34.373180     1.1264      7.542    36.1522 9.8155e+00    12.9480      1.608      2.334    19.9553 0.0000e+00
      1.565     -0.000     0.0502      0.846     38.617  34.909129     1.1568      7.537    36.5303 1.1833e+01    14.4399      1.550      2.248    19.9773 0.0000e+00
      1.500      0.006     0.0591      0.852     38.928  35.146324     1.1624      7.531    37.3433 1.2836e+01    15.2099      1.441      2.090    19.9456 0.0000e+00
      1.495     -0.011     0.0682      0.872     38.442  34.641271     1.1529      7.523    38.1523 1.1356e+01    15.3236      1.433      2.078    20.0083 0.0000e+00
      1.557     -0.025     0.0746      0.907     37.660  33.938520     1.1589      7.517    38.6552 9.4877e+00    15.8835      1.533      2.225    20.1652 0.0000e+00
      1.606     -0.027     0.0782      0.920     37.218  33.624218     1.1759      7.513    39.1222 9.4910e+00    16.8560      1.607      2.331    20.2483 0.0000e+00
      1.586     -0.032     0.0762      0.895     37.043  33.567652     1.1761      7.510    39.6686 1.1148e+01    17.3808      1.574      2.283    20.1528 0.0000e+00
      1.523     -0.051     0.0783      0.856     36.972  33.571745     1.1607      7.508    40.1852 1.2785e+01    17.3785      1.482      2.149    20.0067 0.0000e+00
      1.474     -0.070     0.0833      0.831     36.980  33.610405     1.1570      7.505    40.6357 1.3288e+01    17.1354      1.431      2.075    20.0045 0.0000e+00
      1.460     -0.068     0.0852      0.827     36.948  33.591293     1.1642      7.501    41.1572 1.3006e+01    16.7640      1.428      2.070    20.1643 0.0000e+00
      1.463     -0.043     0.0808      0.840     36.803  33.467477     1.1560      7.498    41.6729 1.2642e+01    16.5425      1.434      2.080    20.3257 0.0000e+00
      1.468     -0.016     0.0768      0.855     36.613  33.318052     1.1415      7.495    41.8813 1.2579e+01    16.4392      1.441      2.090    20.4144 0.0000e+00
      1.470     -0.001     0.0739      0.866     36.563  33.306328     1.1385      7.492    42.0413 1.2777e+01    16.1644      1.442      2.092    20.4497 0.0000e+00
      1.468      0.003     0.0738      0.871     36.698  33.452576     1.1027      7.489    42.4034 1.2955e+01    14.3471      1.439      2.088    20.4518 0.0000e+00
      1.465      0.003     0.0760      0.877     36.821  33.564656     1.0334      7.486    42.7314 1.2965e+01    11.2042      1.436      2.083    20.4549 0.0000e+00
      1.465      0.004     0.0768      0.877     36.856  33.583612     0.9913      7.484    43.0820 1.2834e+01     9.4877      1.435      2.082    20.4878 0.0000e+00
      1.468      0.006     0.0785      0.859     36.835  33.554944     0.9762      7.481    43.4598 1.2670e+01     9.2719      1.440      2.088    20.5480 0.0000e+00
      1.472      0.010     0.0779      0.843     36.745  33.471636     0.9843      7.478    43.6848 1.2551e+01     9.0397      1.444      2.093    20.5891 0.0000e+00
      1.474      0.010     0.0788      0.837     36.657  33.400595     1.0143      7.475    43.9100 1.2440e+01     8.6948      1.445      2.096    20.5789 0.0000e+00
      1.477      0.002     0.0799      0.817     36.633  33.393452     1.0310      7.473    44.3758 1.2246e+01     8.5184      1.447      2.098    20.5519 0.0000e+00
      1.481     -0.023     0.0771      0.782     36.543  33.321889     1.0285      7.469    45.0145 1.2015e+01     8.4783      1.451      2.105    20.5396 0.0000e+00
      1.485     -0.072     0.0750      0.745     36.225  33.042576     1.0166      7.465    45.6963 1.1983e+01     8.5848      1.460      2.116    20.5349 0.0000e+00
      1.482     -0.143     0.0761      0.713     35.721  32.615829     0.9952      7.460    46.4233 1.2625e+01     8.8508      1.461      2.119    20.5494 0.0000e+00
      1.454     -0.227     0.0740      0.700     35.063  32.093095     0.9783      7.456    47.0941 1.4674e+01     8.9948      1.440      2.090    20.5773 0.0000e+00
      1.386     -0.302     0.0698      0.696     34.303  31.540774     0.9870      7.452    47.9570 1.8881e+01     9.0278      1.375      1.994    20.5918 0.0000e+00
      1.274     -0.347     0.0675      0.698     33.638  31.136656     1.0917      7.448    49.6292 2.6406e+01     9.7280      1.261      1.829    20.5873 0.0000e+00
      1.134     -0.351     0.0626      0.746     33.122  30.884292     1.2791      7.443    51.9107 3.7816e+01    11.1074      1.111      1.612    20.6297 0.0000e+00
      0.999     -0.314     0.0625      0.922     32.710  30.708644     1.3883      7.440    54.2051 4.9186e+01    11.9063      0.960      1.392    20.7275 0.0000e+00
      0.910     -0.245     0.0626      1.350     32.394  30.598088     1.3966      7.439    56.5491 5.4960e+01    12.0084      0.870      1.262    20.9268 0.0000e+00
      0.877     -0.161     0.0605      2.143     32.180  30.562145     1.3801      7.438    59.0005 5.5315e+01    12.0353      0.849      1.232    21.2758 0.0000e+00
      0.877     -0.081     0.0623      3.311     32.077  30.591271     1.3713      7.438    61.3024 5.3601e+01    12.0944      0.858      1.243    21.6318 0.0000e+00
      0.888     -0.021     0.0730      4.760     32.072  30.633457     1.3819      7.438    63.2149 5.2239e+01    12.1769      0.873      1.266    21.9502 0.0000e+00
      0.897      0.010     0.1058      6.434     32.109  30.628514     1.3917      7.438    64.6594 5.2299e+01    12.2460      0.883      1.282    22.2321 0.0000e+00
      0.900      0.016     0.1727      8.234     32.144  30.594839     1.3896      7.437    65.7755 5.2533e+01    12.2472      0.884      1.281    22.4964 0.0000e+00
      0.901      0.001     0.2782      9.892     32.190  30.606557     1.4147      7.436    66.9008 5.1738e+01    12.1915      0.882      1.280    22.7250 0.0000e+00
      0.906     -0.034     0.4030     11.104     32.230  30.643362     1.4702      7.434    68.3712 5.0333e+01    12.1872      0.887      1.288    22.8140 0.0000e+00
      0.911     -0.091     0.5489     11.680     32.232  30.659478     1.4961      7.429    70.1308 5.0309e+01    12.2634      0.897      1.302    22.7051 0.0000e+00
      0.903     -0.164     0.7169     11.688     32.218  30.674656     1.5030      7.425    71.9149 5.5339e+01    12.3614      0.897      1.301    22.5483 0.0000e+00
      0.863     -0.240     0.8700     11.395     32.206  30.700130     1.5781      7.422    73.5958 6.9139e+01    12.7921      0.863      1.251    22.5225 0.0000e+00
      0.781     -0.300     0.9819     11.023     32.176  30.713956     1.7127      7.420    74.5373 9.7027e+01    13.5766      0.781      1.132    22.5303 0.0000e+00
      0.661     -0.326     1.0300     10.739     32.125  30.715092     1.7907      7.418    75.8123 1.4336e+02    14.0578      0.654      0.948    22.5433 0.0000e+00
      0.529     -0.314     1.0177     10.703     32.060  30.713938     1.8134      7.416    78.8593 1.9934e+02    14.2036      0.508      0.738    22.5964 0.0000e+00
      0.423     -0.267     0.9859     10.994     31.976  30.700097     1.9461      7.414    81.7813 2.4135e+02    14.9644      0.394      0.572    22.6541 0.0000e+00
      0.366     -0.195     0.9482     11.614     31.886  30.674627     2.1879      7.414    83.6093 2.5588e+02    16.3558      0.345      0.499    22.7212 0.0000e+00
      0.350     -0.118     0.9165     12.511     31.811  30.659643     2.3154      7.414    85.0435 2.5326e+02    17.0899      0.339      0.491    22.7913 0.0000e+00
      0.353     -0.053     0.9096     13.606     31.742  30.645804     2.3148      7.413    86.2164 2.4745e+02    17.1456      0.346      0.501    22.8900 0.0000e+00
      0.360     -0.012     0.9328     14.811     31.682  30.634167     2.2880      7.412    87.2939 2.4647e+02    16.8922      0.354      0.513    23.0068 0.0000e+00
      0.365      0.007     0.9859     16.085     31.650  30.645790     2.2493      7.411    88.3494 2.5062e+02    16.3497      0.359      0.521    23.0953 0.0000e+00
      0.366      0.010     1.0630     17.349     31.631  30.659605     2.2221      7.411    89.4275 2.5399e+02    16.0509      0.360      0.522    23.1871 0.0000e+00
      0.366      0.009     1.1586     18.492     31.627  30.674462     2.2087      7.412    90.5214 2.5484e+02    16.0469      0.358      0.520    23.2718 0.0000e+00
      0.367      0.006     1.2597     19.494     31.645  30.698665     2.2289      7.412    91.6814 2.5302e+02    16.5053      0.360      0.522    23.3408 0.0000e+00
      0.370     -0.002     1.3680     20.363     31.648  30.698675     2.2746      7.412    92.6977 2.4936e+02    17.3583      0.363      0.527    23.4151 0.0000e+00
      0.372     -0.024     1.4804     21.108     31.631  30.674575     2.2869      7.411    93.6030 2.4554e+02    17.7862      0.365      0.529    23.4682 0.0000e+00
      0.374     -0.066     1.5747     21.723     31.612  30.660835     2.2694      7.411    96.5184 2.4319e+02    17.8192      0.366      0.532    23.4922 0.0000e+00
      0.372     -0.122     1.6603     22.163     31.590  30.659346     2.2795      7.413   111.9448 2.5474e+02    17.9616      0.371      0.538    23.5056 0.0000e+00
      0.349     -0.177     1.7340     22.429     31.561  30.656610     2.3170      7.417   137.9845 3.0431e+02    18.1755      0.358      0.519    23.4998 0.0000e+00
      0.286     -0.212     1.7970     22.582     31.498  30.627790     2.3322      7.425   153.3312 4.0036e+02    18.2535      0.295      0.429    23.4731 0.0000e+00
      0.186     -0.222     1.8529     22.727     31.375  30.564504     2.3222      7.435   156.5680 5.2891e+02    18.2219      0.184      0.267    23.4766 0.0000e+00
      0.085     -0.207     1.8871     22.953     31.251  30.525447     2.3202      7.445   158.3637 6.3206e+02    18.2376      0.066      0.096    23.5241 0.0000e+00
      0.023     -0.167     1.9076     23.366     31.181  30.536045     2.3573      7.453   159.9859 6.5214e+02    18.2045      0.004      0.005    23.5606 0.0000e+00
      0.006     -0.111     1.9150     24.176     31.164  30.565970     2.4219      7.459   161.2103 6.6301e+02    18.0265      0.001      0.000    23.5972 0.0000e+00
      0.010     -0.053     1.9211     25.472     31.150  30.570369     2.4605      7.463   160.0901 7.5667e+02    17.8612      0.011      0.015    23.6849 0.0000e+00
      0.016     -0.010     1.9348     27.060     31.083  30.525857     2.4585      7.465   148.6794 8.5426e+02    17.7774      0.017      0.024    23.8348 0.0000e+00
      0.020      0.010     1.9546     28.650     30.975  30.471562     2.4052      7.463   129.2449 8.8343e+02    17.5264      0.020      0.029    23.9827 0.0000e+00
      0.023      0.014     2.0155     30.036     30.843  30.421125     2.3236      7.456   117.4921 8.6741e+02    17.0468      0.022      0.032    24.0558 0.0000e+00
      0.027      0.011     2.1329     31.207     30.758  30.423296     2.2801      7.448   114.1267 8.0974e+02    16.7608      0.026      0.038    24.0615 0.0000e+00
      0.031      0.008     2.2748     32.335     30.786  30.497944     2.2784      7.443   113.4201 7.8095e+02    16.8358      0.032      0.046    24.0741 0.0000e+00
      0.033      0.006     2.4113     33.566     30.804  30.499639     2.4025      7.441   124.9521 7.9833e+02    18.3624      0.032      0.046    24.1661 0.0000e+00
      0.033      0.003     2.5219     34.904     30.709  30.380367     2.6480      7.445   145.7509 8.2322e+02    21.2483      0.031      0.045    24.3035 0.0000e+00
      0.033      0.001     2.6046     36.228     30.552  30.260271     2.7928      7.451   148.7669 8.2400e+02    22.8639      0.032      0.046    24.4694 0.0000e+00
      0.033      0.000     2.6878     37.298     30.382  30.188698     2.8049      7.452   133.2829 7.4498e+02    23.0029      0.032      0.046    24.5819 0.0000e+00
      0.032      0.000     2.7956     38.086     30.225  30.149053     2.7944      7.451   126.9139 6.6740e+02    22.8601      0.033      0.047    24.5063 0.0000e+00
      0.031      0.000     2.9140     39.026     30.135  30.161466     2.7974      7.450   129.0619 6.3594e+02    22.6401      0.031      0.044    24.4085 0.0000e+00
      0.030      0.000     3.0308     40.585     30.124  30.212155     2.8089      7.447   122.6880 6.0295e+02    22.5638      0.028      0.041    24.4782 0.0000e+00
      0.032     -0.002     3.1137     42.764     30.162  30.254880     2.8084      7.445   113.4312 5.8568e+02    22.5524      0.031      0.044    24.6685 0.0000e+00
      0.035     -0.005     3.1498     45.225     30.246  30.297700     2.7831      7.444   107.9093 6.1302e+02    22.3997      0.034      0.049    24.8785 0.0000e+00
      0.036     -0.005     3.1981     47.525     30.352  30.349460     2.6352      7.443   103.4166 7.0308e+02    21.2644      0.036      0.052    25.0591 0.0000e+00
      0.032     -0.001     3.3222     49.208     30.427  30.373473     2.3938      7.449    98.3444 7.9503e+02    19.2449      0.034      0.049    25.1805 0.0000e+00
      0.024      0.006     3.5140     50.019     30.437  30.334398     2.2793      7.467    93.1289 7.9014e+02    18.1356      0.022      0.032    25.1752 0.0000e+00
      0.019      0.015     3.7338     49.904     30.405  30.257296     2.2828      7.501    90.7760 7.2195e+02    18.0646      0.013      0.019    25.0851 0.0000e+00
      0.025      0.025     3.9481     48.941     30.368  30.201890     2.2943      7.548    90.8891 6.8196e+02    18.4214      0.021      0.030    24.9859 0.0000e+00
      0.041      0.034     4.0988     47.349     30.322  30.171600     2.3098      7.603    91.1406 6.7571e+02    19.0685      0.040      0.059    24.9043 0.0000e+00
      0.057      0.040     4.1730     45.499     30.254  30.144647     2.3213      7.658    91.8382 6.7608e+02    19.4326      0.058      0.084    24.8291 0.0000e+00
      0.070      0.040     4.1695     43.892     30.181  30.129642     2.3246      7.715    93.3871 6.7270e+02    19.4413      0.070      0.102    24.7294 0.0000e+00
      0.080      0.033     4.0848     42.908     30.113  30.117048     2.3163      7.775    93.8641 6.3717e+02    19.2765      0.080      0.116    24.6954 0.0000e+00
      0.086      0.023     3.9409     42.729     30.079  30.119239     2.3034      7.834    94.2508 6.1275e+02    19.0448      0.085      0.123    24.7370 0.0000e+00
      0.089      0.012     3.7649     43.402     30.107  30.156191     2.3023      7.889    96.2567 6.3145e+02    18.9632      0.086      0.125    24.7957 0.0000e+00
      0.094      0.002     3.6124     44.715     30.154  30.183487     2.3198      7.934    98.2416 6.5225e+02    19.0068      0.092      0.134    24.9128 0.0000e+00
      0.094     -0.003     3.5215     46.261     30.198  30.195682     2.3324      7.972    99.5799 6.6685e+02    19.0599      0.096      0.139    25.0153 0.0000e+00
      0.088     -0.006     3.4987     47.623     30.200  30.176795     2.3213      8.004   100.5636 6.5612e+02    19.1270      0.087      0.126    25.0710 0.0000e+00
      0.080     -0.006     3.5598     48.484     30.095  30.081882     2.3180      8.030   100.9292 5.9983e+02    19.1686      0.075      0.109    25.1005 0.0000e+00
      0.078     -0.006     3.6849     48.732     29.955  29.998992     2.3261      8.050   101.0761 4.9594e+02    19.1876      0.074      0.107    25.0478 0.0000e+00
      0.080     -0.007     3.8290     48.539     29.869  29.998777     2.3110      8.065   101.5651 3.8000e+02    19.2877      0.079      0.115    24.9830 0.0000e+00
      0.083     -0.010     3.9547     48.327     29.807  30.016019     2.2760      8.075   102.3671 3.3903e+02    19.4231      0.082      0.119    24.9419 0.0000e+00
      0.084     -0.020     4.0301     48.564     29.766  30.017411     2.2531      8.083   102.7714 4.1811e+02    19.4243      0.084      0.121    24.9380 0.0000e+00
      0.081     -0.037     4.0373     49.489     29.767  30.015672     2.2591      8.089   102.2370 5.7152e+02    19.3705      0.081      0.118    25.0483 0.0000e+00
      0.071     -0.060     3.9956     51.033     29.773  29.994986     2.2734      8.098   101.8430 7.2063e+02    19.3870      0.073      0.105    25.2163 0.0000e+00
      0.053     -0.085     3.9514     52.873     29.758  29.957423     2.3094      8.109   102.8265 8.3057e+02    19.5895      0.056      0.080    25.3671 0.0000e+00
      0.026     -0.112     3.9574     54.503     29.741  29.941821     2.3788      8.124   105.9540 8.8173e+02    19.9409      0.026      0.039    25.4493 0.0000e+00
     -0.006     -0.142     4.0385     55.566     29.697  29.933134     2.4217      8.146   122.7933 8.8828e+02    20.1169     -0.002     -0.004    25.4259 0.0000e+00
     -0.045     -0.169     4.1775     56.062     29.627  29.915835     2.4446      8.182   151.3007 1.0481e+03    20.1808     -0.041     -0.060    25.3640 0.0000e+00
     -0.090     -0.189     4.3507     56.247     29.585  29.922927     2.4900      8.232   164.8981 1.2838e+03    20.6790     -0.087     -0.125    25.3151 0.0000e+00
     -0.145     -0.195     4.4972     56.504     29.577  29.955564     2.5294      8.288   162.9573 1.1837e+03    21.5288     -0.136     -0.196    25.3070 0.0000e+00
     -0.210     -0.185     4.5763     57.144     29.581  29.993542     2.5376      8.343   161.7343 9.3818e+02    21.9498     -0.206     -0.299    25.3786 0.0000e+00
     -0.275     -0.168     4.6004     58.244     29.563  30.001820     2.5055      8.390   160.7789 1.0377e+03    21.8761     -0.279     -0.405    25.4904 0.0000e+00
     -0.318     -0.157     4.5964     59.676     29.532  29.992300     2.1325      8.432   146.5020 1.3439e+03    20.8761     -0.322     -0.466    25.5693 0.0000e+00
     -0.337     -0.166     4.6014     61.174     29.519  30.005251     1.4492      8.468   111.7199 1.4712e+03    19.0482     -0.336     -0.487    25.6356 0.0000e+00
     -0.345     -0.191     4.6473     62.412     29.518  30.031674     1.0763      8.497    71.5684 1.4523e+03    17.9818     -0.335     -0.485    25.6981 0.0000e+00
     -0.368     -0.216     4.7374     63.098     29.535  30.058258     1.0115      8.524    43.5646 1.4451e+03    17.4108     -0.345     -0.500    25.7373 0.0000e+00
     -0.438     -0.230     4.8588     63.107     29.579  30.073120     0.7334      8.548    32.0205 1.3929e+03    12.8958     -0.406     -0.588    25.7722 0.0000e+00
     -0.556     -0.231     4.9876     62.591     29.648  30.084535     0.2444      8.567    30.3317 1.2877e+03     4.6890     -0.549     -0.797    25.8103 0.0000e+00
     -0.663     -0.211     5.0909     61.798     29.693  30.069407    -0.0166      8.582    28.6527 1.2512e+03     0.2002     -0.683     -0.990    25.8744 0.0000e+00
     -0.709     -0.170     5.1489     60.905     29.443  29.763324    -0.0420      8.594    28.0671 1.3080e+03    -0.2151     -0.706     -1.024    25.9103 0.0000e+00
     -0.715     -0.112     5.1495     60.196     26.259  26.510417    -0.0537      8.608    33.3176 1.3958e+03    -0.2650     -0.700     -1.015    25.8454 0.0000e+00
     -0.716     -0.054     5.1087     60.040     17.771  17.925987    -0.0586      8.619    39.2224 1.4800e+03    -0.2998     -0.703     -1.020    25.7301 0.0000e+00
     -0.716     -0.016     5.0520     60.531      8.900   8.971257    -0.0590      8.627    42.6751 1.5592e+03    -0.3283     -0.702     -1.018    25.6217 0.0000e+00
     -0.717     -0.003     4.9802     61.472      4.924   4.960610    -0.0591      8.636    52.8657 1.5868e+03    -0.3366     -0.703     -1.020    25.5303 0.0000e+00
     -0.717     -0.002     4.9132     62.602      3.984   4.012318    -0.0598      8.645    63.6633 1.5258e+03    -0.3312     -0.703     -1.021    25.4554 0.0000e+00
     -0.717     -0.001     4.9036     63.721      3.684   3.710038    -0.0589      8.649    59.2263 1.5054e+03    -0.3318     -0.704     -1.021    25.4037 0.0000e+00
     -0.718     -0.001     4.9546     64.716      3.687   3.711570    -0.0561      8.650    51.1861 1.6171e+03    -0.3440     -0.703     -1.021    25.3756 0.0000e+00
     -0.718     -0.000     5.0405     65.524      3.627   3.650990    -0.0593      8.652    49.8211 1.7423e+03    -0.3417     -0.704     -1.023    25.3594 0.0000e+00
     -0.718     -0.000     5.1410     66.095      3.462   3.484025    -0.0650      8.657    48.4006 1.4833e+03    -0.3389     -0.704     -1.022    25.3488 0.0000e+00
     -0.718     -0.000     5.2356     66.315      3.381   3.402147    -0.0669      8.659    46.9168 8.5809e+02    -0.3444     -0.704     -1.021    25.3409 0.0000e+00
     -0.718 -9.990e-29     5.3207 -9.990e-29 -9.990e-29 -9.990e-29 -9.990e-29 -9.990e-29 -9.990e-29 5.0032e+02 -9.990e-29     -0.704     -1.022    25.3311 0.0000e+00
     -0.718 -9.990e-29     5.3879 -9.990e-29 -9.990e-29 -9.990e-29 -9.990e-29 -9.990e-29 -9.990e-29 4.6695e+02 -9.990e-29     -0.704     -1.021    25.3231 0.0000e+00
     -0.718 -9.990e-29     5.4399 -9.990e-29 -9.990e-29 -9.990e-29 -9.990e-29 -9.990e-29 -9.990e-29 4.6780e+02 -9.990e-29     -0.704     -1.021    25.3093 0.0000e+00
     -0.718 -9.990e-29     5.4645 -9.990e-29 -9.990e-29 -9.990e-29 -9.990e-29 -9.990e-29 -9.990e-29 4.6977e+02 -9.990e-29     -0.704     -1.021    25.2971 0.0000e+00
