* Sea-Bird SBE19plus  Data File:
* FileName = C:\DATA\070819_fcr50_0006.hex
* Software version 2.8.0.119
* Temperature SN = 7809
* Conductivity SN = 7809
* System UpLoad Time = Jul 08 2019 15:02:47
* <ApplicationData>
* <Seaterm232>
* <SoftwareVersion>2.8.0.119</SoftwareVersion>
* <BuildDate>07-Nov-2018</BuildDate>
* </Seaterm232>
* </ApplicationData>
* <InstrumentState>
* <HardwareData DeviceType='SBE19plus' SerialNumber='01907809'>
*
*    <Manufacturer>Sea-Bird Electronics, Inc.</Manufacturer>
*
*    <FirmwareVersion>3.1.8</FirmwareVersion>
*
*    <FirmwareDate>Mar  9 2016 16:22:29</FirmwareDate>
*
*    <CommandSetVersion>1.4</CommandSetVersion>
*
*    <PCBAssembly PCBSerialNum='120721' AssemblyNum='41054J'/>
*
*    <PCBAssembly PCBSerialNum='120715' AssemblyNum='41967A'/>
*
*    <PCBAssembly PCBSerialNum='116699' AssemblyNum='41606'/>
*
*    <PCBAssembly PCBSerialNum='120719' AssemblyNum='41059D'/>
*
*    <MfgDate>28-Apr-2017</MfgDate>
*
*    <InternalSensors>
*
*       <Sensor id='Main Temperature'>
*
*          <type>temperature0</type>
*
*          <SerialNumber>01907809</SerialNumber>
*
*       </Sensor>
*
*       <Sensor id='Main Conductivity'>
*
*          <type>conductivity-0</type>
*
*          <SerialNumber>01907809</SerialNumber>
*
*       </Sensor>
*
*       <Sensor id='Main Pressure'>
*
*          <type>strain-0</type>
*
*          <SerialNumber>10586018</SerialNumber>
*
*       </Sensor>
*
*    </InternalSensors>
*
*    <ExternalSensors>
*
*       <Sensor id='volt 0'>
*
*          <type>pH</type>
*
*          <SerialNumber>27-0363</SerialNumber>
*
*       </Sensor>
*
*       <Sensor id='volt 1'>
*
*          <type>ORP</type>
*
*          <SerialNumber>27-0363</SerialNumber>
*
*       </Sensor>
*
*       <Sensor id='volt 2'>
*
*          <type>OXY</type>
*
*          <SerialNumber>43-0434</SerialNumber>
*
*       </Sensor>
*
*       <Sensor id='volt 3'>
*
*          <type>PAR</type>
*
*          <SerialNumber>1122</SerialNumber>
*
*       </Sensor>
*
*       <Sensor id='volt 4'>
*
*          <type>ECO AFL/FL</type>
*
*          <SerialNumber>FLNTURT-2496</SerialNumber>
*
*       </Sensor>
*
*       <Sensor id='volt 5'>
*
*          <type>ECO-NTU</type>
*
*          <SerialNumber>FLNTURT-2496</SerialNumber>
*
*       </Sensor>
*
*       <Sensor id='serial'>
*
*          <type>not assigned</type>
*
*          <SerialNumber>not assigned</SerialNumber>
*
*       </Sensor>
*
*    </ExternalSensors>
*
* </HardwareData>
* <StatusData DeviceType='SBE19plus' SerialNumber='01907809'>
*
*    <DateTime>2019-07-08T15:00:04</DateTime>
*
*    <LoggingState>not logging</LoggingState>
*
*    <EventSummary numEvents='0'/>
*
*    <Power>
*
*       <vMain>12.6</vMain>
*
*       <vLith>8.8</vLith>
*
*       <iMain>63.1</iMain>
*
*       <iPump>40.7</iPump>
*
*       <iExt01>19.2</iExt01>
*
*       <iExt2345>35.8</iExt2345>
*
*    </Power>
*
*    <MemorySummary>
*
*       <Bytes>112608</Bytes>
*
*       <Samples>4896</Samples>
*
*       <SamplesFree>2855892</SamplesFree>
*
*       <SampleLength>23</SampleLength>
*
*       <Profiles>6</Profiles>
*
*    </MemorySummary>
*
* </StatusData>
* <ConfigurationData DeviceType='SBE19plus' SerialNumber='01907809'>
*
*    <ProfileMode>
*
*       <ScansToAverage>1</ScansToAverage>
*
*       <MinimumCondFreq>5</MinimumCondFreq>
*
*       <PumpDelay>45</PumpDelay>
*
*       <AutoRun>no</AutoRun>
*
*       <IgnoreSwitch>no</IgnoreSwitch>
*
*    </ProfileMode>
*
*    <Battery>
*
*       <Type>alkaline</Type>
*
*       <CutOff>7.5</CutOff>
*
*    </Battery>
*
*    <DataChannels>
*
*       <ExtVolt0>yes</ExtVolt0>
*
*       <ExtVolt1>yes</ExtVolt1>
*
*       <ExtVolt2>yes</ExtVolt2>
*
*       <ExtVolt3>yes</ExtVolt3>
*
*       <ExtVolt4>yes</ExtVolt4>
*
*       <ExtVolt5>yes</ExtVolt5>
*
*       <SBE38>no</SBE38>
*
*       <WETLABS>no</WETLABS>
*
*       <OPTODE>no</OPTODE>
*
*       <SBE63>no</SBE63>
*
*       <SeaFET>no</SeaFET>
*
*       <GTD>no</GTD>
*
*    </DataChannels>
*
*    <EchoCharacters>yes</EchoCharacters>
*
*    <OutputExecutedTag>yes</OutputExecutedTag>
*
*    <OutputFormat>raw HEX</OutputFormat>
*
* </ConfigurationData>
* <CalibrationCoefficients DeviceType='SBE19plus' SerialNumber='01907809'>
*
*    <Calibration format='TEMP1' id='Main Temperature'>
*
*       <SerialNum>01907809</SerialNum>
*
*       <CalDate>24-Mar-19</CalDate>
*
*       <TA0>1.217923e-03</TA0>
*
*       <TA1>2.816693e-04</TA1>
*
*       <TA2>-1.603333e-06</TA2>
*
*       <TA3>1.984146e-07</TA3>
*
*       <TOFFSET>0.000000e+00</TOFFSET>
*
*    </Calibration>
*
*    <Calibration format='WBCOND0' id='Main Conductivity'>
*
*       <SerialNum>01907809</SerialNum>
*
*       <CalDate>24-Mar-19</CalDate>
*
*       <G>-1.005893e+00</G>
*
*       <H>1.268163e-01</H>
*
*       <I>-1.515604e-04</I>
*
*       <J>2.671373e-05</J>
*
*       <CPCOR>-9.570000e-08</CPCOR>
*
*       <CTCOR>3.250000e-06</CTCOR>
*
*       <CSLOPE>1.000000e+00</CSLOPE>
*
*    </Calibration>
*
*    <Calibration format='STRAIN0' id='Main Pressure'>
*
*       <SerialNum>10586018</SerialNum>
*
*       <CalDate>11-Mar-19</CalDate>
*
*       <PA0>4.565618e-02</PA0>
*
*       <PA1>4.850951e-04</PA1>
*
*       <PA2>-2.883271e-12</PA2>
*
*       <PTCA0>5.252467e+05</PTCA0>
*
*       <PTCA1>1.223042e+01</PTCA1>
*
*       <PTCA2>-3.567450e-01</PTCA2>
*
*       <PTCB0>2.516687e+01</PTCB0>
*
*       <PTCB1>3.750000e-04</PTCB1>
*
*       <PTCB2>0.000000e+00</PTCB2>
*
*       <PTEMPA0>-5.487846e+01</PTEMPA0>
*
*       <PTEMPA1>5.537568e+01</PTEMPA1>
*
*       <PTEMPA2>-5.867271e-01</PTEMPA2>
*
*       <POFFSET>7.140000e-01</POFFSET>
*
*       <PRANGE>1.600000e+02</PRANGE>
*
*    </Calibration>
*
*    <Calibration format='VOLT0' id='Volt 0'>
*
*       <OFFSET>-4.920000e-02</OFFSET>
*
*       <SLOPE>1.248122e+00</SLOPE>
*
*    </Calibration>
*
*    <Calibration format='VOLT0' id='Volt 1'>
*
*       <OFFSET>-4.784000e-02</OFFSET>
*
*       <SLOPE>1.248871e+00</SLOPE>
*
*    </Calibration>
*
*    <Calibration format='VOLT0' id='Volt 2'>
*
*       <OFFSET>-4.864632e-02</OFFSET>
*
*       <SLOPE>1.248714e+00</SLOPE>
*
*    </Calibration>
*
*    <Calibration format='VOLT0' id='Volt 3'>
*
*       <OFFSET>-4.743790e-02</OFFSET>
*
*       <SLOPE>1.248571e+00</SLOPE>
*
*    </Calibration>
*
*    <Calibration format='VOLT0' id='Volt 4'>
*
*       <OFFSET>-4.671263e-02</OFFSET>
*
*       <SLOPE>1.248951e+00</SLOPE>
*
*    </Calibration>
*
*    <Calibration format='VOLT0' id='Volt 5'>
*
*       <OFFSET>-4.871053e-02</OFFSET>
*
*       <SLOPE>1.249136e+00</SLOPE>
*
*    </Calibration>
*
*    <Calibration format='FREQ0' id='external frequency channel'>
*
*       <EXTFREQSF>1.000014e+00</EXTFREQSF>
*
*    </Calibration>
*
* </CalibrationCoefficients>
* <EventCounters DeviceType='SBE19plus' SerialNumber='01907809'>
*
*    <EventSummary numEvents='0'/>
*
* </EventCounters></InstrumentState>
* <Headers>
*
* cast   6 08 Jul 2019 14:49:07 samples 3985 to 4896, avg = 1, stop = mag switch
*
# nquan = 18
# nvalues = 805                         
# units = specified
# name 0 = depFM: Depth [fresh water, m]
# name 1 = tv290C: Temperature [ITS-90, deg C]
# name 2 = sbeox0Mg/L: Oxygen, SBE 43 [mg/l]
# name 3 = sbeox0PS: Oxygen, SBE 43 [% saturation]
# name 4 = c0uS/cm: Conductivity [uS/cm]
# name 5 = specc: Specific Conductance [uS/cm]
# name 6 = ph: pH
# name 7 = orp: Oxidation Reduction Potential [mV]
# name 8 = flECO-AFL: Fluorescence, WET Labs ECO-AFL/FL [mg/m^3]
# name 9 = turbWETntu0: Turbidity, WET Labs ECO [NTU]
# name 10 = sal00: Salinity, Practical [PSU]
# name 11 = dz/dtM: Descent Rate [m/s]
# name 12 = prdM: Pressure, Strain Gauge [db]
# name 13 = prdE: Pressure, Strain Gauge [psi]
# name 14 = scan: Scan Count
# name 15 = par/sat/log: PAR/Logarithmic, Satlantic
# name 16 = density00: Density [density, kg/m^3]
# name 17 = flag:  0.000e+00
# span 0 =     -0.619,      9.595       
# span 1 =    10.1169,    34.3288       
# span 2 =     0.0694,    14.6989       
# span 3 =      0.618,    166.934       
# span 4 =  -0.367624, 201.637754       
# span 5 =     -0.526,    280.779       
# span 6 =     -2.050,      7.249       
# span 7 = -1240.7455,  1240.2295       
# span 8 =    -0.1407,    10.0599       
# span 9 =    -3.6857,    41.1454       
# span 10 =     0.0000,     0.1319      
# span 11 =     -0.107,      0.230      
# span 12 =     -0.607,      9.409      
# span 13 =     -0.880,     13.647      
# span 14 =          1,        805      
# span 15 = 1.2265e-01, 2.6240e+03      
# span 16 =   994.2583,   999.8119      
# span 17 = 0.0000e+00, 0.0000e+00      
# interval = seconds: 0.25
# start_time = Jul 08 2019 14:49:07 [Instrument's time stamp, header]
# bad_flag = -9.990e-29
# <Sensors count="9" >
#   <sensor Channel="1" >
#     <!-- Count, Temperature -->
#     <TemperatureSensor SensorID="58" >
#       <SerialNumber>7809</SerialNumber>
#       <CalibrationDate>24-Mar-19</CalibrationDate>
#       <A0>1.21792325e-003</A0>
#       <A1>2.81669265e-004</A1>
#       <A2>-1.60333336e-006</A2>
#       <A3>1.98414625e-007</A3>
#       <Slope>1.00000000</Slope>
#       <Offset>0.0000</Offset>
#     </TemperatureSensor>
#   </sensor>
#   <sensor Channel="2" >
#     <!-- Frequency 0, Conductivity -->
#     <ConductivitySensor SensorID="3" >
#       <SerialNumber>7809</SerialNumber>
#       <CalibrationDate>24-Mar-19</CalibrationDate>
#       <UseG_J>1</UseG_J>
#       <!-- Cell const and series R are applicable only for wide range sensors. -->
#       <SeriesR>0.0000</SeriesR>
#       <CellConst>2000.0000</CellConst>
#       <ConductivityType>0</ConductivityType>
#       <Coefficients equation="0" >
#         <A>0.00000000e+000</A>
#         <B>0.00000000e+000</B>
#         <C>0.00000000e+000</C>
#         <D>0.00000000e+000</D>
#         <M>0.0</M>
#         <CPcor>-9.57000000e-008</CPcor>
#       </Coefficients>
#       <Coefficients equation="1" >
#         <G>-1.00589325e+000</G>
#         <H>1.26816302e-001</H>
#         <I>-1.51560448e-004</I>
#         <J>2.67137274e-005</J>
#         <CPcor>-9.57000000e-008</CPcor>
#         <CTcor>3.2500e-006</CTcor>
#         <!-- WBOTC not applicable unless ConductivityType = 1. -->
#         <WBOTC>0.00000000e+000</WBOTC>
#       </Coefficients>
#       <Slope>1.00000000</Slope>
#       <Offset>0.00000</Offset>
#     </ConductivitySensor>
#   </sensor>
#   <sensor Channel="3" >
#     <!-- Count, Pressure, Strain Gauge -->
#     <PressureSensor SensorID="46" >
#       <SerialNumber>7809</SerialNumber>
#       <CalibrationDate>11-Mar-19</CalibrationDate>
#       <PA0>4.56561833e-002</PA0>
#       <PA1>4.85095118e-004</PA1>
#       <PA2>-2.88327090e-012</PA2>
#       <PTEMPA0>-5.48784562e+001</PTEMPA0>
#       <PTEMPA1>5.53756816e+001</PTEMPA1>
#       <PTEMPA2>-5.86727098e-001</PTEMPA2>
#       <PTCA0>5.25246745e+005</PTCA0>
#       <PTCA1>1.22304214e+001</PTCA1>
#       <PTCA2>-3.56745036e-001</PTCA2>
#       <PTCB0>2.51668750e+001</PTCB0>
#       <PTCB1>3.75000000e-004</PTCB1>
#       <PTCB2>0.00000000e+000</PTCB2>
#       <Offset>0.000000</Offset>
#     </PressureSensor>
#   </sensor>
#   <sensor Channel="4" >
#     <!-- A/D voltage 0, Oxygen, SBE 43 -->
#     <OxygenSensor SensorID="38" >
#       <SerialNumber>0434</SerialNumber>
#       <CalibrationDate>13-Apr-19</CalibrationDate>
#       <Use2007Equation>1</Use2007Equation>
#       <CalibrationCoefficients equation="0" >
#         <!-- Coefficients for Owens-Millard equation. -->
#         <Boc>0.0000</Boc>
#         <Soc>0.0000e+000</Soc>
#         <offset>0.0000</offset>
#         <Pcor>0.00e+000</Pcor>
#         <Tcor>0.0000</Tcor>
#         <Tau>0.0</Tau>
#       </CalibrationCoefficients>
#       <CalibrationCoefficients equation="1" >
#         <!-- Coefficients for Sea-Bird equation - SBE calibration in 2007 and later. -->
#         <Soc>4.2007e-001</Soc>
#         <offset>-0.6109</offset>
#         <A>-4.3656e-003</A>
#         <B> 1.7017e-004</B>
#         <C>-2.5341e-006</C>
#         <D0> 2.5826e+000</D0>
#         <D1> 1.92634e-004</D1>
#         <D2>-4.64803e-002</D2>
#         <E> 3.6000e-002</E>
#         <Tau20> 1.1800</Tau20>
#         <H1>-3.3000e-002</H1>
#         <H2> 5.0000e+003</H2>
#         <H3> 1.4500e+003</H3>
#       </CalibrationCoefficients>
#     </OxygenSensor>
#   </sensor>
#   <sensor Channel="5" >
#     <!-- A/D voltage 1, PAR/Logarithmic, Satlantic -->
#     <PARLog_SatlanticSensor SensorID="76" >
#       <SerialNumber>1122</SerialNumber>
#       <CalibrationDate>08-May-2019</CalibrationDate>
#       <a0>9.7456e-001</a0>
#       <a1>8.1640e-001</a1>
#       <Im>1.3589e+000</Im>
#       <Multiplier>1.0000e+000</Multiplier>
#     </PARLog_SatlanticSensor>
#   </sensor>
#   <sensor Channel="6" >
#     <!-- A/D voltage 2, pH -->
#     <pH_Sensor SensorID="43" >
#       <SerialNumber>0363</SerialNumber>
#       <CalibrationDate>15-Apr-19</CalibrationDate>
#       <Slope>4.5952</Slope>
#       <Offset>2.5370</Offset>
#     </pH_Sensor>
#   </sensor>
#   <sensor Channel="7" >
#     <!-- A/D voltage 3, Oxidation Reduction Potential -->
#     <OxidationReductionPotentialSensor SensorID="41" >
#       <SerialNumber>0363</SerialNumber>
#       <CalibrationDate>15-Apr-19</CalibrationDate>
#       <B>2.499480</B>
#       <M>-0.496195</M>
#       <Offset>0.0</Offset>
#     </OxidationReductionPotentialSensor>
#   </sensor>
#   <sensor Channel="8" >
#     <!-- A/D voltage 4, Fluorometer, WET Labs ECO-AFL/FL -->
#     <FluoroWetlabECO_AFL_FL_Sensor SensorID="20" >
#       <SerialNumber>FLNTURT-2496</SerialNumber>
#       <CalibrationDate>08-May-2019</CalibrationDate>
#       <ScaleFactor>5.00000000e+001</ScaleFactor>
#       <!-- Dark output -->
#       <Vblank>0.0550</Vblank>
#     </FluoroWetlabECO_AFL_FL_Sensor>
#   </sensor>
#   <sensor Channel="9" >
#     <!-- A/D voltage 5, Turbidity Meter, WET Labs, ECO-NTU -->
#     <TurbidityMeter SensorID="67" >
#       <SerialNumber>FLNTURT-2496</SerialNumber>
#       <CalibrationDate>08-May-2019</CalibrationDate>
#       <ScaleFactor>189.000000</ScaleFactor>
#       <!-- Dark output -->
#       <DarkVoltage>0.071000</DarkVoltage>
#     </TurbidityMeter>
#   </sensor>
# </Sensors>
# datcnv_date = Jul 09 2019 07:37:44, 7.26.7.129 [datcnv_vars = 17]
# datcnv_in = C:\DATA\070819_fcr50_b.hex C:\DATA\SBE19plusV2_7809.xmlcon
# datcnv_skipover = 0
# datcnv_ox_hysteresis_correction = yes
# datcnv_ox_tau_correction = yes
# filter_date = Jul 09 2019 07:39:48, 7.26.7.129
# filter_in = C:\DATA\070819_fcr50_b.cnv
# filter_low_pass_tc_A = 0.030
# filter_low_pass_tc_B = 0.150
# filter_low_pass_A_vars = tv290C c0uS/cm par/sat/log density00
# filter_low_pass_B_vars = prdM prdE
# alignctd_date = Jul 09 2019 07:40:15, 7.26.7.129
# alignctd_in = C:\DATA\070819_fcr50_b.cnv
# alignctd_adv = tv290C 0.500, sbeox0Mg/L 3.000, sbeox0PS 3.000                                                                                                                                                                      
# file_type = ascii
*END*
     -0.618    34.3288     6.8030     96.788  -0.141835     -0.221      6.026 -1240.7455    -0.1178    -0.5566     0.0000 4.2106e-16     -0.606     -0.879          1 2.6031e+02   994.2583 0.0000e+00
     -0.618    34.3246     6.8061     96.833   0.844109      0.813      6.025 -1240.7455    -0.1407    -0.5277     0.0148     -0.000     -0.606     -0.880          2 2.3216e+02   994.2683 0.0000e+00
     -0.618    34.3235     6.8023     96.779   0.537946      0.414      6.031 -1240.7455    -0.1102    -0.8017     0.0149     -0.000     -0.606     -0.880          3 2.3807e+02   994.2704 0.0000e+00
     -0.618    34.3242     6.7994     96.739   0.860354      0.672      6.043 -1240.7455    -0.0186     3.6829     0.0148     -0.000     -0.606     -0.879          4 1.9124e+02   994.2725 0.0000e+00
     -0.618    34.3250     6.7915     96.627   0.827430      0.860      6.052 -1240.7455    -0.0606     3.5098     0.0148     -0.000     -0.606     -0.879          5 2.8852e+02   994.2707 0.0000e+00
     -0.619    34.3228     6.7876     96.572  -0.367624     -0.526      6.058 -1240.7455    -0.0453     3.6396     0.0000     -0.000     -0.607     -0.880          6 2.3136e+02   994.2629 0.0000e+00
     -0.619    34.3164     6.7835     96.514   0.395279      0.508      6.059 -1240.7455    -0.0606     3.5963     0.0148     -0.000     -0.607     -0.880          7 6.1870e+02   994.2701 0.0000e+00
     -0.618    34.3104     6.7857     96.545   0.794971      0.555      6.100 -1240.7455    -0.0759     3.5675     0.0148     -0.000     -0.607     -0.880          8 2.9206e+02   994.2735 0.0000e+00
     -0.619    34.3080     6.7843     96.523   1.708490      1.471      6.113 -1240.7455     0.0577    -0.3547     0.0147     -0.000     -0.607     -0.880          9 8.6002e+02   994.2739 0.0000e+00
     -0.618    34.3077     6.7877     96.571   1.624954      1.471      6.114 -1240.7455     0.0424    -0.3979     0.0147     -0.000     -0.606     -0.879         10 1.9848e+03   994.2770 0.0000e+00
     -0.618    34.3083     6.7877     96.569   0.603124      0.320      6.115 -1240.7455     0.0882    -0.3114     0.0149 -4.549e-07     -0.606     -0.879         11 9.6373e+02   994.2772 0.0000e+00
     -0.618    34.3085     6.8353     96.739   1.323569      1.307      6.113 -1240.7455     0.0729    -0.2826     0.0147     -0.000     -0.606     -0.880         12 2.0327e+03   994.2777 0.0000e+00
     -0.618    34.3093     7.0003     97.353   0.905845      0.625      6.117 -1240.7455    -0.0644    -0.5998     0.0148      0.000     -0.606     -0.880         13 2.4742e+03   994.2772 0.0000e+00
     -0.618    34.3097     7.1382     97.867   0.708821      0.672      5.860 -1240.7455    -0.0301    -0.4845     0.0148      0.000     -0.606     -0.879         14 2.2819e+03   994.2773 0.0000e+00
     -0.618    34.3108     7.2423     98.318   0.947547      0.766      4.764 -1240.7455    -0.0339    -0.5277     0.0148      0.000     -0.606     -0.879         15 2.1665e+03   994.2770 0.0000e+00
     -0.618    34.3093     7.3318     98.710   0.904567      0.766      2.796 -1240.7455    -0.0453    -0.5277     0.0148      0.000     -0.606     -0.879         16 4.5575e+02   994.2768 0.0000e+00
     -0.618    34.3119     7.4270     99.299   0.998958      0.860      0.998 -1240.7455     0.2560    -0.8161     0.0148      0.000     -0.606     -0.879         17 2.7926e+02   994.2764 0.0000e+00
     -0.618    34.3080     7.5075     99.926   0.623013      0.508     -0.240 -1240.7455     0.2484    -0.8594     0.0148      0.000     -0.606     -0.879         18 3.9910e+02   994.2770 0.0000e+00
     -0.618    34.3130     7.5748    100.551   0.810382      0.672     -1.385 -1240.7455     0.2408    -0.7729     0.0148      0.000     -0.606     -0.879         19 3.6978e+02   994.2761 0.0000e+00
     -0.617    34.3026     7.6329    101.129   0.410807      0.414     -2.050 -1240.7455     0.2598    -0.8594     0.0149      0.000     -0.605     -0.878         20 3.5367e+02   994.2775 0.0000e+00
     -0.617    34.3174     7.6692    101.473   1.061116      0.719     -2.050 -1240.7455    -0.1331    -0.6287     0.0148      0.001     -0.604     -0.877         21 4.4478e+02   994.2758 0.0000e+00
     -0.617    33.9541     7.6810    101.649   0.326473      0.625     -2.050 -1240.7455    -0.1178    -0.4556     0.0148      0.001     -0.598     -0.868         22 2.9313e+02   994.2791 0.0000e+00
     -0.599    32.9587     7.6834    101.702   2.212498      1.213     -1.701  1240.2295    -0.0987    -0.6575     0.0147      0.006     -0.571     -0.828         23 6.0409e+02   994.2746 0.0000e+00
     -0.527    32.0779     7.6832    101.687  19.844719     17.009      2.217   416.5314    -0.1216    -0.6719     0.0190      0.028     -0.512     -0.743         24 2.2019e+03   994.4001 0.0000e+00
     -0.445    31.5083     7.6705    101.515  37.117788     32.327      4.461   378.8634    -0.1178    -0.8161     0.0245      0.066     -0.440     -0.638         25 2.5445e+03   994.7339 0.0000e+00
     -0.377    31.0089     7.6514    101.293  40.270991     35.181      5.761   366.7112     1.4691    -3.4838     0.0254      0.110     -0.374     -0.543         26 2.3805e+03   995.0206 0.0000e+00
     -0.323    30.6123     7.6366    101.114  39.947516     35.396      6.563   352.5148     1.4539    -3.5270     0.0254      0.153     -0.317     -0.461         27 2.4941e+03   995.2011 0.0000e+00
     -0.268    30.3435     7.6200    100.874  39.980552     35.655      6.958   341.1197     1.4729    -3.6280     0.0254      0.190     -0.266     -0.386         28 2.4277e+03   995.3579 0.0000e+00
     -0.223    30.1913     7.6034    100.630  39.874481     35.866      7.152   333.2454     1.4691    -3.6857     0.0254      0.217     -0.220     -0.319         29 2.4743e+03   995.4804 0.0000e+00
     -0.180    30.0757     7.5971    100.545  39.901900     36.035      7.241   331.0119     1.1487    40.9724     0.0254      0.230     -0.182     -0.264         30 2.4529e+03   995.5631 0.0000e+00
     -0.153    30.0046     7.5745    100.254  39.946579     36.188      7.249   324.7654     1.1754    41.0589     0.0254      0.221     -0.157     -0.227         31 2.4716e+03   995.6094 0.0000e+00
     -0.147    30.0084     7.4861     99.078  40.056087     36.361      7.215   317.6104     1.1601    41.0733     0.0254      0.189     -0.146     -0.212         32 2.4629e+03   995.6446 0.0000e+00
     -0.146    30.0239     7.4551     98.659  40.121353     36.464      7.185   314.1275     1.1754    41.1454     0.0255      0.152     -0.144     -0.208         33 2.4673e+03   995.6661 0.0000e+00
     -0.147    30.0154     7.5071     99.354  40.161785     36.507      7.149   310.8718     1.2669     2.1255     0.0255      0.116     -0.144     -0.208         34 2.4649e+03   995.6650 0.0000e+00
     -0.146    30.0151     7.5633    100.116  40.124333     36.449      7.119   308.7518     1.2746     2.1688     0.0255      0.083     -0.143     -0.207         35 2.4658e+03   995.6603 0.0000e+00
     -0.145    30.0309     7.5910    100.506  40.167957     36.504      7.087   306.0639     1.2936     2.1688     0.0255      0.052     -0.142     -0.207         36 2.4663e+03   995.6628 0.0000e+00
     -0.145    30.0414     7.5605    100.119  40.285333     36.607      7.048   305.3068     1.2669     2.1688     0.0255      0.028     -0.142     -0.207         37 2.4728e+03   995.6629 0.0000e+00
     -0.145    30.0296     7.4821     99.084  40.304294     36.621      7.018   303.0732     1.4081     2.2553     0.0255      0.011     -0.142     -0.207         38 2.4695e+03   995.6581 0.0000e+00
     -0.145    30.0155     7.3430     97.243  40.262911     36.563      6.982   302.5811     1.3814     2.1255     0.0255      0.002     -0.142     -0.207         39 2.4681e+03   995.6550 0.0000e+00
     -0.145    30.0145     7.1964     95.307  40.099714     36.444      6.953   300.9532     1.3852     2.1688     0.0255      0.001     -0.142     -0.206         40 2.4689e+03   995.6586 0.0000e+00
     -0.145    30.0190     7.0844     93.841  40.033163     36.352      6.933   298.2653     1.4005     2.1976     0.0254      0.001     -0.142     -0.206         41 2.4678e+03   995.6628 0.0000e+00
     -0.145    30.0155     7.0058     92.819  40.671779     36.962      6.917   296.6375     1.4500     2.1976     0.0257      0.001     -0.142     -0.206         42 2.4638e+03   995.6633 0.0000e+00
     -0.145    30.0108     6.9356     91.894  41.498340     37.720      6.907   295.1232     1.4691     2.1976     0.0260      0.000     -0.142     -0.206         43 2.4572e+03   995.6622 0.0000e+00
     -0.145    30.0142     6.8618     90.906  41.968588     38.129      6.894   293.5710     1.4310     2.1111     0.0261      0.000     -0.142     -0.206         44 2.4610e+03   995.6633 0.0000e+00
     -0.145    30.0246     6.7840     89.852  42.368960     38.513      6.880   292.7760     1.4615     2.1255     0.0263      0.000     -0.142     -0.207         45 2.4629e+03   995.6649 0.0000e+00
     -0.146    30.0382     6.7218     89.010  43.075062     39.120      6.865   291.9432     1.4615     2.1832     0.0265     -0.000     -0.142     -0.207         46 2.4630e+03   995.6640 0.0000e+00
     -0.145    30.0477     6.6569     88.143  44.202432     40.179      6.844   290.8075     1.4539     2.1688     0.0270     -0.000     -0.142     -0.207         47 2.4641e+03   995.6612 0.0000e+00
     -0.145    30.0499     6.5859     87.196  44.908684     40.803      6.817   287.5139     1.4767     2.1976     0.0272     -0.000     -0.142     -0.207         48 2.4616e+03   995.6572 0.0000e+00
     -0.145    30.0503     6.4974     86.019  45.071733     40.923      6.798   287.4760     1.4577     2.2409     0.0273      0.000     -0.142     -0.206         49 2.4635e+03   995.6545 0.0000e+00
     -0.145    30.0541     6.4099     84.856  45.155714     41.023      6.776   286.9460     1.4310     2.1688     0.0273      0.000     -0.142     -0.206         50 2.4652e+03   995.6538 0.0000e+00
     -0.145    30.0645     6.3582     84.169  45.130282     40.972      6.766   285.8860     1.4539     2.2697     0.0273      0.000     -0.142     -0.206         51 2.4713e+03   995.6536 0.0000e+00
     -0.145    30.0760     6.3343     83.853  45.133029     40.994      6.748   284.1824     1.4462     2.1976     0.0273      0.000     -0.142     -0.206         52 2.4734e+03   995.6525 0.0000e+00
     -0.145    30.0795     6.3451     83.999  45.122646     40.961      6.734   283.0467     1.4767     2.1544     0.0273      0.000     -0.142     -0.206         53 2.4733e+03   995.6494 0.0000e+00
     -0.144    30.0730     6.3935     84.642  45.113551     40.952      6.723   282.2139     1.4539     2.1976     0.0273      0.000     -0.142     -0.206         54 2.4743e+03   995.6459 0.0000e+00
     -0.145    30.0586     6.4669     85.612  44.996109     40.849      6.710   281.7217     1.5378     2.1976     0.0273      0.000     -0.142     -0.206         55 2.4700e+03   995.6448 0.0000e+00
     -0.144    30.0465     6.5654     86.915  44.972334     40.802      6.697   281.4946     1.5569     2.2409     0.0272      0.000     -0.142     -0.206         56 2.4689e+03   995.6468 0.0000e+00
     -0.145    30.0410     6.6673     88.262  45.350672     41.194      6.686   284.5610     1.5378     2.1976     0.0274      0.000     -0.142     -0.206         57 2.4704e+03   995.6512 0.0000e+00
     -0.145    30.0367     6.7721     89.645  45.651863     41.457      6.680   281.4189     1.5111     2.1976     0.0275      0.000     -0.142     -0.206         58 2.4665e+03   995.6550 0.0000e+00
     -0.145    30.0327     6.8702     90.938  46.020579     41.791      6.669   280.5103     1.5759     2.0967     0.0276      0.000     -0.142     -0.206         59 2.4637e+03   995.6567 0.0000e+00
     -0.145    30.0294     6.9336     91.770  46.463151     42.225      6.662   279.3746     1.5759     1.9957     0.0278      0.000     -0.142     -0.206         60 2.4672e+03   995.6581 0.0000e+00
     -0.144    30.0280     6.9852     92.447  46.820698     42.508      6.653   276.8003     1.5836     2.0102     0.0279      0.000     -0.141     -0.205         61 2.4690e+03   995.6595 0.0000e+00
     -0.144    30.0288     7.0364     93.125  47.176662     42.891      6.642   282.8196     1.6065     1.9669     0.0281      0.000     -0.141     -0.205         62 2.4715e+03   995.6606 0.0000e+00
     -0.144    30.0303     7.0915     93.862  47.295083     42.943      6.631   281.0403     1.5530     2.1688     0.0281      0.000     -0.141     -0.205         63 2.4678e+03   995.6610 0.0000e+00
     -0.144    30.0316     7.1288     94.365  47.295966     42.993      6.620   281.3431     1.5683     2.1976     0.0281      0.000     -0.141     -0.205         64 2.4645e+03   995.6608 0.0000e+00
     -0.144    30.0312     7.1411     94.533  47.294163     42.941      6.607   277.5196     1.5950     2.1544     0.0281      0.001     -0.141     -0.205         65 2.4616e+03   995.6603 0.0000e+00
     -0.144    30.0300     7.1355     94.461  47.297327     42.991      6.598   276.9517     1.5912     2.2841     0.0281      0.000     -0.141     -0.205         66 2.4552e+03   995.6599 0.0000e+00
     -0.144    30.0283     7.1166     94.211  47.321677     42.966      6.589   281.4567     1.6599     2.2697     0.0281      0.000     -0.141     -0.205         67 2.4546e+03   995.6600 0.0000e+00
     -0.144    30.0255     7.0904     93.865  47.293509     42.992      6.578   281.7217     1.6408     2.1688     0.0281      0.000     -0.141     -0.205         68 2.4540e+03   995.6603 0.0000e+00
     -0.145    30.0222     7.0501     93.331  47.095185     42.765      6.569   281.5703     1.6332     2.1111     0.0280      0.000     -0.142     -0.206         69 2.4536e+03   995.6609 0.0000e+00
     -0.145    30.0182     7.0015     92.686  46.945846     42.666      6.560   280.1317     1.6560     2.2409     0.0280     -0.000     -0.142     -0.206         70 2.4529e+03   995.6617 0.0000e+00
     -0.144    30.0141     6.9461     91.950  46.767773     42.490      6.547   278.5796     1.6980     2.2697     0.0279     -0.000     -0.141     -0.205         71 2.4511e+03   995.6626 0.0000e+00
     -0.144    30.0147     6.8907     91.217  46.545917     42.290      6.534   280.0560     1.7400     2.2409     0.0278     -0.000     -0.141     -0.205         72 2.4513e+03   995.6638 0.0000e+00
     -0.144    30.0193     6.8380     90.524  46.362124     42.141      6.525   279.7153     1.7171     2.1688     0.0278     -0.000     -0.141     -0.205         73 2.4457e+03   995.6650 0.0000e+00
     -0.144    30.0247     6.7801     89.764  46.077395     41.862      6.513   281.3431     1.6904     2.1111     0.0277     -0.000     -0.141     -0.205         74 2.4441e+03   995.6647 0.0000e+00
     -0.144    30.0284     6.7320     89.130  45.951510     41.756      6.499   280.7753     1.7247     2.1832     0.0276     -0.000     -0.141     -0.205         75 2.4524e+03   995.6633 0.0000e+00
     -0.144    30.0293     6.6874     88.542  45.896171     41.702      6.480   272.6738     1.7056     2.2409     0.0276      0.000     -0.141     -0.205         76 2.4499e+03   995.6616 0.0000e+00
     -0.144    30.0295     6.6379     87.886  45.760837     41.572      6.462   273.8096     1.6980     2.2697     0.0275      0.000     -0.141     -0.205         77 2.4465e+03   995.6604 0.0000e+00
     -0.144    30.0300     6.5979     87.356  45.704861     41.520      6.452   273.4310     1.6980     2.1544     0.0275      0.000     -0.141     -0.205         78 2.4453e+03   995.6602 0.0000e+00
     -0.144    30.0297     6.5644     86.911  45.699003     41.520      6.448   276.6110     1.7171     2.1688     0.0275      0.000     -0.141     -0.205         79 2.4452e+03   995.6601 0.0000e+00
     -0.145    30.0284     6.5348     86.518  45.649536     41.469      6.442   276.2703     1.7171     2.1976     0.0275     -0.000     -0.141     -0.205         80 2.4467e+03   995.6600 0.0000e+00
     -0.144    30.0270     6.5122     86.217  45.588537     41.418      6.434   269.3424     1.7247     2.2986     0.0275     -0.000     -0.141     -0.205         81 2.4464e+03   995.6600 0.0000e+00
     -0.144    30.0274     6.4893     85.914  45.478442     41.318      6.429   269.5317     1.7018     2.3274     0.0274      0.000     -0.141     -0.205         82 2.4439e+03   995.6604 0.0000e+00
     -0.144    30.0304     6.4667     85.618  45.371485     41.217      6.423   269.7967     1.6866     2.1399     0.0274     -0.000     -0.141     -0.205         83 2.4453e+03   995.6608 0.0000e+00
     -0.144    30.0342     6.4448     85.328  45.365876     41.217      6.420   272.9767     1.6980     1.9525     0.0274      0.000     -0.141     -0.204         84 2.4475e+03   995.6606 0.0000e+00
     -0.144    30.0367     6.4249     85.064  45.366834     41.215      6.417   272.4845     1.7094     1.9381     0.0274      0.000     -0.141     -0.204         85 2.4477e+03   995.6597 0.0000e+00
     -0.144    30.0378     6.4006     84.747  45.310999     41.161      6.412   269.3424     1.7247     1.9957     0.0274      0.000     -0.141     -0.205         86 2.4511e+03   995.6586 0.0000e+00
     -0.144    30.0382     6.3657     84.300  45.287125     41.134      6.412   268.1688     1.7323     1.8948     0.0274      0.000     -0.141     -0.205         87 2.4495e+03   995.6578 0.0000e+00
     -0.144    30.0373     6.3156     83.665  45.218661     41.082      6.408   268.0553     1.6980     2.1399     0.0273      0.000     -0.141     -0.205         88 2.4414e+03   995.6575 0.0000e+00
     -0.143    30.0361     6.2562     82.918  45.129379     40.981      6.403   267.7145     1.6827     2.1832     0.0273      0.000     -0.141     -0.204         89 2.4383e+03   995.6573 0.0000e+00
     -0.143    30.0354     6.1871     82.035  45.101768     40.981      6.394   267.7903     1.7018     2.2409     0.0273      0.000     -0.141     -0.204         90 2.4467e+03   995.6576 0.0000e+00
     -0.144    30.0346     6.1116     81.054  45.104788     40.957      6.382   272.0681     1.7094     2.0967     0.0273      0.000     -0.141     -0.204         91 2.4444e+03   995.6580 0.0000e+00
     -0.143    30.0350     6.0431     80.159  45.095972     40.983      6.366   269.6453     1.7171     1.9525     0.0273      0.000     -0.140     -0.204         92 2.4490e+03   995.6582 0.0000e+00
     -0.143    30.0365     5.9571     79.026  44.964507     40.831      6.349   269.1153     1.6942     1.9669     0.0272      0.000     -0.140     -0.204         93 2.4532e+03   995.6584 0.0000e+00
     -0.143    30.0369     5.8794     78.005  44.882991     40.780      6.334   265.6702     1.6980     1.9525     0.0272      0.000     -0.140     -0.204         94 2.4504e+03   995.6583 0.0000e+00
     -0.143    30.0367     5.8082     77.068  44.812013     40.703      6.319   273.9610     1.6904     1.9092     0.0272      0.000     -0.140     -0.204         95 2.4488e+03   995.6578 0.0000e+00
     -0.143    30.0397     5.7405     76.178  44.697081     40.601      6.305   272.4088     1.7133     1.8804     0.0271      0.000     -0.141     -0.204         96 2.4491e+03   995.6576 0.0000e+00
     -0.143    30.0499     5.6764     75.337  44.640621     40.550      6.298   272.4088     1.7705     2.1544     0.0271      0.000     -0.141     -0.204         97 2.4493e+03   995.6576 0.0000e+00
     -0.144    30.0707     5.6053     74.403  44.645108     40.548      6.294   268.9260     1.7972     2.2409     0.0271     -0.000     -0.141     -0.204         98 2.4445e+03   995.6568 0.0000e+00
     -0.143    30.0978     5.5486     73.661  44.632203     40.541      6.285   269.0774     1.7400     2.2265     0.0271     -0.000     -0.141     -0.204         99 2.4467e+03   995.6537 0.0000e+00
     -0.143    30.1209     5.4965     72.977  44.627027     40.500      6.271   274.5288     1.7743     2.1976     0.0271     -0.000     -0.141     -0.204        100 2.4455e+03   995.6473 0.0000e+00
     -0.143    30.1359     5.4401     72.237  44.621890     40.505      6.257   274.7560     1.7743     2.2409     0.0271     -0.000     -0.141     -0.204        101 2.4493e+03   995.6391 0.0000e+00
     -0.144    30.1451     5.3916     71.601  44.608935     40.438      6.251   274.9453     1.7667     2.1976     0.0271     -0.000     -0.141     -0.204        102 2.4498e+03   995.6321 0.0000e+00
     -0.143    30.1515     5.3367     70.880  44.672782     40.528      6.244   273.6203     1.7705     2.1976     0.0271     -0.000     -0.141     -0.204        103 2.4437e+03   995.6276 0.0000e+00
     -0.143    30.1581     5.3008     70.412  44.720300     40.521      6.241   273.6581     1.7781     2.1976     0.0271     -0.000     -0.141     -0.204        104 2.4440e+03   995.6248 0.0000e+00
     -0.144    30.1645     5.2615     69.899  44.757315     40.593      6.240   270.5917     1.8124     2.1832     0.0272     -0.000     -0.141     -0.204        105 2.4494e+03   995.6229 0.0000e+00
     -0.142    30.1709     5.2335     69.535  44.715651     40.512      6.241   272.9767     1.8315     2.3130     0.0271      0.000     -0.140     -0.203        106 2.4503e+03   995.6209 0.0000e+00
     -0.142    30.1781     5.2105     69.237  44.683209     40.507      6.243   272.4845     1.8315     2.1399     0.0271      0.000     -0.139     -0.202        107 2.4462e+03   995.6190 0.0000e+00
     -0.142    30.1855     5.1897     68.971  44.708746     40.502      6.241   272.1438     1.8163     2.2120     0.0271      0.001     -0.139     -0.202        108 2.4423e+03   995.6170 0.0000e+00
     -0.142    30.1931     5.1765     68.803  44.743159     40.548      6.241   273.2038     1.8315     2.2409     0.0272      0.001     -0.139     -0.202        109 2.4469e+03   995.6148 0.0000e+00
     -0.142    30.1999     5.1688     68.710  44.818257     40.593      6.234   266.3138     1.8048     2.1976     0.0272      0.001     -0.139     -0.202        110 2.4517e+03   995.6126 0.0000e+00
     -0.142    30.2066     5.1630     68.641  44.793160     40.587      6.234   268.0174     1.8239     2.1688     0.0272      0.001     -0.139     -0.202        111 2.4470e+03   995.6103 0.0000e+00
     -0.142    30.2133     5.1650     68.676  44.774387     40.532      6.231   267.2224     1.8048     2.2697     0.0272      0.001     -0.139     -0.202        112 2.4455e+03   995.6082 0.0000e+00
     -0.141    30.2199     5.1685     68.731  44.782323     40.577      6.229   270.3645     1.6904     2.2120     0.0272      0.001     -0.139     -0.201        113 2.4484e+03   995.6062 0.0000e+00
     -0.141    30.2272     5.1682     68.737  44.783278     40.522      6.223   270.1374     1.7285     2.2986     0.0272      0.000     -0.139     -0.201        114 2.4522e+03   995.6042 0.0000e+00
     -0.141    30.2344     5.1738     68.819  44.832485     40.618      6.225   262.5659     1.6942     2.1688     0.0272      0.000     -0.139     -0.201        115 2.4486e+03   995.6021 0.0000e+00
     -0.141    30.2413     5.1840     68.964  44.839666     40.562      6.223   263.2474     1.7056     2.1544     0.0272      0.000     -0.139     -0.201        116 2.4468e+03   995.5999 0.0000e+00
     -0.141    30.2481     5.1914     69.070  44.863278     40.633      6.219   263.2474     1.6942     2.1255     0.0272      0.000     -0.139     -0.201        117 2.4489e+03   995.5978 0.0000e+00
     -0.141    30.2554     5.2001     69.195  44.832744     40.552      6.219   266.3895     1.6332     2.1255     0.0272      0.000     -0.139     -0.201        118 2.4487e+03   995.5956 0.0000e+00
     -0.141    30.2628     5.2034     69.247  44.877660     40.623      6.217   266.1624     1.6408     2.1832     0.0272      0.001     -0.138     -0.201        119 2.4493e+03   995.5936 0.0000e+00
     -0.141    30.2700     5.2084     69.323  44.925961     40.643      6.219   263.4745     1.6408     2.1255     0.0272      0.000     -0.138     -0.201        120 2.4482e+03   995.5914 0.0000e+00
     -0.141    30.2769     5.2122     69.383  44.891216     40.612      6.217   262.8310     1.6408     2.2697     0.0272      0.000     -0.138     -0.200        121 2.4518e+03   995.5892 0.0000e+00
     -0.140    30.2840     5.2151     69.430  44.891249     40.607      6.217   263.0202     1.6332     2.1832     0.0272      0.000     -0.138     -0.200        122 2.4526e+03   995.5869 0.0000e+00
     -0.141    30.2917     5.2131     69.413  44.896269     40.602      6.213   262.9067     1.6332     2.1976     0.0272      0.000     -0.138     -0.200        123 2.4517e+03   995.5848 0.0000e+00
     -0.140    30.2993     5.2122     69.410  44.944257     40.647      6.212   262.6795     1.6446     2.2120     0.0272      0.000     -0.138     -0.200        124 2.4470e+03   995.5827 0.0000e+00
     -0.141    30.3069     5.2128     69.427  44.979756     40.666      6.204   266.3895     1.6599     2.1688     0.0272      0.000     -0.138     -0.200        125 2.4478e+03   995.5803 0.0000e+00
     -0.140    30.3138     5.2106     69.407  44.941026     40.636      6.202   265.1781     1.6751     2.1976     0.0272      0.000     -0.138     -0.200        126 2.4516e+03   995.5780 0.0000e+00
     -0.141    30.3207     5.2119     69.432  44.903512     40.579      6.198   263.4367     1.6141     2.1399     0.0272      0.000     -0.138     -0.200        127 2.4485e+03   995.5757 0.0000e+00
     -0.141    30.3283     5.2039     69.335  44.937496     40.625      6.196   261.9981     1.6255     2.2409     0.0272      0.000     -0.138     -0.200        128 2.4500e+03   995.5736 0.0000e+00
     -0.140    30.3360     5.1922     69.188  44.958022     40.620      6.194   262.5659     1.6599     2.2265     0.0272      0.000     -0.137     -0.199        129 2.4517e+03   995.5715 0.0000e+00
     -0.140    30.3435     5.1973     69.264  44.966905     40.640      6.193   266.8438     1.6293     2.2697     0.0272      0.000     -0.137     -0.199        130 2.4553e+03   995.5692 0.0000e+00
     -0.140    30.3505     5.1898     69.173  44.956083     40.609      6.190   266.8060     1.6560     2.1688     0.0272      0.000     -0.137     -0.199        131 2.4501e+03   995.5669 0.0000e+00
     -0.141    30.3581     5.1851     69.119  45.001130     40.654      6.188   266.7302     1.6179     2.1688     0.0272      0.000     -0.137     -0.199        132 2.4499e+03   995.5645 0.0000e+00
     -0.140    30.3659     5.1847     69.121  44.999779     40.648      6.187   262.9824     1.6332     2.2841     0.0272      0.000     -0.137     -0.199        133 2.4478e+03   995.5623 0.0000e+00
     -0.140    30.3735     5.1791     69.055  44.987407     40.618      6.183   269.9860     1.6484     2.1976     0.0272      0.000     -0.137     -0.199        134 2.4453e+03   995.5601 0.0000e+00
     -0.140    30.3809     5.1766     69.030  45.046169     40.688      6.182   269.6074     1.6484     2.1688     0.0273      0.000     -0.137     -0.199        135 2.4507e+03   995.5578 0.0000e+00
     -0.140    30.3883     5.1749     69.015  45.015586     40.632      6.178   269.5317     1.6408     2.2986     0.0272      0.000     -0.137     -0.199        136 2.4484e+03   995.5554 0.0000e+00
     -0.140    30.3956     5.1654     68.897  44.995816     40.626      6.173   266.9952     1.6255     2.1544     0.0272     -0.000     -0.137     -0.199        137 2.4498e+03   995.5531 0.0000e+00
     -0.139    30.4033     5.1609     68.846  45.011473     40.621      6.170   266.9195     1.6179     2.2697     0.0272      0.000     -0.137     -0.199        138 2.4478e+03   995.5509 0.0000e+00
     -0.140    30.4107     5.1561     68.790  45.025742     40.641      6.165   268.2445     1.6942     2.2120     0.0272      0.000     -0.137     -0.199        139 2.4482e+03   995.5486 0.0000e+00
     -0.139    30.4179     5.1493     68.708  45.007700     40.610      6.159   269.3803     1.7247     2.2697     0.0272      0.000     -0.137     -0.199        140 2.4467e+03   995.5463 0.0000e+00
     -0.140    30.4250     5.1436     68.640  45.004274     40.604      6.154   269.3803     1.7247     2.2697     0.0272      0.000     -0.137     -0.199        141 2.4464e+03   995.5441 0.0000e+00
     -0.140    30.4322     5.1391     68.588  45.059647     40.649      6.148   269.2288     1.6904     2.0967     0.0272      0.000     -0.137     -0.199        142 2.4474e+03   995.5419 0.0000e+00
     -0.140    30.4391     5.1314     68.494  45.057372     40.644      6.143   269.0395     1.7171     1.9381     0.0272     -0.000     -0.137     -0.199        143 2.4438e+03   995.5397 0.0000e+00
     -0.140    30.4459     5.1214     68.369  45.036749     40.614      6.137   263.9667     1.6980     1.9092     0.0272      0.000     -0.137     -0.199        144 2.4480e+03   995.5375 0.0000e+00
     -0.140    30.4531     5.1147     68.287  44.996369     40.584      6.129   265.6702     1.7209     1.9525     0.0272      0.000     -0.137     -0.199        145 2.4460e+03   995.5354 0.0000e+00
     -0.140    30.4599     5.1046     68.159  45.018679     40.579      6.124   265.4431     1.7171     1.9236     0.0272     -0.000     -0.137     -0.199        146 2.4474e+03   995.5334 0.0000e+00
     -0.140    30.4671     5.0982     68.081  45.038626     40.624      6.117   268.1688     1.6370     2.1688     0.0272     -0.000     -0.137     -0.199        147 2.4511e+03   995.5311 0.0000e+00
     -0.140    30.4747     5.0888     67.963  45.030835     40.568      6.110   267.8660     1.6675     2.1688     0.0272     -0.000     -0.137     -0.199        148 2.4520e+03   995.5290 0.0000e+00
     -0.140    30.4815     5.0795     67.847  45.117311     40.689      6.106   260.0674     1.6217     2.1976     0.0273     -0.000     -0.137     -0.199        149 2.4521e+03   995.5269 0.0000e+00
     -0.139    30.4883     5.0686     67.708  45.079238     40.608      6.098   262.7174     1.6484     2.2120     0.0272      0.000     -0.137     -0.198        150 2.4516e+03   995.5245 0.0000e+00
     -0.139    30.4953     5.0596     67.596  45.048565     40.603      6.093   262.9824     1.6942     2.1688     0.0272      0.000     -0.137     -0.198        151 2.4502e+03   995.5225 0.0000e+00
     -0.139    30.5025     5.0505     67.481  45.066538     40.598      6.088   266.5410     1.6904     2.1255     0.0272      0.000     -0.137     -0.198        152 2.4497e+03   995.5203 0.0000e+00
     -0.139    30.5096     5.0422     67.377  45.056866     40.593      6.084   266.2002     1.6980     2.1688     0.0272      0.000     -0.137     -0.198        153 2.4538e+03   995.5182 0.0000e+00
     -0.139    30.5165     5.0324     67.253  45.090244     40.613      6.082   259.4238     1.6904     2.1399     0.0273      0.000     -0.137     -0.198        154 2.4508e+03   995.5160 0.0000e+00
     -0.139    30.5228     5.0199     67.093  45.054642     40.582      6.078   259.6509     1.7018     1.9236     0.0272      0.000     -0.137     -0.198        155 2.4514e+03   995.5138 0.0000e+00
     -0.139    30.5291     5.0090     66.955  45.012228     40.527      6.079   259.4995     1.7476     1.9092     0.0272      0.000     -0.137     -0.198        156 2.4498e+03   995.5117 0.0000e+00
     -0.140    30.5355     4.9994     66.834  45.054082     40.573      6.077   262.1117     1.7094     2.0102     0.0272      0.000     -0.137     -0.199        157 2.4456e+03   995.5098 0.0000e+00
     -0.140    30.5423     4.9847     66.644  45.061844     40.568      6.074   261.9224     1.6980     1.8371     0.0272     -0.000     -0.137     -0.199        158 2.4467e+03   995.5078 0.0000e+00
     -0.140    30.5490     4.9753     66.524  45.091505     40.588      6.075   259.3859     1.6827     2.2553     0.0272     -0.001     -0.137     -0.199        159 2.4506e+03   995.5059 0.0000e+00
     -0.140    30.5551     4.9592     66.316  45.106106     40.609      6.073   258.3259     1.7171     2.1832     0.0273     -0.001     -0.137     -0.199        160 2.4496e+03   995.5038 0.0000e+00
     -0.140    30.5613     4.9488     66.183  45.073316     40.553      6.076   258.1367     1.7514     2.1688     0.0272     -0.001     -0.137     -0.199        161 2.4463e+03   995.5017 0.0000e+00
     -0.140    30.5672     4.9357     66.014  45.102660     40.599      6.082   258.1367     1.6942     2.1399     0.0273     -0.000     -0.137     -0.199        162 2.4501e+03   995.4999 0.0000e+00
     -0.140    30.5729     4.9259     65.890  45.099231     40.570      6.086   262.7552     1.7056     2.1399     0.0272     -0.000     -0.137     -0.199        163 2.4486e+03   995.4980 0.0000e+00
     -0.139    30.5794     4.9132     65.725  45.107227     40.591      6.090   260.6731     1.6827     1.9957     0.0273      0.000     -0.137     -0.199        164 2.4510e+03   995.4962 0.0000e+00
     -0.140    30.5860     4.9033     65.599  45.122352     40.586      6.096   260.8624     1.7171     1.9381     0.0273      0.000     -0.137     -0.199        165 2.4501e+03   995.4944 0.0000e+00
     -0.140    30.5921     4.8909     65.439  45.110050     40.582      6.100   258.0231     1.7171     1.9813     0.0273      0.000     -0.137     -0.199        166 2.4476e+03   995.4923 0.0000e+00
     -0.139    30.5982     4.8767     65.254  45.122531     40.577      6.104   257.9474     1.7018     1.9092     0.0273      0.000     -0.137     -0.198        167 2.4524e+03   995.4904 0.0000e+00
     -0.139    30.6041     4.8663     65.121  45.077169     40.547      6.108   265.5945     1.7590     2.1111     0.0272      0.000     -0.137     -0.198        168 2.4536e+03   995.4885 0.0000e+00
     -0.140    30.6097     4.8512     64.924  45.077560     40.518      6.115   264.3831     1.7552     2.2120     0.0272      0.000     -0.137     -0.198        169 2.4528e+03   995.4866 0.0000e+00
     -0.139    30.6155     4.8385     64.760  45.151688     40.614      6.116   264.1181     1.7743     2.1399     0.0273      0.000     -0.136     -0.198        170 2.4526e+03   995.4849 0.0000e+00
     -0.139    30.6214     4.9257     65.829  45.133147     40.559      6.118   260.6352     1.7743     2.1976     0.0273      0.000     -0.136     -0.198        171 2.4522e+03   995.4831 0.0000e+00
     -0.139    30.6271     5.5221     73.427  45.100630     40.555      6.119   260.4081     1.6751     2.1976     0.0273      0.000     -0.136     -0.198        172 2.4480e+03   995.4813 0.0000e+00
     -0.140    30.6325     6.4858     85.882  45.103211     40.526      6.121   266.0110     1.7094     2.1832     0.0272      0.000     -0.137     -0.198        173 2.4563e+03   995.4795 0.0000e+00
     -0.139    30.6375     7.4322     98.170  45.100285     40.547      6.122   265.2160     1.7018     2.2986     0.0273      0.000     -0.137     -0.198        174 2.4557e+03   995.4778 0.0000e+00
     -0.139    30.6422     8.2255    108.501  45.074622     40.493      6.120   265.4810     1.7094     2.1688     0.0272      0.000     -0.137     -0.198        175 2.4430e+03   995.4761 0.0000e+00
     -0.140    30.6484     8.8329    116.421  45.105500     40.539      6.123   264.9131     1.6904     2.1399     0.0273     -0.000     -0.137     -0.198        176 2.4499e+03   995.4746 0.0000e+00
     -0.139    30.6528     9.1925    121.103  45.061854     40.485      6.122   261.8845     1.7133     2.1976     0.0272     -0.000     -0.137     -0.198        177 2.4506e+03   995.4730 0.0000e+00
     -0.140    30.6591     9.3491    123.133  45.158580     40.557      6.122   265.0267     1.6980     2.1111     0.0273     -0.000     -0.137     -0.198        178 2.4532e+03   995.4712 0.0000e+00
     -0.139    30.6616     9.2978    122.433  45.074063     40.528      6.121   265.6324     1.6789     2.1544     0.0272     -0.000     -0.137     -0.198        179 2.4533e+03   995.4699 0.0000e+00
     -0.139    30.6711     9.1015    119.826  45.196679     40.524      6.123   265.7081     1.7552     2.0534     0.0272      0.000     -0.137     -0.198        180 2.4510e+03   995.4680 0.0000e+00
     -0.139    30.5723     8.8761    116.840  44.917043     40.470      6.126   264.9510     1.7323     2.1688     0.0272      0.000     -0.137     -0.198        181 2.4453e+03   995.4671 0.0000e+00
     -0.140    30.2934     8.6821    114.277  42.398309     38.007      6.125   264.8374     1.7247     2.1832     0.0262      0.000     -0.137     -0.199        182 2.4414e+03   995.4635 0.0000e+00
     -0.140    30.0438     8.5476    112.502  40.357070     36.283      6.127   261.5059     1.7400     2.1832     0.0255     -0.000     -0.137     -0.199        183 2.4572e+03   995.4933 0.0000e+00
     -0.139    29.9037     8.4611    111.366  40.165359     36.325      6.124   263.0960     1.6408     2.1399     0.0255      0.000     -0.137     -0.198        184 2.4563e+03   995.5784 0.0000e+00
     -0.139    29.8220     8.3989    110.559  40.117548     36.434      6.120   263.2852     1.6332     2.1832     0.0255     -0.000     -0.137     -0.198        185 2.4513e+03   995.6542 0.0000e+00
     -0.139    29.7779     8.3585    110.046  40.001747     36.428      6.118   265.4052     1.6408     2.1255     0.0254      0.000     -0.137     -0.198        186 2.4445e+03   995.6965 0.0000e+00
     -0.139    29.7495     8.2859    109.107  40.013162     36.480      6.114   265.1024     1.6332     2.1399     0.0254     -0.000     -0.137     -0.198        187 2.4508e+03   995.7211 0.0000e+00
     -0.139    29.7343     8.2391    108.507  40.044110     36.561      6.109   257.8717     1.6484     2.1688     0.0255     -0.000     -0.137     -0.198        188 2.4569e+03   995.7344 0.0000e+00
     -0.140    29.7226     8.1810    107.746  40.022539     36.529      6.101   259.4995     1.7171     1.9236     0.0254      0.000     -0.137     -0.198        189 2.4499e+03   995.7429 0.0000e+00
     -0.139    29.7117     8.1493    107.331  40.040025     36.590      6.096   259.2724     1.7247     2.0390     0.0255      0.000     -0.137     -0.198        190 2.4523e+03   995.7474 0.0000e+00
     -0.140    29.7027     8.1303    107.082  39.963081     36.496      6.091   262.5659     1.7094     1.9381     0.0254     -0.000     -0.137     -0.198        191 2.4511e+03   995.7508 0.0000e+00
     -0.139    29.6979     8.1014    106.706  39.940465     36.503      6.086   262.8310     1.6942     1.9669     0.0254     -0.000     -0.137     -0.198        192 2.4519e+03   995.7541 0.0000e+00
     -0.139    29.6955     8.0999    106.692  39.949619     36.509      6.082   255.9788     1.6980     2.2409     0.0254      0.000     -0.137     -0.198        193 2.4513e+03   995.7569 0.0000e+00
     -0.139    29.6966     8.1173    106.934  39.892415     36.461      6.085   256.2059     1.6827     2.2841     0.0254      0.000     -0.137     -0.198        194 2.4529e+03   995.7583 0.0000e+00
     -0.139    29.7030     8.1156    106.925  39.893100     36.463      6.082   255.6381     1.7094     2.1688     0.0254      0.000     -0.136     -0.198        195 2.4543e+03   995.7590 0.0000e+00
     -0.139    29.7123     8.1178    106.970  39.948769     36.513      6.082   258.5909     1.6866     2.0534     0.0254      0.000     -0.136     -0.198        196 2.4541e+03   995.7587 0.0000e+00
     -0.139    29.7219     8.0958    106.696  39.941692     36.509      6.085   258.5909     1.6904     2.1832     0.0254      0.000     -0.137     -0.198        197 2.4486e+03   995.7568 0.0000e+00
     -0.140    29.7299     8.0471    106.061  39.961182     36.502      6.087   258.7045     1.7133     2.1111     0.0254     -0.000     -0.137     -0.198        198 2.4481e+03   995.7540 0.0000e+00
     -0.139    29.7328     8.0266    105.796  40.043067     36.598      6.088   256.9252     1.7133     2.2409     0.0255      0.000     -0.137     -0.198        199 2.4570e+03   995.7511 0.0000e+00
     -0.140    29.7337     8.0187    105.695  40.017619     36.542      6.091   255.9031     1.7171     2.2409     0.0254     -0.000     -0.137     -0.198        200 2.4551e+03   995.7487 0.0000e+00
     -0.139    29.7346     8.0147    105.646  40.052126     36.591      6.092   255.9409     1.6904     1.9236     0.0255     -0.000     -0.137     -0.198        201 2.4494e+03   995.7478 0.0000e+00
     -0.139    29.7366     8.0005    105.459  40.059398     36.590      6.094   257.2281     1.6904     1.9957     0.0255     -0.000     -0.137     -0.198        202 2.4489e+03   995.7477 0.0000e+00
     -0.139    29.7407     7.9643    104.982  40.127124     36.641      6.090   257.3038     1.6980     1.9957     0.0255     -0.000     -0.137     -0.198        203 2.4552e+03   995.7474 0.0000e+00
     -0.139    29.7470     7.9238    104.446  40.204958     36.741      6.091   258.7045     1.7056     1.9381     0.0255      0.000     -0.137     -0.198        204 2.4527e+03   995.7467 0.0000e+00
     -0.139    29.7544     7.9060    104.207  40.140371     36.637      6.087   257.3416     1.7667     1.9669     0.0255      0.000     -0.137     -0.198        205 2.4474e+03   995.7455 0.0000e+00
     -0.139    29.7633     7.9116    104.275  40.237137     36.760      6.087   257.2659     1.7743     1.9525     0.0255      0.000     -0.137     -0.198        206 2.4474e+03   995.7437 0.0000e+00
     -0.139    29.7715     7.9052    104.182  40.262368     36.755      6.086   255.6759     1.7743     1.9525     0.0255      0.000     -0.137     -0.198        207 2.4550e+03   995.7414 0.0000e+00
     -0.139    29.7757     7.8759    103.784  40.257167     36.749      6.085   255.1459     1.7743     1.9813     0.0255      0.000     -0.137     -0.198        208 2.4552e+03   995.7387 0.0000e+00
     -0.139    29.7782     7.8597    103.550  40.273245     36.769      6.089   262.2631     1.7743     2.0534     0.0255      0.000     -0.136     -0.198        209 2.4505e+03   995.7363 0.0000e+00
     -0.139    29.7804     7.8817    103.803  40.183074     36.664      6.089   260.2567     1.7438     2.1544     0.0255      0.000     -0.136     -0.198        210 2.4564e+03   995.7350 0.0000e+00
     -0.139    29.7820     7.9162    104.194  40.161903     36.662      6.092   260.4081     1.7629     2.1255     0.0255      0.000     -0.136     -0.198        211 2.4625e+03   995.7343 0.0000e+00
     -0.139    29.7821     7.9551    104.638  40.121755     36.610      6.094   257.0009     1.7400     2.2265     0.0255      0.000     -0.136     -0.198        212 2.4580e+03   995.7335 0.0000e+00
     -0.139    29.7818     7.9865    105.007  40.055201     36.558      6.100   256.5466     1.7705     2.2841     0.0255      0.000     -0.136     -0.198        213 2.4473e+03   995.7332 0.0000e+00
     -0.139    29.7807     8.0060    105.256  40.066891     36.558      6.099   264.0045     1.7705     2.1832     0.0255      0.000     -0.136     -0.198        214 2.4535e+03   995.7331 0.0000e+00
     -0.139    29.7784     8.0135    105.350  40.107205     36.609      6.105   263.3988     1.7896     2.0823     0.0255      0.000     -0.136     -0.198        215 2.4488e+03   995.7332 0.0000e+00
     -0.139    29.7753     8.0240    105.460  40.064309     36.559      6.105   263.3231     1.7552     2.1111     0.0255      0.000     -0.136     -0.198        216 2.4470e+03   995.7335 0.0000e+00
     -0.139    29.7704     8.0271    105.470  40.060996     36.560      6.109   259.9159     1.7514     2.2697     0.0255     -0.000     -0.136     -0.198        217 2.4567e+03   995.7342 0.0000e+00
     -0.139    29.7635     8.0069    105.181  40.052050     36.562      6.109   259.9917     1.8468     2.1688     0.0255     -0.000     -0.136     -0.198        218 2.4552e+03   995.7352 0.0000e+00
     -0.139    29.7526     8.0023    105.097  39.956888     36.464      6.108   259.9159     1.7972     2.1688     0.0254      0.000     -0.136     -0.198        219 2.4533e+03   995.7366 0.0000e+00
     -0.139    29.7311     7.9731    104.705  40.001592     36.519      6.108   263.0202     1.8124     2.1255     0.0254     -0.000     -0.136     -0.198        220 2.4473e+03   995.7386 0.0000e+00
     -0.139    29.6968     7.9357    104.223  40.055701     36.578      6.109   263.7017     1.8163     2.0967     0.0255     -0.000     -0.136     -0.198        221 2.4466e+03   995.7419 0.0000e+00
     -0.139    29.6596     7.9081    103.875  40.008115     36.541      6.106   263.7395     1.7667     2.2120     0.0254      0.000     -0.136     -0.197        222 2.4503e+03   995.7483 0.0000e+00
     -0.138    29.6357     7.9009    103.785  39.942266     36.513      6.104   263.5881     1.7896     2.1688     0.0254      0.000     -0.136     -0.197        223 2.4521e+03   995.7586 0.0000e+00
     -0.139    29.6309     7.9027    103.814  39.900552     36.487      6.104   261.1274     1.7819     2.1976     0.0254      0.000     -0.136     -0.197        224 2.4560e+03   995.7698 0.0000e+00
     -0.139    29.6277     7.8932    103.701  39.882210     36.503      6.102   261.3167     1.7590     2.1111     0.0254      0.000     -0.136     -0.198        225 2.4522e+03   995.7770 0.0000e+00
     -0.140    29.6135     7.8972    103.751  39.846549     36.455      6.101   262.5659     1.7552     1.8948     0.0254     -0.000     -0.137     -0.198        226 2.4473e+03   995.7784 0.0000e+00
     -0.139    29.5971     7.9259    104.123  39.826381     36.457      6.101   262.8310     1.7590     2.0534     0.0254     -0.000     -0.137     -0.198        227 2.4476e+03   995.7792 0.0000e+00
     -0.139    29.5834     7.9714    104.721  39.788755     36.415      6.106   262.8310     1.7896     1.9525     0.0254     -0.000     -0.136     -0.198        228 2.4490e+03   995.7835 0.0000e+00
     -0.138    29.5710     8.0265    105.470  39.774825     36.426      6.105   263.3231     1.7552     1.8227     0.0254     -0.000     -0.136     -0.198        229 2.4510e+03   995.7884 0.0000e+00
     -0.139    29.5660     8.0822    106.229  39.695532     36.358      6.110   258.1367     1.7552     1.9381     0.0253     -0.000     -0.136     -0.198        230 2.4479e+03   995.7925 0.0000e+00
     -0.138    29.5709     8.1212    106.767  39.650330     36.316      6.110   259.4995     1.8201     2.1976     0.0253      0.000     -0.136     -0.197        231 2.4525e+03   995.7961 0.0000e+00
     -0.139    29.5786     8.1421    107.070  39.771806     36.447      6.113   259.9159     1.8468     2.1399     0.0254      0.000     -0.135     -0.196        232 2.4527e+03   995.7976 0.0000e+00
     -0.137    29.5812     8.1534    107.252  39.781470     36.444      6.125   259.9917     1.8124     2.1544     0.0254      0.001     -0.133     -0.193        233 2.4497e+03   995.7962 0.0000e+00
     -0.132    29.5850     8.1481    107.207  39.786495     36.438      6.139   262.5659     1.8201     2.1111     0.0254      0.002     -0.131     -0.189        234 2.4555e+03   995.7939 0.0000e+00
     -0.131    29.5907     8.1228    106.877  39.824829     36.488      6.142   262.5659     1.7857     2.4283     0.0254      0.004     -0.129     -0.187        235 2.4567e+03   995.7932 0.0000e+00
     -0.131    29.5900     8.0815    106.317  39.822680     36.460      6.141   254.8809     1.7400     2.3851     0.0254      0.004     -0.129     -0.186        236 2.4555e+03   995.7921 0.0000e+00
     -0.131    29.5865     8.0447    105.814  39.818804     36.481      6.137   256.2059     1.7896     2.4572     0.0254      0.005     -0.129     -0.186        237 2.4482e+03   995.7903 0.0000e+00
     -0.130    29.5878     8.0638    106.054  39.711093     36.354      6.137   256.2816     1.7667     2.3851     0.0253      0.005     -0.128     -0.186        238 2.4502e+03   995.7905 0.0000e+00
     -0.131    29.6004     8.1053    106.594  39.689975     36.356      6.129   259.9538     1.8315     2.1399     0.0253      0.004     -0.128     -0.186        239 2.4540e+03   995.7915 0.0000e+00
     -0.131    29.6163     8.1147    106.705  39.785808     36.433      6.127   259.8024     1.8315     2.2697     0.0254      0.003     -0.128     -0.186        240 2.4501e+03   995.7912 0.0000e+00
     -0.131    29.6293     8.1183    106.734  39.858579     36.500      6.124   254.5402     1.8201     2.2841     0.0254      0.002     -0.127     -0.185        241 2.4518e+03   995.7874 0.0000e+00
     -0.128    29.6446     8.0974    106.448  39.836520     36.465      6.134   254.3131     1.8353     2.2120     0.0254      0.001     -0.125     -0.182        242 2.4587e+03   995.7827 0.0000e+00
     -0.125    29.6623     8.0731    106.128  39.842891     36.456      6.144   254.4645     1.8277     2.1544     0.0254      0.002     -0.123     -0.179        243 2.4605e+03   995.7788 0.0000e+00
     -0.125    29.6756     8.0763    106.165  39.880281     36.497      6.156   256.2438     1.8239     2.0534     0.0254      0.003     -0.123     -0.178        244 2.4528e+03   995.7743 0.0000e+00
     -0.124    29.6772     8.1047    106.534  39.849258     36.434      6.160   255.8274     1.8239     2.1255     0.0254      0.004     -0.122     -0.177        245 2.4486e+03   995.7689 0.0000e+00
     -0.124    29.6682     8.1244    106.789  39.851851     36.450      6.166   256.3952     1.8163     2.1688     0.0254      0.004     -0.122     -0.177        246 2.4496e+03   995.7650 0.0000e+00
     -0.125    29.6578     8.1459    107.069  39.788131     36.372      6.168   254.5024     1.7667     2.0534     0.0254      0.004     -0.123     -0.178        247 2.4483e+03   995.7645 0.0000e+00
     -0.125    29.6526     8.1804    107.522  39.780361     36.379      6.170   254.1995     1.7743     2.1688     0.0254      0.003     -0.123     -0.178        248 2.4484e+03   995.7672 0.0000e+00
     -0.124    29.6489     8.2000    107.777  39.831887     36.437      6.169   254.4645     1.7896     2.0823     0.0254      0.002     -0.122     -0.177        249 2.4428e+03   995.7704 0.0000e+00
     -0.124    29.6419     8.2025    107.812  39.842568     36.440      6.168   254.7674     1.7819     2.1688     0.0254      0.001     -0.122     -0.177        250 2.4388e+03   995.7719 0.0000e+00
     -0.125    29.6321     8.1636    107.302  39.885626     36.494      6.165   258.4017     1.7056     2.2553     0.0254      0.000     -0.122     -0.177        251 2.4428e+03   995.7730 0.0000e+00
     -0.124    29.6261     8.0837    106.261  39.896860     36.499      6.161   256.7359     1.7094     2.1111     0.0254      0.000     -0.122     -0.177        252 2.4443e+03   995.7751 0.0000e+00
     -0.124    29.6252     8.0128    105.325  39.887871     36.505      6.163   256.5088     1.6827     2.1832     0.0254      0.000     -0.122     -0.177        253 2.4435e+03   995.7780 0.0000e+00
     -0.125    29.6231     8.0081    105.266  39.896818     36.509      6.163   256.5088     1.6866     2.1976     0.0254      0.000     -0.122     -0.177        254 2.4449e+03   995.7798 0.0000e+00
     -0.125    29.6205     8.0329    105.594  39.885727     36.509      6.160   254.2374     1.7247     2.1976     0.0254      0.000     -0.122     -0.177        255 2.4477e+03   995.7801 0.0000e+00
     -0.124    29.6182     8.0636    105.987  39.901674     36.511      6.162   254.2374     1.7552     2.1111     0.0254      0.000     -0.122     -0.177        256 2.4396e+03   995.7808 0.0000e+00
     -0.124    29.6170     8.0739    106.125  39.936252     36.564      6.162   261.2409     1.7781     2.2697     0.0254      0.000     -0.122     -0.177        257 2.4405e+03   995.7815 0.0000e+00
     -0.124    29.6163     8.0499    105.799  39.901975     36.514      6.160   259.4238     1.7476     2.1399     0.0254      0.000     -0.122     -0.177        258 2.4398e+03   995.7822 0.0000e+00
     -0.125    29.6157     8.0370    105.622  39.885055     36.515      6.163   259.3102     1.7667     2.1688     0.0254      0.000     -0.122     -0.177        259 2.4415e+03   995.7826 0.0000e+00
     -0.124    29.6162     8.0452    105.726  39.898033     36.515      6.163   255.9409     1.7552     2.1688     0.0254      0.000     -0.122     -0.176        260 2.4428e+03   995.7828 0.0000e+00
     -0.124    29.6181     8.0501    105.788  39.945103     36.567      6.165   255.7895     1.7629     2.1399     0.0254      0.000     -0.122     -0.176        261 2.4365e+03   995.7829 0.0000e+00
     -0.124    29.6220     8.0676    106.013  39.945032     36.566      6.166   262.4145     1.7667     2.1688     0.0254      0.000     -0.122     -0.177        262 2.4476e+03   995.7827 0.0000e+00
     -0.124    29.6205     8.0957    106.391  39.898120     36.515      6.169   262.1495     1.7476     2.2265     0.0254      0.000     -0.122     -0.177        263 2.4446e+03   995.7822 0.0000e+00
     -0.124    29.6220     8.1203    106.723  39.884927     36.511      6.169   261.8467     1.8201     2.2120     0.0254     -0.000     -0.122     -0.177        264 2.4370e+03   995.7810 0.0000e+00
     -0.124    29.6224     8.1572    107.226  39.902172     36.513      6.173   258.7802     1.8353     2.1688     0.0254     -0.000     -0.122     -0.176        265 2.4421e+03   995.7814 0.0000e+00
     -0.124    29.6176     8.2031    107.833  39.935937     36.563      6.174   258.8181     1.8468     2.2409     0.0254     -0.000     -0.122     -0.176        266 2.4411e+03   995.7811 0.0000e+00
     -0.124    29.6173     8.2119    107.958  39.902185     36.511      6.175   261.2788     1.8392     2.2553     0.0254      0.000     -0.122     -0.176        267 2.4421e+03   995.7810 0.0000e+00
     -0.124    29.6131     8.1872    107.637  39.884899     36.515      6.176   262.3009     1.8849     2.1255     0.0254 7.9497e-13     -0.122     -0.176        268 2.4407e+03   995.7823 0.0000e+00
     -0.124    29.6079     8.1558    107.220  39.898173     36.514      6.178   262.1874     1.8964     2.1544     0.0254      0.000     -0.122     -0.176        269 2.4405e+03   995.7824 0.0000e+00
     -0.124    29.6070     8.1072    106.574  39.826388     36.467      6.179   261.9224     1.8887     2.2697     0.0254      0.000     -0.122     -0.176        270 2.4418e+03   995.7837 0.0000e+00
     -0.124    29.6047     8.0446    105.739  39.796401     36.419      6.180   261.9602     1.8964     2.1399     0.0254      0.000     -0.121     -0.176        271 2.4429e+03   995.7853 0.0000e+00
     -0.124    29.6035     8.0075    105.241  39.846576     36.497      6.179   258.4017     1.8735     2.2120     0.0254      0.000     -0.121     -0.176        272 2.4459e+03   995.7855 0.0000e+00
     -0.124    29.6063     7.9933    105.049  39.852863     36.472      6.181   261.5438     1.8544     2.1111     0.0254      0.000     -0.121     -0.176        273 2.4445e+03   995.7861 0.0000e+00
     -0.124    29.6123     7.9854    104.947  39.818216     36.473      6.181   261.9981     1.8849     2.1399     0.0254      0.000     -0.121     -0.176        274 2.4470e+03   995.7866 0.0000e+00
     -0.124    29.6207     7.9785    104.862  39.800779     36.420      6.180   262.5659     1.8964     2.1544     0.0254      0.000     -0.122     -0.176        275 2.4462e+03   995.7857 0.0000e+00
     -0.124    29.6244     7.9764    104.846  39.874562     36.519      6.180   263.6638     1.8887     2.2265     0.0254      0.000     -0.122     -0.176        276 2.4460e+03   995.7839 0.0000e+00
     -0.124    29.6277     7.9859    104.993  39.904223     36.512      6.179   263.0202     1.7514     2.1688     0.0254      0.000     -0.122     -0.176        277 2.4465e+03   995.7815 0.0000e+00
     -0.124    29.6304     8.0056    105.271  39.882420     36.511      6.179   257.6445     1.7323     2.0967     0.0254     -0.000     -0.122     -0.176        278 2.4438e+03   995.7803 0.0000e+00
     -0.124    29.6282     8.0069    105.298  39.901695     36.508      6.178   258.8559     1.7514     2.2409     0.0254     -0.000     -0.122     -0.176        279 2.4427e+03   995.7793 0.0000e+00
     -0.124    29.6242     8.0167    105.427  39.880234     36.506      6.178   259.0074     1.7819     2.1976     0.0254     -0.000     -0.122     -0.176        280 2.4429e+03   995.7785 0.0000e+00
     -0.123    29.6176     8.0413    105.748  39.849849     36.456      6.174   262.2631     1.7514     2.1976     0.0254     -0.000     -0.121     -0.176        281 2.4430e+03   995.7792 0.0000e+00
     -0.124    29.6118     8.0713    106.144  39.880231     36.510      6.174   262.1117     1.7476     2.2409     0.0254      0.000     -0.121     -0.176        282 2.4370e+03   995.7804 0.0000e+00
     -0.124    29.6091     8.1064    106.606  39.901703     36.515      6.174   254.6916     1.7552     2.1688     0.0254      0.000     -0.121     -0.176        283 2.4380e+03   995.7823 0.0000e+00
     -0.124    29.6098     8.1393    107.034  39.941687     36.570      6.170   255.5245     1.7629     2.1688     0.0254      0.000     -0.121     -0.176        284 2.4438e+03   995.7841 0.0000e+00
     -0.124    29.6134     8.1482    107.143  39.949031     36.572      6.170   255.2595     1.9040     2.3274     0.0254      0.000     -0.121     -0.176        285 2.4431e+03   995.7849 0.0000e+00
     -0.124    29.6204     8.1435    107.077  39.892564     36.520      6.167   258.8181     1.8887     2.1976     0.0254      0.000     -0.121     -0.176        286 2.4418e+03   995.7847 0.0000e+00
     -0.123    29.6316     8.1063    106.595  39.893404     36.517      6.168   259.0831     1.8849     2.1688     0.0254      0.000     -0.121     -0.176        287 2.4389e+03   995.7837 0.0000e+00
     -0.124    29.6418     8.0533    105.903  39.888706     36.513      6.167   254.1616     1.8887     2.1399     0.0254      0.000     -0.121     -0.176        288 2.4413e+03   995.7815 0.0000e+00
     -0.124    29.6469     8.0364    105.675  39.898405     36.505      6.165   253.7831     1.9612     2.0678     0.0254      0.000     -0.121     -0.176        289 2.4377e+03   995.7781 0.0000e+00
     -0.123    29.6474     8.0703    106.124  39.940606     36.550      6.163   253.5559     1.9650     2.1832     0.0254      0.000     -0.121     -0.176        290 2.4372e+03   995.7751 0.0000e+00
     -0.124    29.6465     8.0935    106.435  39.895461     36.495      6.160   255.2595     1.9460     2.1832     0.0254      0.000     -0.122     -0.176        291 2.4374e+03   995.7735 0.0000e+00
     -0.124    29.6472     8.0700    106.126  39.836027     36.444      6.157   255.5245     1.9307     2.1544     0.0254     -0.000     -0.122     -0.176        292 2.4356e+03   995.7734 0.0000e+00
     -0.124    29.6470     8.0272    105.562  39.896013     36.495      6.154   255.3352     1.9498     2.2553     0.0254     -0.000     -0.122     -0.176        293 2.4370e+03   995.7737 0.0000e+00
     -0.124    29.6448     8.0172    105.428  39.939367     36.546      6.154   255.9409     1.9460     2.2986     0.0254     -0.000     -0.122     -0.176        294 2.4330e+03   995.7735 0.0000e+00
     -0.124    29.6409     8.0415    105.746  39.900631     36.495      6.151   255.0324     1.9765     2.2120     0.0254     -0.000     -0.122     -0.176        295 2.4430e+03   995.7736 0.0000e+00
     -0.124    29.6384     8.0702    106.119  39.944219     36.548      6.148   253.7452     1.9383     2.1976     0.0254     -0.000     -0.121     -0.176        296 2.4407e+03   995.7742 0.0000e+00
     -0.123    29.6419     8.0495    105.846  39.944401     36.550      6.150   253.9724     1.9193     2.1688     0.0254      0.000     -0.121     -0.176        297 2.4341e+03   995.7754 0.0000e+00
     -0.124    29.6443     7.9957    105.137  39.900406     36.501      6.148   253.8209     1.9116     2.1976     0.0254     -0.000     -0.122     -0.176        298 2.4327e+03   995.7762 0.0000e+00
     -0.124    29.6418     7.9416    104.422  39.939693     36.550      6.144   259.2724     1.9193     2.2120     0.0254      0.000     -0.122     -0.176        299 2.4319e+03   995.7751 0.0000e+00
     -0.123    29.6435     7.9442    104.444  39.954787     36.548      6.144   256.1302     1.8926     2.1399     0.0254      0.000     -0.121     -0.175        300 2.4335e+03   995.7744 0.0000e+00
     -0.123    29.6465     8.0014    105.183  39.940899     36.550      6.143   256.2816     1.8506     2.1255     0.0254      0.000     -0.121     -0.175        301 2.4319e+03   995.7752 0.0000e+00
     -0.123    29.6466     8.0645    106.032  39.897697     36.497      6.143   254.1238     1.8887     2.1255     0.0254      0.000     -0.121     -0.175        302 2.4341e+03   995.7747 0.0000e+00
     -0.124    29.6460     8.1275    106.882  39.889994     36.495      6.141   254.1616     1.9078     2.2986     0.0254      0.000     -0.121     -0.175        303 2.4308e+03   995.7737 0.0000e+00
     -0.123    29.6450     8.1658    107.399  39.891208     36.495      6.145   261.2409     1.8926     2.2265     0.0254      0.000     -0.121     -0.175        304 2.4319e+03   995.7737 0.0000e+00
     -0.123    29.6433     8.1636    107.383  39.836909     36.445      6.146   259.9159     1.8887     2.2553     0.0254      0.000     -0.121     -0.175        305 2.4355e+03   995.7738 0.0000e+00
     -0.124    29.6417     8.1416    107.115  39.898290     36.496      6.151   259.6888     1.7438     2.1976     0.0254      0.000     -0.121     -0.176        306 2.4282e+03   995.7742 0.0000e+00
     -0.124    29.6412     8.1157    106.790  39.933377     36.549      6.153   256.0166     1.7667     2.1688     0.0254     -0.000     -0.121     -0.176        307 2.4392e+03   995.7747 0.0000e+00
     -0.123    29.6401     8.0428    105.850  39.852523     36.448      6.157   256.0166     1.7781     2.1976     0.0254     -0.000     -0.121     -0.175        308 2.4216e+03   995.7751 0.0000e+00
     -0.123    29.6382     7.9175    104.214  39.850717     36.473      6.158   262.5659     1.7781     2.2986     0.0254      0.000     -0.121     -0.175        309 2.4418e+03   995.7753 0.0000e+00
     -0.124    29.6308     7.7511    102.025  39.846708     36.449      6.161   262.0738     1.7514     2.1688     0.0254      0.000     -0.118     -0.170        310 2.4059e+03   995.7756 0.0000e+00
     -0.112    29.6252     7.6043    100.091  39.887151     36.501      6.192   261.8467     1.7552     2.1399     0.0254      0.003     -0.110     -0.160        311 2.4730e+03   995.7763 0.0000e+00
     -0.103    29.6345     7.4973     98.677  39.889305     36.506      6.203   258.7802     1.7476     2.1976     0.0254      0.008     -0.105     -0.153        312 2.3750e+03   995.7786 0.0000e+00
     -0.107    29.6466     7.4195     97.650  39.844031     36.459      6.234   258.6288     1.7590     2.1832     0.0254      0.010     -0.109     -0.158        313 2.5262e+03   995.7801 0.0000e+00
     -0.122    29.6532     7.3626     96.895  39.884217     36.503      6.285   259.1209     1.6866     2.1399     0.0254      0.007     -0.126     -0.183        314 2.1390e+03   995.7773 0.0000e+00
     -0.158    29.6611     7.3206     96.334  39.898568     36.495      6.353   261.1274     1.7056     2.1688     0.0254     -0.006     -0.155     -0.225        315 6.2771e+02   995.7736 0.0000e+00
     -0.192    29.6716     7.3245     96.380  39.885444     36.491      6.398   262.1117     1.6980     2.2120     0.0254     -0.025     -0.184     -0.267        316 3.4544e+02   995.7715 0.0000e+00
     -0.209    29.6813     7.3638     96.897  39.900545     36.486      6.416   262.1874     1.7247     2.2409     0.0254     -0.044     -0.208     -0.303        317 5.0779e+02   995.7690 0.0000e+00
     -0.239    29.6912     7.3875     97.212  39.939049     36.530      6.417   261.8845     1.6942     2.1688     0.0254     -0.064     -0.235     -0.342        318 3.9525e+02   995.7658 0.0000e+00
     -0.271    29.6982     7.3783     97.100  39.896800     36.472      6.427   261.6195     1.7629     1.8660     0.0254     -0.086     -0.264     -0.384        319 4.5387e+02   995.7626 0.0000e+00
     -0.298    29.6996     7.3337     96.522  39.893839     36.465      6.430   258.2881     1.7285     1.8371     0.0254     -0.102     -0.289     -0.419        320 4.1142e+02   995.7595 0.0000e+00
     -0.315    29.6982     7.2762     95.773  39.883449     36.461      6.431   261.2788     1.7400     1.9092     0.0254     -0.107     -0.304     -0.442        321 4.3457e+02   995.7574 0.0000e+00
     -0.318    29.6955     7.2081     94.887  39.850448     36.409      6.426   261.6574     1.7781     2.0678     0.0254     -0.100     -0.312     -0.452        322 4.2231e+02   995.7570 0.0000e+00
     -0.322    29.6928     7.1166     93.689  39.875629     36.461      6.421   261.6574     1.6408     1.9525     0.0254     -0.085     -0.316     -0.457        323 4.3107e+02   995.7574 0.0000e+00
     -0.324    29.6893     6.9876     91.996  39.852111     36.412      6.416   262.9445     1.6293     1.9092     0.0254     -0.070     -0.318     -0.460        324 4.2523e+02   995.7582 0.0000e+00
     -0.324    29.6848     6.8447     90.118  39.879717     36.464      6.416   255.9409     1.6332     1.9092     0.0254     -0.055     -0.318     -0.461        325 4.2781e+02   995.7590 0.0000e+00
     -0.324    29.6813     6.7104     88.355  39.900554     36.467      6.413   258.2502     1.6408     1.9236     0.0254     -0.037     -0.318     -0.461        326 4.2659e+02   995.7600 0.0000e+00
     -0.324    29.6810     6.5954     86.848  39.885460     36.470      6.407   258.2124     1.6370     2.1111     0.0254     -0.021     -0.318     -0.460        327 4.2705e+02   995.7614 0.0000e+00
     -0.323    29.6838     6.4858     85.410  39.898504     36.472      6.398   258.4395     1.6560     2.2265     0.0254     -0.009     -0.317     -0.458        328 4.2754e+02   995.7625 0.0000e+00
     -0.320    29.6886     6.3982     84.262  39.943600     36.523      6.384   261.9602     1.6522     2.1255     0.0254     -0.002     -0.313     -0.452        329 4.2851e+02   995.7626 0.0000e+00
     -0.312    29.6938     6.3411     83.517  39.947894     36.522      6.373   253.4424     1.6179     2.1111     0.0254      0.002     -0.303     -0.439        330 4.3369e+02   995.7618 0.0000e+00
     -0.293    29.6992     6.2970     82.943  39.952437     36.518      6.357   254.6538     1.6675     2.3274     0.0254      0.011     -0.288     -0.417        331 4.3460e+02   995.7604 0.0000e+00
     -0.277    29.7048     6.2537     82.378  39.937945     36.515      6.331   254.8052     1.7094     2.3562     0.0254      0.020     -0.273     -0.395        332 4.4333e+02   995.7589 0.0000e+00
     -0.265    29.7088     6.2035     81.720  39.906649     36.460      6.316   254.9566     1.7018     2.2986     0.0254      0.030     -0.261     -0.378        333 4.3742e+02   995.7574 0.0000e+00
     -0.257    29.7121     6.1370     80.847  39.932103     36.507      6.292   258.9317     1.7056     2.3274     0.0254      0.037     -0.254     -0.368        334 4.5283e+02   995.7557 0.0000e+00
     -0.255    29.7146     6.0729     80.003  39.965542     36.505      6.273   258.4774     1.7819     2.2841     0.0254      0.040     -0.251     -0.363        335 4.3063e+02   995.7546 0.0000e+00
     -0.254    29.7178     6.0061     79.128  39.983588     36.554      6.263   253.1774     1.7743     2.2409     0.0254      0.040     -0.249     -0.361        336 4.7402e+02   995.7535 0.0000e+00
     -0.254    29.7223     5.9390     78.249  39.968921     36.501      6.275   252.6095     1.7667     2.1111     0.0254      0.035     -0.248     -0.359        337 4.1129e+02   995.7528 0.0000e+00
     -0.250    29.7258     5.8739     77.391  39.983795     36.550      6.279   252.9124     1.7896     2.1399     0.0254      0.028     -0.245     -0.355        338 5.2219e+02   995.7519 0.0000e+00
     -0.247    29.7297     5.8474     77.047  39.965079     36.496      6.279   254.8431     1.7552     2.1544     0.0254      0.019     -0.242     -0.351        339 3.5779e+02   995.7506 0.0000e+00
     -0.245    29.7349     5.8954     77.678  39.992211     36.545      6.279   255.3731     1.8315     2.2120     0.0254      0.013     -0.240     -0.348        340 7.0695e+02   995.7495 0.0000e+00
     -0.242    29.7399     6.0269     79.409  40.009304     36.542      6.277   256.7738     1.8086     2.2409     0.0254      0.010     -0.237     -0.344        341 2.2428e+03   995.7483 0.0000e+00
     -0.238    29.7431     6.2028     81.738  39.943804     36.488      6.276   254.5402     1.8277     2.1688     0.0254      0.009     -0.234     -0.339        342 2.5310e+03   995.7468 0.0000e+00
     -0.235    29.7453     6.4220     84.639  39.955166     36.484      6.276   253.7074     1.8086     2.1688     0.0254      0.010     -0.230     -0.334        343 2.3633e+03   995.7454 0.0000e+00
     -0.231    29.7471     6.6698     87.889  39.995160     36.533      6.274   252.3445     1.7590     2.1688     0.0254      0.011     -0.227     -0.329        344 2.4842e+03   995.7444 0.0000e+00
     -0.227    29.7484     6.9930     92.108  39.953307     36.480      6.271   252.4202     1.7781     2.2120     0.0254      0.013     -0.222     -0.322        345 2.4224e+03   995.7437 0.0000e+00
     -0.220    29.7521     7.3296     96.482  39.947972     36.479      6.270   258.8938     1.7743     2.2553     0.0254      0.014     -0.214     -0.310        346 2.4816e+03   995.7432 0.0000e+00
     -0.208    29.7549     7.6269    100.331  40.001800     36.529      6.272   255.1081     1.7667     2.2553     0.0254      0.017     -0.204     -0.295        347 2.4599e+03   995.7429 0.0000e+00
     -0.195    29.7561     7.8563    103.277  39.945598     36.476      6.259   255.1838     1.6255     2.1976     0.0254      0.023     -0.192     -0.279        348 2.4860e+03   995.7418 0.0000e+00
     -0.186    29.7590     8.0132    105.288  39.899355     36.423      6.248   254.5781     1.6255     2.1399     0.0254      0.027     -0.180     -0.261        349 2.4602e+03   995.7410 0.0000e+00
     -0.169    29.7584     8.0895    106.249  39.940789     36.474      6.242   252.1173     1.6522     2.1688     0.0254      0.034     -0.164     -0.239        350 2.5096e+03   995.7407 0.0000e+00
     -0.149    29.7571     8.0559    105.744  39.894034     36.420      6.235   252.0795     1.6408     2.1976     0.0254      0.042     -0.146     -0.212        351 2.4526e+03   995.7399 0.0000e+00
     -0.130    29.7653     7.9327    104.090  39.868624     36.395      6.228   259.8024     1.5797     2.1688     0.0254      0.050     -0.127     -0.185        352 2.5437e+03   995.7402 0.0000e+00
     -0.111    29.7724     7.7513    101.703  39.883494     36.422      6.229   257.5688     1.5683     2.1399     0.0254      0.058     -0.108     -0.156        353 2.4039e+03   995.7406 0.0000e+00
     -0.089    29.7629     7.5527     99.086  39.845889     36.365      6.225   256.2816     1.5874     2.1544     0.0254      0.064     -0.083     -0.120        354 2.6240e+03   995.7383 0.0000e+00
     -0.052    29.7373     7.3359     96.233  39.767226     36.309      6.219   252.0416     1.5530     2.2120     0.0254      0.074     -0.051     -0.074        355 2.2732e+03   995.7363 0.0000e+00
     -0.015    29.7029     7.1436     93.703  39.714637     36.239      6.216   251.6252     1.7094     2.0534     0.0253      0.086     -0.016     -0.024        356 1.9807e+03   995.7393 0.0000e+00
      0.016    29.6651     7.0037     91.877  39.674230     36.256      6.216   255.6381     1.7133     2.1832     0.0253      0.098      0.016      0.022        357 2.4356e+03   995.7472 0.0000e+00
      0.047    29.6255     6.8979     90.475  39.610056     36.177      6.221   254.6538     1.6904     2.1544     0.0253      0.108      0.046      0.066        358 1.3674e+03   995.7575 0.0000e+00
      0.077    29.5972     6.8109     89.339  39.675965     36.304      6.227   254.0481     1.6942     2.0823     0.0253      0.115      0.076      0.110        359 9.7840e+02   995.7690 0.0000e+00
      0.107    29.5736     6.7455     88.496  39.710783     36.331      6.231   251.8523     1.9994     2.2697     0.0253      0.121      0.106      0.154        360 1.5336e+03   995.7809 0.0000e+00
      0.140    29.5398     6.7259     88.244  39.685300     36.350      6.230   251.7388     2.0184     2.3274     0.0253      0.125      0.137      0.199        361 2.0575e+03   995.7895 0.0000e+00
      0.170    29.5198     6.7369     88.359  39.648416     36.313      6.232   251.7009     1.9917     2.0823     0.0253      0.125      0.169      0.245        362 1.5860e+03   995.7967 0.0000e+00
      0.206    29.5146     6.7324     88.271  39.578868     36.286      6.232   254.3131     1.9879     2.1111     0.0253      0.124      0.204      0.296        363 7.6100e+02   995.8069 0.0000e+00
      0.248    29.5094     6.7194     88.092  39.594036     36.299      6.238   253.4045     1.9956     2.2553     0.0253      0.126      0.243      0.353        364 1.4550e+03   995.8130 0.0000e+00
      0.288    29.5027     6.7182     88.026  39.629551     36.353      6.240   253.9724     1.9383     2.1976     0.0253      0.132      0.282      0.408        365 1.6467e+03   995.8148 0.0000e+00
      0.324    29.5005     6.7325     88.121  39.653230     36.357      6.244   254.8809     1.9383     2.1544     0.0253      0.136      0.318      0.460        366 1.0977e+03   995.8165 0.0000e+00
      0.358    29.5028     6.7465     88.307  39.623849     36.361      6.248   250.4516     1.9460     2.1688     0.0253      0.140      0.353      0.513        367 1.1326e+03   995.8187 0.0000e+00
      0.401    29.4971     6.7887     88.878  39.547565     36.261      6.245   252.6473     1.9689     2.1399     0.0253      0.145      0.392      0.568        368 1.0947e+03   995.8195 0.0000e+00
      0.439    29.4983     6.8728     89.822  39.570333     36.309      6.248   252.9881     2.2550     2.0967     0.0253      0.148      0.427      0.619        369 1.0587e+03   995.8189 0.0000e+00
      0.465    29.5090     7.0038     91.402  39.536238     36.263      6.249   256.2438     2.2626     2.2120     0.0253      0.147      0.457      0.662        370 1.0866e+03   995.8207 0.0000e+00
      0.494    29.5111     7.1471     93.281  39.471445     36.210      6.250   256.6602     2.2664     2.1255     0.0253      0.143      0.487      0.707        371 1.0216e+03   995.8205 0.0000e+00
      0.531    29.4935     7.2576     94.722  39.532411     36.255      6.253   257.0009     2.2511     2.1688     0.0253      0.138      0.522      0.757        372 9.1708e+02   995.8175 0.0000e+00
      0.572    29.4745     7.3331     95.682  39.578917     36.304      6.254   250.4895     2.3656     2.1688     0.0253      0.137      0.559      0.810        373 8.3253e+02   995.8171 0.0000e+00
      0.605    29.4682     7.3761     96.237  39.532124     36.265      6.252   253.0259     2.3770     2.1832     0.0253      0.136      0.591      0.858        374 8.6151e+02   995.8224 0.0000e+00
      0.631    29.4346     7.3666     96.107  39.472096     36.226      6.254   253.2531     2.3656     2.1111     0.0253      0.133      0.620      0.899        375 7.6289e+02   995.8282 0.0000e+00
      0.662    29.3772     7.2988     95.203  39.475799     36.230      6.253   256.7359     2.3770     2.1832     0.0253      0.129      0.650      0.943        376 7.4729e+02   995.8302 0.0000e+00
      0.697    29.3787     7.1843     93.684  39.527526     36.303      6.253   257.6066     2.4266     2.1399     0.0253      0.129      0.683      0.990        377 7.7662e+02   995.8404 0.0000e+00
      0.728    29.3849     7.0429     91.814  39.526295     36.343      6.252   251.2845     2.4304     2.0102     0.0253      0.129      0.715      1.036        378 7.6765e+02   995.8576 0.0000e+00
      0.760    29.2904     6.8922     89.811  39.418075     36.240      6.252   251.8523     2.4304     2.1255     0.0252      0.128      0.749      1.086        379 7.5102e+02   995.8572 0.0000e+00
      0.803    29.2084     6.7591     88.035  39.365826     36.180      6.251   252.3445     2.4228     2.0967     0.0252      0.128      0.786      1.141        380 7.6925e+02   995.8556 0.0000e+00
      0.841    29.2104     6.6546     86.584  39.413498     36.298      6.253   252.7609     2.6250     2.2120     0.0252      0.130      0.825      1.197        381 7.1481e+02   995.8837 0.0000e+00
      0.880    29.2107     6.6347     86.193  39.418063     36.354      6.256   254.9566     2.6288     2.1544     0.0252      0.136      0.862      1.251        382 5.7898e+02   995.9081 0.0000e+00
      0.919    29.1957     6.6943     87.046  39.419460     36.350      6.260   255.6002     2.6135     2.1976     0.0252      0.142      0.894      1.297        383 6.3520e+02   995.9077 0.0000e+00
      0.934    29.1921     6.8544     89.158  39.411771     36.351      6.265   253.2152     2.6250     2.2841     0.0252      0.140      0.911      1.322        384 7.6295e+02   995.9076 0.0000e+00
      0.934    29.1881     7.0236     91.332  39.368355     36.310      6.269   253.4045     2.5907     2.1111     0.0252      0.128      0.917      1.331        385 6.4323e+02   995.9120 0.0000e+00
      0.939    29.1768     7.1687     93.177  39.354940     36.312      6.277   253.1395     2.8691     2.1976     0.0252      0.111      0.923      1.339        386 6.0062e+02   995.9132 0.0000e+00
      0.952    29.1611     7.2915     94.666  39.369192     36.315      6.276   253.2531     2.8653     2.1255     0.0252      0.092      0.936      1.357        387 7.0073e+02   995.9144 0.0000e+00
      0.973    29.1452     7.4290     96.566  39.409898     36.374      6.281   253.2152     2.8882     2.1688     0.0252      0.075      0.956      1.386        388 7.0673e+02   995.9178 0.0000e+00
      0.999    29.1191     7.6209     99.139  39.422841     36.384      6.284   257.2281     2.8691     2.2120     0.0252      0.064      0.979      1.419        389 6.4168e+02   995.9226 0.0000e+00
      1.021    29.0954     7.7561    100.827  39.412370     36.395      6.281   255.9788     2.8615     2.3707     0.0252      0.059      0.997      1.446        390 6.7314e+02   995.9273 0.0000e+00
      1.027    29.0286     7.8012    101.333  39.363664     36.360      6.279   255.9409     2.8386     2.3274     0.0252      0.056      1.009      1.464        391 6.4619e+02   995.9350 0.0000e+00
      1.042    28.9539     7.7801    101.060  39.305639     36.327      6.281   254.5024     2.8424     2.3562     0.0252      0.060      1.022      1.483        392 6.0816e+02   995.9420 0.0000e+00
      1.059    28.9930     7.7023    100.048  39.366046     36.418      6.279   253.8588     2.8768     2.3995     0.0252      0.066      1.034      1.500        393 5.7029e+02   995.9617 0.0000e+00
      1.062    29.0173     7.5742     98.393  39.407073     36.530      6.283   260.2945     2.9874     2.1255     0.0253      0.064      1.040      1.509        394 5.6688e+02   995.9836 0.0000e+00
      1.062    29.0029     7.4132     96.316  39.313885     36.391      6.286   259.4238     2.9988     2.2120     0.0252      0.055      1.041      1.510        395 7.0464e+02   995.9722 0.0000e+00
      1.062    28.9685     7.2194     93.800  39.304182     36.378      6.292   259.1588     2.9874     2.0823     0.0252      0.043      1.045      1.515        396 6.3874e+02   995.9652 0.0000e+00
      1.073    28.9180     7.0230     91.245  39.211668     36.311      6.296   256.8116     3.0027     2.1399     0.0252      0.033      1.058      1.534        397 5.4126e+02   995.9693 0.0000e+00
      1.105    28.9738     6.8551     89.046  39.191917     36.278      6.291   256.5845     2.9607     2.1688     0.0252      0.034      1.077      1.562        398 5.7666e+02   995.9795 0.0000e+00
      1.113    29.0236     6.7332     87.461  39.328781     36.502      6.294   260.4081     2.9836     2.1832     0.0252      0.037      1.089      1.579        399 5.7542e+02   995.9945 0.0000e+00
      1.113    28.9819     6.6399     86.247  39.189547     36.275      6.296   260.0674     2.9912     2.0823     0.0252      0.035      1.092      1.584        400 5.7068e+02   995.9781 0.0000e+00
      1.114    28.9404     6.5715     85.354  39.098434     36.193      6.300   260.5974     2.9759     2.0534     0.0251      0.034      1.092      1.585        401 5.8248e+02   995.9634 0.0000e+00
      1.114    28.9370     6.5191     84.676  39.175410     36.271      6.304   260.2567     3.0255     2.1976     0.0252      0.033      1.092      1.585        402 5.7956e+02   995.9757 0.0000e+00
      1.115    28.9383     6.4448     83.712  39.212314     36.354      6.307   258.6288     3.0332     2.1976     0.0252      0.030      1.093      1.585        403 5.4659e+02   995.9879 0.0000e+00
      1.115    28.9424     6.3872     82.944  39.230353     36.353      6.307   258.7045     3.0713     2.2553     0.0252      0.023      1.093      1.585        404 5.5627e+02   995.9888 0.0000e+00
      1.115    28.9510     6.3632     82.678  39.241881     36.380      6.312   259.8402     3.0408     2.1976     0.0252      0.013      1.093      1.586        405 5.4413e+02   995.9885 0.0000e+00
      1.115    28.9531     6.4230     83.546  39.227607     36.350      6.313   260.4459     3.0332     2.1688     0.0252      0.003      1.094      1.587        406 5.1027e+02   995.9872 0.0000e+00
      1.117    28.9499     6.6008     85.815  39.218477     36.345      6.316   260.4838     2.9798     2.1399     0.0252      0.002      1.096      1.589        407 5.8900e+02   995.9848 0.0000e+00
      1.121    28.9401     6.8487     88.872  39.223600     36.344      6.319   260.7109     2.9912     2.3130     0.0252      0.003      1.099      1.594        408 5.8917e+02   995.9842 0.0000e+00
      1.123    28.9376     7.0916     91.968  39.221230     36.345      6.318   260.4838     2.9874     2.2265     0.0252      0.004      1.104      1.601        409 5.5579e+02   995.9851 0.0000e+00
      1.136    28.9370     7.2846     94.370  39.191791     36.327      6.319   257.7959     2.9836     2.2986     0.0252      0.008      1.113      1.614        410 5.8746e+02   995.9880 0.0000e+00
      1.146    28.9334     7.4389     96.162  39.171325     36.302      6.312   258.4395     2.9759     2.1976     0.0252      0.014      1.121      1.626        411 5.1768e+02   995.9887 0.0000e+00
      1.147    28.9360     7.5373     97.484  39.157787     36.303      6.315   258.7802     2.9988     2.1544     0.0252      0.017      1.125      1.631        412 5.1473e+02   995.9890 0.0000e+00
      1.147    28.9348     7.6296     98.561  39.119727     36.253      6.317   260.2945     2.9912     2.2697     0.0251      0.019      1.129      1.637        413 5.7853e+02   995.9900 0.0000e+00
      1.157    28.9242     7.7527     99.836  39.100140     36.252      6.318   260.0674     2.9912     2.1399     0.0251      0.022      1.144      1.659        414 5.4835e+02   995.9892 0.0000e+00
      1.199    28.9557     7.8167    100.564  39.152523     36.277      6.318   256.2059     3.0027     2.1688     0.0251      0.033      1.172      1.700        415 5.0466e+02   995.9898 0.0000e+00
      1.229    29.0149     7.8717    101.077  39.202728     36.364      6.307   256.8116     2.9759     2.1399     0.0252      0.046      1.197      1.736        416 4.8661e+02   995.9931 0.0000e+00
      1.233    28.9851     7.8730    100.835  39.067300     36.187      6.312   256.9631     2.9683     2.1544     0.0251      0.055      1.209      1.754        417 5.1342e+02   995.9838 0.0000e+00
      1.241    28.8838     7.8164     99.922  38.995029     36.094      6.318   258.4017     3.0179     2.1832     0.0251      0.059      1.218      1.767        418 4.8313e+02   995.9665 0.0000e+00
      1.253    28.8463     7.7009     98.344  39.055547     36.165      6.319   258.4017     2.9912     2.1544     0.0251      0.062      1.228      1.782        419 4.7539e+02   995.9754 0.0000e+00
      1.261    28.7790     7.5565     96.436  39.051276     36.236      6.319   258.2124     2.9607     2.1399     0.0251      0.064      1.242      1.802        420 4.9895e+02   996.0050 0.0000e+00
      1.288    28.6708     7.4107     94.541  38.941105     36.157      6.325   255.9031     2.9759     2.1111     0.0251      0.065      1.266      1.836        421 4.5600e+02   996.0160 0.0000e+00
      1.325    28.6872     7.2813     92.796  39.014858     36.249      6.319   256.0924     2.9607     2.1544     0.0251      0.067      1.292      1.873        422 4.5190e+02   996.0358 0.0000e+00
      1.335    28.6199     7.1692     91.279  38.959530     36.332      6.320   255.6759     3.0408     2.1976     0.0251      0.063      1.309      1.898        423 4.4731e+02   996.0672 0.0000e+00
      1.346    28.4532     7.0800     90.101  38.743261     36.026      6.327   255.5624     3.0255     2.1111     0.0250      0.064      1.319      1.913        424 4.2841e+02   996.0625 0.0000e+00
      1.355    28.3841     7.0246     89.318  38.898730     36.306      6.327   256.5466     3.0332     2.2265     0.0251      0.067      1.326      1.924        425 4.4358e+02   996.0822 0.0000e+00
      1.356    28.2837     7.0118     89.107  38.795725     36.271      6.336   256.4709     3.0370     2.1544     0.0250      0.064      1.330      1.929        426 4.2700e+02   996.1304 0.0000e+00
      1.359    28.1352     7.0356     89.330  38.634412     36.177      6.340   255.1838     3.0027     2.1976     0.0250      0.056      1.333      1.933        427 4.4916e+02   996.1502 0.0000e+00
      1.362    28.0316     7.0704     89.702  38.743884     36.356      6.343   255.6002     3.0027     2.1832     0.0250      0.046      1.338      1.941        428 4.6083e+02   996.1790 0.0000e+00
      1.375    27.9700     7.1884     90.823  38.689182     36.403      6.348   255.9409     2.9759     2.1399     0.0250      0.034      1.348      1.956        429 4.0497e+02   996.2216 0.0000e+00
      1.388    27.9356     7.3656     92.489  38.702556     36.477      6.353   255.8652     2.9874     2.1688     0.0250      0.027      1.361      1.975        430 4.2741e+02   996.2512 0.0000e+00
      1.401    27.9119     7.5163     94.021  38.756934     36.595      6.354   257.0009     2.9836     2.1688     0.0251      0.029      1.375      1.995        431 4.0675e+02   996.2688 0.0000e+00
      1.419    27.8560     7.7501     96.329  38.651182     36.490      6.358   256.8874     2.9988     2.2409     0.0250      0.034      1.392      2.020        432 3.8203e+02   996.2786 0.0000e+00
      1.439    27.8034     7.9854     98.682  38.685996     36.556      6.362   256.8495     2.9912     2.1111     0.0250      0.042      1.412      2.047        433 4.0485e+02   996.2854 0.0000e+00
      1.460    27.7715     8.1968    100.858  38.683989     36.596      6.365   256.5466     2.9683     2.1688     0.0250      0.052      1.431      2.075        434 3.8792e+02   996.3013 0.0000e+00
      1.478    27.7293     8.4214    103.100  38.653704     36.581      6.373   256.0545     2.9721     2.2409     0.0250      0.061      1.449      2.101        435 3.7743e+02   996.3162 0.0000e+00
      1.493    27.6921     8.6283    105.163  38.664435     36.652      6.382   255.9788     3.1285     2.4860     0.0250      0.066      1.465      2.125        436 3.7367e+02   996.3254 0.0000e+00
      1.513    27.6493     8.7427    106.231  38.581744     36.554      6.392   257.6445     3.1018     2.3707     0.0250      0.069      1.480      2.147        437 3.6086e+02   996.3373 0.0000e+00
      1.521    27.5983     8.7895    106.446  38.608447     36.654      6.399   256.2816     3.1362     2.5004     0.0250      0.069      1.492      2.164        438 3.6200e+02   996.3478 0.0000e+00
      1.530    27.3630     8.7564    105.825  38.423765     36.477      6.416   255.6002     3.1247     2.2986     0.0249      0.065      1.506      2.184        439 3.5358e+02   996.3599 0.0000e+00
      1.559    27.0370     8.7096    104.924  38.367043     36.454      6.432   254.6159     3.2926     2.3130     0.0249      0.065      1.528      2.215        440 3.3586e+02   996.3743 0.0000e+00
      1.582    26.7988     8.6393    103.731  38.501262     36.776      6.441   255.1081     3.2964     2.4572     0.0250      0.066      1.549      2.247        441 3.4173e+02   996.4402 0.0000e+00
      1.597    26.4637     8.5635    102.643  38.138298     36.644      6.455   252.5338     3.2773     2.5149     0.0248      0.066      1.569      2.275        442 3.2454e+02   996.5305 0.0000e+00
      1.622    26.1374     8.5067    101.787  38.077972     36.715      6.467   251.3981     3.2926     2.4283     0.0248      0.070      1.589      2.304        443 3.2304e+02   996.5959 0.0000e+00
      1.639    25.8999     8.4929    101.576  38.161568     37.130      6.474   250.9438     3.8343     2.4716     0.0249      0.073      1.605      2.328        444 3.2750e+02   996.6871 0.0000e+00
      1.648    25.6218     8.5210    101.924  37.678792     36.788      6.492   250.6788     3.8152     2.5581     0.0247      0.073      1.618      2.348        445 3.1367e+02   996.7747 0.0000e+00
      1.664    25.3845     8.6229    103.151  37.552756     36.905      6.502   249.7323     3.8343     2.5437     0.0247      0.074      1.638      2.376        446 3.0627e+02   996.8379 0.0000e+00
      1.699    25.2069     8.8008    105.323  37.370197     36.914      6.517   249.2781     3.8457     2.5725     0.0246      0.076      1.670      2.422        447 2.9233e+02   996.9113 0.0000e+00
      1.746    25.0377     9.0359    108.108  37.313401     36.982      6.535   249.3159     3.8457     3.3512     0.0246      0.082      1.705      2.473        448 2.8567e+02   996.9735 0.0000e+00
      1.767    24.9145     9.3353    111.721  37.386472     37.300      6.551   248.5966     3.8419     3.2214     0.0247      0.089      1.727      2.504        449 2.8107e+02   997.0197 0.0000e+00
      1.768    24.7469     9.5793    114.666  36.923736     36.821      6.571   246.9309     3.8457     3.2070     0.0244      0.090      1.733      2.513        450 2.8126e+02   997.0631 0.0000e+00
      1.768    24.5700     9.6721    115.762  36.852109     36.960      6.587   246.9309     3.8305     3.2070     0.0244      0.084      1.734      2.515        451 2.7859e+02   997.0946 0.0000e+00
      1.770    24.4698     9.6782    115.849  36.823703     36.975      6.603   246.9309     3.8381     3.1926     0.0244      0.076      1.735      2.517        452 2.7993e+02   997.1373 0.0000e+00
      1.772    24.3837     9.6605    115.652  36.633183     36.969      6.616   246.8930     3.7198     3.2791     0.0243      0.063      1.737      2.519        453 2.8417e+02   997.1821 0.0000e+00
      1.772    24.3558     9.6581    115.633  36.585495     36.954      6.629   246.4388     3.7084     3.1637     0.0243      0.046      1.738      2.521        454 2.8123e+02   997.2073 0.0000e+00
      1.773    24.3614     9.7173    116.277  36.557125     37.023      6.640   246.4388     3.7198     3.1349     0.0243      0.025      1.738      2.521        455 2.7901e+02   997.2289 0.0000e+00
      1.773    24.3693     9.8419    117.684  36.520353     36.985      6.645   246.4009     3.7122     3.2358     0.0243      0.009      1.739      2.522        456 2.7802e+02   997.2359 0.0000e+00
      1.774    24.3858    10.1532    121.376  36.423833     36.895      6.653   246.4009     3.6473     3.2214     0.0243      0.004      1.739      2.523        457 2.8091e+02   997.2345 0.0000e+00
      1.774    24.3780    10.6110    126.769  36.440167     36.892      6.659   246.4388     3.6321     3.1061     0.0243      0.003      1.739      2.523        458 2.7774e+02   997.2325 0.0000e+00
      1.773    24.3886    10.9445    130.588  36.440751     36.904      6.667   246.8552     3.6473     3.1926     0.0243      0.003      1.739      2.523        459 2.8209e+02   997.2284 0.0000e+00
      1.774    24.4009    11.2305    133.718  36.393468     36.830      6.676   246.8173     3.6626     3.1493     0.0242      0.002      1.740      2.523        460 2.8019e+02   997.2303 0.0000e+00
      1.774    24.3954    11.6504    138.363  36.410104     36.875      6.679   246.9309     3.6473     3.0772     0.0243      0.001      1.740      2.523        461 2.7535e+02   997.2277 0.0000e+00
      1.774    24.4003    12.1713    144.166  36.390409     36.810      6.685   246.5145     3.6550     3.0772     0.0242      0.001      1.740      2.523        462 2.7917e+02   997.2246 0.0000e+00
      1.774    24.4083    12.7014    150.042  36.417976     36.872      6.691   246.2873     3.6435     3.0195     0.0243      0.001      1.741      2.525        463 2.7790e+02   997.2259 0.0000e+00
      1.777    24.4113    13.2339    155.775  36.464702     36.895      6.696   246.6659     3.6435     2.9763     0.0243      0.001      1.745      2.531        464 2.7579e+02   997.2248 0.0000e+00
      1.787    24.3824    13.6247    159.820  36.361892     36.805      6.701   247.4230     3.5978     2.9042     0.0242      0.004      1.758      2.550        465 2.6743e+02   997.2227 0.0000e+00
      1.817    24.3461    13.9338    162.815  36.397746     36.802      6.706   247.4988     3.6206     2.9763     0.0242      0.014      1.782      2.584        466 2.6218e+02   997.2221 0.0000e+00
      1.845    24.3294    14.1380    164.597  36.479354     36.965      6.704   247.1202     3.5978     3.0340     0.0243      0.029      1.809      2.624        467 2.5615e+02   997.2295 0.0000e+00
      1.873    24.2979    14.2355    165.205  36.289978     36.739      6.709   246.5145     3.5978     3.0484     0.0242      0.046      1.839      2.666        468 2.4909e+02   997.2388 0.0000e+00
      1.908    24.2273    14.2360    164.715  36.307458     36.806      6.712   246.5523     3.5787     3.5531     0.0242      0.066      1.869      2.710        469 2.3625e+02   997.2431 0.0000e+00
      1.935    24.1168    14.2521    164.424  36.339075     36.859      6.724   245.3409     3.5978     3.4810     0.0242      0.085      1.897      2.751        470 2.2885e+02   997.2511 0.0000e+00
      1.960    23.9776    14.2604    164.093  36.221014     36.769      6.735   245.9845     3.6016     3.4810     0.0242      0.099      1.923      2.789        471 2.2764e+02   997.2688 0.0000e+00
      1.987    23.8392    14.3248    164.465  36.128443     36.797      6.742   246.4009     3.5634     3.4089     0.0242      0.109      1.948      2.826        472 2.1878e+02   997.2963 0.0000e+00
      2.012    23.6905    14.4216    165.159  35.861653     36.586      6.749   246.6659     3.5863     3.4089     0.0240      0.112      1.974      2.863        473 2.1510e+02   997.3307 0.0000e+00
      2.040    23.5067    14.5398    166.062  35.723348     36.578      6.758   246.6659     3.5825     3.5387     0.0240      0.110      2.001      2.902        474 2.0546e+02   997.3648 0.0000e+00
      2.070    23.3176    14.6626    166.934  35.678323     36.628      6.760   246.9309     3.6130     3.4089     0.0240      0.109      2.027      2.939        475 1.9953e+02   997.4013 0.0000e+00
      2.087    23.1169    14.6989    166.854  35.354728     36.455      6.768   246.6659     3.6054     3.4521     0.0238      0.105      2.047      2.969        476 1.9618e+02   997.4460 0.0000e+00
      2.106    22.9223    14.6719    166.158  34.911190     36.103      6.780   246.6659     3.5978     3.4666     0.0237      0.099      2.067      2.999        477 1.9039e+02   997.4915 0.0000e+00
      2.133    22.7550    14.6022    165.053  34.719121     36.082      6.788   247.3095     3.3918     3.6684     0.0236      0.097      2.092      3.034        478 1.8284e+02   997.5395 0.0000e+00
      2.161    22.5974    14.5596    164.335  34.615978     36.111      6.795   247.6880     3.3994     3.6540     0.0235      0.096      2.116      3.070        479 1.7612e+02   997.5858 0.0000e+00
      2.179    22.4454    14.4013    162.335  34.358105     35.975      6.804   247.7259     3.4108     3.6540     0.0234      0.094      2.136      3.099        480 1.7199e+02   997.6252 0.0000e+00
      2.193    22.3110    14.2009    159.880  34.032647     35.742      6.817   248.3316     3.4261     3.6540     0.0233      0.090      2.153      3.124        481 1.6735e+02   997.6620 0.0000e+00
      2.215    22.1918    14.0192    157.626  33.835827     35.650      6.827   248.8616     3.4757     3.5098     0.0232      0.086      2.175      3.155        482 1.6146e+02   997.6974 0.0000e+00
      2.246    22.0626    13.8639    155.720  33.714182     35.634      6.824   249.5431     3.4528     3.4666     0.0232      0.085      2.203      3.196        483 1.5489e+02   997.7284 0.0000e+00
      2.279    21.9198    13.7828    154.591  33.532218     35.515      6.824   250.0731     3.4604     3.4666     0.0231      0.090      2.233      3.240        484 1.5022e+02   997.7559 0.0000e+00
      2.307    21.7576    13.7162    153.579  33.351203     35.437      6.819   251.0573     3.4719     3.4954     0.0230      0.095      2.259      3.277        485 1.4512e+02   997.7855 0.0000e+00
      2.324    21.6052    13.6715    152.714  33.258013     35.424      6.816   251.9281     3.3727     3.1493     0.0230      0.095      2.277      3.302        486 1.4191e+02   997.8179 0.0000e+00
      2.335    21.4835    13.6113    151.628  33.203805     35.518      6.815   252.5338     3.3994     3.1637     0.0230      0.093      2.289      3.320        487 1.3929e+02   997.8545 0.0000e+00
      2.343    21.3863    13.6136    151.223  33.063176     35.455      6.811   252.6852     3.3956     3.1493     0.0229      0.089      2.299      3.335        488 1.3855e+02   997.8887 0.0000e+00
      2.355    21.3105    13.5967    150.719  32.929385     35.427      6.808   254.3131     3.4108     3.2503     0.0228      0.082      2.313      3.354        489 1.3536e+02   997.9157 0.0000e+00
      2.377    21.2452    13.5824    150.259  32.896286     35.442      6.809   257.4174     3.5482     2.9907     0.0228      0.074      2.331      3.381        490 1.3078e+02   997.9372 0.0000e+00
      2.399    21.1794    13.6187    150.354  32.867373     35.498      6.804   257.6445     3.5329     2.9330     0.0228      0.067      2.352      3.412        491 1.2752e+02   997.9541 0.0000e+00
      2.422    21.1152    13.5972    149.853  32.846883     35.490      6.799   258.3259     3.5253     2.9763     0.0228      0.064      2.375      3.445        492 1.2414e+02   997.9686 0.0000e+00
      2.447    21.0588    13.5508    148.976  32.862558     35.599      6.792   258.5909     3.5215     3.0051     0.0228      0.066      2.399      3.480        493 1.2037e+02   997.9830 0.0000e+00
      2.471    20.9902    13.5560    148.701  32.729379     35.469      6.791   259.9159     3.5253     3.0051     0.0228      0.074      2.424      3.516        494 1.1609e+02   997.9972 0.0000e+00
      2.499    20.8989    13.5963    148.841  32.568211     35.358      6.785   260.5595     3.5978     3.0051     0.0227      0.083      2.451      3.556        495 1.1202e+02   998.0096 0.0000e+00
      2.529    20.7803    13.6314    148.916  32.529829     35.353      6.772   259.8402     3.5558     2.9763     0.0227      0.092      2.479      3.596        496 1.0855e+02   998.0245 0.0000e+00
      2.556    20.6389    13.7032    149.297  32.451254     35.360      6.765   259.3481     3.5901     2.9186     0.0226      0.099      2.503      3.631        497 1.0573e+02   998.0444 0.0000e+00
      2.572    20.4980    13.7699    149.629  32.369747     35.332      6.754   262.2252     3.5939     3.0195     0.0226      0.099      2.522      3.659        498 1.0401e+02   998.0700 0.0000e+00
      2.588    20.3895    13.8356    149.956  32.275771     35.378      6.750   265.9731     3.5405     2.5149     0.0226      0.097      2.540      3.684        499 1.0172e+02   998.1002 0.0000e+00
      2.610    20.2875    13.9258    150.549  32.123836     35.276      6.745   265.8217     3.5329     2.6014     0.0225      0.094      2.560      3.714        500 9.8404e+01   998.1301 0.0000e+00
      2.634    20.1876    13.9722    150.774  32.025571     35.297      6.741   268.3960     3.5253     2.5437     0.0225      0.091      2.585      3.749        501 9.4730e+01   998.1532 0.0000e+00
      2.666    20.0945    13.9003    149.650  32.012941     35.314      6.733   268.0931     3.5253     2.5437     0.0224      0.090      2.611      3.787        502 9.1861e+01   998.1747 0.0000e+00
      2.687    19.9757    13.7704    147.902  31.902573     35.333      6.725   267.6010     3.3345     2.1544     0.0224      0.089      2.632      3.817        503 9.1369e+01   998.1957 0.0000e+00
      2.698    19.8601    13.5497    145.224  31.718542     35.123      6.718   267.5631     3.3422     2.1255     0.0223      0.085      2.648      3.840        504 9.0400e+01   998.2150 0.0000e+00
      2.714    19.7607    13.3057    142.206  31.738328     35.313      6.718   269.3803     3.3689     2.2265     0.0223      0.083      2.665      3.866        505 8.7410e+01   998.2397 0.0000e+00
      2.742    19.6541    13.0420    139.036  31.640974     35.246      6.713   269.7967     3.3383     2.1976     0.0223      0.084      2.690      3.902        506 8.4591e+01   998.2636 0.0000e+00
      2.773    19.5215    12.7952    136.176  31.573098     35.264      6.711   269.2288     3.1438     1.9525     0.0222      0.087      2.720      3.946        507 8.1189e+01   998.2839 0.0000e+00
      2.809    19.3895    12.5811    133.745  31.674706     35.471      6.706   269.7210     3.1705     1.9236     0.0223      0.091      2.751      3.991        508 7.8040e+01   998.3058 0.0000e+00
      2.835    19.2601    12.4404    132.074  31.455318     35.328      6.697   269.4938     3.1629     1.9236     0.0222      0.095      2.777      4.027        509 7.7422e+01   998.3326 0.0000e+00
      2.849    19.1365    12.3722    131.182  31.164741     35.086      6.692   270.2510     3.1629     1.8948     0.0221      0.095      2.798      4.058        510 7.5537e+01   998.3592 0.0000e+00
      2.877    19.0416    12.3100    130.420  31.147555     35.188      6.687   271.6517     3.1972     1.9236     0.0221      0.099      2.823      4.095        511 7.2213e+01   998.3851 0.0000e+00
      2.912    18.9286    12.2672    129.812  31.032353     35.163      6.680   272.3331     3.2315     1.9669     0.0220      0.106      2.854      4.140        512 7.0052e+01   998.4096 0.0000e+00
      2.941    18.8129    12.2134    129.080  30.745247     34.887      6.676   272.7117     3.2468     1.9957     0.0219      0.109      2.886      4.185        513 6.7812e+01   998.4284 0.0000e+00
      2.976    18.7054    12.1701    128.461  30.675347     34.914      6.672   273.5446     3.2468     1.9525     0.0218      0.110      2.917      4.230        514 6.5915e+01   998.4506 0.0000e+00
      3.005    18.5690    12.1331    127.975  30.615735     34.944      6.666   273.5824     3.2048     1.9236     0.0218      0.112      2.943      4.268        515 6.4881e+01   998.4732 0.0000e+00
      3.021    18.4442    12.0600    127.306  30.463962     34.835      6.659   273.4310     5.2000     1.7650     0.0217      0.110      2.961      4.294        516 6.4139e+01   998.4939 0.0000e+00
      3.032    18.3626    11.9992    126.794  30.449505     34.947      6.657   273.6203     5.2114     1.7650     0.0217      0.106      2.974      4.313        517 6.3342e+01   998.5202 0.0000e+00
      3.045    18.3056    11.9650    126.258  30.456023     35.047      6.653   274.1503     5.1618     1.6497     0.0217      0.100      2.986      4.331        518 6.2571e+01   998.5441 0.0000e+00
      3.057    18.2404    11.9836    126.098  30.396648     35.049      6.652   274.1881     5.1961     1.6497     0.0217      0.088      2.997      4.347        519 6.2103e+01   998.5595 0.0000e+00
      3.065    18.1800    12.0131    126.001  30.345674     35.029      6.652   274.4153     8.8621     1.4622     0.0217      0.073      3.006      4.361        520 6.1516e+01   998.5703 0.0000e+00
      3.076    18.1383    12.0406    125.782  30.341729     35.082      6.648   274.9453     8.8926     1.5055     0.0217      0.061      3.016      4.375        521 6.0862e+01   998.5826 0.0000e+00
      3.087    18.0826    12.0902    125.745  30.253454     35.036      6.644   274.9074     8.8774     1.4622     0.0216      0.050      3.028      4.392        522 6.0001e+01   998.5939 0.0000e+00
      3.102    18.0202    12.1468    125.708  30.159294     34.938      6.646   275.4753     8.8812     1.4045     0.0216      0.045      3.042      4.413        523 5.8928e+01   998.6018 0.0000e+00
      3.119    17.9599    12.1457    124.993  30.162670     35.017      6.642   274.9831    10.0294     1.4622     0.0216      0.046      3.056      4.434        524 5.8364e+01   998.6122 0.0000e+00
      3.129    17.9244    12.1001    123.747  30.101146     34.970      6.639   275.1724    10.0599     1.4766     0.0216      0.047      3.069      4.452        525 5.7736e+01   998.6238 0.0000e+00
      3.142    17.9634    12.0008    122.156  30.087756     35.020      6.636   275.8538    10.0523     1.5776     0.0216      0.048      3.081      4.469        526 5.6880e+01   998.6351 0.0000e+00
      3.154    18.0085    11.8291    119.977  30.208982     35.180      6.634   276.0053    10.0409     1.5055     0.0216      0.050      3.094      4.487        527 5.6325e+01   998.6416 0.0000e+00
      3.168    17.9439    11.6120    117.366  30.128048     35.083      6.633   276.8760     9.7891     1.4766     0.0216      0.051      3.111      4.511        528 5.5441e+01   998.6344 0.0000e+00
      3.192    17.8081    11.3897    114.715  29.951464     34.782      6.630   277.7467     9.7815     1.4334     0.0215      0.055      3.136      4.548        529 5.3680e+01   998.6263 0.0000e+00
      3.233    17.6492    11.1281    111.721  29.895468     34.837      6.624   276.8760     9.7929     1.3613     0.0215      0.064      3.171      4.600        530 5.1260e+01   998.6383 0.0000e+00
      3.275    17.4574    10.8516    108.633  29.575623     34.524      6.616   277.8981     9.7891     1.4334     0.0213      0.078      3.212      4.658        531 4.9251e+01   998.6633 0.0000e+00
      3.316    17.2423    10.5499    105.305  29.253427     34.291      6.611   278.5796     7.1607     1.4910     0.0211      0.095      3.254      4.718        532 4.7295e+01   998.6923 0.0000e+00
      3.362    17.0069    10.2556    102.141  28.963382     34.120      6.603   279.7153     7.1264     1.4334     0.0210      0.115      3.299      4.785        533 4.4479e+01   998.7270 0.0000e+00
      3.418    16.7343     9.9804     99.198  28.751679     33.994      6.595   281.4189     7.1302     1.4334     0.0209      0.138      3.348      4.857        534 4.1747e+01   998.7653 0.0000e+00
      3.465    16.4428     9.7176     96.301  28.569003     34.054      6.592   281.2296     7.1760     1.5199     0.0208      0.158      3.391      4.919        535 4.0353e+01   998.8067 0.0000e+00
      3.490    16.2164     9.4787     93.667  28.242858     33.771      6.587   280.8510     7.1684     1.4910     0.0206      0.168      3.421      4.961        536 3.9749e+01   998.8537 0.0000e+00
      3.510    16.0479     9.2050     90.737  28.209717     34.082      6.584   278.8824     5.7493     1.4478     0.0206      0.165      3.445      4.996        537 3.8535e+01   998.9032 0.0000e+00
      3.538    15.8833     8.8924     87.423  28.106756     34.063      6.585   279.5260     5.7188     1.4910     0.0205      0.155      3.470      5.033        538 3.7229e+01   998.9410 0.0000e+00
      3.567    15.7183     8.5935     84.259  27.956358     34.067      6.584   279.4503     5.7188     1.3613     0.0205      0.144      3.497      5.072        539 3.6309e+01   998.9687 0.0000e+00
      3.592    15.5685     8.2348     80.555  27.893365     34.101      6.584   279.4503     5.7531     1.5487     0.0204      0.131      3.522      5.109        540 3.5378e+01   998.9954 0.0000e+00
      3.617    15.4332     7.8277     76.443  27.888983     34.240      6.582   279.8667     5.5128     1.4478     0.0204      0.117      3.548      5.146        541 3.4398e+01   999.0220 0.0000e+00
      3.645    15.2987     7.4010     72.235  27.961872     34.470      6.581   281.0024     5.4899     1.4766     0.0205      0.106      3.574      5.184        542 3.3481e+01   999.0459 0.0000e+00
      3.672    15.1956     6.9500     67.813  27.891583     34.481      6.583   281.0403     5.4555     1.4045     0.0204      0.102      3.600      5.222        543 3.2662e+01   999.0672 0.0000e+00
      3.697    15.0985     6.5125     63.464  27.917265     34.632      6.579   279.6396     5.5051     1.5199     0.0204      0.103      3.624      5.256        544 3.2072e+01   999.0882 0.0000e+00
      3.717    14.9639     6.0566     58.891  28.078075     34.929      6.579   279.7153     5.9820     1.5199     0.0205      0.103      3.644      5.286        545 3.1604e+01   999.1042 0.0000e+00
      3.735    14.8321     5.6609     54.915  28.195090     35.150      6.576   279.9424     5.9515     1.5055     0.0206      0.098      3.664      5.315        546 3.0934e+01   999.1192 0.0000e+00
      3.759    14.7170     5.2795     51.101  28.245653     35.341      6.577   280.3589     5.9705     1.5199     0.0206      0.095      3.686      5.348        547 3.0214e+01   999.1396 0.0000e+00
      3.784    14.5947     4.9567     47.893  28.252185     35.457      6.575   281.3431     5.9553     1.4766     0.0206      0.093      3.711      5.383        548 2.9560e+01   999.1596 0.0000e+00
      3.810    14.4730     4.6740     45.082  28.246259     35.560      6.572   281.6460     6.2910     1.5199     0.0206      0.092      3.736      5.418        549 2.8925e+01   999.1768 0.0000e+00
      3.834    14.3656     4.4231     42.583  28.253076     35.670      6.570   281.9110     6.2833     1.4622     0.0206      0.091      3.759      5.451        550 2.8378e+01   999.1948 0.0000e+00
      3.853    14.2896     4.1508     39.896  28.302996     35.851      6.570   281.5703     6.2948     1.5487     0.0206      0.089      3.779      5.481        551 2.7896e+01   999.2126 0.0000e+00
      3.873    14.2622     3.9123     37.534  28.361923     36.019      6.567   282.1381     6.2757     1.4622     0.0207      0.089      3.800      5.512        552 2.7261e+01   999.2282 0.0000e+00
      3.900    14.2482     3.6799     35.233  28.357523     36.090      6.563   282.8953     6.3978     1.5199     0.0207      0.090      3.823      5.546        553 2.6625e+01   999.2392 0.0000e+00
      3.923    14.1898     3.4507     32.990  28.367745     36.114      6.561   282.6682     6.3902     1.4478     0.0207      0.091      3.847      5.579        554 2.6089e+01   999.2432 0.0000e+00
      3.945    14.0906     3.2207     30.740  28.556582     36.375      6.559   283.4253     6.3902     1.4334     0.0208      0.090      3.869      5.611        555 2.5554e+01   999.2454 0.0000e+00
      3.968    13.9825     3.0124     28.694  28.774255     36.714      6.558   283.8796     6.3749     1.4334     0.0209      0.089      3.891      5.644        556 2.4935e+01   999.2539 0.0000e+00
      3.990    13.8830     2.8246     26.862  28.896726     36.952      6.556   286.7946     6.3978     1.4334     0.0209      0.089      3.912      5.674        557 2.4426e+01   999.2680 0.0000e+00
      4.009    13.8025     2.6180     24.853  28.967066     37.161      6.552   286.5674     6.4664     1.4622     0.0210      0.088      3.931      5.702        558 2.4021e+01   999.2832 0.0000e+00
      4.028    13.7231     2.4800     23.514  28.983004     37.257      6.547   287.1732     6.4588     1.5487     0.0210      0.087      3.951      5.731        559 2.3483e+01   999.2970 0.0000e+00
      4.051    13.6392     2.3579     22.342  29.025052     37.405      6.548   286.4539     6.4321     1.4478     0.0210      0.086      3.975      5.766        560 2.2786e+01   999.3082 0.0000e+00
      4.083    13.5644     2.2893     21.675  29.033271     37.482      6.541   286.9082     6.4550     1.4334     0.0210      0.087      4.003      5.806        561 2.2089e+01   999.3192 0.0000e+00
      4.111    13.4805     2.2603     21.386  29.032059     37.564      6.537   288.0817     6.8899     1.4334     0.0210      0.090      4.031      5.846        562 2.1572e+01   999.3307 0.0000e+00
      4.137    13.3908     2.2790     21.534  29.056217     37.673      6.531   292.3217     6.8632     1.5199     0.0210      0.093      4.058      5.885        563 2.0920e+01   999.3408 0.0000e+00
      4.166    13.3236     2.3186     21.874  29.092112     37.790      6.528   292.1703     6.8861     1.5487     0.0211      0.098      4.084      5.923        564 2.0325e+01   999.3521 0.0000e+00
      4.189    13.2484     2.3971     22.586  29.135546     37.953      6.522   292.4732     6.8556     1.5343     0.0211      0.101      4.106      5.955        565 2.0051e+01   999.3641 0.0000e+00
      4.204    13.1596     2.5050     23.577  28.972574     37.800      6.519   291.4132     5.7760     1.6785     0.0210      0.101      4.123      5.981        566 1.9695e+01   999.3729 0.0000e+00
      4.223    13.0853     2.6143     24.599  28.732092     37.545      6.516   291.7160     5.7912     1.7939     0.0209      0.098      4.138      6.002        567 1.9359e+01   999.3827 0.0000e+00
      4.234    13.0084     2.7283     25.674  28.546120     37.415      6.513   291.9432     5.7912     1.6785     0.0208      0.091      4.148      6.017        568 1.9362e+01   999.3942 0.0000e+00
      4.234    12.9532     2.8319     26.658  28.374568     37.229      6.506   292.5110     5.7760     1.6352     0.0207      0.077      4.153      6.024        569 1.9360e+01   999.4037 0.0000e+00
      4.239    12.9228     2.9362     27.670  28.471632     37.454      6.502   296.1453     4.0326     1.6208     0.0207      0.063      4.161      6.034        570 1.9133e+01   999.4135 0.0000e+00
      4.254    12.8894     3.0346     28.636  28.484602     37.545      6.499   296.0318     4.0288     1.6641     0.0207      0.053      4.178      6.059        571 1.8547e+01   999.4206 0.0000e+00
      4.287    12.8561     3.1158     29.434  28.269580     37.242      6.501   296.4860     4.0250     1.7650     0.0206      0.050      4.205      6.099        572 1.7850e+01   999.4244 0.0000e+00
      4.321    12.7985     3.1809     30.059  28.502248     37.609      6.496   297.0918     3.9945     1.6929     0.0207      0.055      4.236      6.144        573 1.7357e+01   999.4289 0.0000e+00
      4.351    12.7301     3.2280     30.497  28.906039     38.192      6.493   295.9560     3.9983     1.6785     0.0210      0.066      4.265      6.186        574 1.6763e+01   999.4335 0.0000e+00
      4.378    12.6720     3.2602     30.810  28.981674     38.326      6.487   296.0696     3.6626     1.9092     0.0210      0.078      4.287      6.217        575 1.6589e+01   999.4408 0.0000e+00
      4.385    12.6255     3.2795     30.984  29.000631     38.433      6.482   298.2653     3.6435     1.9092     0.0210      0.087      4.295      6.230        576 1.6781e+01   999.4493 0.0000e+00
      4.377    12.6122     3.2630     30.804  28.912099     38.379      6.477   299.5903     3.6473     1.9813     0.0210      0.086      4.294      6.228        577 1.6771e+01   999.4564 0.0000e+00
      4.376    12.6151     3.2626     30.735  28.854879     38.318      6.476   299.5903     3.6779     1.8948     0.0209      0.076      4.291      6.224        578 1.6822e+01   999.4620 0.0000e+00
      4.374    12.6313     3.2540     30.572  29.012607     38.589      6.471   299.7418     3.0980     1.9525     0.0210      0.058      4.289      6.221        579 1.6953e+01   999.4637 0.0000e+00
      4.371    12.6802     3.2435     30.376  29.041684     38.587      6.472   299.5525     3.0904     1.9236     0.0210      0.035      4.289      6.221        580 1.6841e+01   999.4634 0.0000e+00
      4.378    12.7389     3.2360     30.215  29.026065     38.571      6.468   299.8553     3.1133     2.0102     0.0210      0.018      4.294      6.228        581 1.6639e+01   999.4614 0.0000e+00
      4.387    12.7882     3.2270     30.059  29.091287     38.594      6.465   299.5146     3.1056     1.8660     0.0211      0.007      4.300      6.238        582 1.6559e+01   999.4555 0.0000e+00
      4.391    12.8016     3.2309     30.036  29.108622     38.571      6.464   298.3032     3.0370     1.8804     0.0211      0.004      4.305      6.244        583 1.6485e+01   999.4482 0.0000e+00
      4.392    12.7961     3.2516     30.167  29.034095     38.410      6.462   299.3253     3.0446     1.9381     0.0210      0.006      4.308      6.249        584 1.6497e+01   999.4421 0.0000e+00
      4.397    12.8026     3.2868     30.442  29.035893     38.394      6.459   299.6661     3.0713     2.0534     0.0210      0.012      4.315      6.258        585 1.6252e+01   999.4405 0.0000e+00
      4.410    12.7943     3.3148     30.658  29.076752     38.478      6.457   301.2939     3.0408     1.8804     0.0211      0.017      4.327      6.275        586 1.5926e+01   999.4412 0.0000e+00
      4.427    12.7541     3.3687     31.128  29.042496     38.392      6.454   301.6725     2.8043     1.8515     0.0210      0.024      4.345      6.301        587 1.5606e+01   999.4405 0.0000e+00
      4.453    12.6665     3.4225     31.600  29.078525     38.480      6.452   302.5054     2.7814     1.9525     0.0211      0.035      4.370      6.338        588 1.4946e+01   999.4417 0.0000e+00
      4.490    12.5434     3.4882     32.177  28.587554     37.887      6.448   298.1518     2.7890     1.8948     0.0208      0.048      4.399      6.381        589 1.4380e+01   999.4466 0.0000e+00
      4.514    12.4039     3.5478     32.681  27.876077     36.942      6.446   299.1361     2.8119     1.9813     0.0204      0.063      4.423      6.416        590 1.4180e+01   999.4572 0.0000e+00
      4.526    12.2703     3.6157     33.260  27.742199     36.986      6.442   300.0068     3.1896     2.1255     0.0203      0.074      4.442      6.443        591 1.3912e+01   999.4722 0.0000e+00
      4.549    12.1668     3.6529     33.569  27.687768     36.977      6.438   300.0068     3.1591     2.2265     0.0203      0.084      4.466      6.477        592 1.3301e+01   999.4891 0.0000e+00
      4.586    12.0770     3.6902     33.884  27.647640     37.109      6.438   302.8082     3.1705     2.2120     0.0203      0.094      4.500      6.526        593 1.2626e+01   999.5051 0.0000e+00
      4.630    11.9896     3.7136     34.064  27.555205     37.063      6.428   303.3004     3.1629     2.2120     0.0202      0.104      4.540      6.585        594 1.1955e+01   999.5174 0.0000e+00
      4.673    11.9134     3.7391     34.264  27.506616     37.075      6.423   303.5275     3.1705     2.1976     0.0202      0.114      4.578      6.641        595 1.1435e+01   999.5280 0.0000e+00
      4.703    11.8546     3.7622     34.448  27.648898     37.391      6.421   298.1518     2.2206     2.5004     0.0203      0.120      4.608      6.684        596 1.1218e+01   999.5382 0.0000e+00
      4.720    11.8124     3.7872     34.646  27.733643     37.543      6.418   299.0982     2.2473     2.5293     0.0203      0.122      4.631      6.717        597 1.0971e+01   999.5470 0.0000e+00
      4.745    11.7775     3.8040     34.779  27.756654     37.680      6.416   299.1361     2.2664     2.5437     0.0203      0.124      4.656      6.753        598 1.0485e+01   999.5538 0.0000e+00
      4.780    11.7352     3.8271     34.965  27.679529     37.570      6.413   301.5968     2.2664     2.5870     0.0203      0.127      4.685      6.796        599 1.0040e+01   999.5587 0.0000e+00
      4.807    11.6755     3.8475     35.126  27.711149     37.683      6.411   301.2561     1.5836     3.2935     0.0203      0.123      4.710      6.832        600 9.8342e+00   999.5627 0.0000e+00
      4.820    11.6151     3.8814     35.416  27.776564     37.800      6.410   301.8618     1.5836     3.1926     0.0203      0.113      4.728      6.858        601 9.6899e+00   999.5675 0.0000e+00
      4.839    11.5726     3.9078     35.639  27.983237     38.130      6.407   299.5903     1.5645     3.1493     0.0204      0.101      4.749      6.888        602 9.3493e+00   999.5743 0.0000e+00
      4.870    11.5361     3.9493     36.003  28.164926     38.497      6.409   299.5525     1.5836     3.1637     0.0206      0.095      4.775      6.926        603 8.9834e+00   999.5811 0.0000e+00
      4.900    11.4906     3.9985     36.456  27.846711     38.046      6.406   299.8932     1.5988     2.5149     0.0204      0.096      4.803      6.966        604 8.7378e+00   999.5857 0.0000e+00
      4.924    11.4481     4.0526     36.968  27.668312     37.854      6.401   299.8175     1.5950     2.5149     0.0203      0.097      4.826      7.000        605 8.4924e+00   999.5897 0.0000e+00
      4.940    11.4119     4.1081     37.453  27.764871     38.055      6.400   299.7418     1.5530     2.5870     0.0203      0.095      4.844      7.026        606 8.3702e+00   999.5948 0.0000e+00
      4.954    11.3760     4.1851     38.107  27.608070     37.870      6.396   302.0511     1.5797     2.6158     0.0202      0.089      4.861      7.050        607 8.1436e+00   999.5993 0.0000e+00
      4.976    11.3480     4.2661     38.790  27.804217     38.137      6.397   302.0132     1.7323     2.4428     0.0203      0.087      4.880      7.077        608 7.8676e+00   999.6034 0.0000e+00
      4.996    11.3179     4.3262     39.297  28.142871     38.751      6.396   300.9153     1.7056     2.1976     0.0206      0.086      4.897      7.102        609 7.7688e+00   999.6075 0.0000e+00
      5.008    11.2861     4.3891     39.828  27.867967     38.281      6.393   300.8396     1.6789     2.4139     0.0204      0.081      4.911      7.124        610 7.6319e+00   999.6104 0.0000e+00
      5.022    11.2617     4.4245     40.116  27.642746     38.082      6.391   300.8396     1.6942     2.4139     0.0203      0.073      4.924      7.142        611 7.5249e+00   999.6136 0.0000e+00
      5.033    11.2414     4.4659     40.463  27.504851     37.885      6.391   301.0668     1.5378     2.5293     0.0202      0.066      4.934      7.157        612 7.4386e+00   999.6169 0.0000e+00
      5.039    11.2229     4.4978     40.719  27.417509     37.795      6.388   300.9911     1.5149     2.6014     0.0201      0.060      4.942      7.168        613 7.4135e+00   999.6194 0.0000e+00
      5.045    11.2294     4.5328     41.005  27.484848     37.932      6.388   301.9375     1.5263     2.5437     0.0202      0.053      4.956      7.188        614 7.2534e+00   999.6216 0.0000e+00
      5.078    11.2482     4.5617     41.240  27.509925     37.950      6.385   302.8461     1.5187     2.5437     0.0202      0.053      4.988      7.235        615 6.7070e+00   999.6237 0.0000e+00
      5.139    11.2256     4.5480     41.104  27.297439     37.715      6.375   307.3889     1.5607     2.8177     0.0201      0.065      5.037      7.305        616 6.2030e+00   999.6232 0.0000e+00
      5.189    11.1700     4.4924     40.584  27.304945     37.575      6.375   306.1396     1.5263     2.7456     0.0200      0.084      5.083      7.372        617 5.9654e+00   999.6215 0.0000e+00
      5.218    11.1123     4.4082     39.798  27.470961     38.026      6.372   306.1775     1.5263     2.7311     0.0202      0.104      5.119      7.424        618 5.7917e+00   999.6240 0.0000e+00
      5.252    11.0656     4.3027     38.825  26.824252     37.002      6.370   306.4046     1.4806     2.7311     0.0197      0.122      5.155      7.477        619 5.5061e+00   999.6297 0.0000e+00
      5.303    11.0238     4.1808     37.706  26.717546     36.986      6.366   304.8525     1.5187     2.7600     0.0197      0.142      5.200      7.542        620 5.1678e+00   999.6359 0.0000e+00
      5.353    10.9877     4.0652     36.642  27.840761     38.580      6.364   305.0418     1.4691     2.7456     0.0204      0.161      5.247      7.611        621 4.8973e+00   999.6414 0.0000e+00
      5.396    10.9561     3.9697     35.758  28.803450     40.021      6.363   311.2882     1.4691     2.8465     0.0210      0.171      5.290      7.672        622 4.6552e+00   999.6463 0.0000e+00
      5.432    10.9218     3.8893     35.012  28.926198     40.177      6.359   309.8118     1.4272     2.7600     0.0210      0.170      5.326      7.724        623 4.4463e+00   999.6502 0.0000e+00
      5.463    10.8886     3.8408     34.557  28.606355     39.785      6.356   309.5847     1.4539     2.7888     0.0208      0.162      5.356      7.768        624 4.3045e+00   999.6534 0.0000e+00
      5.487    10.8627     3.7999     34.176  28.520137     39.668      6.355   309.8497     1.0800     2.9907     0.0208      0.155      5.381      7.805        625 4.2076e+00   999.6570 0.0000e+00
      5.511    10.8489     3.7488     33.703  28.707638     40.015      6.355   307.7675     1.0800     2.9763     0.0209      0.149      5.407      7.842        626 4.0507e+00   999.6605 0.0000e+00
      5.544    10.8301     3.7058     33.308  28.728520     40.046      6.353   308.3354     1.0953     2.9763     0.0209      0.139      5.437      7.885        627 3.8612e+00   999.6632 0.0000e+00
      5.575    10.8034     3.6792     33.058  28.553409     39.826      6.350   308.5625     1.0686     2.9619     0.0208      0.127      5.467      7.930        628 3.7519e+00   999.6646 0.0000e+00
      5.606    10.7798     3.6730     32.988  28.421956     39.653      6.347   314.5818     0.9541     3.3368     0.0207      0.119      5.500      7.977        629 3.6236e+00   999.6666 0.0000e+00
      5.646    10.7583     3.6880     33.110  29.010622     40.462      6.342   314.6575     0.9732     3.2791     0.0211      0.118      5.538      8.032        630 3.4291e+00   999.6697 0.0000e+00
      5.689    10.7335     3.7142     33.340  29.716828     41.620      6.337   314.8468     0.9808     3.2214     0.0215      0.123      5.578      8.090        631 3.2484e+00   999.6726 0.0000e+00
      5.728    10.7057     3.7524     33.676  29.172479     40.747      6.335   312.9161     0.9541     3.0916     0.0212      0.131      5.616      8.145        632 3.0988e+00   999.6746 0.0000e+00
      5.762    10.6791     3.8123     34.205  28.562308     39.955      6.331   312.8025     0.8893     3.9712     0.0208      0.138      5.648      8.192        633 3.0152e+00   999.6769 0.0000e+00
      5.787    10.6574     3.8674     34.691  28.491314     39.908      6.329   312.4240     0.9084     4.0001     0.0208      0.140      5.673      8.228        634 2.9442e+00   999.6797 0.0000e+00
      5.806    10.6396     3.9223     35.174  28.372106     39.742      6.325   314.3925     0.9084     3.8559     0.0207      0.136      5.693      8.257        635 2.8944e+00   999.6824 0.0000e+00
      5.824    10.6238     3.9529     35.444  28.295933     39.688      6.322   315.3011     0.9160     3.8271     0.0207      0.127      5.713      8.286        636 2.8583e+00   999.6845 0.0000e+00
      5.848    10.6119     3.9691     35.587  28.319504     39.708      6.325   315.7932     0.8969     3.8126     0.0207      0.117      5.739      8.323        637 2.7116e+00   999.6863 0.0000e+00
      5.886    10.5975     3.9805     35.687  28.342782     39.804      6.322   316.3990     0.7825     5.2546     0.0207      0.109      5.773      8.373        638 2.5771e+00   999.6881 0.0000e+00
      5.927    10.5782     3.9780     35.666  28.089230     39.425      6.317   316.7397     0.7977     5.3411     0.0205      0.107      5.808      8.423        639 2.5149e+00   999.6893 0.0000e+00
      5.953    10.5627     3.9745     35.639  27.983329     39.284      6.316   315.3390     0.7863     5.1969     0.0205      0.107      5.834      8.461        640 2.4819e+00   999.6908 0.0000e+00
      5.965    10.5548     3.9640     35.546  28.119093     39.541      6.312   315.2632     0.7901     5.2546     0.0206      0.106      5.851      8.486        641 2.4496e+00   999.6928 0.0000e+00
      5.980    10.5464     3.9369     35.304  28.157268     39.559      6.310   315.3011     0.8397     5.2546     0.0206      0.104      5.868      8.512        642 2.3725e+00   999.6943 0.0000e+00
      6.008    10.5368     3.8963     34.931  28.232064     39.724      6.311   316.8154     0.8549     5.2979     0.0206      0.103      5.893      8.547        643 2.2755e+00   999.6952 0.0000e+00
      6.038    10.5268     3.8390     34.403  28.026017     39.419      6.309   316.5504     0.8473     5.2114     0.0205      0.102      5.920      8.586        644 2.2157e+00   999.6961 0.0000e+00
      6.064    10.5148     3.7862     33.919  27.850846     39.155      6.308   316.9668     0.8168     5.2402     0.0204      0.099      5.947      8.626        645 2.1820e+00   999.6970 0.0000e+00
      6.093    10.5092     3.7292     33.396  28.005712     39.441      6.307   317.7618     0.6833     7.4032     0.0205      0.095      5.976      8.669        646 2.0930e+00   999.6982 0.0000e+00
      6.129    10.5067     3.6688     32.841  28.396141     39.926      6.304   317.8754     0.6871     7.3743     0.0207      0.097      6.006      8.711        647 2.0006e+00   999.6997 0.0000e+00
      6.151    10.5031     3.6333     32.510  28.846162     40.679      6.304   313.2568     0.6985     7.3455     0.0210      0.102      6.029      8.743        648 1.9927e+00   999.7005 0.0000e+00
      6.162    10.5061     3.6155     32.343  28.867632     40.603      6.300   314.8847     0.6833     7.3166     0.0210      0.104      6.045      8.767        649 1.9324e+00   999.7008 0.0000e+00
      6.180    10.5106     3.6267     32.439  28.813788     40.608      6.300   314.9982     0.6680     7.7492     0.0210      0.101      6.062      8.792        650 1.8321e+00   999.7013 0.0000e+00
      6.202    10.5126     3.6723     32.845  28.735423     40.447      6.299   315.1497     0.6947     7.7781     0.0209      0.095      6.083      8.822        651 1.7753e+00   999.7011 0.0000e+00
      6.227    10.5132     3.7402     33.453  28.609661     40.284      6.297   317.6104     0.6757     7.7637     0.0208      0.090      6.107      8.857        652 1.7327e+00   999.7007 0.0000e+00
      6.255    10.5024     3.8251     34.220  28.555555     40.204      6.295   317.9890     0.6947     7.7781     0.0208      0.088      6.135      8.897        653 1.6958e+00   999.7006 0.0000e+00
      6.285    10.4855     3.9290     35.154  28.565763     40.202      6.296   318.1025     0.6833     7.3743     0.0208      0.087      6.165      8.941        654 1.5948e+00   999.7007 0.0000e+00
      6.319    10.4717     4.0217     35.978  28.330341     39.940      6.293   312.1211     0.6795     7.3022     0.0207      0.091      6.198      8.989        655 1.4997e+00   999.7018 0.0000e+00
      6.357    10.4557     4.1088     36.754  27.870952     39.212      6.290   313.7868     0.6757     7.3022     0.0204      0.102      6.232      9.038        656 1.4289e+00   999.7034 0.0000e+00
      6.389    10.4367     4.1704     37.308  27.685914     39.069      6.289   314.2790     0.6833     7.3166     0.0203      0.113      6.261      9.080        657 1.4081e+00   999.7047 0.0000e+00
      6.407    10.4204     4.2096     37.665  27.523809     38.772      6.285   314.2790     0.6947     7.3166     0.0202      0.117      6.281      9.110        658 1.3692e+00   999.7062 0.0000e+00
      6.420    10.4098     4.2312     37.865  27.480236     38.793      6.287   316.7018     0.6184     5.7593     0.0202      0.115      6.294      9.129        659 1.3424e+00   999.7080 0.0000e+00
      6.429    10.4042     4.2409     37.963  27.562408     38.890      6.283   316.7018     0.6070     5.8170     0.0202      0.106      6.303      9.142        660 1.3627e+00   999.7097 0.0000e+00
      6.432    10.4011     4.2353     37.926  27.599291     38.980      6.282   311.8182     0.6184     5.7881     0.0202      0.091      6.308      9.149        661 1.3308e+00   999.7107 0.0000e+00
      6.437    10.4023     4.2164     37.769  27.612077     38.987      6.282   311.9697     0.6261     5.7737     0.0202      0.073      6.312      9.154        662 1.3467e+00   999.7112 0.0000e+00
      6.439    10.4120     4.1979     37.610  27.605742     38.989      6.280   311.7804     0.5765     6.1919     0.0202      0.054      6.315      9.159        663 1.3397e+00   999.7115 0.0000e+00
      6.443    10.4173     4.1720     37.367  27.607176     38.989      6.281   311.8182     0.5727     6.3649     0.0202      0.037      6.318      9.164        664 1.3221e+00   999.7114 0.0000e+00
      6.447    10.4115     4.1480     37.125  27.610294     38.978      6.282   313.3704     0.5459     6.2063     0.0202      0.025      6.322      9.169        665 1.3180e+00   999.7105 0.0000e+00
      6.449    10.4072     4.1212     36.863  27.601861     38.972      6.282   313.5218     0.5383     6.0765     0.0202      0.019      6.325      9.174        666 1.3127e+00   999.7100 0.0000e+00
      6.452    10.4107     4.0925     36.593  27.676914     39.057      6.281   313.5975     0.5498     6.2207     0.0203      0.015      6.328      9.179        667 1.3188e+00   999.7106 0.0000e+00
      6.459    10.4182     4.0612     36.302  27.753874     39.220      6.279   313.2190     0.5612     6.1631     0.0203      0.014      6.333      9.186        668 1.3027e+00   999.7111 0.0000e+00
      6.464    10.4263     4.0425     36.126  27.802316     39.216      6.279   311.7425     0.5612     6.1775     0.0203      0.015      6.338      9.192        669 1.2801e+00   999.7108 0.0000e+00
      6.466    10.4383     4.0512     36.199  27.853613     39.365      6.281   311.4397     0.5765     6.2207     0.0204      0.015      6.341      9.196        670 1.2744e+00   999.7101 0.0000e+00
      6.466    10.4532     4.0746     36.410  27.927020     39.356      6.281   311.5911     0.6108     5.8747     0.0204      0.014      6.342      9.199        671 1.3045e+00   999.7094 0.0000e+00
      6.469    10.4667     4.1278     36.888  27.918322     39.461      6.280   312.0832     0.6032     6.0765     0.0205      0.013      6.347      9.206        672 1.2650e+00   999.7083 0.0000e+00
      6.483    10.4744     4.1948     37.479  27.953302     39.326      6.281   313.4461     0.6222     5.8891     0.0204      0.016      6.360      9.224        673 1.2140e+00   999.7070 0.0000e+00
      6.504    10.4613     4.2693     38.132  28.001977     39.587      6.277   313.2190     0.6032     5.9900     0.0205      0.022      6.377      9.249        674 1.1960e+00   999.7059 0.0000e+00
      6.521    10.4317     4.3529     38.864  27.443025     38.594      6.278   315.0740     0.5803     5.6872     0.0201      0.029      6.395      9.275        675 1.1872e+00   999.7049 0.0000e+00
      6.538    10.4057     4.4171     39.425  27.108517     38.254      6.276   314.2032     0.5383     5.6007     0.0200      0.038      6.413      9.302        676 1.1487e+00   999.7061 0.0000e+00
      6.561    10.3891     4.4629     39.827  27.144492     38.287      6.278   314.7332     0.5536     5.7593     0.0200      0.049      6.437      9.336        677 1.0665e+00   999.7090 0.0000e+00
      6.593    10.3771     4.4781     39.959  27.072420     38.236      6.277   314.4304     0.5536     5.7737     0.0199      0.063      6.463      9.375        678 1.0150e+00   999.7116 0.0000e+00
      6.618    10.3664     4.4728     39.907  27.079732     38.254      6.275   313.7868     0.5421     5.7160     0.0199      0.076      6.488      9.410        679 1.0110e+00   999.7132 0.0000e+00
      6.636    10.3609     4.4251     39.477  27.076154     38.267      6.272   314.3168     0.6833     5.8602     0.0199      0.084      6.508      9.439        680 9.9527e-01   999.7144 0.0000e+00
      6.654    10.3634     4.3471     38.778  27.165743     38.397      6.268   318.7461     0.6680     5.8747     0.0200      0.087      6.525      9.464        681 9.5026e-01   999.7156 0.0000e+00
      6.672    10.3652     4.2244     37.683  27.175598     38.442      6.271   316.9668     0.6757     5.9612     0.0200      0.087      6.544      9.491        682 9.3670e-01   999.7162 0.0000e+00
      6.693    10.3570     4.0688     36.297  27.152757     38.361      6.268   317.0425     0.6909     6.0044     0.0200      0.086      6.564      9.521        683 9.1466e-01   999.7161 0.0000e+00
      6.715    10.3424     3.8997     34.791  27.223791     38.516      6.268   317.3454     0.6985     5.6728     0.0200      0.085      6.588      9.556        684 8.8169e-01   999.7160 0.0000e+00
      6.748    10.3267     3.7476     33.436  27.442668     38.762      6.265   318.1404     0.7024     5.6728     0.0201      0.085      6.620      9.603        685 8.1607e-01   999.7170 0.0000e+00
      6.790    10.3136     3.5963     32.086  28.065284     39.726      6.263   316.3990     0.7214     5.7449     0.0205      0.090      6.659      9.659        686 7.4928e-01   999.7189 0.0000e+00
      6.833    10.3060     3.4744     30.995  28.611459     40.495      6.259   316.2854     0.7252     5.6728     0.0209      0.102      6.699      9.716        687 7.1753e-01   999.7208 0.0000e+00
      6.869    10.3016     3.3779     30.131  28.895880     40.905      6.251   322.3426     0.6337     5.7593     0.0210      0.115      6.735      9.768        688 6.8995e-01   999.7223 0.0000e+00
      6.900    10.2975     3.3034     29.465  29.399929     41.625      6.251   321.4340     0.6222     5.7593     0.0213      0.126      6.765      9.813        689 6.5521e-01   999.7234 0.0000e+00
      6.928    10.2928     3.2410     28.906  29.346930     41.630      6.247   321.0933     0.5955     5.6728     0.0213      0.133      6.795      9.857        690 6.1267e-01   999.7239 0.0000e+00
      6.961    10.2890     3.2028     28.564  28.843341     40.765      6.244   321.1690     0.6184     5.7593     0.0210      0.137      6.828      9.903        691 5.7757e-01   999.7243 0.0000e+00
      6.999    10.2877     3.1473     28.069  28.871261     40.968      6.241   318.9354     0.5612     5.1825     0.0210      0.138      6.863      9.953        692 5.6758e-01   999.7248 0.0000e+00
      7.034    10.2897     3.0857     27.520  29.134432     41.210      6.236   319.0111     0.5536     5.2834     0.0211      0.136      6.895     10.001        693 5.3690e-01   999.7254 0.0000e+00
      7.060    10.2934     3.0143     26.884  29.700841     42.121      6.236   318.8975     0.5727     5.2979     0.0215      0.131      6.923     10.041        694 5.1745e-01   999.7260 0.0000e+00
      7.083    10.2964     2.9359     26.183  30.299427     42.910      6.233   322.0397     0.5421     5.1969     0.0219      0.125      6.949     10.078        695 5.0923e-01   999.7262 0.0000e+00
      7.114    10.2953     2.8671     25.568  30.226319     42.866      6.231   321.7747     0.5192     4.1587     0.0219      0.122      6.979     10.122        696 4.6424e-01   999.7260 0.0000e+00
      7.152    10.2910     2.8173     25.124  30.473231     43.060      6.229   321.5854     0.4811     4.1010     0.0219      0.123      7.013     10.172        697 4.4228e-01   999.7259 0.0000e+00
      7.189    10.2872     2.8024     24.991  31.206874     44.327      6.228   320.6390     0.4849     4.2020     0.0225      0.124      7.047     10.221        698 4.3934e-01   999.7266 0.0000e+00
      7.216    10.2835     2.7979     24.951  31.357617     44.333      6.225   320.6768     0.4887     4.1010     0.0225      0.123      7.075     10.261        699 4.2838e-01   999.7272 0.0000e+00
      7.237    10.2801     2.8156     25.109  31.411491     44.574      6.224   320.5633     0.4697     4.0866     0.0226      0.119      7.100     10.297        700 3.9263e-01   999.7277 0.0000e+00
      7.267    10.2790     2.8409     25.335  31.406485     44.461      6.219   319.6168     0.4468     4.1299     0.0225      0.118      7.129     10.339        701 3.8309e-01   999.7281 0.0000e+00
      7.303    10.2792     2.8821     25.703  31.186078     44.227      6.216   321.3204     0.4239     4.0578     0.0224      0.120      7.159     10.384        702 3.6337e-01   999.7284 0.0000e+00
      7.330    10.2795     2.9402     26.222  30.678433     43.477      6.213   320.9797     0.4391     4.0289     0.0221      0.120      7.187     10.425        703 3.2420e-01   999.7285 0.0000e+00
      7.355    10.2796     2.9914     26.679  30.290210     42.883      6.212   319.8818     0.4697     4.1299     0.0219      0.116      7.212     10.461        704 3.2794e-01   999.7284 0.0000e+00
      7.379    10.2784     3.0362     27.079  30.721136     43.556      6.210   319.3897     0.5574     5.6439     0.0222      0.111      7.235     10.494        705 3.4141e-01   999.7287 0.0000e+00
      7.400    10.2761     3.0580     27.275  31.356883     44.426      6.210   318.7840     0.5536     5.7449     0.0225      0.107      7.258     10.527        706 3.0309e-01   999.7291 0.0000e+00
      7.426    10.2754     3.0621     27.311  31.335952     44.467      6.208   316.9668     0.5345     5.6439     0.0225      0.105      7.283     10.564        707 2.8236e-01   999.7293 0.0000e+00
      7.454    10.2761     3.0450     27.157  30.036140     42.570      6.205   318.1404     0.5269     5.6728     0.0217      0.104      7.310     10.604        708 2.9194e-01   999.7290 0.0000e+00
      7.485    10.2766     3.0130     26.871  29.330350     41.463      6.204   317.8754     0.5612     6.2352     0.0212      0.102      7.340     10.645        709 2.7516e-01   999.7289 0.0000e+00
      7.514    10.2764     2.9853     26.620  30.347803     43.085      6.204   317.6483     0.5536     6.2496     0.0219      0.102      7.368     10.685        710 2.8948e-01   999.7295 0.0000e+00
      7.538    10.2767     2.9405     26.217  31.169699     44.153      6.199   318.7083     0.5498     6.1342     0.0224      0.103      7.393     10.723        711 2.7718e-01   999.7299 0.0000e+00
      7.564    10.2777     2.9027     25.877  31.388728     44.509      6.196   318.4054     0.5498     6.1631     0.0226      0.105      7.419     10.760        712 2.4228e-01   999.7301 0.0000e+00
      7.592    10.2786     2.8763     25.639  31.438108     44.548      6.197   314.9982     0.6489     7.3166     0.0226      0.106      7.444     10.796        713 2.3106e-01   999.7303 0.0000e+00
      7.614    10.2791     2.8443     25.352  31.404530     44.507      6.194   315.5661     0.6184     7.3166     0.0226      0.106      7.466     10.828        714 2.3199e-01   999.7303 0.0000e+00
      7.632    10.2801     2.8271     25.198  31.400886     44.506      6.192   315.6797     0.6184     7.2734     0.0226      0.103      7.486     10.857        715 2.1611e-01   999.7303 0.0000e+00
      7.654    10.2814     2.8035     24.987  31.413015     44.506      6.188   315.2632     0.6032     7.3455     0.0226      0.098      7.507     10.887        716 1.9780e-01   999.7304 0.0000e+00
      7.678    10.2808     2.7750     24.730  31.507949     44.663      6.188   316.5882     0.6375     8.9749     0.0226      0.093      7.528     10.919        717 2.1664e-01   999.7305 0.0000e+00
      7.699    10.2802     2.7446     24.459  31.579026     44.740      6.187   316.4368     0.6451     9.0470     0.0227      0.090      7.549     10.949        718 2.0173e-01   999.7304 0.0000e+00
      7.717    10.2779     2.7108     24.158  31.650476     44.860      6.186   312.8782     0.6375     8.9749     0.0227      0.087      7.570     10.979        719 1.9117e-01   999.7306 0.0000e+00
      7.741    10.2727     2.6752     23.839  31.685690     44.900      6.186   314.0518     0.5917     8.9028     0.0227      0.085      7.595     11.017        720 1.7318e-01   999.7308 0.0000e+00
      7.780    10.2665     2.6495     23.608  31.683347     44.903      6.184   313.5975     0.6032     9.0470     0.0227      0.088      7.630     11.067        721 1.2910e-01   999.7312 0.0000e+00
      7.821    10.2609     2.6182     23.327  31.890425     45.186      6.181   313.9004     0.5536     9.3210     0.0229      0.097      7.666     11.119        722 1.2958e-01   999.7320 0.0000e+00
      7.849    10.2572     2.5897     23.072  32.079829     45.511      6.175   315.0361     0.5688     9.4363     0.0230      0.105      7.698     11.166        723 1.2722e-01   999.7328 0.0000e+00
      7.881    10.2548     2.5532     22.746  32.069853     45.439      6.176   315.0740     0.5459     9.3210     0.0230      0.113      7.733     11.216        724 1.2296e-01   999.7334 0.0000e+00
      7.927    10.2533     2.5321     22.557  32.080617     45.523      6.169   314.9982     0.5383     9.3931     0.0230      0.123      7.774     11.276        725 1.2481e-01   999.7340 0.0000e+00
      7.976    10.2507     2.4964     22.238  32.036806     45.408      6.168   313.0297     0.6070     9.8113     0.0229      0.137      7.818     11.338        726 1.2265e-01   999.7344 0.0000e+00
      8.011    10.2469     2.4650     21.960  32.242896     45.726      6.164   313.1054     0.6108     9.8401     0.0231      0.146      7.853     11.389        727 1.2399e-01   999.7348 0.0000e+00
      8.035    10.2458     2.4463     21.796  32.505627     46.126      6.162   313.8625     0.6146     9.8545     0.0233      0.147      7.883     11.433        728 1.2305e-01   999.7353 0.0000e+00
      8.070    10.2462     2.4198     21.562  32.420956     45.972      6.162   313.6732     0.5955     9.7392     0.0232      0.145      7.919     11.485        729 1.2354e-01   999.7358 0.0000e+00
      8.121    10.2434     2.4070     21.449  32.407528     45.974      6.159   313.6354     0.6489    10.8206     0.0232      0.147      7.962     11.548        730 1.2328e-01   999.7361 0.0000e+00
      8.165    10.2391     2.3940     21.332  32.581602     46.210      6.156   313.7490     0.6451    10.8495     0.0233      0.152      8.003     11.607        731 1.2355e-01   999.7363 0.0000e+00
      8.195    10.2362     2.3894     21.289  32.648776     46.333      6.152   313.4840     0.6261    10.7630     0.0233      0.152      8.036     11.655        732 1.2341e-01   999.7368 0.0000e+00
      8.223    10.2340     2.3774     21.179  32.649863     46.299      6.151   313.2947     0.6184    10.7774     0.0233      0.146      8.068     11.701        733 1.2333e-01   999.7373 0.0000e+00
      8.264    10.2324     2.3722     21.132  32.758035     46.501      6.150   313.2190     0.5269    11.8589     0.0234      0.144      8.103     11.753        734 1.2323e-01   999.7378 0.0000e+00
      8.302    10.2307     2.3798     21.198  32.840097     46.583      6.147   313.1432     0.5498    11.8589     0.0234      0.146      8.135     11.798        735 1.2331e-01   999.7382 0.0000e+00
      8.318    10.2298     2.3757     21.161  32.814414     46.586      6.146   313.1054     0.5574    11.8877     0.0234      0.142      8.151     11.822        736 1.2329e-01   999.7385 0.0000e+00
      8.314    10.2317     2.3839     21.233  32.789996     46.508      6.144   313.4461     0.5536    11.8877     0.0234      0.125      8.152     11.824        737 1.2330e-01   999.7386 0.0000e+00
      8.308    10.2360     2.3793     21.191  32.811222     46.589      6.144   313.8625     0.5459    12.0607     0.0234      0.099      8.149     11.819        738 1.2340e-01   999.7387 0.0000e+00
      8.309    10.2411     2.3856     21.246  32.788000     46.507      6.143   313.4461     0.5498    11.9886     0.0234      0.075      8.151     11.821        739 1.2344e-01   999.7385 0.0000e+00
      8.317    10.2433     2.3811     21.206  32.759634     46.502      6.144   313.4461     0.5688    12.1040     0.0234      0.055      8.161     11.836        740 1.2353e-01   999.7380 0.0000e+00
      8.341    10.2411     2.3769     21.167  32.787259     46.495      6.142   313.0675     0.5536    12.1040     0.0234      0.041      8.181     11.866        741 1.2349e-01   999.7377 0.0000e+00
      8.370    10.2367     2.3697     21.101  32.812881     46.571      6.142   313.1432     0.5459    12.0896     0.0234      0.035      8.206     11.902        742 1.2323e-01   999.7377 0.0000e+00
      8.394    10.2316     2.3500     20.925  32.846270     46.574      6.140   313.0675     0.5994    12.1040     0.0234      0.038      8.230     11.937        743 1.2342e-01   999.7380 0.0000e+00
      8.413    10.2282     2.3287     20.734  32.923491     46.738      6.141   313.5597     0.6184    12.0319     0.0235      0.051      8.253     11.970        744 1.2350e-01   999.7386 0.0000e+00
      8.441    10.2265     2.3124     20.586  32.835305     46.587      6.138   313.9004     0.6222    12.1328     0.0234      0.069      8.283     12.013        745 1.2339e-01   999.7391 0.0000e+00
      8.484    10.2245     2.2946     20.424  32.837497     46.591      6.139   313.7868     0.6032    12.0607     0.0234      0.088      8.320     12.066        746 1.2329e-01   999.7396 0.0000e+00
      8.525    10.2222     2.2637     20.145  33.098551     46.989      6.134   313.9761     0.5994    11.9310     0.0236      0.105      8.355     12.118        747 1.2309e-01   999.7401 0.0000e+00
      8.550    10.2200     2.2381     19.913  33.191938     47.111      6.134   314.3547     0.6108    11.8877     0.0237      0.115      8.383     12.158        748 1.2319e-01   999.7404 0.0000e+00
      8.568    10.2186     2.1892     19.474  33.225004     47.154      6.132   313.7490     0.6222    11.8156     0.0237      0.117      8.406     12.192        749 1.2332e-01   999.7408 0.0000e+00
      8.596    10.2180     2.1277     18.926  33.235187     47.196      6.130   313.8247     0.6375    11.9165     0.0237      0.117      8.435     12.234        750 1.2344e-01   999.7411 0.0000e+00
      8.640    10.2155     2.0202     17.969  33.268160     47.198      6.129   314.0140     0.6757    11.8589     0.0237      0.121      8.473     12.289        751 1.2346e-01   999.7415 0.0000e+00
      8.685    10.2121     1.8727     16.657  33.391392     47.437      6.126   314.3547     0.6718    11.8733     0.0238      0.127      8.513     12.346        752 1.2334e-01   999.7418 0.0000e+00
      8.716    10.2115     1.7016     15.134  33.378143     47.361      6.126   314.4682     0.6757    11.8300     0.0238      0.129      8.544     12.392        753 1.2331e-01   999.7421 0.0000e+00
      8.737    10.2086     1.5047     13.384  33.343912     47.366      6.124   314.5818     0.6909    11.8877     0.0238      0.126      8.569     12.428        754 1.2335e-01   999.7424 0.0000e+00
      8.761    10.2023     1.2948     11.518  33.433992     47.446      6.123   312.9540     0.6375    12.9548     0.0238      0.124      8.595     12.465        755 1.2324e-01   999.7427 0.0000e+00
      8.793    10.1959     1.0968      9.757  33.443829     47.529      6.120   313.3325     0.6261    12.9403     0.0238      0.125      8.626     12.510        756 1.2330e-01   999.7432 0.0000e+00
      8.833    10.1870     0.9433      8.391  33.716882     47.815      6.118   313.5597     0.6108    12.9980     0.0240      0.127      8.664     12.564        757 1.2341e-01   999.7440 0.0000e+00
      8.875    10.1772     0.8276      7.361  34.131303     48.577      6.118   313.7490     0.6108    12.9980     0.0243      0.128      8.700     12.618        758 1.2334e-01   999.7450 0.0000e+00
      8.905    10.1699     0.7568      6.730  33.994846     48.233      6.114   313.7868     0.6375    13.7479     0.0241      0.126      8.728     12.660        759 1.2331e-01   999.7459 0.0000e+00
      8.920    10.1654     0.7308      6.498  33.916332     48.246      6.115   313.9382     0.6184    13.6181     0.0241      0.122      8.747     12.687        760 1.2328e-01   999.7469 0.0000e+00
      8.934    10.1640     0.7326      6.514  34.051221     48.376      6.114   313.7111     0.6337    13.7190     0.0242      0.117      8.765     12.712        761 1.2331e-01   999.7476 0.0000e+00
      8.959    10.1641     0.7428      6.604  34.123307     48.540      6.112   312.8025     0.6184    13.6325     0.0243      0.113      8.789     12.747        762 1.2336e-01   999.7482 0.0000e+00
      8.994    10.1640     0.7457      6.629  34.211846     48.622      6.112   312.6132     0.5879    13.8776     0.0243      0.109      8.821     12.793        763 1.2335e-01   999.7485 0.0000e+00
      9.031    10.1657     0.7223      6.420  34.474424     49.018      6.111   312.3861     0.6108    13.8776     0.0245      0.106      8.855     12.843        764 1.2337e-01   999.7488 0.0000e+00
      9.062    10.1685     0.6803      6.047  34.596621     49.217      6.108   312.6890     0.6222    13.8921     0.0246      0.104      8.886     12.889        765 1.2340e-01   999.7491 0.0000e+00
      9.092    10.1694     0.6141      5.458  34.385737     48.857      6.107   312.8782     0.6032    13.8488     0.0244      0.106      8.916     12.932        766 1.2323e-01   999.7490 0.0000e+00
      9.123    10.1666     0.5477      4.869  34.322003     48.814      6.105   315.1497     0.5955    13.7479     0.0244      0.112      8.946     12.975        767 1.2325e-01   999.7488 0.0000e+00
      9.152    10.1594     0.4736      4.210  34.883369     49.527      6.104   313.5597     0.6642    14.2670     0.0247      0.119      8.974     13.016        768 1.2335e-01   999.7492 0.0000e+00
      9.178    10.1523     0.3920      3.483  36.680190     52.152      6.104   313.5218     0.6909    14.4400     0.0258      0.122      9.000     13.054        769 1.2327e-01   999.7504 0.0000e+00
      9.204    10.1478     0.3277      2.912  37.034916     52.837      6.101   312.9540     0.7062    14.3246     0.0261      0.120      9.025     13.091        770 1.2332e-01   999.7513 0.0000e+00
      9.228    10.1446     0.2729      2.425  36.338564     51.419      6.100   311.0232     0.6757    14.3391     0.0255      0.114      9.051     13.127        771 1.2337e-01   999.7518 0.0000e+00
      9.256    10.1428     0.2380      2.115  37.813561     53.967      6.100   310.8718     0.6757    14.6563     0.0266      0.110      9.077     13.165        772 1.2336e-01   999.7530 0.0000e+00
      9.284    10.1395     0.2006      1.783  36.918246     52.622      6.097   317.9133     0.6680    14.5554     0.0260      0.107      9.103     13.202        773 1.2340e-01   999.7530 0.0000e+00
      9.306    10.1361     0.1730      1.538  38.134386     53.697      6.096   315.6797     0.6680    14.6707     0.0265      0.105      9.124     13.233        774 1.2352e-01   999.7538 0.0000e+00
      9.321    10.1341     0.1537      1.366  38.285859     55.570      6.096   315.4904     0.6909    14.4256     0.0273      0.099      9.140     13.256        775 1.2357e-01   999.7543 0.0000e+00
      9.334    10.1323     0.1430      1.271  40.493830     55.814      6.094   311.6289     0.5459    15.0745     0.0274      0.093      9.155     13.278        776 1.2341e-01   999.7558 0.0000e+00
      9.352    10.1329     0.1324      1.177  39.091635     58.440      6.095   311.0989     0.5612    15.0745     0.0286      0.086      9.175     13.306        777 1.2340e-01   999.7553 0.0000e+00
      9.381    10.1292     0.1281      1.139  47.293365     62.698      6.091   320.3361     0.5345    14.9591     0.0305      0.083      9.202     13.346        778 1.2349e-01   999.7597 0.0000e+00
      9.417    10.1207     0.1165      1.036  76.539458    113.593      6.092   318.8218     0.5688    15.0745     0.0534      0.085      9.234     13.392        779 1.2330e-01   999.7745 0.0000e+00
      9.450    10.1170     0.1026      0.912  81.712398    113.526      6.084   313.4461     0.6032    15.4494     0.0534      0.089      9.262     13.434        780 1.2325e-01   999.7777 0.0000e+00
      9.468    10.1169     0.1008      0.897  76.966636    111.243      6.077   317.1182     0.6184    15.4782     0.0523      0.092      9.282     13.462        781 1.2333e-01   999.7762 0.0000e+00
      9.476    10.1190     0.0904      0.804  75.258948    106.315      6.063   317.1182     0.6222    15.4350     0.0501      0.093      9.294     13.479        782 1.2334e-01   999.7757 0.0000e+00
      9.488    10.1242     0.0777      0.691  74.513294    105.995      6.046   316.7397     0.6261    15.3629     0.0499      0.091      9.307     13.498        783 1.2329e-01   999.7753 0.0000e+00
      9.507    10.1258     0.0709      0.630  88.647807    125.995      6.032   314.0897     0.5612    15.7522     0.0591      0.088      9.324     13.522        784 1.2320e-01   999.7825 0.0000e+00
      9.526    10.1237     0.0694      0.618 101.221426    144.714      6.016   313.0675     0.5612    15.6801     0.0677      0.081      9.340     13.546        785 1.2327e-01   999.7886 0.0000e+00
      9.539    10.1205     0.0727      0.648 104.331265    148.217      6.002   314.7711     0.5612    15.7666     0.0693      0.071      9.352     13.565        786 1.2338e-01   999.7901 0.0000e+00
      9.547    10.1200     0.0806      0.720 105.288471    149.981      5.991   308.2975     0.5688    15.7378     0.0701      0.061      9.362     13.577        787 1.2342e-01   999.7908 0.0000e+00
      9.553    10.1277     0.0983      0.880 106.304349    151.391      5.981   310.2661     0.5574    15.6657     0.0708      0.053      9.368     13.587        788 1.2333e-01   999.7917 0.0000e+00
      9.558    10.1398     0.1113      0.997 106.338109    151.235      5.976   313.2190     0.6032    16.4155     0.0707      0.048      9.372     13.593        789 1.2323e-01   999.7918 0.0000e+00
      9.560    10.1499     0.1243      1.115 106.287278    151.519      5.969   307.3132     0.5994    16.3723     0.0708      0.043      9.375     13.597        790 1.2326e-01   999.7911 0.0000e+00
      9.562    10.1516     0.1356      1.217 104.761797    148.837      5.965   309.2439     0.6070    16.3146     0.0696      0.035      9.377     13.600        791 1.2328e-01   999.7891 0.0000e+00
      9.562    10.1499     0.1488      1.336  98.929754    141.260      5.961   304.3604     0.5994    16.3290     0.0661      0.025      9.377     13.600        792 1.2329e-01   999.7852 0.0000e+00
      9.563    10.1492     0.1525      1.369  96.241662    135.755      5.959   304.7768     0.6261    16.6174     0.0636      0.017      9.378     13.601        793 1.2330e-01   999.7837 0.0000e+00
      9.565    10.1583 -9.990e-29 -9.990e-29  94.967150    136.679      5.958   304.7768     0.6413    16.6030     0.0640      0.011      9.380     13.605        794 1.2334e-01   999.7831 0.0000e+00
      9.568    10.1940 -9.990e-29 -9.990e-29  95.997688    134.289      5.952   304.2089     0.6146    16.5597     0.0629      0.009      9.383     13.610        795 1.2332e-01   999.7838 0.0000e+00
      9.573    10.2485 -9.990e-29 -9.990e-29 116.728948    167.299      5.953   303.6411     0.5955    16.5165     0.0782      0.008      9.388     13.617        796 1.2328e-01   999.7938 0.0000e+00
      9.579    10.3093 -9.990e-29 -9.990e-29 145.631028    205.869      5.947   308.0325     0.6261    16.8914     0.0962      0.009      9.393     13.624        797 1.2341e-01   999.8056 0.0000e+00
      9.584    10.3722 -9.990e-29 -9.990e-29 165.727963    236.516      5.944   304.2089     0.6375    16.8481     0.1107      0.011      9.398     13.631        798 1.2334e-01   999.8112 0.0000e+00
      9.588    10.4294 -9.990e-29 -9.990e-29 178.024731    250.834      5.945   309.1682     0.6108    16.8769     0.1175      0.014      9.402     13.636        799 1.2331e-01   999.8119 0.0000e+00
      9.591    10.4779 -9.990e-29 -9.990e-29 186.463412    264.904      5.941   311.4775     0.6032    16.8481     0.1242      0.016      9.405     13.640        800 1.2330e-01   999.8103 0.0000e+00
      9.592    10.5118 -9.990e-29 -9.990e-29 198.387909    278.212      5.941   309.5847     0.5536    15.4782     0.1306      0.016      9.407     13.643        801 1.2324e-01   999.8111 0.0000e+00
      9.594    10.5295 -9.990e-29 -9.990e-29 191.609560    273.673      5.939   310.2661     0.5536    15.3917     0.1285      0.015      9.408     13.645        802 1.2341e-01   999.8029 0.0000e+00
      9.594    10.5360 -9.990e-29 -9.990e-29 176.660184    243.817      5.937   306.0261     0.5688    15.5071     0.1143      0.013      9.408     13.646        803 1.2339e-01   999.7918 0.0000e+00
      9.595 -9.990e-29 -9.990e-29 -9.990e-29 189.257048    270.230      5.936   309.8497     0.5536    15.3629     0.1269      0.010      9.409     13.647        804 1.2332e-01   999.7966 0.0000e+00
      9.595 -9.990e-29 -9.990e-29 -9.990e-29 201.637754    280.779      5.939   304.8525     0.6337    14.5554     0.1319      0.007      9.409     13.647        805 1.2335e-01   999.8025 0.0000e+00
