* Sea-Bird SBE19plus  Data File:
* FileName = C:\DATA\070819_fcr50_0003.hex
* Software version 2.8.0.119
* Temperature SN = 7809
* Conductivity SN = 7809
* System UpLoad Time = Jul 08 2019 15:01:30
* <ApplicationData>
* <Seaterm232>
* <SoftwareVersion>2.8.0.119</SoftwareVersion>
* <BuildDate>07-Nov-2018</BuildDate>
* </Seaterm232>
* </ApplicationData>
* <InstrumentState>
* <HardwareData DeviceType='SBE19plus' SerialNumber='01907809'>
*
*    <Manufacturer>Sea-Bird Electronics, Inc.</Manufacturer>
*
*    <FirmwareVersion>3.1.8</FirmwareVersion>
*
*    <FirmwareDate>Mar  9 2016 16:22:29</FirmwareDate>
*
*    <CommandSetVersion>1.4</CommandSetVersion>
*
*    <PCBAssembly PCBSerialNum='120721' AssemblyNum='41054J'/>
*
*    <PCBAssembly PCBSerialNum='120715' AssemblyNum='41967A'/>
*
*    <PCBAssembly PCBSerialNum='116699' AssemblyNum='41606'/>
*
*    <PCBAssembly PCBSerialNum='120719' AssemblyNum='41059D'/>
*
*    <MfgDate>28-Apr-2017</MfgDate>
*
*    <InternalSensors>
*
*       <Sensor id='Main Temperature'>
*
*          <type>temperature0</type>
*
*          <SerialNumber>01907809</SerialNumber>
*
*       </Sensor>
*
*       <Sensor id='Main Conductivity'>
*
*          <type>conductivity-0</type>
*
*          <SerialNumber>01907809</SerialNumber>
*
*       </Sensor>
*
*       <Sensor id='Main Pressure'>
*
*          <type>strain-0</type>
*
*          <SerialNumber>10586018</SerialNumber>
*
*       </Sensor>
*
*    </InternalSensors>
*
*    <ExternalSensors>
*
*       <Sensor id='volt 0'>
*
*          <type>pH</type>
*
*          <SerialNumber>27-0363</SerialNumber>
*
*       </Sensor>
*
*       <Sensor id='volt 1'>
*
*          <type>ORP</type>
*
*          <SerialNumber>27-0363</SerialNumber>
*
*       </Sensor>
*
*       <Sensor id='volt 2'>
*
*          <type>OXY</type>
*
*          <SerialNumber>43-0434</SerialNumber>
*
*       </Sensor>
*
*       <Sensor id='volt 3'>
*
*          <type>PAR</type>
*
*          <SerialNumber>1122</SerialNumber>
*
*       </Sensor>
*
*       <Sensor id='volt 4'>
*
*          <type>ECO AFL/FL</type>
*
*          <SerialNumber>FLNTURT-2496</SerialNumber>
*
*       </Sensor>
*
*       <Sensor id='volt 5'>
*
*          <type>ECO-NTU</type>
*
*          <SerialNumber>FLNTURT-2496</SerialNumber>
*
*       </Sensor>
*
*       <Sensor id='serial'>
*
*          <type>not assigned</type>
*
*          <SerialNumber>not assigned</SerialNumber>
*
*       </Sensor>
*
*    </ExternalSensors>
*
* </HardwareData>
* <StatusData DeviceType='SBE19plus' SerialNumber='01907809'>
*
*    <DateTime>2019-07-08T15:00:04</DateTime>
*
*    <LoggingState>not logging</LoggingState>
*
*    <EventSummary numEvents='0'/>
*
*    <Power>
*
*       <vMain>12.6</vMain>
*
*       <vLith>8.8</vLith>
*
*       <iMain>63.1</iMain>
*
*       <iPump>40.7</iPump>
*
*       <iExt01>19.2</iExt01>
*
*       <iExt2345>35.8</iExt2345>
*
*    </Power>
*
*    <MemorySummary>
*
*       <Bytes>112608</Bytes>
*
*       <Samples>4896</Samples>
*
*       <SamplesFree>2855892</SamplesFree>
*
*       <SampleLength>23</SampleLength>
*
*       <Profiles>6</Profiles>
*
*    </MemorySummary>
*
* </StatusData>
* <ConfigurationData DeviceType='SBE19plus' SerialNumber='01907809'>
*
*    <ProfileMode>
*
*       <ScansToAverage>1</ScansToAverage>
*
*       <MinimumCondFreq>5</MinimumCondFreq>
*
*       <PumpDelay>45</PumpDelay>
*
*       <AutoRun>no</AutoRun>
*
*       <IgnoreSwitch>no</IgnoreSwitch>
*
*    </ProfileMode>
*
*    <Battery>
*
*       <Type>alkaline</Type>
*
*       <CutOff>7.5</CutOff>
*
*    </Battery>
*
*    <DataChannels>
*
*       <ExtVolt0>yes</ExtVolt0>
*
*       <ExtVolt1>yes</ExtVolt1>
*
*       <ExtVolt2>yes</ExtVolt2>
*
*       <ExtVolt3>yes</ExtVolt3>
*
*       <ExtVolt4>yes</ExtVolt4>
*
*       <ExtVolt5>yes</ExtVolt5>
*
*       <SBE38>no</SBE38>
*
*       <WETLABS>no</WETLABS>
*
*       <OPTODE>no</OPTODE>
*
*       <SBE63>no</SBE63>
*
*       <SeaFET>no</SeaFET>
*
*       <GTD>no</GTD>
*
*    </DataChannels>
*
*    <EchoCharacters>yes</EchoCharacters>
*
*    <OutputExecutedTag>yes</OutputExecutedTag>
*
*    <OutputFormat>raw HEX</OutputFormat>
*
* </ConfigurationData>
* <CalibrationCoefficients DeviceType='SBE19plus' SerialNumber='01907809'>
*
*    <Calibration format='TEMP1' id='Main Temperature'>
*
*       <SerialNum>01907809</SerialNum>
*
*       <CalDate>24-Mar-19</CalDate>
*
*       <TA0>1.217923e-03</TA0>
*
*       <TA1>2.816693e-04</TA1>
*
*       <TA2>-1.603333e-06</TA2>
*
*       <TA3>1.984146e-07</TA3>
*
*       <TOFFSET>0.000000e+00</TOFFSET>
*
*    </Calibration>
*
*    <Calibration format='WBCOND0' id='Main Conductivity'>
*
*       <SerialNum>01907809</SerialNum>
*
*       <CalDate>24-Mar-19</CalDate>
*
*       <G>-1.005893e+00</G>
*
*       <H>1.268163e-01</H>
*
*       <I>-1.515604e-04</I>
*
*       <J>2.671373e-05</J>
*
*       <CPCOR>-9.570000e-08</CPCOR>
*
*       <CTCOR>3.250000e-06</CTCOR>
*
*       <CSLOPE>1.000000e+00</CSLOPE>
*
*    </Calibration>
*
*    <Calibration format='STRAIN0' id='Main Pressure'>
*
*       <SerialNum>10586018</SerialNum>
*
*       <CalDate>11-Mar-19</CalDate>
*
*       <PA0>4.565618e-02</PA0>
*
*       <PA1>4.850951e-04</PA1>
*
*       <PA2>-2.883271e-12</PA2>
*
*       <PTCA0>5.252467e+05</PTCA0>
*
*       <PTCA1>1.223042e+01</PTCA1>
*
*       <PTCA2>-3.567450e-01</PTCA2>
*
*       <PTCB0>2.516687e+01</PTCB0>
*
*       <PTCB1>3.750000e-04</PTCB1>
*
*       <PTCB2>0.000000e+00</PTCB2>
*
*       <PTEMPA0>-5.487846e+01</PTEMPA0>
*
*       <PTEMPA1>5.537568e+01</PTEMPA1>
*
*       <PTEMPA2>-5.867271e-01</PTEMPA2>
*
*       <POFFSET>7.140000e-01</POFFSET>
*
*       <PRANGE>1.600000e+02</PRANGE>
*
*    </Calibration>
*
*    <Calibration format='VOLT0' id='Volt 0'>
*
*       <OFFSET>-4.920000e-02</OFFSET>
*
*       <SLOPE>1.248122e+00</SLOPE>
*
*    </Calibration>
*
*    <Calibration format='VOLT0' id='Volt 1'>
*
*       <OFFSET>-4.784000e-02</OFFSET>
*
*       <SLOPE>1.248871e+00</SLOPE>
*
*    </Calibration>
*
*    <Calibration format='VOLT0' id='Volt 2'>
*
*       <OFFSET>-4.864632e-02</OFFSET>
*
*       <SLOPE>1.248714e+00</SLOPE>
*
*    </Calibration>
*
*    <Calibration format='VOLT0' id='Volt 3'>
*
*       <OFFSET>-4.743790e-02</OFFSET>
*
*       <SLOPE>1.248571e+00</SLOPE>
*
*    </Calibration>
*
*    <Calibration format='VOLT0' id='Volt 4'>
*
*       <OFFSET>-4.671263e-02</OFFSET>
*
*       <SLOPE>1.248951e+00</SLOPE>
*
*    </Calibration>
*
*    <Calibration format='VOLT0' id='Volt 5'>
*
*       <OFFSET>-4.871053e-02</OFFSET>
*
*       <SLOPE>1.249136e+00</SLOPE>
*
*    </Calibration>
*
*    <Calibration format='FREQ0' id='external frequency channel'>
*
*       <EXTFREQSF>1.000014e+00</EXTFREQSF>
*
*    </Calibration>
*
* </CalibrationCoefficients>
* <EventCounters DeviceType='SBE19plus' SerialNumber='01907809'>
*
*    <EventSummary numEvents='0'/>
*
* </EventCounters></InstrumentState>
* <Headers>
*
* cast   3 08 Jul 2019 11:19:18 samples 1562 to 2061, avg = 1, stop = mag switch
*
# nquan = 18
# nvalues = 441                         
# units = specified
# name 0 = depFM: Depth [fresh water, m]
# name 1 = tv290C: Temperature [ITS-90, deg C]
# name 2 = sbeox0Mg/L: Oxygen, SBE 43 [mg/l]
# name 3 = sbeox0PS: Oxygen, SBE 43 [% saturation]
# name 4 = c0uS/cm: Conductivity [uS/cm]
# name 5 = specc: Specific Conductance [uS/cm]
# name 6 = ph: pH
# name 7 = orp: Oxidation Reduction Potential [mV]
# name 8 = flECO-AFL: Fluorescence, WET Labs ECO-AFL/FL [mg/m^3]
# name 9 = turbWETntu0: Turbidity, WET Labs ECO [NTU]
# name 10 = sal00: Salinity, Practical [PSU]
# name 11 = dz/dtM: Descent Rate [m/s]
# name 12 = prdM: Pressure, Strain Gauge [db]
# name 13 = prdE: Pressure, Strain Gauge [psi]
# name 14 = scan: Scan Count
# name 15 = par/sat/log: PAR/Logarithmic, Satlantic
# name 16 = density00: Density [density, kg/m^3]
# name 17 = flag:  0.000e+00
# span 0 =     -0.608,      3.043       
# span 1 =    18.2027,    27.3075       
# span 2 =     0.0209,    12.8334       
# span 3 =      0.222,    146.989       
# span 4 =   0.000963,  63.887450       
# span 5 =      0.654,     73.956       
# span 6 =      5.736,      6.894       
# span 7 =   223.3080,   730.5194       
# span 8 =    -0.1483,     5.9934       
# span 9 =    -0.5854,   137.3253       
# span 10 =     0.0120,     0.0385      
# span 11 =     -0.159,      0.296      
# span 12 =     -0.596,      2.984      
# span 13 =     -0.865,      4.327      
# span 14 =          1,        441      
# span 15 = 5.7466e+00, 5.0562e+02      
# span 16 =   996.4481,   998.6019      
# span 17 = 0.0000e+00, 0.0000e+00      
# interval = seconds: 0.25
# start_time = Jul 08 2019 11:19:18 [Instrument's time stamp, header]
# bad_flag = -9.990e-29
# <Sensors count="9" >
#   <sensor Channel="1" >
#     <!-- Count, Temperature -->
#     <TemperatureSensor SensorID="58" >
#       <SerialNumber>7809</SerialNumber>
#       <CalibrationDate>24-Mar-19</CalibrationDate>
#       <A0>1.21792325e-003</A0>
#       <A1>2.81669265e-004</A1>
#       <A2>-1.60333336e-006</A2>
#       <A3>1.98414625e-007</A3>
#       <Slope>1.00000000</Slope>
#       <Offset>0.0000</Offset>
#     </TemperatureSensor>
#   </sensor>
#   <sensor Channel="2" >
#     <!-- Frequency 0, Conductivity -->
#     <ConductivitySensor SensorID="3" >
#       <SerialNumber>7809</SerialNumber>
#       <CalibrationDate>24-Mar-19</CalibrationDate>
#       <UseG_J>1</UseG_J>
#       <!-- Cell const and series R are applicable only for wide range sensors. -->
#       <SeriesR>0.0000</SeriesR>
#       <CellConst>2000.0000</CellConst>
#       <ConductivityType>0</ConductivityType>
#       <Coefficients equation="0" >
#         <A>0.00000000e+000</A>
#         <B>0.00000000e+000</B>
#         <C>0.00000000e+000</C>
#         <D>0.00000000e+000</D>
#         <M>0.0</M>
#         <CPcor>-9.57000000e-008</CPcor>
#       </Coefficients>
#       <Coefficients equation="1" >
#         <G>-1.00589325e+000</G>
#         <H>1.26816302e-001</H>
#         <I>-1.51560448e-004</I>
#         <J>2.67137274e-005</J>
#         <CPcor>-9.57000000e-008</CPcor>
#         <CTcor>3.2500e-006</CTcor>
#         <!-- WBOTC not applicable unless ConductivityType = 1. -->
#         <WBOTC>0.00000000e+000</WBOTC>
#       </Coefficients>
#       <Slope>1.00000000</Slope>
#       <Offset>0.00000</Offset>
#     </ConductivitySensor>
#   </sensor>
#   <sensor Channel="3" >
#     <!-- Count, Pressure, Strain Gauge -->
#     <PressureSensor SensorID="46" >
#       <SerialNumber>7809</SerialNumber>
#       <CalibrationDate>11-Mar-19</CalibrationDate>
#       <PA0>4.56561833e-002</PA0>
#       <PA1>4.85095118e-004</PA1>
#       <PA2>-2.88327090e-012</PA2>
#       <PTEMPA0>-5.48784562e+001</PTEMPA0>
#       <PTEMPA1>5.53756816e+001</PTEMPA1>
#       <PTEMPA2>-5.86727098e-001</PTEMPA2>
#       <PTCA0>5.25246745e+005</PTCA0>
#       <PTCA1>1.22304214e+001</PTCA1>
#       <PTCA2>-3.56745036e-001</PTCA2>
#       <PTCB0>2.51668750e+001</PTCB0>
#       <PTCB1>3.75000000e-004</PTCB1>
#       <PTCB2>0.00000000e+000</PTCB2>
#       <Offset>0.000000</Offset>
#     </PressureSensor>
#   </sensor>
#   <sensor Channel="4" >
#     <!-- A/D voltage 0, Oxygen, SBE 43 -->
#     <OxygenSensor SensorID="38" >
#       <SerialNumber>0434</SerialNumber>
#       <CalibrationDate>13-Apr-19</CalibrationDate>
#       <Use2007Equation>1</Use2007Equation>
#       <CalibrationCoefficients equation="0" >
#         <!-- Coefficients for Owens-Millard equation. -->
#         <Boc>0.0000</Boc>
#         <Soc>0.0000e+000</Soc>
#         <offset>0.0000</offset>
#         <Pcor>0.00e+000</Pcor>
#         <Tcor>0.0000</Tcor>
#         <Tau>0.0</Tau>
#       </CalibrationCoefficients>
#       <CalibrationCoefficients equation="1" >
#         <!-- Coefficients for Sea-Bird equation - SBE calibration in 2007 and later. -->
#         <Soc>4.2007e-001</Soc>
#         <offset>-0.6109</offset>
#         <A>-4.3656e-003</A>
#         <B> 1.7017e-004</B>
#         <C>-2.5341e-006</C>
#         <D0> 2.5826e+000</D0>
#         <D1> 1.92634e-004</D1>
#         <D2>-4.64803e-002</D2>
#         <E> 3.6000e-002</E>
#         <Tau20> 1.1800</Tau20>
#         <H1>-3.3000e-002</H1>
#         <H2> 5.0000e+003</H2>
#         <H3> 1.4500e+003</H3>
#       </CalibrationCoefficients>
#     </OxygenSensor>
#   </sensor>
#   <sensor Channel="5" >
#     <!-- A/D voltage 1, PAR/Logarithmic, Satlantic -->
#     <PARLog_SatlanticSensor SensorID="76" >
#       <SerialNumber>1122</SerialNumber>
#       <CalibrationDate>08-May-2019</CalibrationDate>
#       <a0>9.7456e-001</a0>
#       <a1>8.1640e-001</a1>
#       <Im>1.3589e+000</Im>
#       <Multiplier>1.0000e+000</Multiplier>
#     </PARLog_SatlanticSensor>
#   </sensor>
#   <sensor Channel="6" >
#     <!-- A/D voltage 2, pH -->
#     <pH_Sensor SensorID="43" >
#       <SerialNumber>0363</SerialNumber>
#       <CalibrationDate>15-Apr-19</CalibrationDate>
#       <Slope>4.5952</Slope>
#       <Offset>2.5370</Offset>
#     </pH_Sensor>
#   </sensor>
#   <sensor Channel="7" >
#     <!-- A/D voltage 3, Oxidation Reduction Potential -->
#     <OxidationReductionPotentialSensor SensorID="41" >
#       <SerialNumber>0363</SerialNumber>
#       <CalibrationDate>15-Apr-19</CalibrationDate>
#       <B>2.499480</B>
#       <M>-0.496195</M>
#       <Offset>0.0</Offset>
#     </OxidationReductionPotentialSensor>
#   </sensor>
#   <sensor Channel="8" >
#     <!-- A/D voltage 4, Fluorometer, WET Labs ECO-AFL/FL -->
#     <FluoroWetlabECO_AFL_FL_Sensor SensorID="20" >
#       <SerialNumber>FLNTURT-2496</SerialNumber>
#       <CalibrationDate>08-May-2019</CalibrationDate>
#       <ScaleFactor>5.00000000e+001</ScaleFactor>
#       <!-- Dark output -->
#       <Vblank>0.0550</Vblank>
#     </FluoroWetlabECO_AFL_FL_Sensor>
#   </sensor>
#   <sensor Channel="9" >
#     <!-- A/D voltage 5, Turbidity Meter, WET Labs, ECO-NTU -->
#     <TurbidityMeter SensorID="67" >
#       <SerialNumber>FLNTURT-2496</SerialNumber>
#       <CalibrationDate>08-May-2019</CalibrationDate>
#       <ScaleFactor>189.000000</ScaleFactor>
#       <!-- Dark output -->
#       <DarkVoltage>0.071000</DarkVoltage>
#     </TurbidityMeter>
#   </sensor>
# </Sensors>
# datcnv_date = Jul 09 2019 07:37:34, 7.26.7.129 [datcnv_vars = 17]
# datcnv_in = C:\DATA\070819_fcr20.hex C:\DATA\SBE19plusV2_7809.xmlcon
# datcnv_skipover = 0
# datcnv_ox_hysteresis_correction = yes
# datcnv_ox_tau_correction = yes
# filter_date = Jul 09 2019 07:39:48, 7.26.7.129
# filter_in = C:\DATA\070819_fcr20.cnv
# filter_low_pass_tc_A = 0.030
# filter_low_pass_tc_B = 0.150
# filter_low_pass_A_vars = tv290C c0uS/cm par/sat/log density00
# filter_low_pass_B_vars = prdM prdE
# alignctd_date = Jul 09 2019 07:40:14, 7.26.7.129
# alignctd_in = C:\DATA\070819_fcr20.cnv
# alignctd_adv = tv290C 0.500, sbeox0Mg/L 3.000, sbeox0PS 3.000                                                                                                                                                                      
# file_type = ascii
*END*
     -0.607    25.3192     7.3277     89.227   0.713735      0.709      5.822   730.3680    -0.0759     0.3519     0.0120 2.1053e-16     -0.596     -0.864          1 1.4568e+02   996.9705 0.0000e+00
     -0.607    25.3207     7.3272     89.222   0.743840      0.737      5.825   730.5194    -0.0759     0.2798     0.0120 2.1053e-16     -0.596     -0.864          2 1.5662e+02   996.9707 0.0000e+00
     -0.607    25.3232     7.3258     89.206   0.794920      0.792      5.827   719.9573    -0.0606     0.4384     0.0120 1.0527e-16     -0.596     -0.864          3 1.5926e+02   996.9704 0.0000e+00
     -0.608    25.3260     7.3283     89.238   0.738914      0.737      5.842   702.5429    -0.1407    -0.1240     0.0120     -0.000     -0.596     -0.865          4 1.5830e+02   996.9701 0.0000e+00
     -0.608    25.3277     7.3332     89.298   0.665628      0.654      5.847   693.9493    -0.1369    -0.0951     0.0120     -0.000     -0.596     -0.865          5 1.5573e+02   996.9694 0.0000e+00
     -0.607    25.3289     7.3345     89.314   0.738213      0.737      5.840   616.6070    -0.0911    -0.0663     0.0120     -0.000     -0.595     -0.864          6 1.5953e+02   996.9687 0.0000e+00
     -0.607    25.3292     7.3347     89.317   0.737329      0.737      5.829   674.9829    -0.1216    -0.0807     0.0120      0.000     -0.595     -0.864          7 1.5749e+02   996.9683 0.0000e+00
     -0.607    25.3301     7.3214     89.313   0.666728      0.654      5.823   673.9986    -0.1293    -0.0374     0.0120      0.000     -0.596     -0.864          8 1.4652e+02   996.9680 0.0000e+00
     -0.607    25.3306     7.2736     89.379   0.737329      0.737      5.820   672.7493    -0.1407     0.3807     0.0120      0.000     -0.596     -0.864          9 1.4866e+02   996.9679 0.0000e+00
     -0.608    25.3313     7.2299     89.463   0.738214      0.737      5.817   670.9700    -0.1178     0.4096     0.0120      0.000     -0.596     -0.864         10 1.5577e+02   996.9676 0.0000e+00
     -0.607    25.3316     7.2111     89.753   0.754372      0.737      5.814   669.3421    -0.1216     0.3086     0.0120      0.000     -0.596     -0.864         11 1.5804e+02   996.9675 0.0000e+00
     -0.608    25.3330     7.2255     90.316   0.628475      0.654      5.809   667.8278    -0.1369     0.2798     0.0120      0.000     -0.596     -0.864         12 1.5784e+02   996.9673 0.0000e+00
     -0.607    25.3323     7.2765     91.206   0.717399      0.654      5.813   667.6385    -0.1216    -0.3114     0.0120      0.000     -0.596     -0.864         13 1.5900e+02   996.9673 0.0000e+00
     -0.608    25.3351     7.3400     92.154   0.643706      0.737      5.820   668.4714    -0.1293    -0.3403     0.0120     -0.000     -0.596     -0.864         14 1.5715e+02   996.9668 0.0000e+00
     -0.607    25.3320     7.4091     93.107   0.897676      0.737      5.826   674.9450    -0.1254    -0.2393     0.0120     -0.000     -0.596     -0.864         15 1.7562e+02   996.9671 0.0000e+00
     -0.607    25.3376     7.4633     93.835   0.490085      0.737      5.839   678.8443    -0.1483    -0.3114     0.0120      0.000     -0.596     -0.864         16 2.5461e+02   996.9663 0.0000e+00
     -0.608    25.3293     7.4994     94.321   1.091783      0.681      5.852   679.1850    -0.1102    -0.5421     0.0120     -0.000     -0.595     -0.862         17 3.3517e+02   996.9673 0.0000e+00
     -0.608    25.4435     7.5276     94.701   0.000963      0.654      5.869   643.0692    -0.1102    -0.5566     0.0120     -0.000     -0.584     -0.847         18 3.5681e+02   996.9655 0.0000e+00
     -0.574    25.8175     7.5285     94.726   4.865157      3.589      5.736   520.1467    -0.1407    -0.5854     0.0123      0.008     -0.542     -0.787         19 3.9369e+02   996.9686 0.0000e+00
     -0.477    26.2141     7.5222     94.647  25.288401     26.012      6.100   269.0017    -0.1331    -0.5277     0.0202      0.041     -0.455     -0.660         20 3.8945e+02   996.9447 0.0000e+00
     -0.342    26.5284     7.4969     94.320  37.438928     36.657      6.460   223.3080     0.2293    11.2677     0.0245      0.099     -0.337     -0.490         21 3.3822e+02   996.8507 0.0000e+00
     -0.211    26.7708     7.4787     94.084  37.216694     36.437      6.716   262.4145     0.2522    11.1956     0.0246      0.175     -0.231     -0.335         22 3.7051e+02   996.7458 0.0000e+00
     -0.159    26.9222     7.4751     94.046  37.445451     36.262      6.842   235.3466     0.2331    11.2965     0.0246      0.238     -0.165     -0.239         23 3.7567e+02   996.6615 0.0000e+00
     -0.127    27.0167     7.4494     93.736  37.331896     36.096      6.894   266.9574     0.2370    11.1379     0.0246      0.281     -0.131     -0.190         24 3.4808e+02   996.5957 0.0000e+00
     -0.113    27.0670     7.3690     92.739  37.357889     35.935      6.888   267.6010     2.6326     2.9042     0.0245      0.296     -0.114     -0.165         25 3.7031e+02   996.5543 0.0000e+00
     -0.110    27.0955     7.2709     91.516  37.294479     35.872      6.871   258.0231     2.6708     2.7744     0.0245      0.279     -0.106     -0.154         26 4.0109e+02   996.5284 0.0000e+00
     -0.102    27.1140     7.1751     90.319  37.232945     35.729      6.840   248.6345     2.6631     2.7600     0.0245      0.231     -0.096     -0.140         27 4.0563e+02   996.5144 0.0000e+00
     -0.081    27.1290     7.0942     89.309  37.138084     35.656      6.805   263.6638     2.6517     2.8321     0.0245      0.167     -0.079     -0.115         28 3.8403e+02   996.5066 0.0000e+00
     -0.059    27.1366     7.0228     88.414  37.116162     35.590      6.769   260.8624     2.6746     2.7311     0.0244      0.108     -0.063     -0.092         29 3.8301e+02   996.5017 0.0000e+00
     -0.055    27.1377     6.9715     87.777  37.082404     35.580      6.724   264.1181     2.7814     4.3029     0.0244      0.067     -0.055     -0.080         30 3.9252e+02   996.4975 0.0000e+00
     -0.054    27.1328     6.9675     87.734  37.061548     35.521      6.687   253.4045     2.7890     4.3317     0.0244      0.050     -0.053     -0.077         31 3.9873e+02   996.4953 0.0000e+00
     -0.054    27.1284     6.9588     87.631  37.142113     35.627      6.657   264.7238     2.7967     4.4615     0.0245      0.041     -0.053     -0.077         32 4.0551e+02   996.4951 0.0000e+00
     -0.054    27.1321     6.9668     87.735  37.219222     35.684      6.634   263.8910     2.8157     4.4038     0.0245      0.034     -0.053     -0.077         33 4.1038e+02   996.4965 0.0000e+00
     -0.055    27.1407     6.9799     87.902  37.261941     35.741      6.614   264.3831     2.7852     7.0427     0.0245      0.028     -0.054     -0.078         34 4.0998e+02   996.4977 0.0000e+00
     -0.056    27.1493     6.9862     87.979  37.266764     35.738      6.595   260.7488     2.7814     6.8264     0.0245      0.018     -0.055     -0.080         35 4.0507e+02   996.4967 0.0000e+00
     -0.058    27.1564     6.9870     87.988  37.272490     35.733      6.585   255.7516     2.7967     6.9273     0.0245      0.007     -0.056     -0.081         36 3.9872e+02   996.4943 0.0000e+00
     -0.057    27.1623     6.9890     88.017  37.314083     35.780      6.576   235.3466     2.8043     6.9706     0.0245     -0.000     -0.055     -0.079         37 3.9656e+02   996.4919 0.0000e+00
     -0.054    27.1667     6.9991     88.148  37.274270     35.722      6.568   233.0373     2.7928     7.2157     0.0245     -0.001     -0.051     -0.073         38 3.9596e+02   996.4900 0.0000e+00
     -0.044    27.1697     7.0291     88.530  37.262763     35.718      6.563   230.4630     2.8043     7.1724     0.0245      0.002     -0.043     -0.061         39 3.8464e+02   996.4885 0.0000e+00
     -0.032    27.1747     7.0925     89.333  37.269129     35.715      6.551   230.4251     2.7738     7.1724     0.0245      0.008     -0.034     -0.049         40 3.9640e+02   996.4872 0.0000e+00
     -0.028    27.1800     7.1701     90.313  37.266344     35.713      6.533   229.3273     2.8081     7.1580     0.0245      0.013     -0.029     -0.042         41 4.1136e+02   996.4864 0.0000e+00
     -0.028    27.1839     7.2372     91.162  37.206956     35.656      6.520   229.0623     2.8539     6.2640     0.0245      0.017     -0.028     -0.040         42 4.2666e+02   996.4851 0.0000e+00
     -0.028    27.1865     7.2952     91.896  37.224493     35.652      6.513   228.4187     2.8653     6.1054     0.0245      0.018     -0.028     -0.040         43 4.4956e+02   996.4836 0.0000e+00
     -0.028    27.1872     7.3240     92.263  37.244517     35.703      6.501   228.2673     2.8615     6.2928     0.0245      0.018     -0.027     -0.039         44 4.6311e+02   996.4825 0.0000e+00
     -0.026    27.1863     7.3308     92.354  37.182034     35.594      6.496   227.6616     2.8615     6.2928     0.0245      0.015     -0.025     -0.035         45 4.5160e+02   996.4818 0.0000e+00
     -0.020    27.1857     7.3113     92.111  37.242981     35.701      6.486   227.6616     2.8462     5.2979     0.0245      0.013     -0.020     -0.030         46 3.9279e+02   996.4816 0.0000e+00
     -0.017    27.1873     7.2768     91.679  37.227940     35.648      6.481   227.1694     2.8501     5.3267     0.0245      0.010     -0.018     -0.026         47 3.8170e+02   996.4819 0.0000e+00
     -0.017    27.1898     7.2373     91.183  37.200751     35.648      6.477   227.2830     2.8386     5.3267     0.0245      0.007     -0.018     -0.026         48 4.0640e+02   996.4821 0.0000e+00
     -0.019    27.1929     7.1863     90.542  37.217547     35.647      6.470   227.0558     2.8615     5.4276     0.0245      0.006     -0.019     -0.027         49 4.0550e+02   996.4816 0.0000e+00
     -0.020    27.1957     7.1392     89.948  37.207038     35.645      6.465   226.7530     2.8539     5.3555     0.0245      0.006     -0.019     -0.028         50 4.0496e+02   996.4809 0.0000e+00
     -0.020    27.1975     7.0890     89.315  37.213827     35.643      6.462   226.7908     2.7967     5.9756     0.0245      0.005     -0.019     -0.028         51 4.0467e+02   996.4800 0.0000e+00
     -0.019    27.1996     7.0467     88.782  37.209096     35.641      6.456   226.7908     2.7738     5.9323     0.0245      0.003     -0.018     -0.027         52 4.1034e+02   996.4792 0.0000e+00
     -0.018    27.2017     7.0104     88.327  37.212926     35.640      6.452   226.9423     2.7814     6.1054     0.0245      0.002     -0.017     -0.025         53 4.1404e+02   996.4787 0.0000e+00
     -0.018    27.2045     6.9831     87.985  37.209060     35.639      6.452   226.7908     2.8081     6.0765     0.0245      0.000     -0.017     -0.025         54 4.0903e+02   996.4782 0.0000e+00
     -0.019    27.2075     6.9738     87.869  37.154634     35.584      6.447   226.7530     2.7814     6.0765     0.0245     -0.000     -0.018     -0.026         55 4.0888e+02   996.4776 0.0000e+00
     -0.018    27.2091     6.9650     87.758  37.162114     35.582      6.442   226.8666     2.7890     5.9612     0.0245      0.000     -0.018     -0.026         56 4.1688e+02   996.4768 0.0000e+00
     -0.018    27.2106     6.9579     87.667  37.199750     35.633      6.437   227.3208     2.7852     5.9323     0.0245      0.001     -0.018     -0.026         57 4.1872e+02   996.4760 0.0000e+00
     -0.019    27.2118     6.9428     87.468  37.167068     35.579      6.435   226.7908     2.7928     5.9756     0.0245      0.001     -0.018     -0.026         58 4.1040e+02   996.4755 0.0000e+00
     -0.018    27.2122     6.9233     87.211  37.143516     35.578      6.430   226.8666     2.8615     5.8026     0.0245      0.000     -0.018     -0.026         59 4.0573e+02   996.4750 0.0000e+00
     -0.019    27.2124     6.9011     86.929  37.169787     35.577      6.426   227.0558     2.8539     5.8314     0.0245     -0.000     -0.018     -0.026         60 4.0582e+02   996.4748 0.0000e+00
     -0.019    27.2124     6.8775     86.636  37.193643     35.630      6.424   226.6773     2.8386     5.7449     0.0245     -0.001     -0.018     -0.026         61 4.0351e+02   996.4747 0.0000e+00
     -0.017    27.2123     6.8561     86.370  37.173099     35.576      6.422   226.7530     2.8386     5.8314     0.0245     -0.000     -0.017     -0.025         62 4.0500e+02   996.4746 0.0000e+00
     -0.016    27.2129     6.8474     86.261  37.195354     35.630      6.419   227.0558     2.9264     6.0477     0.0245      0.001     -0.017     -0.024         63 4.1246e+02   996.4746 0.0000e+00
     -0.018    27.2143     6.8264     85.995  37.165947     35.576      6.417   226.9801     2.9073     6.0621     0.0245      0.001     -0.018     -0.025         64 4.1137e+02   996.4746 0.0000e+00
     -0.019    27.2152     6.7900     85.533  37.150424     35.576      6.414   227.1316     2.9073     5.9468     0.0245      0.000     -0.018     -0.026         65 4.0978e+02   996.4745 0.0000e+00
     -0.019    27.2155     6.7405     84.905  37.155401     35.575      6.410   227.3587     2.9073     5.9468     0.0245      0.000     -0.018     -0.026         66 4.1173e+02   996.4741 0.0000e+00
     -0.016    27.2145     6.6700     84.018  37.159754     35.574      6.409   227.0937     2.9645     5.5574     0.0245      0.000     -0.016     -0.022         67 3.6144e+02   996.4738 0.0000e+00
     -0.012    27.2085     6.6061     83.216  37.204277     35.628      6.406   227.3587     2.9607     5.5574     0.0245      0.002     -0.012     -0.017         68 3.2321e+02   996.4738 0.0000e+00
     -0.009    27.2015     6.5529     82.546  37.159262     35.575      6.401   227.3966     2.9759     5.5718     0.0245      0.003     -0.011     -0.015         69 3.5296e+02   996.4741 0.0000e+00
     -0.011    27.2001     6.5111     82.017  37.097234     35.526      6.398   227.2830     2.9683     5.7160     0.0244      0.004     -0.011     -0.017         70 3.5191e+02   996.4757 0.0000e+00
     -0.014    27.2026     6.4848     81.680  37.103662     35.531      6.394   227.4344     2.9874     5.5286     0.0244      0.004     -0.013     -0.020         71 3.7198e+02   996.4776 0.0000e+00
     -0.015    27.2050     6.4643     81.414  37.091995     35.531      6.391   227.5101     2.9225     5.4997     0.0244      0.003     -0.014     -0.021         72 3.8046e+02   996.4781 0.0000e+00
     -0.015    27.2056     6.4413     81.120  37.111755     35.530      6.388   227.6994     2.9187     5.5718     0.0244      0.002     -0.014     -0.020         73 3.2880e+02   996.4774 0.0000e+00
     -0.013    27.2046     6.4300     80.979  37.138341     35.581      6.389   227.7373     2.9035     5.5574     0.0245      0.001     -0.013     -0.019         74 3.4384e+02   996.4766 0.0000e+00
     -0.013    27.2023     6.3956     80.547  37.118178     35.528      6.386   227.9266     2.9149     5.6439     0.0244     -0.000     -0.013     -0.018         75 3.5333e+02   996.4765 0.0000e+00
     -0.012    27.1997     6.3665     80.180  37.136847     35.582      6.383   228.0780     3.1209     5.6872     0.0245     -0.001     -0.013     -0.018         76 3.4414e+02   996.4768 0.0000e+00
     -0.013    27.2000     6.3348     79.779  37.115108     35.530      6.381   228.0780     3.1819     5.8026     0.0244     -0.001     -0.013     -0.019         77 3.7295e+02   996.4774 0.0000e+00
     -0.014    27.2016     6.3041     79.387  37.085962     35.532      6.379   228.1537     3.1667     5.7305     0.0244     -0.000     -0.013     -0.019         78 3.6929e+02   996.4782 0.0000e+00
     -0.014    27.2019     6.2704     78.956  37.054580     35.478      6.381   228.1537     3.1629     5.8458     0.0244      0.001     -0.012     -0.018         79 3.5089e+02   996.4781 0.0000e+00
     -0.011    27.2004     6.2406     78.577  37.035622     35.477      6.378   228.3809     3.0217     5.7305     0.0244      0.001     -0.011     -0.016         80 3.4333e+02   996.4776 0.0000e+00
     -0.010    27.1962     6.2125     78.220  37.050283     35.477      6.378   228.2673     3.0179     5.7016     0.0244      0.001     -0.011     -0.015         81 3.3030e+02   996.4775 0.0000e+00
     -0.012    27.1909     6.1787     77.792  37.095605     35.531      6.378   228.4944     3.0484     5.7593     0.0244      0.001     -0.012     -0.017         82 3.3184e+02   996.4779 0.0000e+00
     -0.014    27.1883     6.1509     77.440  37.097761     35.534      6.375   228.4187     3.0408     5.8602     0.0244      0.000     -0.013     -0.019         83 3.4692e+02   996.4791 0.0000e+00
     -0.015    27.1889     6.1165     77.002  37.047601     35.484      6.374   228.4566     3.0866     5.7160     0.0244     -0.000     -0.014     -0.020         84 3.5716e+02   996.4806 0.0000e+00
     -0.013    27.1897     6.0802     76.542  37.039490     35.486      6.375   228.7973     3.0980     5.7449     0.0244     -0.000     -0.013     -0.019         85 3.5547e+02   996.4813 0.0000e+00
     -0.012    27.1897     6.0411     76.046  36.989316     35.432      6.375   228.9109     3.1018     5.7881     0.0244     -0.000     -0.012     -0.017         86 3.2308e+02   996.4811 0.0000e+00
     -0.011    27.1881     6.0010     75.537  36.991502     35.431      6.375   229.2894     3.0751     5.9035     0.0244     -0.000     -0.011     -0.015         87 3.0140e+02   996.4809 0.0000e+00
     -0.011    27.1845     5.9634     75.061  37.036769     35.485      6.376   229.4030     3.2315     5.7593     0.0244      0.000     -0.011     -0.015         88 3.1316e+02   996.4809 0.0000e+00
     -0.011    27.1803     5.9224     74.542  36.992251     35.432      6.373   229.5544     3.2163     5.7016     0.0244      0.000     -0.011     -0.016         89 3.3649e+02   996.4813 0.0000e+00
     -0.012    27.1767     5.8771     73.969  36.987635     35.435      6.376   229.4787     3.1972     5.7016     0.0244      0.001     -0.012     -0.017         90 3.4891e+02   996.4823 0.0000e+00
     -0.013    27.1745     5.8428     73.534  36.983247     35.438      6.373   229.5544     3.2201     5.7737     0.0244      0.001     -0.012     -0.017         91 3.3110e+02   996.4836 0.0000e+00
     -0.012    27.1732     5.8077     73.089  36.908811     35.360      6.373   229.5544     3.1056     5.7881     0.0244      0.001     -0.011     -0.016         92 3.2886e+02   996.4845 0.0000e+00
     -0.011    27.1713     5.7748     72.671  36.902462     35.361      6.369   229.9330     3.0942     5.8170     0.0244      0.001     -0.010     -0.015         93 3.3211e+02   996.4851 0.0000e+00
     -0.010    27.1688     5.7386     72.211  36.902243     35.362      6.367   230.0087     3.0904     5.6728     0.0244      0.000     -0.010     -0.015         94 3.1831e+02   996.4855 0.0000e+00
     -0.011    27.1659     5.7078     71.820  36.849813     35.310      6.368   230.1980     3.0675     5.7016     0.0243      0.000     -0.011     -0.016         95 3.2050e+02   996.4860 0.0000e+00
     -0.012    27.1629     5.6752     71.407  36.878806     35.339      6.367   230.0087     3.0789     5.7305     0.0243      0.000     -0.011     -0.016         96 3.2880e+02   996.4867 0.0000e+00
     -0.012    27.1603     5.6504     71.090  36.895798     35.367      6.367   230.4251     3.0332     5.5430     0.0244      0.000     -0.011     -0.016         97 3.2684e+02   996.4874 0.0000e+00
     -0.012    27.1579     5.6240     70.754  36.858303     35.316      6.366   230.6901     3.0370     5.6295     0.0243      0.000     -0.012     -0.017         98 3.1787e+02   996.4883 0.0000e+00
     -0.013    27.1555     5.5956     70.392  36.895833     35.371      6.365   230.8794     3.0408     5.4853     0.0244     -0.000     -0.012     -0.017         99 3.4460e+02   996.4890 0.0000e+00
     -0.013    27.1533     5.5677     70.038  36.849094     35.319      6.364   230.7280     3.0255     5.5142     0.0243     -0.001     -0.012     -0.017        100 3.4486e+02   996.4897 0.0000e+00
     -0.011    27.1512     5.5369     69.646  36.797932     35.267      6.364   231.2580     3.0217     5.8314     0.0243     -0.001     -0.011     -0.016        101 3.0479e+02   996.4903 0.0000e+00
     -0.011    27.1485     5.5101     69.305  36.870601     35.349      6.362   231.0687     3.0255     5.7593     0.0243     -0.000     -0.011     -0.016        102 3.3398e+02   996.4909 0.0000e+00
     -0.012    27.1453     5.4852     68.988  36.847565     35.324      6.360   231.3716     3.0408     5.7593     0.0243     -0.000     -0.012     -0.017        103 3.2944e+02   996.4915 0.0000e+00
     -0.012    27.1421     5.4630     68.706  36.796966     35.272      6.361   231.0309     3.0370     5.7593     0.0243      0.000     -0.012     -0.017        104 2.9983e+02   996.4922 0.0000e+00
     -0.013    27.1393     5.4386     68.396  36.844665     35.328      6.359   231.4094     3.0484     5.6439     0.0243     -0.000     -0.012     -0.017        105 3.2289e+02   996.4931 0.0000e+00
     -0.012    27.1367     5.4125     68.064  36.847474     35.330      6.364   231.6744     3.0637     5.5430     0.0243      0.000     -0.011     -0.016        106 3.5371e+02   996.4940 0.0000e+00
     -0.012    27.1337     5.3933     67.818  36.763839     35.251      6.366   231.6366     3.0522     5.6007     0.0243      0.000     -0.011     -0.016        107 3.4885e+02   996.4948 0.0000e+00
     -0.012    27.1305     5.3766     67.605  36.741307     35.226      6.367   232.1287     3.0522     5.5430     0.0243      0.000     -0.011     -0.016        108 3.1719e+02   996.4955 0.0000e+00
     -0.012    27.1271     5.3606     67.401  36.727343     35.228      6.364   232.0530     3.0408     5.7593     0.0243     -0.000     -0.012     -0.017        109 3.2077e+02   996.4963 0.0000e+00
     -0.012    27.1240     5.3417     67.159  36.692315     35.177      6.366   231.9016     3.0255     5.8026     0.0243     -0.000     -0.012     -0.017        110 3.2187e+02   996.4972 0.0000e+00
     -0.012    27.1209     5.3233     66.924  36.725630     35.233      6.365   232.0530     3.0446     5.8458     0.0243      0.000     -0.011     -0.016        111 3.1870e+02   996.4981 0.0000e+00
     -0.011    27.1174     5.3043     66.681  36.745153     35.235      6.363   232.2044     3.0522     5.8314     0.0243      0.000     -0.010     -0.015        112 3.2470e+02   996.4990 0.0000e+00
     -0.010    27.1146     5.2823     66.400  36.756925     35.264      6.364   232.1666     3.0484     5.8170     0.0243      0.001     -0.009     -0.014        113 3.1625e+02   996.4999 0.0000e+00
     -0.009    27.1119     5.2642     66.168  36.740617     35.239      6.359   232.4694     3.0179     5.7593     0.0243      0.001     -0.008     -0.012        114 3.2519e+02   996.5008 0.0000e+00
     -0.008    27.1092     5.2416     65.881  36.735816     35.241      6.356   232.3180     3.0294     5.8170     0.0243      0.002     -0.008     -0.012        115 3.4427e+02   996.5016 0.0000e+00
     -0.008    27.1061     5.2223     65.634  36.733266     35.243      6.355   232.4694     3.0255     5.7593     0.0243      0.002     -0.008     -0.011        116 3.2569e+02   996.5024 0.0000e+00
     -0.007    27.1029     5.1975     65.318  36.684522     35.191      6.351   232.3180     3.0713     5.8170     0.0243      0.003     -0.007     -0.010        117 3.1295e+02   996.5031 0.0000e+00
     -0.006    27.1002     5.1731     65.007  36.707574     35.220      6.353   232.9237     2.9225     5.5142     0.0243      0.003     -0.006     -0.009        118 3.2051e+02   996.5040 0.0000e+00
     -0.005    27.0972     5.1476     64.683  36.734212     35.249      6.354   232.4694     2.8958     5.6439     0.0243      0.003     -0.005     -0.008        119 3.1512e+02   996.5048 0.0000e+00
     -0.005    27.0943     5.1292     64.447  36.681006     35.197      6.352   232.7344     2.8958     5.4709     0.0243      0.003     -0.005     -0.007        120 3.0912e+02   996.5056 0.0000e+00
     -0.004    27.0911     5.1092     64.193  36.684887     35.199      6.355   232.7344     2.9264     5.5430     0.0243      0.003     -0.005     -0.007        121 3.1732e+02   996.5064 0.0000e+00
     -0.005    27.0874     5.0927     63.981  36.670117     35.201      6.353   232.7344     3.0408     5.7593     0.0243      0.002     -0.005     -0.007        122 3.3105e+02   996.5072 0.0000e+00
     -0.004    27.0838     5.0714     63.709  36.640120     35.150      6.351   232.8859     3.0255     5.7881     0.0243      0.002     -0.004     -0.006        123 3.2087e+02   996.5081 0.0000e+00
     -0.003    27.0805     5.0391     63.300  36.692585     35.233      6.358   232.8480     3.0294     5.7305     0.0243      0.002     -0.003     -0.004        124 3.0877e+02   996.5091 0.0000e+00
     -0.001    27.0773     5.0329     63.220  36.634462     35.155      6.361   233.1509     3.0103     5.7881     0.0243      0.002     -0.002     -0.003        125 3.2118e+02   996.5101 0.0000e+00
     -0.003    27.0742     5.0140     62.980  36.564282     35.104      6.366   233.4916     3.1667     5.5718     0.0242      0.002     -0.003     -0.004        126 3.2706e+02   996.5110 0.0000e+00
     -0.004    27.0709     4.9929     62.710  36.572483     35.106      6.367   233.2644     3.2010     5.4997     0.0242      0.001     -0.004     -0.005        127 3.1974e+02   996.5119 0.0000e+00
     -0.004    27.0672     4.9775     62.514  36.564988     35.108      6.359   233.1130     3.1171     5.5863     0.0242      0.001     -0.004     -0.005        128 3.1079e+02   996.5127 0.0000e+00
     -0.003    27.0632     4.9529     62.201  36.573610     35.110      6.356   233.3780     3.1324     5.5430     0.0242      0.001     -0.003     -0.005        129 3.0652e+02   996.5136 0.0000e+00
     -0.003    27.0595     4.9329     61.946  36.591390     35.139      6.356   233.7566     3.0751     5.5142     0.0242      0.000     -0.003     -0.005        130 3.2288e+02   996.5147 0.0000e+00
     -0.003    27.0563     4.9165     61.737  36.572498     35.115      6.357   233.5673     3.0980     5.5142     0.0242     -0.000     -0.003     -0.004        131 3.2456e+02   996.5158 0.0000e+00
     -0.002    27.0530     4.8973     61.494  36.567488     35.118      6.364   233.9459     3.1018     5.4132     0.0242     -0.000     -0.003     -0.004        132 3.1543e+02   996.5168 0.0000e+00
     -0.003    27.0499     4.8788     61.257  36.567993     35.120      6.368   234.0216     3.0942     5.6439     0.0242     -0.000     -0.003     -0.004        133 3.1784e+02   996.5177 0.0000e+00
     -0.002    27.0469     4.8582     60.996  36.571872     35.122      6.370   234.0973     3.0446     5.8170     0.0242      0.000     -0.003     -0.004        134 3.1474e+02   996.5186 0.0000e+00
     -0.003    27.0442     4.8437     60.811  36.562662     35.124      6.369   234.2487     3.0027     5.8026     0.0242      0.000     -0.003     -0.005        135 3.1245e+02   996.5194 0.0000e+00
     -0.004    27.0414     4.8265     60.593  36.520187     35.073      6.370   234.2866     3.0332     5.8170     0.0242      0.000     -0.003     -0.005        136 3.1312e+02   996.5202 0.0000e+00
     -0.003    27.0382     4.8077     60.354  36.506195     35.074      6.370   234.4380     3.0370     5.7305     0.0242     -0.000     -0.003     -0.004        137 3.1347e+02   996.5210 0.0000e+00
     -0.002    27.0351     4.7914     60.147  36.520807     35.076      6.367   234.1730     3.0255     5.6872     0.0242      0.000     -0.002     -0.003        138 3.1811e+02   996.5217 0.0000e+00
     -0.002    27.0319     4.7776     59.970  36.502004     35.078      6.367   234.1730     3.2201     5.7881     0.0242      0.000     -0.002     -0.003        139 3.1876e+02   996.5226 0.0000e+00
     -0.002    27.0287     4.7585     59.727  36.440694     35.000      6.364   234.2866     3.2315     5.8026     0.0242      0.000     -0.002     -0.003        140 3.1411e+02   996.5234 0.0000e+00
     -0.002    27.0260     4.7421     59.519  36.508205     35.083      6.363   234.2487     3.2354     5.7593     0.0242      0.001     -0.002     -0.004        141 3.2458e+02   996.5244 0.0000e+00
     -0.003    27.0231     4.7297     59.361  36.506893     35.085      6.363   234.3623     3.1972     5.7593     0.0242      0.000     -0.002     -0.004        142 3.2776e+02   996.5252 0.0000e+00
     -0.002    27.0199     4.7118     59.133  36.442329     35.006      6.362   234.4380     3.0980     5.7737     0.0242      0.001     -0.002     -0.004        143 3.2254e+02   996.5260 0.0000e+00
     -0.002    27.0171     4.7031     59.023  36.499651     35.089      6.364   234.4380     3.1133     5.8026     0.0242      0.001     -0.002     -0.003        144 3.2063e+02   996.5268 0.0000e+00
     -0.002    27.0147     4.6849     58.793  36.524460     35.091      6.365   234.7409     3.0980     5.7305     0.0242      0.000     -0.002     -0.003        145 3.1765e+02   996.5277 0.0000e+00
     -0.003    27.0125     4.6717     58.626  36.500359     35.093      6.367   234.8544     3.1056     5.7881     0.0242     -0.000     -0.003     -0.004        146 3.1777e+02   996.5284 0.0000e+00
     -0.003    27.0101     4.6575     58.447  36.440743     35.014      6.364   234.8544     3.1591     5.4853     0.0242     -0.000     -0.003     -0.004        147 3.1754e+02   996.5291 0.0000e+00
     -0.003    27.0075     4.6426     58.260  36.420847     35.015      6.368   234.5894     3.1476     5.6007     0.0242     -0.000     -0.003     -0.004        148 3.1830e+02   996.5297 0.0000e+00
     -0.003    27.0044     4.6263     58.055  36.436217     35.017      6.364   235.0059     3.1476     5.5574     0.0242     -0.000     -0.002     -0.004        149 3.1619e+02   996.5304 0.0000e+00
     -0.003    27.0017     4.6179     57.949  36.421616     35.019      6.359   235.1573     3.1705     5.4853     0.0242     -0.000     -0.002     -0.004        150 3.1670e+02   996.5311 0.0000e+00
     -0.002    26.9993     4.6047     57.783  36.439019     35.021      6.361   235.1573     3.1514     5.5286     0.0242     -0.000     -0.002     -0.004        151 3.1492e+02   996.5319 0.0000e+00
     -0.003    26.9967     4.5918     57.620  36.444195     35.049      6.361   235.0059     3.1552     5.5430     0.0242     -0.000     -0.003     -0.004        152 3.1166e+02   996.5326 0.0000e+00
     -0.004    26.9945     4.5861     57.546  36.385541     34.971      6.364   235.0816     3.1629     5.5286     0.0242     -0.000     -0.003     -0.004        153 3.1733e+02   996.5333 0.0000e+00
     -0.003    26.9927     4.5769     57.428  36.423112     35.026      6.363   235.3466     3.1514     5.5574     0.0242      0.000     -0.002     -0.004        154 3.3015e+02   996.5340 0.0000e+00
     -0.003    26.9915     4.5714     57.354  36.427076     35.027      6.361   235.5737     3.0904     5.8747     0.0242      0.000     -0.002     -0.004        155 3.3787e+02   996.5345 0.0000e+00
     -0.002    26.9906     4.5648     57.264  36.380609     34.975      6.363   235.1573     3.0751     5.7593     0.0242      0.000     -0.002     -0.003        156 3.3027e+02   996.5351 0.0000e+00
     -0.001    26.9899     4.5671     57.282  36.392036     35.003      6.365   235.4223     3.0980     5.7016     0.0242      0.000     -0.001     -0.002        157 3.1625e+02   996.5355 0.0000e+00
     -0.000    26.9891     4.5691     57.292  36.383221     34.976      6.363   235.2330     3.0904     5.7881     0.0242      0.001     -0.000     -0.001        158 3.1294e+02   996.5357 0.0000e+00
      0.000    26.9887     4.5762     57.360  36.361946     34.977      6.363   235.3087     3.0980     5.7449     0.0242      0.001     -0.000     -0.001        159 3.2305e+02   996.5359 0.0000e+00
     -0.001    26.9885     4.5832     57.422  36.329612     34.924      6.368   235.3466     3.2315     5.5863     0.0241      0.002     -0.001     -0.002        160 3.2694e+02   996.5361 0.0000e+00
     -0.001    26.9876     4.5933     57.522  36.364194     34.978      6.368   235.6873     3.2468     5.6007     0.0242      0.001     -0.001     -0.002        161 3.2264e+02   996.5362 0.0000e+00
     -0.002    26.9864     4.6110     57.715  36.378177     34.978      6.370   235.3844     3.2163     5.4853     0.0242      0.001     -0.001     -0.002        162 3.2343e+02   996.5363 0.0000e+00
     -0.001    26.9846     4.6326     57.954  36.341843     34.952      6.370   235.4980     3.2392     5.4421     0.0241      0.000     -0.001     -0.002        163 3.1698e+02   996.5365 0.0000e+00
     -0.001    26.9819     4.6607     58.276  36.320510     34.925      6.373   235.6116     3.2315     5.6584     0.0241      0.000     -0.001     -0.001        164 3.1445e+02   996.5368 0.0000e+00
     -0.000    26.9774     4.6917     58.631  36.315824     34.927      6.373   235.7252     3.2125     5.5718     0.0241     -0.000     -0.000     -0.000        165 3.2388e+02   996.5373 0.0000e+00
      0.000    26.9698     4.7300     59.078  36.377308     34.982      6.374   235.8766     3.2010     5.5863     0.0242      0.000      0.000      0.000        166 3.2732e+02   996.5381 0.0000e+00
      0.001    26.9591     4.7670     59.514  36.362531     34.985      6.374   235.8387     3.2239     5.5430     0.0242      0.001      0.000      0.001        167 3.2813e+02   996.5393 0.0000e+00
      0.001    26.9445     4.8103     60.032  36.334216     34.937      6.376   236.2173     3.2964     5.7881     0.0241      0.001      0.001      0.002        168 3.2738e+02   996.5414 0.0000e+00
      0.001    26.9243     4.8482     60.487  36.382917     35.024      6.376   235.9144     3.2811     5.8314     0.0242      0.001      0.001      0.002        169 3.1961e+02   996.5444 0.0000e+00
      0.001    26.9000     4.8849     60.934  36.331565     34.954      6.377   236.2930     3.2964     5.8747     0.0241      0.001      0.001      0.001        170 3.1495e+02   996.5483 0.0000e+00
      0.001    26.8744     4.9221     61.470  36.309227     34.967      6.379   235.7252     3.2697     5.7449     0.0241      0.001      0.001      0.001        171 3.2815e+02   996.5539 0.0000e+00
      0.001    26.8463     5.1323     64.310  36.321823     34.984      6.379   235.8766     3.1972     5.4565     0.0241      0.001      0.001      0.001        172 3.2825e+02   996.5606 0.0000e+00
      0.000    26.8170     5.7920     72.770  36.315901     35.001      6.378   236.1037     3.2315     5.6007     0.0241      0.000      0.001      0.001        173 3.1768e+02   996.5677 0.0000e+00
      0.001    26.7877     6.5881     82.894  36.346244     35.047      6.376   236.1794     3.2392     5.5142     0.0242      0.000      0.001      0.001        174 3.2066e+02   996.5753 0.0000e+00
      0.000    26.7565     7.3866     93.010  36.372978     35.094      6.374   236.4066     3.2315     5.5430     0.0242     -0.000      0.000      0.001        175 3.1877e+02   996.5832 0.0000e+00
      0.000    26.7270     8.0842    101.830  36.371548     35.113      6.374   236.2552     3.2964     5.5574     0.0242     -0.000 4.6401e-07      0.001        176 3.1165e+02   996.5913 0.0000e+00
      0.000    26.7027     8.6396    108.848  36.377674     35.135      6.374   236.3687     3.2773     5.5430     0.0242     -0.000      0.000      0.001        177 3.1697e+02   996.5999 0.0000e+00
      0.000    26.6819     9.0383    113.883  36.365371     35.155      6.375   236.2173     3.2811     5.4997     0.0242     -0.000      0.000      0.001        178 3.2585e+02   996.6079 0.0000e+00
      0.001    26.6659     9.2768    116.895  36.386873     35.171      6.378   236.3309     3.3040     5.5718     0.0242     -0.000      0.001      0.002        179 3.2199e+02   996.6145 0.0000e+00
      0.002    26.6553     9.3081    117.295  36.439828     35.266      6.378   237.0123     3.2964     5.5863     0.0242      0.000      0.002      0.003        180 3.2231e+02   996.6202 0.0000e+00
      0.002    26.7252     9.2023    115.965  36.388380     35.196      6.377   236.8609     3.3956     5.5430     0.0242      0.001      0.002      0.003        181 3.2531e+02   996.6245 0.0000e+00
      0.001    26.9030     9.0575    114.143  36.806520     35.609      6.377   236.5580     3.4108     5.5574     0.0243      0.001      0.002      0.003        182 3.1754e+02   996.6275 0.0000e+00
      0.002    27.0560     8.9109    112.296  37.430835     36.212      6.378   236.7094     3.4032     5.6151     0.0246      0.001      0.002      0.003        183 3.1891e+02   996.6086 0.0000e+00
      0.003    27.1366     8.8031    110.938  37.478404     36.082      6.379   237.0123     3.3994     5.5574     0.0246      0.001      0.002      0.003        184 3.2568e+02   996.5601 0.0000e+00
      0.003    27.1789     8.7123    109.795  37.458495     35.979      6.382   236.8609     3.3269     5.4421     0.0246      0.001      0.002      0.003        185 3.2624e+02   996.5181 0.0000e+00
      0.001    27.1989     8.6407    108.893  37.514811     35.975      6.382   236.7094     3.3269     5.5142     0.0246      0.001      0.001      0.002        186 3.2152e+02   996.4958 0.0000e+00
      0.000    27.2103     8.5841    108.179  37.467545     35.894      6.380   237.0123     3.3383     5.5574     0.0246     -0.000      0.000      0.001        187 3.1219e+02   996.4840 0.0000e+00
     -0.000    27.2158     8.5514    107.766  37.458021     35.880      6.382   236.9366     3.3574     5.7016     0.0246     -0.001      0.000      0.001        188 3.1148e+02   996.4785 0.0000e+00
      0.000    27.2195     8.5338    107.542  37.467379     35.872      6.385   237.1259     3.3651     5.9179     0.0246     -0.001      0.001      0.002        189 3.1593e+02   996.4754 0.0000e+00
      0.003    27.2220     8.5251    107.431  37.515163     35.922      6.384   237.1259     3.3383     5.9468     0.0246     -0.000      0.002      0.003        190 3.1925e+02   996.4739 0.0000e+00
      0.002    27.2238     8.5165    107.320  37.517095     35.919      6.385   237.5044     3.3269     5.8747     0.0246     -0.000      0.002      0.004        191 3.2335e+02   996.4729 0.0000e+00
      0.003    27.2247     8.5150    107.299  37.524245     35.917      6.386   237.7694     3.3498     5.9900     0.0246      0.000      0.003      0.004        192 3.2096e+02   996.4721 0.0000e+00
      0.003    27.2253     8.5271    107.450  37.565535     35.970      6.386   237.5044     3.3612     6.2640     0.0246      0.001      0.003      0.004        193 3.1584e+02   996.4717 0.0000e+00
      0.002    27.2258     8.5349    107.549  37.524980     35.916      6.388   237.3530     3.3689     6.1342     0.0246      0.001      0.002      0.003        194 3.1459e+02   996.4714 0.0000e+00
      0.002    27.2263     8.5330    107.525  37.515442     35.915      6.392   237.3909     3.3383     6.1198     0.0246      0.001      0.002      0.003        195 3.1547e+02   996.4712 0.0000e+00
      0.002    27.2264     8.5367    107.569  37.518132     35.915      6.391   237.5802     3.3574     6.2352     0.0246      0.001      0.002      0.003        196 3.2108e+02   996.4711 0.0000e+00
      0.002    27.2262     8.5337    107.527  37.521632     35.914      6.393   237.3530     3.2735     6.4659     0.0246      0.000      0.002      0.003        197 3.2023e+02   996.4709 0.0000e+00
      0.002    27.2253     8.5258    107.425  37.511088     35.915      6.396   237.4666     3.3116     6.4082     0.0246     -0.000      0.003      0.004        198 3.1246e+02   996.4710 0.0000e+00
      0.004    27.2246     8.5151    107.293  37.471983     35.861      6.397   237.4287     3.3078     6.4226     0.0246      0.000      0.004      0.005        199 3.1446e+02   996.4710 0.0000e+00
      0.004    27.2238     8.4976    107.072  37.511025     35.915      6.401   237.3530     3.3002     6.3505     0.0246      0.000      0.004      0.005        200 3.2213e+02   996.4711 0.0000e+00
      0.004    27.2223     8.4866    106.932  37.521773     35.916      6.403   237.6937     3.2392     6.3649     0.0246      0.001      0.004      0.005        201 3.1784e+02   996.4714 0.0000e+00
      0.004    27.2210     8.4807    106.859  37.517881     35.916      6.401   237.5423     3.3383     5.7881     0.0246      0.001      0.005      0.007        202 3.1559e+02   996.4716 0.0000e+00
      0.007    27.2204     8.4819    106.880  37.515870     35.917      6.404   237.6180     3.3536     5.7881     0.0246      0.002      0.006      0.010        203 3.1779e+02   996.4721 0.0000e+00
      0.009    27.2204     8.4838    106.910  37.524276     35.918      6.405   237.6559     3.3269     5.8314     0.0246      0.003      0.009      0.013        204 3.1903e+02   996.4725 0.0000e+00
      0.012    27.2203     8.4874    106.961  37.566692     35.972      6.407   237.3530     3.3383     5.8170     0.0246      0.004      0.012      0.016        205 3.2288e+02   996.4727 0.0000e+00
      0.014    27.2192     8.4934    107.038  37.522356     35.919      6.407   237.5802     3.3383     6.8840     0.0246      0.005      0.014      0.019        206 3.1397e+02   996.4726 0.0000e+00
      0.015    27.2169     8.5007    107.126  37.520179     35.919      6.409   237.6559     3.3307     6.9129     0.0246      0.006      0.014      0.020        207 3.0818e+02   996.4727 0.0000e+00
      0.013    27.2160     8.5139    107.290  37.569400     35.973      6.409   237.6559     3.3574     6.9417     0.0246      0.006      0.013      0.019        208 3.0765e+02   996.4730 0.0000e+00
      0.013    27.2171     8.5203    107.365  37.520372     35.921      6.409   237.8452     3.3841     6.8264     0.0246      0.006      0.013      0.019        209 2.9925e+02   996.4736 0.0000e+00
      0.014    27.2169     8.5241    107.407  37.521923     35.922      6.411   237.7316     3.2697     6.5091     0.0246      0.005      0.014      0.020        210 2.9923e+02   996.4739 0.0000e+00
      0.014    27.2165     8.5219    107.378  37.567472     35.974      6.406   237.7316     3.2964     6.4659     0.0246      0.003      0.014      0.020        211 2.9799e+02   996.4736 0.0000e+00
      0.014    27.2175     8.5225    107.394  37.522958     35.921      6.411   238.1480     3.2849     6.4803     0.0246      0.002      0.013      0.019        212 3.0624e+02   996.4735 0.0000e+00
      0.013    27.2201     8.5231    107.413  37.518048     35.921      6.411   237.9209     3.2735     6.4370     0.0246      0.000      0.012      0.017        213 3.1897e+02   996.4737 0.0000e+00
      0.010    27.2235     8.5266    107.463  37.573583     35.974      6.412   237.9209     3.2697     5.9612     0.0246     -0.001      0.011      0.015        214 3.0053e+02   996.4734 0.0000e+00
      0.010    27.2265     8.5290    107.493  37.572390     35.972      6.412   238.0345     3.2773     5.9179     0.0246     -0.002      0.011      0.015        215 3.0595e+02   996.4727 0.0000e+00
      0.012    27.2269     8.5304    107.509  37.519533     35.916      6.413   238.2995     3.3040     6.0765     0.0246     -0.001      0.012      0.018        216 3.1841e+02   996.4718 0.0000e+00
      0.015    27.2248     8.5382    107.606  37.520816     35.914      6.413   238.4130     3.2468     6.1054     0.0246     -0.001      0.014      0.020        217 3.0853e+02   996.4710 0.0000e+00
      0.015    27.2231     8.5428    107.662  37.570789     35.967      6.412   238.4130     3.2315     6.6533     0.0246     -0.000      0.014      0.021        218 3.0553e+02   996.4709 0.0000e+00
      0.014    27.2211     8.5486    107.735  37.516615     35.916      6.411   238.4887     3.2201     6.7543     0.0246      0.001      0.014      0.020        219 3.1367e+02   996.4714 0.0000e+00
      0.013    27.2179     8.5542    107.808  37.469694     35.863      6.409   238.9809     3.1972     6.6245     0.0246      0.001      0.013      0.019        220 3.0073e+02   996.4719 0.0000e+00
      0.013    27.2171     8.5554    107.825  37.510638     35.918      6.408   239.0566     3.2430     6.6966     0.0246      0.001      0.010      0.014        221 3.1327e+02   996.4725 0.0000e+00
      0.003    27.2215     8.5538    107.807  37.524934     35.920      6.402   238.4509     3.2048     6.6101     0.0246     -0.001      0.001      0.002        222 3.6004e+02   996.4733 0.0000e+00
     -0.012    27.2270     8.5575    107.855  37.570447     35.974      6.398   238.1480     3.2315     7.0282     0.0246     -0.008     -0.009     -0.013        223 3.5861e+02   996.4735 0.0000e+00
     -0.016    27.2302     8.5569    107.846  37.572540     35.971      6.403   238.5645     3.2125     7.1292     0.0246     -0.014     -0.015     -0.022        224 3.8042e+02   996.4723 0.0000e+00
     -0.019    27.2305     8.5585    107.865  37.522328     35.914      6.399   238.0723     3.2315     7.0427     0.0246     -0.019     -0.019     -0.027        225 4.0045e+02   996.4707 0.0000e+00
     -0.021    27.2294     8.5610    107.895  37.573661     35.965      6.394   238.4509     3.2239     7.2157     0.0246     -0.022     -0.021     -0.031        226 3.8481e+02   996.4698 0.0000e+00
     -0.025    27.2284     8.5644    107.931  37.567926     35.965      6.390   238.2616     3.1896     5.7593     0.0246     -0.022     -0.023     -0.034        227 3.8005e+02   996.4697 0.0000e+00
     -0.025    27.2275     8.5641    107.921  37.529464     35.912      6.390   238.1859     3.1476     5.7593     0.0246     -0.021     -0.023     -0.034        228 3.5970e+02   996.4700 0.0000e+00
     -0.021    27.2277     8.5559    107.815  37.562257     35.967      6.395   238.7916     3.1476     5.6728     0.0246     -0.016     -0.020     -0.029        229 3.6215e+02   996.4703 0.0000e+00
     -0.015    27.2288     8.5491    107.732  37.586389     35.967      6.400   238.7916     3.1514     5.8170     0.0246     -0.008     -0.014     -0.020        230 3.5963e+02   996.4706 0.0000e+00
     -0.007    27.2299     8.5474    107.713  37.558703     35.967      6.404   238.6023     2.9836     7.7204     0.0246      0.001     -0.008     -0.011        231 3.2698e+02   996.4706 0.0000e+00
     -0.002    27.2309     8.5455    107.691  37.537440     35.913      6.406   238.5645     2.9950     7.8502     0.0246      0.007     -0.003     -0.004        232 3.5015e+02   996.4703 0.0000e+00
      0.000    27.2315     8.5494    107.743  37.553578     35.966      6.404   238.6023     2.9569     7.6771     0.0246      0.012     -0.000     -0.001        233 3.5738e+02   996.4700 0.0000e+00
      0.001    27.2310     8.5496    107.747  37.538618     35.911      6.410   238.6780     2.9874     7.7781     0.0246      0.015      0.001      0.001        234 3.4262e+02   996.4697 0.0000e+00
      0.002    27.2305     8.5564    107.829  37.556057     35.964      6.415   238.3373     3.3231     6.3938     0.0246      0.016      0.003      0.004        235 3.4873e+02   996.4695 0.0000e+00
      0.006    27.2292     8.5634    107.911  37.531875     35.911      6.421   238.5266     3.3536     6.5668     0.0246      0.015      0.006      0.009        236 3.4481e+02   996.4697 0.0000e+00
      0.011    27.2261     8.5672    107.950  37.568714     35.965      6.423   238.6023     3.3574     6.4803     0.0246      0.014      0.010      0.014        237 3.3773e+02   996.4699 0.0000e+00
      0.013    27.2226     8.5716    107.993  37.569485     35.966      6.424   238.0723     3.3460     6.3217     0.0246      0.012      0.012      0.017        238 3.3670e+02   996.4702 0.0000e+00
      0.013    27.2214     8.5755    108.038  37.530916     35.915      6.421   238.3373     3.2659     7.3166     0.0246      0.010      0.012      0.017        239 3.4187e+02   996.4711 0.0000e+00
      0.012    27.2225     8.5729    108.014  37.557441     35.971      6.423   238.2616     3.2849     7.4032     0.0246      0.008      0.011      0.016        240 3.3905e+02   996.4721 0.0000e+00
      0.011    27.2240     8.5668    107.956  37.536475     35.918      6.427   238.2616     3.2964     7.3743     0.0246      0.007      0.011      0.016        241 3.3546e+02   996.4724 0.0000e+00
      0.013    27.2251     8.5610    107.905  37.557008     35.971      6.431   238.1480     3.2773     7.3022     0.0246      0.006      0.013      0.019        242 3.2924e+02   996.4721 0.0000e+00
      0.017    27.2264     8.5516    107.799  37.531887     35.916      6.432   238.4887     3.2888     7.3743     0.0246      0.005      0.016      0.025        243 3.1921e+02   996.4717 0.0000e+00
      0.022    27.2272     8.5399    107.661  37.508467     35.915      6.435   238.4130     3.2201     7.2734     0.0246      0.005      0.021      0.030        244 2.9890e+02   996.4714 0.0000e+00
      0.026    27.2257     8.5287    107.531  37.526884     35.914      6.440   238.4130     3.2315     7.2734     0.0246      0.006      0.024      0.035        245 2.9479e+02   996.4710 0.0000e+00
      0.026    27.2221     8.5246    107.495  37.568239     35.967      6.441   238.7159     3.1972     7.3311     0.0246      0.008      0.025      0.036        246 3.0785e+02   996.4708 0.0000e+00
      0.026    27.2173     8.5239    107.497  37.575545     35.968      6.439   238.8295     3.1896     7.4176     0.0246      0.009      0.024      0.035        247 2.9577e+02   996.4713 0.0000e+00
      0.023    27.2116     8.5256    107.521  37.517793     35.917      6.439   238.4887     3.2048     7.2734     0.0246      0.008      0.023      0.032        248 2.7070e+02   996.4722 0.0000e+00
      0.022    27.2093     8.5281    107.559  37.521567     35.921      6.440   238.7159     3.2315     7.3455     0.0246      0.006      0.016      0.022        249 2.8053e+02   996.4735 0.0000e+00
      0.002    27.2138     8.5271    107.555  37.570848     35.978      6.437   246.7795     3.2125     7.3022     0.0246     -0.001     -0.007     -0.010        250 2.9787e+02   996.4751 0.0000e+00
     -0.046    27.2235     8.5224    107.510  37.575010     35.980      6.433   241.1009     3.2239     7.4753     0.0246     -0.021     -0.048     -0.070        251 3.3356e+02   996.4754 0.0000e+00
     -0.105    27.2347     8.5102    107.379  37.575660     35.977      6.432   239.8516     3.2544     5.8170     0.0246     -0.051     -0.093     -0.135        252 3.8431e+02   996.4740 0.0000e+00
     -0.129    27.2416     8.4958    107.211  37.570036     35.970      6.433   239.6623     3.2163     5.7016     0.0246     -0.077     -0.127     -0.183        253 3.8853e+02   996.4712 0.0000e+00
     -0.154    27.2460     8.4793    107.007  37.582004     35.962      6.427   239.6245     3.2163     5.7305     0.0246     -0.099     -0.157     -0.228        254 4.2163e+02   996.4680 0.0000e+00
     -0.199    27.2524     8.4669    106.855  37.560759     35.957      6.430   239.4352     3.2430     5.7305     0.0246     -0.120     -0.199     -0.288        255 4.5321e+02   996.4658 0.0000e+00
     -0.256    27.2602     8.4525    106.676  37.537198     35.901      6.436   240.0409     3.0294     6.0044     0.0246     -0.142     -0.246     -0.357        256 4.5718e+02   996.4643 0.0000e+00
     -0.297    27.2656     8.4480    106.619  37.611323     36.004      6.444   239.7002     3.0446     5.9323     0.0246     -0.157     -0.286     -0.416        257 4.9228e+02   996.4624 0.0000e+00
     -0.325    27.2675     8.4504    106.649  37.587051     35.945      6.445   243.3723     3.0332     6.0765     0.0246     -0.159     -0.314     -0.456        258 5.0562e+02   996.4601 0.0000e+00
     -0.342    27.2704     8.4643    106.822  37.567400     35.941      6.443   241.6687     3.0484     5.9756     0.0246     -0.149     -0.328     -0.476        259 4.9294e+02   996.4585 0.0000e+00
     -0.336    27.2753     8.4685    106.859  37.576505     35.940      6.438   241.9716     2.9340   137.1956     0.0246     -0.131     -0.324     -0.471        260 4.8955e+02   996.4581 0.0000e+00
     -0.318    27.2831     8.4682    106.824  37.575719     35.938      6.437   243.4480     2.9111   137.1811     0.0246     -0.108     -0.305     -0.443        261 4.7870e+02   996.4574 0.0000e+00
     -0.282    27.2940     8.4694    106.797  37.568376     35.934      6.434   240.6845     2.9187   137.2100     0.0246     -0.070     -0.272     -0.395        262 4.6549e+02   996.4561 0.0000e+00
     -0.234    27.3014     8.4726    106.765  37.526370     35.876      6.430   242.9938     2.9111   137.3253     0.0246     -0.018     -0.229     -0.334        263 4.7453e+02   996.4542 0.0000e+00
     -0.189    27.3040     8.4930    106.885  37.568720     35.921      6.433   241.5552     2.9035    12.3924     0.0246      0.037     -0.189     -0.275        264 4.9941e+02   996.4513 0.0000e+00
     -0.159    27.3062     8.5142    106.942  37.574939     35.916      6.437   240.6087     3.2048    10.6188     0.0246      0.080     -0.158     -0.229        265 5.0314e+02   996.4494 0.0000e+00
     -0.137    27.3074     8.5130    106.761  37.518626     35.861      6.440   239.5487     3.2392    10.4746     0.0246      0.110     -0.131     -0.190        266 4.9911e+02   996.4488 0.0000e+00
     -0.102    27.3075     8.4846    106.308  37.520254     35.860      6.446   239.6245     3.2125    10.5034     0.0246      0.128     -0.102     -0.148        267 4.7325e+02   996.4483 0.0000e+00
     -0.074    27.3074     8.4445    105.748  37.572913     35.912      6.446   239.5487     3.1972    10.5467     0.0246      0.135     -0.074     -0.108        268 4.7286e+02   996.4481 0.0000e+00
     -0.054    27.3061     8.3898    105.026  37.571638     35.912      6.450   239.3595     2.5411     8.5135     0.0246      0.130     -0.049     -0.072        269 4.2792e+02   996.4482 0.0000e+00
     -0.024    27.2975     8.3490    104.488  37.521841     35.859      6.449   239.7759     2.5830     8.4702     0.0246      0.122     -0.019     -0.028        270 3.2201e+02   996.4483 0.0000e+00
      0.021    27.2816     8.3230    104.139  37.575613     35.913      6.448   238.2237     2.5525     8.4558     0.0246      0.117      0.019      0.027        271 3.1317e+02   996.4489 0.0000e+00
      0.055    27.2588     8.3078    103.924  37.623266     35.972      6.446   237.5423     2.5411     8.5135     0.0246      0.117      0.060      0.087        272 2.8067e+02   996.4515 0.0000e+00
      0.109    27.2214     8.3067    103.884  37.581088     35.930      6.443   237.4666     2.5830     8.7298     0.0246      0.127      0.115      0.167        273 2.2703e+02   996.4560 0.0000e+00
      0.190    27.1482     8.3153    103.968  37.450296     35.838      6.443   237.3530     2.6135     8.7730     0.0246      0.149      0.187      0.271        274 1.9163e+02   996.4627 0.0000e+00
      0.273    27.0412     8.3441    104.311  37.222968     35.624      6.446   237.8830     2.6135     8.7875     0.0245      0.176      0.262      0.380        275 1.7212e+02   996.4735 0.0000e+00
      0.338    26.9534     8.3845    104.806  37.093493     35.566      6.448   238.5645     2.5983     8.6577     0.0244      0.205      0.326      0.473        276 1.7655e+02   996.4940 0.0000e+00
      0.387    26.9032     8.4443    105.548  37.048391     35.587      6.450   238.9809     3.2125     8.0232     0.0244      0.228      0.378      0.548        277 1.7362e+02   996.5237 0.0000e+00
      0.432    26.8727     8.5068    106.325  37.042065     35.647      6.451   239.3595     3.2392     7.9944     0.0244      0.239      0.423      0.614        278 1.6836e+02   996.5481 0.0000e+00
      0.479    26.8526     8.5563    106.936  37.101411     35.735      6.451   239.8895     3.2277     8.1097     0.0244      0.240      0.463      0.671        279 1.6621e+02   996.5620 0.0000e+00
      0.502    26.8378     8.6000    107.480  37.093104     35.756      6.453   240.1166     3.2392     8.0520     0.0244      0.228      0.493      0.715        280 1.6833e+02   996.5705 0.0000e+00
      0.529    26.8255     8.6592    108.184  37.052419     35.716      6.452   240.7602     3.4032     7.6050     0.0244      0.204      0.522      0.757        281 1.5651e+02   996.5761 0.0000e+00
      0.567    26.8124     8.7170    108.806  37.033514     35.726      6.453   241.0630     3.4070     7.5474     0.0244      0.176      0.552      0.801        282 1.5329e+02   996.5803 0.0000e+00
      0.592    26.7982     8.7817    109.546  37.057369     35.734      6.454   240.7602     3.4108     7.7060     0.0244      0.152      0.579      0.840        283 1.4907e+02   996.5838 0.0000e+00
      0.614    26.7860     8.9169    111.172  37.141281     35.851      6.456   241.1766     3.3689     7.6195     0.0245      0.133      0.601      0.872        284 1.4239e+02   996.5875 0.0000e+00
      0.634    26.7769     9.1418    113.925  37.166175     35.861      6.461   241.3280     3.4681     7.6195     0.0245      0.119      0.619      0.897        285 1.4169e+02   996.5915 0.0000e+00
      0.643    26.7712     9.4042    117.167  37.144935     35.869      6.461   241.3280     3.4337     7.6339     0.0245      0.104      0.631      0.916        286 1.3923e+02   996.5948 0.0000e+00
      0.656    26.7683     9.6807    120.599  37.167720     35.876      6.462   241.3280     3.4604     7.7060     0.0245      0.091      0.642      0.932        287 1.3419e+02   996.5974 0.0000e+00
      0.665    26.7663     9.9321    123.671  37.137825     35.880      6.463   241.7445     3.4452     7.7204     0.0245      0.080      0.653      0.948        288 1.3074e+02   996.5990 0.0000e+00
      0.680    26.7623    10.1375    126.142  37.182143     35.882      6.468   241.8202     3.4375     7.5041     0.0245      0.069      0.667      0.968        289 1.2675e+02   996.5998 0.0000e+00
      0.695    26.7613    10.2826    127.854  37.231111     35.991      6.468   241.0630     3.5978     7.9799     0.0245      0.059      0.684      0.992        290 1.2457e+02   996.6004 0.0000e+00
      0.716    26.7406    10.3902    129.124  37.195428     35.886      6.469   241.2902     3.5749     7.8646     0.0245      0.056      0.705      1.023        291 1.2088e+02   996.6016 0.0000e+00
      0.749    26.6933    10.4501    129.764  37.434001     36.184      6.473   241.5173     3.5672     7.8646     0.0246      0.060      0.730      1.059        292 1.1723e+02   996.6022 0.0000e+00
      0.767    26.6562    10.4757    129.949  37.586198     36.304      6.472   241.5930     3.5825     7.8069     0.0246      0.065      0.750      1.088        293 1.1661e+02   996.6079 0.0000e+00
      0.781    26.6275    10.4988    130.126  37.569110     36.340      6.472   241.6687     3.5710     7.8357     0.0246      0.071      0.767      1.113        294 1.1628e+02   996.6208 0.0000e+00
      0.802    26.6014    10.5245    130.346  37.633101     36.418      6.474   241.8202     3.5825     7.8069     0.0247      0.076      0.785      1.138        295 1.1735e+02   996.6310 0.0000e+00
      0.818    26.5900    10.5723    130.856  37.625127     36.440      6.481   241.9716     3.5825     7.8502     0.0247      0.078      0.802      1.163        296 1.1690e+02   996.6390 0.0000e+00
      0.833    26.5819    10.6428    131.663  37.579052     36.403      6.484   242.0852     3.5672     7.7204     0.0246      0.077      0.818      1.187        297 1.1401e+02   996.6461 0.0000e+00
      0.852    26.5569    10.6964    132.215  37.571909     36.412      6.490   241.7445     3.8305     8.0809     0.0246      0.076      0.836      1.213        298 1.1246e+02   996.6492 0.0000e+00
      0.872    26.5170    10.7091    132.278  37.574752     36.417      6.491   241.7823     3.8533     8.0809     0.0246      0.072      0.853      1.239        299 1.1213e+02   996.6515 0.0000e+00
      0.887    26.4786    10.6716    131.786  37.575522     36.436      6.495   242.0473     3.8114     7.9944     0.0246      0.068      0.867      1.259        300 1.1106e+02   996.6584 0.0000e+00
      0.896    26.4477    10.5655    130.450  37.630235     36.517      6.501   242.4637     3.8343     8.0376     0.0247      0.066      0.879      1.275        301 1.0913e+02   996.6693 0.0000e+00
      0.908    26.4040    10.4207    128.522  37.625225     36.545      6.503   242.4637     4.0059     8.5423     0.0247      0.063      0.890      1.291        302 1.0724e+02   996.6796 0.0000e+00
      0.919    26.3479    10.2582    126.316  37.522504     36.458      6.512   242.8045     4.0212     8.5712     0.0246      0.059      0.903      1.309        303 1.0571e+02   996.6880 0.0000e+00
      0.935    26.3010    10.0941    124.236  37.461727     36.435      6.512   243.2966     3.9983     8.5423     0.0246      0.056      0.918      1.331        304 1.0357e+02   996.6999 0.0000e+00
      0.955    26.2589     9.9430    122.348  37.463795     36.475      6.520   243.5616     3.9983     8.5135     0.0246      0.055      0.936      1.357        305 1.0251e+02   996.7151 0.0000e+00
      0.972    26.2254     9.8177    120.797  37.401415     36.454      6.521   243.1073     4.5629     9.3642     0.0246      0.055      0.952      1.381        306 1.0133e+02   996.7278 0.0000e+00
      0.984    26.1958     9.7222    119.624  37.391206     36.456      6.526   241.2523     4.5400     9.3210     0.0246      0.056      0.967      1.402        307 9.7827e+01   996.7391 0.0000e+00
      1.002    26.1508     9.6647    118.900  37.446887     36.562      6.532   241.7823     4.5858     9.3787     0.0246      0.058      0.983      1.425        308 9.5254e+01   996.7482 0.0000e+00
      1.020    26.1121     9.6364    118.522  37.391411     36.501      6.538   241.4037     4.5553     9.4796     0.0246      0.062      0.998      1.447        309 9.5256e+01   996.7562 0.0000e+00
      1.030    26.0992     9.6278    118.392  37.371355     36.534      6.542   241.5930     4.5362     9.3498     0.0246      0.062      1.010      1.464        310 9.5399e+01   996.7683 0.0000e+00
      1.038    26.0881     9.6059    118.073  37.382957     36.562      6.550   241.8202     4.5476    10.2871     0.0246      0.060      1.023      1.483        311 9.2044e+01   996.7786 0.0000e+00
      1.061    26.0263     9.5825    117.717  37.406625     36.598      6.556   242.0473     4.5324    10.2439     0.0246      0.059      1.043      1.513        312 8.8386e+01   996.7822 0.0000e+00
      1.092    25.9438     9.5507    117.237  37.371548     36.578      6.552   242.4637     4.5743    10.2871     0.0246      0.062      1.066      1.547        313 8.8120e+01   996.7853 0.0000e+00
      1.106    25.9127     9.4767    116.260  37.337715     36.566      6.549   243.2588     4.5667    10.3160     0.0246      0.065      1.082      1.570        314 8.7594e+01   996.8018 0.0000e+00
      1.114    25.9027     9.3698    114.925  37.359850     36.684      6.544   243.3345     4.5514    10.0131     0.0246      0.066      1.091      1.582        315 8.6500e+01   996.8238 0.0000e+00
      1.117    25.8967     9.2207    113.060  37.344037     36.648      6.542   243.5238     4.5514    10.0276     0.0246      0.062      1.096      1.589        316 8.5884e+01   996.8321 0.0000e+00
      1.121    25.8986     9.0860    111.290  37.387050     36.740      6.535   243.0316     4.5514    10.0420     0.0246      0.056      1.101      1.597        317 8.5872e+01   996.8347 0.0000e+00
      1.130    25.8905     8.9700    109.634  37.395234     36.715      6.535   243.1830     4.5705    10.1141     0.0246      0.051      1.109      1.608        318 8.5163e+01   996.8363 0.0000e+00
      1.141    25.8777     8.8504    107.928  37.363491     36.715      6.529   243.2209     4.6163    10.0852     0.0246      0.045      1.119      1.623        319 8.3550e+01   996.8359 0.0000e+00
      1.152    25.8648     8.7161    106.145  37.337648     36.665      6.532   242.9938     4.5820    10.0131     0.0246      0.037      1.132      1.641        320 8.2248e+01   996.8381 0.0000e+00
      1.168    25.8431     8.5663    104.241  37.308857     36.675      6.533   243.4480     4.5820    10.0708     0.0246      0.033      1.148      1.665        321 8.0561e+01   996.8415 0.0000e+00
      1.191    25.8103     8.4194    102.424  37.340056     36.683      6.530   243.4480     4.6201    10.1285     0.0246      0.039      1.169      1.695        322 7.8483e+01   996.8450 0.0000e+00
      1.217    25.7693     8.3073    101.070  37.239557     36.645      6.529   243.5616     4.6125    10.0276     0.0245      0.049      1.192      1.730        323 7.6130e+01   996.8508 0.0000e+00
      1.240    25.7372     8.2287    100.121  37.019043     36.393      6.527   244.6216     4.5972    10.0276     0.0244      0.061      1.214      1.761        324 7.4918e+01   996.8596 0.0000e+00
      1.256    25.7250     8.1901     99.662  37.081061     36.533      6.520   245.6059     4.5820    10.0276     0.0245      0.069      1.231      1.786        325 7.3742e+01   996.8705 0.0000e+00
      1.269    25.7078     8.1859     99.584  37.103124     36.557      6.519   247.9531     4.6087     9.9987     0.0245      0.074      1.247      1.809        326 7.1638e+01   996.8790 0.0000e+00
      1.290    25.6482     8.2140     99.852  37.110143     36.565      6.517   248.3316     4.5400    10.3736     0.0245      0.077      1.271      1.843        327 6.8887e+01   996.8823 0.0000e+00
      1.330    25.5320     8.2374     99.962  37.072336     36.577      6.513   249.0509     4.5438    10.2871     0.0245      0.083      1.308      1.896        328 6.4365e+01   996.8870 0.0000e+00
      1.382    25.4099     8.2601    100.027  36.764933     36.261      6.508   249.4673     4.5820    10.3448     0.0243      0.095      1.349      1.955        329 6.1191e+01   996.9027 0.0000e+00
      1.411    25.3345     8.2740     99.879  36.722222     36.345      6.503   249.9973     4.5476    10.3736     0.0243      0.104      1.378      1.998        330 6.0134e+01   996.9333 0.0000e+00
      1.423    25.2928     8.2824     99.622  36.799555     36.490      6.501   250.7166     4.5400    10.2294     0.0244      0.108      1.394      2.022        331 5.8991e+01   996.9653 0.0000e+00
      1.433    25.2778     8.2756     99.293  36.787287     36.544      6.498   252.1552     4.7117    11.0081     0.0244      0.108      1.406      2.039        332 5.7961e+01   996.9849 0.0000e+00
      1.445    25.2810     8.2954     99.492  36.856068     36.629      6.499   252.5338     4.7078    11.0802     0.0244      0.104      1.421      2.061        333 5.6049e+01   996.9959 0.0000e+00
      1.470    25.2871     8.3702    100.355  36.921426     36.724      6.498   253.3288     4.7193    10.9648     0.0244      0.099      1.443      2.093        334 5.3581e+01   996.9999 0.0000e+00
      1.499    25.2895     8.4867    101.726  36.913406     36.693      6.493   253.8209     4.7040    10.9216     0.0244      0.092      1.468      2.130        335 5.1886e+01   996.9992 0.0000e+00
      1.522    25.2784     8.6258    103.271  36.984590     36.773      6.488   254.8809     5.0016    10.9648     0.0245      0.082      1.492      2.164        336 5.0460e+01   996.9977 0.0000e+00
      1.543    25.2335     8.7574    104.411  37.099553     36.880      6.486   255.0324     5.0054    11.0514     0.0245      0.076      1.515      2.196        337 4.8981e+01   996.9972 0.0000e+00
      1.568    25.1439     8.8828    105.430  37.096325     36.891      6.481   255.6759     5.0130    10.9360     0.0245      0.080      1.540      2.233        338 4.7046e+01   997.0002 0.0000e+00
      1.600    25.0248     9.0294    106.739  36.988616     36.809      6.480   256.3952     5.0054    10.9648     0.0245      0.089      1.570      2.278        339 4.4995e+01   997.0119 0.0000e+00
      1.635    24.8574     9.2420    109.008  36.700186     36.601      6.477   256.9252     5.0855    10.9648     0.0243      0.099      1.605      2.328        340 4.2983e+01   997.0351 0.0000e+00
      1.675    24.6613     9.5461    112.497  36.447727     36.405      6.476   257.5688     5.0474    11.0514     0.0242      0.109      1.643      2.383        341 4.0909e+01   997.0659 0.0000e+00
      1.715    24.5323     9.9164    116.786  36.413817     36.530      6.476   257.9474     5.0779    11.0225     0.0242      0.117      1.678      2.434        342 3.9256e+01   997.1089 0.0000e+00
      1.742    24.5047    10.2955    121.215  36.446123     36.673      6.471   258.0231     5.0779    11.0514     0.0243      0.123      1.703      2.470        343 3.8587e+01   997.1588 0.0000e+00
      1.752    24.4892    10.6566    125.423  36.496515     36.857      6.470   257.9474     4.8299    10.5322     0.0243      0.123      1.717      2.490        344 3.8552e+01   997.1914 0.0000e+00
      1.758    24.4766    11.0072    129.267  36.469704     36.816      6.469   258.5531     4.8337    10.5611     0.0243      0.116      1.728      2.506        345 3.8150e+01   997.1984 0.0000e+00
      1.776    24.4051    11.2389    131.697  36.509147     36.886      6.470   258.1367     4.8375    10.5322     0.0243      0.105      1.748      2.535        346 3.6924e+01   997.2024 0.0000e+00
      1.812    24.1912    11.3811    133.137  36.121460     36.529      6.470   258.5909     4.8261    10.5322     0.0241      0.096      1.779      2.580        347 3.5266e+01   997.2056 0.0000e+00
      1.853    23.9435    11.4787    134.116  35.351961     35.729      6.469   258.7045     4.6430    11.2100     0.0238      0.093      1.818      2.635        348 3.3844e+01   997.2236 0.0000e+00
      1.894    23.7353    11.5475    134.874  34.799815     35.409      6.463   259.3481     4.6506    11.1811     0.0236      0.095      1.854      2.689        349 3.2739e+01   997.2770 0.0000e+00
      1.926    23.6120    11.6426    135.935  34.526964     35.213      6.463   259.3481     4.6506    11.1811     0.0235      0.102      1.883      2.731        350 3.2386e+01   997.3384 0.0000e+00
      1.941    23.5667    11.7776    137.150  34.624872     35.568      6.464   259.1588     4.6316    11.0946     0.0235      0.109      1.902      2.757        351 3.2457e+01   997.3895 0.0000e+00
      1.950    23.5312    11.8978    138.138  34.648433     35.599      6.462   259.2345     4.6392    11.2388     0.0235      0.112      1.912      2.773        352 3.2434e+01   997.4196 0.0000e+00
      1.958    23.5189    12.0008    139.174  34.497701     35.546      6.466   259.0831     4.5476    11.4695     0.0235      0.108      1.923      2.789        353 3.2105e+01   997.4306 0.0000e+00
      1.974    23.4930    12.1488    140.793  34.575430     35.571      6.469   259.4995     4.5591    11.5128     0.0235      0.096      1.938      2.810        354 3.1432e+01   997.4393 0.0000e+00
      1.996    23.3849    12.3176    142.611  34.551717     35.669      6.471   259.5752     4.5400    11.4263     0.0235      0.082      1.958      2.839        355 3.0596e+01   997.4424 0.0000e+00
      2.020    23.2643    12.5009    144.277  34.319802     35.308      6.473   258.8938     4.5438    11.4551     0.0234      0.071      1.982      2.874        356 2.9716e+01   997.4486 0.0000e+00
      2.046    23.1761    12.6372    145.320  34.330695     35.537      6.477   258.8559     4.6125    11.9598     0.0234      0.067      2.007      2.910        357 2.8847e+01   997.4748 0.0000e+00
      2.071    23.1113    12.7312    146.066  34.241888     35.421      6.482   259.0452     4.5896    11.8877     0.0234      0.070      2.029      2.943        358 2.8096e+01   997.5039 0.0000e+00
      2.090    23.0949    12.7933    146.692  34.163690     35.487      6.488   258.2124     4.6010    11.8877     0.0234      0.077      2.048      2.971        359 2.7467e+01   997.5250 0.0000e+00
      2.105    23.0704    12.8334    146.989  34.161370     35.476      6.497   257.6066     4.5705    11.8589     0.0233      0.083      2.065      2.996        360 2.6539e+01   997.5406 0.0000e+00
      2.124    22.9343    12.8314    146.724  34.126277     35.489      6.505   257.2659     4.6087    11.7291     0.0233      0.085      2.085      3.025        361 2.5345e+01   997.5445 0.0000e+00
      2.150    22.7828    12.7882    145.888  34.029590     35.387      6.514   257.1524     4.5972    11.7723     0.0233      0.085      2.108      3.058        362 2.4131e+01   997.5505 0.0000e+00
      2.174    22.7159    12.7001    144.847  33.896516     35.344      6.521   255.9031     4.6125    11.7723     0.0232      0.084      2.129      3.088        363 2.3292e+01   997.5828 0.0000e+00
      2.189    22.6857    12.6084    143.835  33.877105     35.460      6.531   251.7388     4.5629    11.6714     0.0232      0.082      2.146      3.113        364 2.2809e+01   997.6185 0.0000e+00
      2.204    22.6254    12.5118    142.736  33.905651     35.505      6.540   248.3695     4.2577    12.1761     0.0232      0.078      2.163      3.137        365 2.2153e+01   997.6343 0.0000e+00
      2.224    22.4686    12.4463    141.764  33.861027     35.531      6.548   247.8016     4.2844    12.0607     0.0232      0.077      2.183      3.166        366 2.1437e+01   997.6414 0.0000e+00
      2.248    22.2742    12.3792    140.490  33.695616     35.335      6.555   248.8995     4.2539    12.0752     0.0231      0.078      2.205      3.198        367 2.0875e+01   997.6557 0.0000e+00
      2.272    22.1620    12.3086    139.176  33.726338     35.546      6.561   248.8616     4.2615    12.1040     0.0232      0.080      2.226      3.229        368 2.0231e+01   997.6922 0.0000e+00
      2.290    22.1210    12.2113    137.912  33.733966     35.660      6.564   248.5966     4.4751    12.3491     0.0232      0.079      2.245      3.256        369 1.9560e+01   997.7371 0.0000e+00
      2.307    22.0724    12.0836    136.494  33.775092     35.809      6.569   248.5588     4.4828    12.3347     0.0232      0.078      2.262      3.280        370 1.8896e+01   997.7629 0.0000e+00
      2.322    21.9764    11.9346    134.729  33.823366     35.892      6.573   248.2181     4.4980    12.2770     0.0232      0.076      2.277      3.303        371 1.8109e+01   997.7724 0.0000e+00
      2.339    21.8686    11.7623    132.554  33.792442     35.877      6.575   248.7481     4.5247    12.3347     0.0232      0.076      2.292      3.325        372 1.7358e+01   997.7835 0.0000e+00
      2.352    21.8445    11.6242    130.737  33.813603     36.002      6.575   248.8616     4.4790    12.3491     0.0232      0.073      2.305      3.343        373 1.6771e+01   997.8054 0.0000e+00
      2.361    21.8632    11.4290    128.340  33.826702     36.065      6.575   248.7859     4.4904    12.3491     0.0232      0.067      2.315      3.357        374 1.6290e+01   997.8298 0.0000e+00
      2.368    21.8583    11.2456    125.896  33.805812     36.105      6.574   248.5588     4.4980    12.3491     0.0232      0.059      2.324      3.371        375 1.5787e+01   997.8354 0.0000e+00
      2.381    21.7787    11.0186    122.875  33.809986     36.036      6.574   248.5588     4.5057    12.3780     0.0232      0.053      2.337      3.390        376 1.5233e+01   997.8312 0.0000e+00
      2.400    21.5909    10.7513    119.609  33.851138     36.154      6.574   249.1266     4.4904    12.3491     0.0233      0.051      2.355      3.415        377 1.4672e+01   997.8324 0.0000e+00
      2.423    21.4065    10.4113    115.632  33.991655     36.277      6.573   250.2623     4.4217    12.3059     0.0233      0.052      2.375      3.445        378 1.4181e+01   997.8505 0.0000e+00
      2.443    21.3427     9.9707    110.647  34.198146     36.753      6.568   250.8681     4.4217    12.3780     0.0234      0.056      2.393      3.472        379 1.3811e+01   997.8927 0.0000e+00
      2.456    21.3499     9.4366    104.552  34.186864     36.782      6.565   251.2088     4.4103    12.4212     0.0234      0.059      2.409      3.494        380 1.3520e+01   997.9337 0.0000e+00
      2.471    21.3190     8.9326     98.707  34.213189     36.951      6.565   251.1709     4.4256    12.4212     0.0234      0.062      2.423      3.514        381 1.3222e+01   997.9478 0.0000e+00
      2.485    21.2296     8.4647     93.431  34.343209     37.004      6.563   252.0416     4.2959    12.1184     0.0235      0.065      2.438      3.535        382 1.2867e+01   997.9463 0.0000e+00
      2.501    21.1302     8.0494     88.797  34.588069     37.361      6.562   253.0638     4.2844    12.1617     0.0236      0.067      2.453      3.556        383 1.2574e+01   997.9533 0.0000e+00
      2.515    21.0457     7.6388     84.199  34.619649     37.433      6.558   253.1395     4.3073    12.0607     0.0236      0.065      2.468      3.579        384 1.2283e+01   997.9729 0.0000e+00
      2.533    20.8900     7.1807     78.958  34.748426     37.637      6.557   254.7295     4.3264    12.1040     0.0237      0.062      2.485      3.604        385 1.1892e+01   997.9948 0.0000e+00
      2.554    20.6971     6.8020     74.602  35.464998     38.521      6.552   255.8652     4.6697    12.3924     0.0240      0.062      2.504      3.632        386 1.1541e+01   998.0136 0.0000e+00
      2.573    20.5707     6.4634     70.786  35.831879     39.048      6.547   256.5466     4.6697    12.3059     0.0242      0.063      2.521      3.657        387 1.1274e+01   998.0475 0.0000e+00
      2.586    20.4892     6.1249     67.058  35.803215     39.156      6.548   257.0009     4.6583    12.2915     0.0242      0.065      2.535      3.678        388 1.1115e+01   998.0889 0.0000e+00
      2.597    20.4446     5.7452     62.863  35.826722     39.321      6.541   257.0766     4.6468    12.2626     0.0242      0.065      2.547      3.695        389 1.0947e+01   998.1159 0.0000e+00
      2.610    20.3607     5.3343     58.239  35.743423     39.273      6.536   257.8717     4.6048    12.6087     0.0241      0.063      2.560      3.713        390 1.0687e+01   998.1333 0.0000e+00
      2.625    20.2347     4.8736     53.109  36.173630     39.769      6.535   259.0452     4.5743    12.5366     0.0243      0.061      2.574      3.733        391 1.0452e+01   998.1430 0.0000e+00
      2.640    20.1711     4.4769     48.736  36.773095     40.580      6.535   259.2345     4.5896    12.5943     0.0247      0.060      2.588      3.753        392 1.0240e+01   998.1609 0.0000e+00
      2.651    20.1473     4.0403     43.978  36.716254     40.545      6.532   259.0831     4.5820    12.4645     0.0246      0.056      2.599      3.770        393 1.0111e+01   998.1874 0.0000e+00
      2.660    20.1000     3.5547     38.689  36.659305     40.596      6.527   259.4617     4.5972    12.5222     0.0246      0.052      2.610      3.786        394 9.9192e+00   998.2006 0.0000e+00
      2.675    19.9833     3.0769     33.476  36.814367     40.746      6.527   260.4838     4.5057    12.3491     0.0247      0.050      2.625      3.806        395 9.6323e+00   998.2057 0.0000e+00
      2.694    19.8533     2.6490     28.814  37.323464     41.371      6.525   260.9759     4.5057    12.3491     0.0249      0.052      2.640      3.830        396 9.4244e+00   998.2158 0.0000e+00
      2.708    19.7806     2.3845     25.915  37.833571     42.073      6.526   261.5059     4.5133    12.2770     0.0252      0.053      2.655      3.851        397 9.1948e+00   998.2402 0.0000e+00
      2.720    19.7649     2.2368     24.248  37.898511     42.225      6.520   261.9981     4.4904    12.2770     0.0252      0.054      2.668      3.869        398 9.0721e+00   998.2671 0.0000e+00
      2.732    19.7307     2.1832     23.630  37.983625     42.419      6.518   262.2631     4.7574    12.0607     0.0252      0.053      2.681      3.888        399 8.9358e+00   998.2820 0.0000e+00
      2.748    19.6263     2.1618     23.411  38.557534     43.026      6.516   263.3231     4.7880    12.1905     0.0255      0.054      2.696      3.910        400 8.6230e+00   998.2855 0.0000e+00
      2.769    19.5292     2.1158     22.923  39.318245     43.992      6.515   263.7017     4.7841    12.0319     0.0259      0.057      2.715      3.937        401 8.3739e+00   998.2928 0.0000e+00
      2.788    19.4805     2.0921     22.657  39.437670     44.163      6.512   263.8152     4.7460    12.1328     0.0259      0.060      2.733      3.964        402 8.2241e+00   998.3142 0.0000e+00
      2.803    19.4716     2.0533     22.235  39.179562     44.005      6.508   264.1181     4.7765    12.4645     0.0258      0.062      2.748      3.986        403 8.0436e+00   998.3338 0.0000e+00
      2.816    19.4684     2.0070     21.743  39.135638     43.962      6.503   264.6102     4.7689    12.6664     0.0258      0.062      2.760      4.002        404 7.9382e+00   998.3436 0.0000e+00
      2.822    19.4492     1.9511     21.132  39.077412     43.968      6.501   264.8374     4.8032    12.5222     0.0258      0.060      2.769      4.015        405 7.8870e+00   998.3454 0.0000e+00
      2.832    19.4386     1.9152     20.702  39.044560     43.846      6.500   265.3295     4.7803    12.5510     0.0258      0.058      2.779      4.030        406 7.7100e+00   998.3460 0.0000e+00
      2.847    19.3926     1.9346     20.816  39.384002     44.337      6.499   266.0110     5.3754    12.4789     0.0260      0.055      2.792      4.049        407 7.5403e+00   998.3501 0.0000e+00
      2.862    19.2725     1.9715     21.131  39.899841     44.850      6.497   266.2760     5.3411    12.5078     0.0262      0.052      2.805      4.068        408 7.4291e+00   998.3525 0.0000e+00
      2.872    19.1944     1.9913     21.337  40.210639     45.334      6.495   266.3895     5.3831    12.5222     0.0264      0.048      2.815      4.082        409 7.3995e+00   998.3619 0.0000e+00
      2.877    19.2176     1.9103     20.466  40.093931     45.240      6.488   267.0331     5.3754    12.5366     0.0263      0.044      2.821      4.092        410 7.3393e+00   998.3858 0.0000e+00
      2.882    19.2398     1.6813     17.975  40.045132     45.322      6.488   268.2445     5.9934    12.5799     0.0263      0.041      2.826      4.099        411 7.2494e+00   998.4013 0.0000e+00
      2.886    19.2208     1.3971     14.909  40.123202     45.358      6.486   268.0174     5.9515    12.5943     0.0263      0.038      2.829      4.103        412 7.2824e+00   998.3968 0.0000e+00
      2.884    19.2185     1.0869     11.586  39.996774     45.208      6.484   268.7367     5.9362    12.4789     0.0263      0.032      2.829      4.103        413 7.2777e+00   998.3923 0.0000e+00
      2.884    19.2373     0.7772      8.285  39.846777     45.040      6.481   269.1153     5.9400    12.6520     0.0262      0.025      2.829      4.103        414 7.2386e+00   998.3961 0.0000e+00
      2.886    19.2247     0.4669      4.978  39.894911     45.106      6.480   269.4938     5.9629    12.4933     0.0262      0.017      2.831      4.107        415 7.2201e+00   998.3965 0.0000e+00
      2.890    19.1212     0.2316      2.468  40.114716     45.337      6.477   270.2131     5.5471    13.3008     0.0263      0.011      2.836      4.113        416 7.1442e+00   998.3929 0.0000e+00
      2.899    18.8986     0.0803      0.855  40.995984     46.298      6.477   271.4245     5.5356    13.1855     0.0267      0.010      2.845      4.126        417 7.0073e+00   998.3958 0.0000e+00
      2.913    18.7123     0.0209      0.222  43.778156     49.569      6.473   271.8410     5.5204    13.2143     0.0281      0.013      2.859      4.146        418 6.8030e+00   998.4174 0.0000e+00
      2.935    18.6912     0.0254      0.271  45.189909     51.670      6.474   272.0681     5.5585    13.1999     0.0289      0.021      2.878      4.174        419 6.5888e+00   998.4615 0.0000e+00
      2.956    18.6804     0.0677      0.720  44.308483     50.458      6.469   273.2417     5.2381    13.1422     0.0283      0.033      2.898      4.203        420 6.4150e+00   998.4975 0.0000e+00
      2.974    18.5832     0.1196      1.271  46.120384     52.841      6.465   273.6203     5.2610    13.0845     0.0294      0.046      2.916      4.230        421 6.2527e+00   998.5024 0.0000e+00
      2.990    18.4907     0.1846      1.961  49.458079     56.594      6.459   273.2038     5.2267    12.9980     0.0310      0.056      2.932      4.252        422 6.1549e+00   998.5057 0.0000e+00
      3.004    18.4380     0.2440      2.590  51.392804     59.002      6.452   274.5667     5.2457    12.9692     0.0320      0.063      2.944      4.270        423 6.0752e+00   998.5253 0.0000e+00
      3.013    18.4378     0.2820      2.996  53.142900     61.021      6.446   273.4688     4.3073    14.0939     0.0329      0.065      2.953      4.283        424 6.0272e+00   998.5437 0.0000e+00
      3.017    18.4458     0.3110      3.304  53.715889     61.997      6.441   273.7717     4.3340    14.1516     0.0333      0.062      2.958      4.290        425 6.0285e+00   998.5539 0.0000e+00
      3.019    18.4151     0.3182      3.380  53.141452     60.969      6.434   274.3774     4.3340    14.1228     0.0328      0.053      2.960      4.294        426 6.0117e+00   998.5538 0.0000e+00
      3.021    18.3815     0.3179      3.376  53.145941     61.336      6.430   274.6803     4.3302    14.2381     0.0330      0.042      2.963      4.297        427 5.9755e+00   998.5522 0.0000e+00
      3.023    18.3475     0.3150      3.343  54.570456     62.580      6.424   274.3017     4.0708    15.1466     0.0335      0.032      2.965      4.300        428 5.9248e+00   998.5586 0.0000e+00
      3.025    18.3383     0.3073      3.260  56.589177     65.519      6.420   274.9453     4.0479    14.9591     0.0348      0.023      2.967      4.303        429 5.8954e+00   998.5658 0.0000e+00
      3.028    18.3297 -9.990e-29 -9.990e-29  57.812168     66.385      6.413   275.3996     4.0822    15.1466     0.0352      0.016      2.969      4.307        430 5.9036e+00   998.5727 0.0000e+00
      3.030    18.2940 -9.990e-29 -9.990e-29  59.189178     68.554      6.409   275.1724     4.0517    15.0168     0.0361      0.011      2.971      4.310        431 5.8983e+00   998.5750 0.0000e+00
      3.032    18.2522 -9.990e-29 -9.990e-29  61.521169     70.666      6.404   275.2481     3.6550    14.8582     0.0370      0.009      2.974      4.313        432 5.8619e+00   998.5776 0.0000e+00
      3.035    18.2427 -9.990e-29 -9.990e-29  63.722263     73.955      6.402   277.0274     3.6435    14.8582     0.0385      0.009      2.977      4.317        433 5.8643e+00   998.5851 0.0000e+00
      3.037    18.2692 -9.990e-29 -9.990e-29  62.562468     72.117      6.397   277.3681     3.6283    14.7861     0.0377      0.009      2.979      4.320        434 5.8495e+00   998.5925 0.0000e+00
      3.040    18.2647 -9.990e-29 -9.990e-29  61.480795     71.105      6.392   276.4596     3.6321    14.8726     0.0372      0.009      2.981      4.323        435 5.8308e+00   998.5940 0.0000e+00
      3.040    18.2547 -9.990e-29 -9.990e-29  62.308734     72.020      6.389   276.2324     3.6550    14.9303     0.0376      0.009      2.982      4.325        436 5.8436e+00   998.5894 0.0000e+00
      3.041    18.2537 -9.990e-29 -9.990e-29  63.045425     72.779      6.392   276.3081     3.8877    15.1322     0.0380      0.008      2.982      4.326        437 5.8244e+00   998.5905 0.0000e+00
      3.042    18.2247 -9.990e-29 -9.990e-29  63.887450     73.956      6.386   276.4217     3.9029    15.0024     0.0385      0.007      2.983      4.327        438 5.8253e+00   998.5926 0.0000e+00
      3.042    18.2027 -9.990e-29 -9.990e-29  63.575457     73.409      6.384   276.8003     3.9029    15.1322     0.0382      0.006      2.984      4.327        439 5.7838e+00   998.5928 0.0000e+00
      3.042 -9.990e-29 -9.990e-29 -9.990e-29  62.929224     72.843      6.382   276.5731     3.8991    15.0024     0.0380      0.005      2.984      4.327        440 5.7466e+00   998.5979 0.0000e+00
      3.043 -9.990e-29 -9.990e-29 -9.990e-29  62.733173     72.528      6.377   276.1188     3.6016    15.2475     0.0378      0.003      2.984      4.327        441 5.7702e+00   998.6019 0.0000e+00
