* Sea-Bird SBE19plus  Data File:
* FileName = C:\DATA\071019_bvr_0005.hex
* Software version 2.8.0.119
* Temperature SN = 7809
* Conductivity SN = 7809
* System UpLoad Time = Jul 12 2019 13:02:43
* <ApplicationData>
* <Seaterm232>
* <SoftwareVersion>2.8.0.119</SoftwareVersion>
* <BuildDate>07-Nov-2018</BuildDate>
* </Seaterm232>
* </ApplicationData>
* <InstrumentState>
* <HardwareData DeviceType='SBE19plus' SerialNumber='01907809'>
*
*    <Manufacturer>Sea-Bird Electronics, Inc.</Manufacturer>
*
*    <FirmwareVersion>3.1.8</FirmwareVersion>
*
*    <FirmwareDate>Mar  9 2016 16:22:29</FirmwareDate>
*
*    <CommandSetVersion>1.4</CommandSetVersion>
*
*    <PCBAssembly PCBSerialNum='120721' AssemblyNum='41054J'/>
*
*    <PCBAssembly PCBSerialNum='120715' AssemblyNum='41967A'/>
*
*    <PCBAssembly PCBSerialNum='116699' AssemblyNum='41606'/>
*
*    <PCBAssembly PCBSerialNum='120719' AssemblyNum='41059D'/>
*
*    <MfgDate>28-Apr-2017</MfgDate>
*
*    <InternalSensors>
*
*       <Sensor id='Main Temperature'>
*
*          <type>temperature0</type>
*
*          <SerialNumber>01907809</SerialNumber>
*
*       </Sensor>
*
*       <Sensor id='Main Conductivity'>
*
*          <type>conductivity-0</type>
*
*          <SerialNumber>01907809</SerialNumber>
*
*       </Sensor>
*
*       <Sensor id='Main Pressure'>
*
*          <type>strain-0</type>
*
*          <SerialNumber>10586018</SerialNumber>
*
*       </Sensor>
*
*    </InternalSensors>
*
*    <ExternalSensors>
*
*       <Sensor id='volt 0'>
*
*          <type>pH</type>
*
*          <SerialNumber>27-0363</SerialNumber>
*
*       </Sensor>
*
*       <Sensor id='volt 1'>
*
*          <type>ORP</type>
*
*          <SerialNumber>27-0363</SerialNumber>
*
*       </Sensor>
*
*       <Sensor id='volt 2'>
*
*          <type>OXY</type>
*
*          <SerialNumber>43-0434</SerialNumber>
*
*       </Sensor>
*
*       <Sensor id='volt 3'>
*
*          <type>PAR</type>
*
*          <SerialNumber>1122</SerialNumber>
*
*       </Sensor>
*
*       <Sensor id='volt 4'>
*
*          <type>ECO AFL/FL</type>
*
*          <SerialNumber>FLNTURT-2496</SerialNumber>
*
*       </Sensor>
*
*       <Sensor id='volt 5'>
*
*          <type>ECO-NTU</type>
*
*          <SerialNumber>FLNTURT-2496</SerialNumber>
*
*       </Sensor>
*
*       <Sensor id='serial'>
*
*          <type>not assigned</type>
*
*          <SerialNumber>not assigned</SerialNumber>
*
*       </Sensor>
*
*    </ExternalSensors>
*
* </HardwareData>
* <StatusData DeviceType='SBE19plus' SerialNumber='01907809'>
*
*    <DateTime>2019-07-12T12:59:51</DateTime>
*
*    <LoggingState>not logging</LoggingState>
*
*    <EventSummary numEvents='0'/>
*
*    <Power>
*
*       <vMain>12.8</vMain>
*
*       <vLith>8.6</vLith>
*
*       <iMain>63.0</iMain>
*
*       <iPump>123.3</iPump>
*
*       <iExt01>19.1</iExt01>
*
*       <iExt2345>36.6</iExt2345>
*
*    </Power>
*
*    <MemorySummary>
*
*       <Bytes>253115</Bytes>
*
*       <Samples>11005</Samples>
*
*       <SamplesFree>2849783</SamplesFree>
*
*       <SampleLength>23</SampleLength>
*
*       <Profiles>10</Profiles>
*
*    </MemorySummary>
*
* </StatusData>
* <ConfigurationData DeviceType='SBE19plus' SerialNumber='01907809'>
*
*    <ProfileMode>
*
*       <ScansToAverage>1</ScansToAverage>
*
*       <MinimumCondFreq>5</MinimumCondFreq>
*
*       <PumpDelay>45</PumpDelay>
*
*       <AutoRun>no</AutoRun>
*
*       <IgnoreSwitch>no</IgnoreSwitch>
*
*    </ProfileMode>
*
*    <Battery>
*
*       <Type>alkaline</Type>
*
*       <CutOff>7.5</CutOff>
*
*    </Battery>
*
*    <DataChannels>
*
*       <ExtVolt0>yes</ExtVolt0>
*
*       <ExtVolt1>yes</ExtVolt1>
*
*       <ExtVolt2>yes</ExtVolt2>
*
*       <ExtVolt3>yes</ExtVolt3>
*
*       <ExtVolt4>yes</ExtVolt4>
*
*       <ExtVolt5>yes</ExtVolt5>
*
*       <SBE38>no</SBE38>
*
*       <WETLABS>no</WETLABS>
*
*       <OPTODE>no</OPTODE>
*
*       <SBE63>no</SBE63>
*
*       <SeaFET>no</SeaFET>
*
*       <GTD>no</GTD>
*
*    </DataChannels>
*
*    <EchoCharacters>yes</EchoCharacters>
*
*    <OutputExecutedTag>yes</OutputExecutedTag>
*
*    <OutputFormat>raw HEX</OutputFormat>
*
* </ConfigurationData>
* <CalibrationCoefficients DeviceType='SBE19plus' SerialNumber='01907809'>
*
*    <Calibration format='TEMP1' id='Main Temperature'>
*
*       <SerialNum>01907809</SerialNum>
*
*       <CalDate>24-Mar-19</CalDate>
*
*       <TA0>1.217923e-03</TA0>
*
*       <TA1>2.816693e-04</TA1>
*
*       <TA2>-1.603333e-06</TA2>
*
*       <TA3>1.984146e-07</TA3>
*
*       <TOFFSET>0.000000e+00</TOFFSET>
*
*    </Calibration>
*
*    <Calibration format='WBCOND0' id='Main Conductivity'>
*
*       <SerialNum>01907809</SerialNum>
*
*       <CalDate>24-Mar-19</CalDate>
*
*       <G>-1.005893e+00</G>
*
*       <H>1.268163e-01</H>
*
*       <I>-1.515604e-04</I>
*
*       <J>2.671373e-05</J>
*
*       <CPCOR>-9.570000e-08</CPCOR>
*
*       <CTCOR>3.250000e-06</CTCOR>
*
*       <CSLOPE>1.000000e+00</CSLOPE>
*
*    </Calibration>
*
*    <Calibration format='STRAIN0' id='Main Pressure'>
*
*       <SerialNum>10586018</SerialNum>
*
*       <CalDate>11-Mar-19</CalDate>
*
*       <PA0>4.565618e-02</PA0>
*
*       <PA1>4.850951e-04</PA1>
*
*       <PA2>-2.883271e-12</PA2>
*
*       <PTCA0>5.252467e+05</PTCA0>
*
*       <PTCA1>1.223042e+01</PTCA1>
*
*       <PTCA2>-3.567450e-01</PTCA2>
*
*       <PTCB0>2.516687e+01</PTCB0>
*
*       <PTCB1>3.750000e-04</PTCB1>
*
*       <PTCB2>0.000000e+00</PTCB2>
*
*       <PTEMPA0>-5.487846e+01</PTEMPA0>
*
*       <PTEMPA1>5.537568e+01</PTEMPA1>
*
*       <PTEMPA2>-5.867271e-01</PTEMPA2>
*
*       <POFFSET>7.140000e-01</POFFSET>
*
*       <PRANGE>1.600000e+02</PRANGE>
*
*    </Calibration>
*
*    <Calibration format='VOLT0' id='Volt 0'>
*
*       <OFFSET>-4.920000e-02</OFFSET>
*
*       <SLOPE>1.248122e+00</SLOPE>
*
*    </Calibration>
*
*    <Calibration format='VOLT0' id='Volt 1'>
*
*       <OFFSET>-4.784000e-02</OFFSET>
*
*       <SLOPE>1.248871e+00</SLOPE>
*
*    </Calibration>
*
*    <Calibration format='VOLT0' id='Volt 2'>
*
*       <OFFSET>-4.864632e-02</OFFSET>
*
*       <SLOPE>1.248714e+00</SLOPE>
*
*    </Calibration>
*
*    <Calibration format='VOLT0' id='Volt 3'>
*
*       <OFFSET>-4.743790e-02</OFFSET>
*
*       <SLOPE>1.248571e+00</SLOPE>
*
*    </Calibration>
*
*    <Calibration format='VOLT0' id='Volt 4'>
*
*       <OFFSET>-4.671263e-02</OFFSET>
*
*       <SLOPE>1.248951e+00</SLOPE>
*
*    </Calibration>
*
*    <Calibration format='VOLT0' id='Volt 5'>
*
*       <OFFSET>-4.871053e-02</OFFSET>
*
*       <SLOPE>1.249136e+00</SLOPE>
*
*    </Calibration>
*
*    <Calibration format='FREQ0' id='external frequency channel'>
*
*       <EXTFREQSF>1.000014e+00</EXTFREQSF>
*
*    </Calibration>
*
* </CalibrationCoefficients>
* <EventCounters DeviceType='SBE19plus' SerialNumber='01907809'>
*
*    <EventSummary numEvents='0'/>
*
* </EventCounters></InstrumentState>
* <Headers>
*
* cast   5 11 Jul 2019 04:47:08 samples 4200 to 5269, avg = 1, stop = mag switch
*
# nquan = 18
# nvalues = 892                         
# units = specified
# name 0 = depFM: Depth [fresh water, m]
# name 1 = tv290C: Temperature [ITS-90, deg C]
# name 2 = sbeox0Mg/L: Oxygen, SBE 43 [mg/l]
# name 3 = sbeox0PS: Oxygen, SBE 43 [% saturation]
# name 4 = c0uS/cm: Conductivity [uS/cm]
# name 5 = specc: Specific Conductance [uS/cm]
# name 6 = ph: pH
# name 7 = orp: Oxidation Reduction Potential [mV]
# name 8 = flECO-AFL: Fluorescence, WET Labs ECO-AFL/FL [mg/m^3]
# name 9 = turbWETntu0: Turbidity, WET Labs ECO [NTU]
# name 10 = sal00: Salinity, Practical [PSU]
# name 11 = dz/dtM: Descent Rate [m/s]
# name 12 = prdM: Pressure, Strain Gauge [db]
# name 13 = prdE: Pressure, Strain Gauge [psi]
# name 14 = scan: Scan Count
# name 15 = par/sat/log: PAR/Logarithmic, Satlantic
# name 16 = density00: Density [density, kg/m^3]
# name 17 = flag:  0.000e+00
# span 0 =     -0.691,     10.567       
# span 1 =     8.4280,    27.4095       
# span 2 =    -0.7902,     8.2418       
# span 3 =     -7.274,    104.126       
# span 4 =  -0.174677, 152.092570       
# span 5 =     -0.040,    228.353       
# span 6 =      5.847,      7.337       
# span 7 =    44.3189,   550.5461       
# span 8 =    -0.1407,    21.3593       
# span 9 =    -0.5566,    23.8705       
# span 10 =     0.0000,     0.1058      
# span 11 =     -0.012,      0.145      
# span 12 =     -0.677,     10.360      
# span 13 =     -0.982,     15.026      
# span 14 =          1,        892      
# span 15 = 1.2346e-01, 1.2402e-01      
# span 16 =   996.4231,   999.9572      
# span 17 = 0.0000e+00, 0.0000e+00      
# interval = seconds: 0.25
# start_time = Jul 11 2019 04:47:08 [Instrument's time stamp, header]
# bad_flag = -9.990e-29
# <Sensors count="9" >
#   <sensor Channel="1" >
#     <!-- Count, Temperature -->
#     <TemperatureSensor SensorID="58" >
#       <SerialNumber>7809</SerialNumber>
#       <CalibrationDate>24-Mar-19</CalibrationDate>
#       <A0>1.21792325e-003</A0>
#       <A1>2.81669265e-004</A1>
#       <A2>-1.60333336e-006</A2>
#       <A3>1.98414625e-007</A3>
#       <Slope>1.00000000</Slope>
#       <Offset>0.0000</Offset>
#     </TemperatureSensor>
#   </sensor>
#   <sensor Channel="2" >
#     <!-- Frequency 0, Conductivity -->
#     <ConductivitySensor SensorID="3" >
#       <SerialNumber>7809</SerialNumber>
#       <CalibrationDate>24-Mar-19</CalibrationDate>
#       <UseG_J>1</UseG_J>
#       <!-- Cell const and series R are applicable only for wide range sensors. -->
#       <SeriesR>0.0000</SeriesR>
#       <CellConst>2000.0000</CellConst>
#       <ConductivityType>0</ConductivityType>
#       <Coefficients equation="0" >
#         <A>0.00000000e+000</A>
#         <B>0.00000000e+000</B>
#         <C>0.00000000e+000</C>
#         <D>0.00000000e+000</D>
#         <M>0.0</M>
#         <CPcor>-9.57000000e-008</CPcor>
#       </Coefficients>
#       <Coefficients equation="1" >
#         <G>-1.00589325e+000</G>
#         <H>1.26816302e-001</H>
#         <I>-1.51560448e-004</I>
#         <J>2.67137274e-005</J>
#         <CPcor>-9.57000000e-008</CPcor>
#         <CTcor>3.2500e-006</CTcor>
#         <!-- WBOTC not applicable unless ConductivityType = 1. -->
#         <WBOTC>0.00000000e+000</WBOTC>
#       </Coefficients>
#       <Slope>1.00000000</Slope>
#       <Offset>0.00000</Offset>
#     </ConductivitySensor>
#   </sensor>
#   <sensor Channel="3" >
#     <!-- Count, Pressure, Strain Gauge -->
#     <PressureSensor SensorID="46" >
#       <SerialNumber>7809</SerialNumber>
#       <CalibrationDate>11-Mar-19</CalibrationDate>
#       <PA0>4.56561833e-002</PA0>
#       <PA1>4.85095118e-004</PA1>
#       <PA2>-2.88327090e-012</PA2>
#       <PTEMPA0>-5.48784562e+001</PTEMPA0>
#       <PTEMPA1>5.53756816e+001</PTEMPA1>
#       <PTEMPA2>-5.86727098e-001</PTEMPA2>
#       <PTCA0>5.25246745e+005</PTCA0>
#       <PTCA1>1.22304214e+001</PTCA1>
#       <PTCA2>-3.56745036e-001</PTCA2>
#       <PTCB0>2.51668750e+001</PTCB0>
#       <PTCB1>3.75000000e-004</PTCB1>
#       <PTCB2>0.00000000e+000</PTCB2>
#       <Offset>0.000000</Offset>
#     </PressureSensor>
#   </sensor>
#   <sensor Channel="4" >
#     <!-- A/D voltage 0, Oxygen, SBE 43 -->
#     <OxygenSensor SensorID="38" >
#       <SerialNumber>0434</SerialNumber>
#       <CalibrationDate>13-Apr-19</CalibrationDate>
#       <Use2007Equation>1</Use2007Equation>
#       <CalibrationCoefficients equation="0" >
#         <!-- Coefficients for Owens-Millard equation. -->
#         <Boc>0.0000</Boc>
#         <Soc>0.0000e+000</Soc>
#         <offset>0.0000</offset>
#         <Pcor>0.00e+000</Pcor>
#         <Tcor>0.0000</Tcor>
#         <Tau>0.0</Tau>
#       </CalibrationCoefficients>
#       <CalibrationCoefficients equation="1" >
#         <!-- Coefficients for Sea-Bird equation - SBE calibration in 2007 and later. -->
#         <Soc>4.2007e-001</Soc>
#         <offset>-0.6109</offset>
#         <A>-4.3656e-003</A>
#         <B> 1.7017e-004</B>
#         <C>-2.5341e-006</C>
#         <D0> 2.5826e+000</D0>
#         <D1> 1.92634e-004</D1>
#         <D2>-4.64803e-002</D2>
#         <E> 3.6000e-002</E>
#         <Tau20> 1.1800</Tau20>
#         <H1>-3.3000e-002</H1>
#         <H2> 5.0000e+003</H2>
#         <H3> 1.4500e+003</H3>
#       </CalibrationCoefficients>
#     </OxygenSensor>
#   </sensor>
#   <sensor Channel="5" >
#     <!-- A/D voltage 1, PAR/Logarithmic, Satlantic -->
#     <PARLog_SatlanticSensor SensorID="76" >
#       <SerialNumber>1122</SerialNumber>
#       <CalibrationDate>08-May-2019</CalibrationDate>
#       <a0>9.7456e-001</a0>
#       <a1>8.1640e-001</a1>
#       <Im>1.3589e+000</Im>
#       <Multiplier>1.0000e+000</Multiplier>
#     </PARLog_SatlanticSensor>
#   </sensor>
#   <sensor Channel="6" >
#     <!-- A/D voltage 2, pH -->
#     <pH_Sensor SensorID="43" >
#       <SerialNumber>0363</SerialNumber>
#       <CalibrationDate>15-Apr-19</CalibrationDate>
#       <Slope>4.5952</Slope>
#       <Offset>2.5370</Offset>
#     </pH_Sensor>
#   </sensor>
#   <sensor Channel="7" >
#     <!-- A/D voltage 3, Oxidation Reduction Potential -->
#     <OxidationReductionPotentialSensor SensorID="41" >
#       <SerialNumber>0363</SerialNumber>
#       <CalibrationDate>15-Apr-19</CalibrationDate>
#       <B>2.499480</B>
#       <M>-0.496195</M>
#       <Offset>0.0</Offset>
#     </OxidationReductionPotentialSensor>
#   </sensor>
#   <sensor Channel="8" >
#     <!-- A/D voltage 4, Fluorometer, WET Labs ECO-AFL/FL -->
#     <FluoroWetlabECO_AFL_FL_Sensor SensorID="20" >
#       <SerialNumber>FLNTURT-2496</SerialNumber>
#       <CalibrationDate>08-May-2019</CalibrationDate>
#       <ScaleFactor>5.00000000e+001</ScaleFactor>
#       <!-- Dark output -->
#       <Vblank>0.0550</Vblank>
#     </FluoroWetlabECO_AFL_FL_Sensor>
#   </sensor>
#   <sensor Channel="9" >
#     <!-- A/D voltage 5, Turbidity Meter, WET Labs, ECO-NTU -->
#     <TurbidityMeter SensorID="67" >
#       <SerialNumber>FLNTURT-2496</SerialNumber>
#       <CalibrationDate>08-May-2019</CalibrationDate>
#       <ScaleFactor>189.000000</ScaleFactor>
#       <!-- Dark output -->
#       <DarkVoltage>0.071000</DarkVoltage>
#     </TurbidityMeter>
#   </sensor>
# </Sensors>
# datcnv_date = Jul 12 2019 13:13:04, 7.26.7.129 [datcnv_vars = 17]
# datcnv_in = C:\DATA\071119_bvr50_a.hex C:\DATA\SBE19plusV2_7809.xmlcon
# datcnv_skipover = 0
# datcnv_ox_hysteresis_correction = yes
# datcnv_ox_tau_correction = yes
# filter_date = Jul 12 2019 13:13:33, 7.26.7.129
# filter_in = C:\DATA\071119_bvr50_a.cnv
# filter_low_pass_tc_A = 0.030
# filter_low_pass_tc_B = 0.150
# filter_low_pass_A_vars = tv290C c0uS/cm par/sat/log density00
# filter_low_pass_B_vars = prdM prdE
# alignctd_date = Jul 12 2019 13:14:04, 7.26.7.129
# alignctd_in = C:\DATA\071119_bvr50_a.cnv
# alignctd_adv = tv290C 0.500, sbeox0Mg/L 3.000, sbeox0PS 3.000                                                                                                                                                                      
# file_type = ascii
*END*
     -0.690    22.1754     7.8148     96.120   0.274888      0.284      6.263   550.5461    -0.1407    -0.3403     0.0109 -4.211e-16     -0.677     -0.982          1 1.2368e-01   997.7369 0.0000e+00
     -0.691    22.1806     7.7810     96.119   0.256485      0.284      6.272   525.3331    -0.1407    -0.3114     0.0109     -0.000     -0.677     -0.982          2 1.2376e-01   997.7363 0.0000e+00
     -0.691    22.1719     7.7595     96.126   0.286511      0.284      6.270   531.7310    -0.1254    -0.1961     0.0109     -0.000     -0.677     -0.982          3 1.2369e-01   997.7372 0.0000e+00
     -0.690    22.1857     7.7440     96.148   0.237521      0.284      6.261   527.9074    -0.1178    -0.2537     0.0109     -0.000     -0.677     -0.982          4 1.2363e-01   997.7358 0.0000e+00
     -0.691    22.1631     7.7187     96.073   0.228709      0.195      6.259   522.6453    -0.1254    -0.1528     0.0109     -0.000     -0.677     -0.982          5 1.2375e-01   997.7382 0.0000e+00
     -0.691    22.3158     7.7024     96.077   0.119990      0.195      6.257   518.0267    -0.1216    -0.2105     0.0109     -0.000     -0.677     -0.982          6 1.2376e-01   997.7342 0.0000e+00
     -0.690    23.1533     7.6906     96.120   0.372821      0.284      6.255   512.9917    -0.1216    -0.2393     0.0109     -0.000     -0.673     -0.977          7 1.2381e-01   997.7407 0.0000e+00
     -0.679    24.2420     7.6849     96.227  -0.174677      0.018      6.252   448.8615    -0.1178    -0.3258     0.0111      0.003     -0.661     -0.959          8 1.2375e-01   997.7040 0.0000e+00
     -0.651    25.0076     7.6828     96.337   0.298460     -0.040      6.314   446.1358    -0.1369    -0.5566     0.0000      0.013     -0.640     -0.929          9 1.2362e-01   997.5018 0.0000e+00
     -0.632    25.5188     7.6943     96.604   6.618396      6.867      6.385   439.5865    -0.1140    -0.4556     0.0129      0.025     -0.618     -0.897         10 1.2366e-01   997.2437 0.0000e+00
     -0.608    25.8762     7.7234     96.835  13.471544     13.481      6.512   428.0779    -0.1178    -0.3403     0.0153      0.039     -0.593     -0.860         11 1.2372e-01   997.0541 0.0000e+00
     -0.575    26.1176     7.7573     97.114  20.299959     19.917      6.742   354.0291    -0.1178    -0.4700     0.0178      0.057     -0.561     -0.814         12 1.2377e-01   996.9227 0.0000e+00
     -0.534    26.2732     7.7846     97.355  26.660251     26.550      6.982   342.5205    -0.1369    -0.5421     0.0205      0.078     -0.525     -0.761         13 1.2372e-01   996.8315 0.0000e+00
     -0.498    26.3992     7.8108     97.611  27.291541     26.481      7.146   339.1133    -0.1216    -0.4268     0.0205      0.098     -0.489     -0.710         14 1.2366e-01   996.7672 0.0000e+00
     -0.465    26.5344     7.8255     97.768  27.036598     26.481      7.260   329.6111    -0.1293    -0.4989     0.0206      0.113     -0.456     -0.663         15 1.2362e-01   996.7260 0.0000e+00
     -0.433    26.6548     7.8425     97.989  27.362530     26.553      7.308   331.7311    -0.1254    -0.4124     0.0206      0.123     -0.425     -0.618         16 1.2379e-01   996.6922 0.0000e+00
     -0.405    26.7674     7.8603     98.247  27.270943     26.482      7.337   336.0847     0.0615    23.8705     0.0207      0.127     -0.398     -0.578         17 1.2384e-01   996.6558 0.0000e+00
     -0.382    26.8647     7.8805     98.437  27.417114     26.529      7.324   337.2205     0.0500    23.8705     0.0207      0.128     -0.372     -0.540         18 1.2361e-01   996.6232 0.0000e+00
     -0.351    26.9523     7.8924     98.545  27.358303     26.419      7.285   333.7754     0.0538    23.7408     0.0207      0.126     -0.346     -0.502         19 1.2365e-01   996.5927 0.0000e+00
     -0.326    27.0100     7.8965     98.676  27.166367     26.205      7.280   341.4983     0.0729    23.7696     0.0206      0.120     -0.323     -0.468         20 1.2372e-01   996.5662 0.0000e+00
     -0.311    26.9450     7.9681     99.736  26.915422     25.869      7.278   338.0155     0.6833     0.9719     0.0205      0.110     -0.306     -0.443         21 1.2360e-01   996.5421 0.0000e+00
     -0.296    26.8559     8.1121    101.696  26.989296     25.968      7.274   326.5447     0.6604     1.1161     0.0206      0.100     -0.290     -0.421         22 1.2367e-01   996.5264 0.0000e+00
     -0.279    26.8005     8.0998    101.671  26.955936     25.926      7.271   325.0683     0.6642     1.1017     0.0205      0.091     -0.273     -0.396         23 1.2381e-01   996.5443 0.0000e+00
     -0.260    26.7593     7.9126     99.413  26.868092     25.914      7.270   324.7654     0.6757     1.1594     0.0205      0.084     -0.254     -0.369         24 1.2365e-01   996.5688 0.0000e+00
     -0.239    26.7429     7.6597     96.301  26.832063     25.889      7.266   328.6269     0.6947     1.1017     0.0205      0.078     -0.232     -0.336         25 1.2364e-01   996.5840 0.0000e+00
     -0.209    26.7509     7.3809     92.846  26.882315     25.964      7.257   327.9076     0.7024     1.1017     0.0205      0.078     -0.204     -0.295         26 1.2371e-01   996.5955 0.0000e+00
     -0.173    26.7656     7.1549     90.037  26.864808     25.971      7.221   329.4219     0.7176     1.1594     0.0205      0.081     -0.176     -0.255         27 1.2379e-01   996.6000 0.0000e+00
     -0.156    26.7349     6.9045     86.914  26.735376     25.807      7.132   329.2704     0.7252     1.2027     0.0205      0.085     -0.159     -0.230         28 1.2366e-01   996.5978 0.0000e+00
     -0.158    26.7112     6.6841     84.155  26.717570     25.824      7.072   324.5761     0.7100     1.1450     0.0205      0.085     -0.154     -0.223         29 1.2363e-01   996.5938 0.0000e+00
     -0.155    26.7567     6.4998     81.839  26.738867     25.815      7.042   325.5604     0.6528     1.1161     0.0204      0.079     -0.151     -0.218         30 1.2395e-01   996.6022 0.0000e+00
     -0.146    26.8466     6.3864     80.418  27.064323     26.177      7.015   325.3333     0.6642     1.0585     0.0206      0.069     -0.144     -0.208         31 1.2382e-01   996.6089 0.0000e+00
     -0.138    26.9341     6.3035     79.390  27.349262     26.424      7.007   325.6740     0.6795     1.1882     0.0207      0.058     -0.137     -0.199         32 1.2359e-01   996.5966 0.0000e+00
     -0.136    27.0043     6.2399     78.593  27.361726     26.377      7.008   324.9168     0.6757     1.1594     0.0207      0.044     -0.134     -0.195         33 1.2370e-01   996.5719 0.0000e+00
     -0.136    27.0563     6.1826     77.863  27.404230     26.387      7.008   324.3490     0.6604     0.8998     0.0207      0.029     -0.133     -0.192         34 1.2365e-01   996.5480 0.0000e+00
     -0.132    27.0941     6.1258     77.134  27.503681     26.431      7.005   321.3961     0.6757     0.8854     0.0208      0.019     -0.129     -0.187         35 1.2367e-01   996.5288 0.0000e+00
     -0.126    27.1246     6.0837     76.597  27.474904     26.405      7.006   321.2447     0.6680     0.9143     0.0208      0.016     -0.124     -0.180         36 1.2369e-01   996.5145 0.0000e+00
     -0.122    27.1462     6.0458     76.123  27.440024     26.306      7.003   321.6233     0.6909     0.8854     0.0207      0.017     -0.120     -0.174         37 1.2363e-01   996.5041 0.0000e+00
     -0.118    27.1636     6.0421     76.083  27.517451     26.424      6.992   322.8726     0.6985     1.0873     0.0208      0.016     -0.115     -0.168         38 1.2381e-01   996.4957 0.0000e+00
     -0.113    27.1745     6.0718     76.463  27.437777     26.279      6.979   324.2354     0.7100     1.1161     0.0207      0.015     -0.110     -0.161         39 1.2370e-01   996.4898 0.0000e+00
     -0.107    27.1770     6.1443     77.379  27.391063     26.270      6.972   323.3647     0.7291     1.1450     0.0207      0.016     -0.105     -0.153         40 1.2368e-01   996.4849 0.0000e+00
     -0.103    27.1819     6.2379     78.563  27.368232     26.211      6.966   323.5161     0.7176     1.0585     0.0207      0.017     -0.103     -0.150         41 1.2380e-01   996.4819 0.0000e+00
     -0.105    27.1925     6.3382     79.828  27.318082     26.183      6.966   323.4026     0.7176     0.7989     0.0207      0.017     -0.104     -0.151         42 1.2368e-01   996.4812 0.0000e+00
     -0.110    27.1962     6.4312     80.998  27.364610     26.208      6.961   323.2133     0.6909     0.8854     0.0207      0.013     -0.107     -0.156         43 1.2366e-01   996.4799 0.0000e+00
     -0.113    27.1899     6.4938     81.784  27.399189     26.256      6.953   322.8726     0.6833     0.8998     0.0207      0.008     -0.112     -0.162         44 1.2367e-01   996.4769 0.0000e+00
     -0.120    27.1807     6.5298     82.235  27.423151     26.254      6.938   323.0997     0.7329     0.9864     0.0207      0.002     -0.117     -0.170         45 1.2364e-01   996.4759 0.0000e+00
     -0.125    27.1757     6.5410     82.378  27.482895     26.337      6.928   323.0240     0.6947     1.0729     0.0208     -0.004     -0.121     -0.175         46 1.2372e-01   996.4776 0.0000e+00
     -0.124    27.1777     6.5462     82.447  27.502566     26.342      6.913   323.4404     0.6985     1.0585     0.0208     -0.009     -0.121     -0.176         47 1.2382e-01   996.4801 0.0000e+00
     -0.122    27.1828     6.5418     82.393  27.487534     26.345      6.894   323.3268     0.7024     1.1161     0.0208     -0.011     -0.120     -0.173         48 1.2370e-01   996.4815 0.0000e+00
     -0.119    27.1869     6.5374     82.334  27.442362     26.290      6.877   323.2890     0.7176     1.1161     0.0208     -0.010     -0.117     -0.169         49 1.2379e-01   996.4810 0.0000e+00
     -0.116    27.1896     6.5294     82.227  27.410678     26.261      6.860   323.8190     0.7176     1.0296     0.0207     -0.006     -0.114     -0.165         50 1.2377e-01   996.4796 0.0000e+00
     -0.113    27.1925     6.5081     81.954  27.408478     26.259      6.844   323.5161     0.7100     1.0873     0.0207     -0.001     -0.112     -0.161         51 1.2361e-01   996.4785 0.0000e+00
     -0.112    27.1936     6.4915     81.743  27.415477     26.257      6.832   323.9326     0.6833     1.0585     0.0207      0.003     -0.110     -0.159         52 1.2368e-01   996.4777 0.0000e+00
     -0.111    27.1924     6.4804     81.602  27.401967     26.256      6.818   324.0840     0.7252     1.0873     0.0207      0.007     -0.109     -0.158         53 1.2367e-01   996.4769 0.0000e+00
     -0.111    27.1906     6.4714     81.480  27.425291     26.255      6.803   323.8568     0.7367     1.2027     0.0207      0.008     -0.109     -0.158         54 1.2368e-01   996.4766 0.0000e+00
     -0.111    27.1898     6.4612     81.337  27.475314     26.336      6.793   324.0840     0.6757     1.1450     0.0208      0.007     -0.109     -0.158         55 1.2369e-01   996.4770 0.0000e+00
     -0.111    27.1909     6.4625     81.340  27.428577     26.257      6.784   324.0461     0.6604     1.1450     0.0207      0.005     -0.110     -0.159         56 1.2382e-01   996.4775 0.0000e+00
     -0.113    27.1932     6.4502     81.172  27.394592     26.257      6.773   324.5761     0.6680     1.0008     0.0207      0.003     -0.111     -0.160         57 1.2371e-01   996.4777 0.0000e+00
     -0.113    27.1939     6.4201     80.782  27.428745     26.257      6.764   324.9926     0.6718     1.1594     0.0207      0.001     -0.111     -0.161         58 1.2350e-01   996.4774 0.0000e+00
     -0.112    27.1913     6.3793     80.263  27.474935     26.336      6.752   324.5761     0.6680     1.1882     0.0208     -0.000     -0.110     -0.160         59 1.2369e-01   996.4767 0.0000e+00
     -0.111    27.1872     6.3232     79.552  27.425972     26.255      6.741   325.7876     0.6528     1.1161     0.0207     -0.000     -0.109     -0.157         60 1.2377e-01   996.4766 0.0000e+00
     -0.108    27.1841     6.2602     78.759  27.400817     26.256      6.731   325.2954     0.6795     1.1450     0.0207      0.001     -0.106     -0.154         61 1.2371e-01   996.4773 0.0000e+00
     -0.107    27.1832     6.1996     78.003  27.446998     26.285      6.719   325.3711     0.6528     1.1594     0.0208      0.002     -0.104     -0.152         62 1.2365e-01   996.4784 0.0000e+00
     -0.105    27.1820     6.1464     77.339  27.398123     26.260      6.709   326.4311     0.7252     1.2459     0.0207      0.003     -0.103     -0.150         63 1.2377e-01   996.4793 0.0000e+00
     -0.104    27.1759     6.1047     76.810  27.372780     26.207      6.692   325.3333     0.7062     1.0873     0.0207      0.005     -0.102     -0.149         64 1.2386e-01   996.4795 0.0000e+00
     -0.105    27.1664     6.0724     76.398  27.389674     26.261      6.674   325.2576     0.7100     1.0729     0.0207      0.005     -0.102     -0.149         65 1.2375e-01   996.4798 0.0000e+00
     -0.105    27.1571     6.0496     76.104  27.436341     26.264      6.647   324.7276     0.7138     1.1450     0.0207      0.005     -0.102     -0.149         66 1.2368e-01   996.4815 0.0000e+00
     -0.105    27.1476     6.0244     75.774  27.462810     26.349      6.623   324.6897     0.6947     0.9719     0.0208      0.004     -0.102     -0.149         67 1.2365e-01   996.4842 0.0000e+00
     -0.106    27.1406     6.0064     75.525  27.386359     26.220      6.610   325.1818     0.6642     0.8998     0.0207      0.002     -0.103     -0.150         68 1.2363e-01   996.4867 0.0000e+00
     -0.106    27.1363     5.9868     75.254  27.413004     26.305      6.599   324.6140     0.6680     0.9719     0.0207      0.001     -0.103     -0.150         69 1.2366e-01   996.4893 0.0000e+00
     -0.105    27.1328     5.9631     74.940  27.370412     26.229      6.597   325.1440     0.6833     0.8710     0.0207      0.000     -0.103     -0.150         70 1.2373e-01   996.4914 0.0000e+00
     -0.106    27.1326     5.9403     74.643  27.350503     26.231      6.592   324.7276     0.6833     0.8710     0.0207     -0.000     -0.103     -0.151         71 1.2374e-01   996.4925 0.0000e+00
     -0.107    27.1368     5.8988     74.109  27.348918     26.233      6.590   324.8033     0.6680     0.8566     0.0207     -0.001     -0.104     -0.151         72 1.2378e-01   996.4935 0.0000e+00
     -0.107    27.1402     5.8868     73.945  27.313144     26.179      6.586   324.9926     0.6680     0.8422     0.0207     -0.001     -0.104     -0.151         73 1.2372e-01   996.4935 0.0000e+00
     -0.106    27.1382     5.8588     73.579  27.395025     26.284      6.586   325.2954     0.6718     0.8998     0.0207     -0.001     -0.103     -0.150         74 1.2381e-01   996.4923 0.0000e+00
     -0.104    27.1330     5.8269     73.165  27.395123     26.255      6.582   325.1440     0.6871     0.8422     0.0207     -0.000     -0.102     -0.149         75 1.2402e-01   996.4915 0.0000e+00
     -0.104    27.1278     5.7947     72.748  27.342640     26.230      6.584   325.2197     0.6757     1.0585     0.0207      0.000     -0.102     -0.149         76 1.2385e-01   996.4920 0.0000e+00
     -0.104    27.1190     5.7507     72.177  27.312233     26.179      6.582   325.3711     0.6757     0.9287     0.0207      0.001     -0.102     -0.148         77 1.2362e-01   996.4934 0.0000e+00
     -0.103    27.1027     5.7090     71.633  27.344104     26.235      6.578   325.3333     0.6451     0.9143     0.0207      0.001     -0.102     -0.148         78 1.2367e-01   996.4949 0.0000e+00
     -0.104    27.0840     5.6682     71.098  27.302982     26.186      6.572   325.5983     0.6757     0.8422     0.0207      0.001     -0.102     -0.148         79 1.2376e-01   996.4972 0.0000e+00
     -0.104    27.0716     5.6208     70.480  27.244929     26.140      6.561   325.3333     0.6909     1.1882     0.0207      0.001     -0.102     -0.148         80 1.2369e-01   996.5018 0.0000e+00
     -0.104    27.0635     5.5691     69.812  27.297871     26.204      6.548   325.9011     0.7481     1.1450     0.0207      0.001     -0.102     -0.147         81 1.2370e-01   996.5069 0.0000e+00
     -0.103    27.0542     5.5238     69.228  27.266723     26.183      6.536   328.2483     0.7214     1.0873     0.0207      0.001     -0.101     -0.146         82 1.2373e-01   996.5102 0.0000e+00
     -0.101    27.0440     5.4787     68.649  27.194835     26.107      6.527   326.6961     0.7138     1.0729     0.0206      0.001     -0.099     -0.144         83 1.2375e-01   996.5125 0.0000e+00
     -0.100    27.0337     5.4374     68.116  27.239234     26.165      6.527   325.9390     0.7176     1.1017     0.0207      0.002     -0.098     -0.142         84 1.2371e-01   996.5151 0.0000e+00
     -0.099    27.0239     5.3991     67.624  27.241094     26.170      6.523   325.7876     0.7329     1.0585     0.0207      0.002     -0.097     -0.141         85 1.2372e-01   996.5179 0.0000e+00
     -0.098    27.0132     5.3695     67.242  27.192525     26.122      6.521   325.7497     0.7214     1.0440     0.0206      0.003     -0.096     -0.139         86 1.2370e-01   996.5207 0.0000e+00
     -0.096    26.9996     5.3392     66.853  27.121957     26.073      6.518   326.4690     0.7138     1.1161     0.0206      0.004     -0.094     -0.137         87 1.2379e-01   996.5234 0.0000e+00
     -0.095    26.9835     5.3122     66.507  27.091953     26.024      6.516   326.3933     0.7748     1.1450     0.0206      0.005     -0.093     -0.135         88 1.2384e-01   996.5264 0.0000e+00
     -0.094    26.9652     5.2778     66.075  27.141009     26.112      6.509   326.2040     0.7786     1.1450     0.0206      0.005     -0.093     -0.134         89 1.2366e-01   996.5302 0.0000e+00
     -0.095    26.9466     5.2421     65.631  27.031294     25.986      6.492   326.3176     0.7596     1.1450     0.0206      0.004     -0.094     -0.136         90 1.2367e-01   996.5345 0.0000e+00
     -0.098    26.9306     5.2054     65.172  26.932292     25.914      6.474   326.1283     0.7634     1.1306     0.0205      0.003     -0.096     -0.139         91 1.2374e-01   996.5396 0.0000e+00
     -0.100    26.9180     5.1667     64.686  26.938396     25.924      6.459   325.6361     0.7672     1.1594     0.0205      0.001     -0.098     -0.142         92 1.2373e-01   996.5447 0.0000e+00
     -0.101    26.9066     5.1278     64.192  26.934842     25.931      6.455   325.9390     0.7405     0.9143     0.0205     -0.001     -0.098     -0.143         93 1.2371e-01   996.5490 0.0000e+00
     -0.100    26.8946     5.1032     63.869  26.877481     25.884      6.444   326.1283     0.7329     0.8710     0.0205     -0.003     -0.097     -0.142         94 1.2362e-01   996.5525 0.0000e+00
     -0.098    26.8839     5.0787     63.545  26.891307     25.890      6.434   325.7876     0.7024     0.8277     0.0205     -0.003     -0.096     -0.139         95 1.2356e-01   996.5556 0.0000e+00
     -0.097    26.8750     5.0651     63.361  26.947262     25.976      6.430   325.6740     0.7024     0.8854     0.0206     -0.002     -0.095     -0.137         96 1.2364e-01   996.5589 0.0000e+00
     -0.096    26.8665     5.0505     63.162  26.896710     25.901      6.427   326.2040     0.7405     1.1450     0.0205     -0.001     -0.094     -0.137         97 1.2371e-01   996.5618 0.0000e+00
     -0.096    26.8603     5.0528     63.175  26.865359     25.905      6.423   326.4311     0.7214     1.1594     0.0205      0.001     -0.094     -0.137         98 1.2367e-01   996.5642 0.0000e+00
     -0.095    26.8589     5.0513     63.142  26.838180     25.856      6.421   326.1283     0.7252     1.0873     0.0205      0.002     -0.095     -0.137         99 1.2346e-01   996.5666 0.0000e+00
     -0.099    26.8609     5.0484     63.095  26.812056     25.859      6.416   326.1283     0.7291     1.0440     0.0205      0.002     -0.098     -0.142        100 1.2357e-01   996.5683 0.0000e+00
     -0.104    26.8617     5.0454     63.051  26.779390     25.806      6.414   325.7497     0.6680     0.8422     0.0205     -0.000     -0.103     -0.149        101 1.2377e-01   996.5685 0.0000e+00
     -0.111    26.8605     5.0338     62.902  26.730733     25.778      6.408   326.2040     0.6757     0.9287     0.0205     -0.004     -0.108     -0.157        102 1.2372e-01   996.5680 0.0000e+00
     -0.116    26.8543     5.0230     62.753  26.724508     25.751      6.414   326.5068     0.6604     0.8422     0.0205     -0.009     -0.113     -0.163        103 1.2382e-01   996.5678 0.0000e+00
     -0.116    26.8407     5.0092     62.567  26.698277     25.751      6.420   326.4311     0.6718     0.8133     0.0205     -0.012     -0.113     -0.163        104 1.2387e-01   996.5682 0.0000e+00
     -0.111    26.8261     5.0169     62.657  26.674520     25.700      6.425   326.5826     0.7214     0.9143     0.0204     -0.011     -0.109     -0.158        105 1.2372e-01   996.5698 0.0000e+00
     -0.105    26.8137     5.0307     62.818  26.694836     25.761      6.419   326.1283     0.7443     0.8998     0.0205     -0.009     -0.104     -0.151        106 1.2360e-01   996.5736 0.0000e+00
     -0.102    26.7997     5.0487     63.029  26.672998     25.715      6.406   325.5226     0.7100     0.8710     0.0204     -0.004     -0.100     -0.146        107 1.2364e-01   996.5776 0.0000e+00
     -0.100    26.7856     5.0546     63.096  26.701703     25.775      6.390   325.6740     0.7252     0.9287     0.0205      0.001     -0.097     -0.142        108 1.2365e-01   996.5810 0.0000e+00
     -0.096    26.7740     5.0515     63.061  26.747979     25.808      6.380   326.1283     0.7291     0.8710     0.0205      0.007     -0.095     -0.139        109 1.2378e-01   996.5848 0.0000e+00
     -0.097    26.7639     5.0413     62.942  26.704272     25.789      6.374   325.6361     0.7024     0.7989     0.0205      0.010     -0.095     -0.138        110 1.2379e-01   996.5886 0.0000e+00
     -0.098    26.7583     5.0173     62.645  26.607999     25.686      6.358   326.3933     0.7291     0.8998     0.0204      0.011     -0.095     -0.138        111 1.2369e-01   996.5918 0.0000e+00
     -0.098    26.7539     4.9872     62.273  26.601215     25.692      6.320   326.1283     0.7176     1.0008     0.0204      0.009     -0.095     -0.138        112 1.2369e-01   996.5945 0.0000e+00
     -0.096    26.7422     4.9477     61.783  26.653480     25.748      6.301   325.4847     0.7291     0.8422     0.0204      0.006     -0.093     -0.135        113 1.2373e-01   996.5961 0.0000e+00
     -0.091    26.7307     4.9112     61.323  26.661438     25.750      6.304   325.4090     0.6833     1.0296     0.0204      0.005     -0.087     -0.127        114 1.2383e-01   996.5973 0.0000e+00
     -0.080    26.7249     4.8827     60.941  26.709791     25.810      6.310   325.7876     0.6833     0.9719     0.0204      0.008     -0.078     -0.114        115 1.2377e-01   996.6005 0.0000e+00
     -0.070    26.7150     4.8583     60.597  26.741409     25.843      6.308   325.4090     0.7062     0.9287     0.0205      0.012     -0.070     -0.102        116 1.2368e-01   996.6037 0.0000e+00
     -0.067    26.7028     4.8491     60.441  26.710955     25.819      6.294   325.2197     0.6833     0.8854     0.0204      0.016     -0.065     -0.095        117 1.2368e-01   996.6054 0.0000e+00
     -0.062    26.6970     4.8515     60.430  26.658834     25.770      6.268   325.8633     0.6833     0.8277     0.0204      0.020     -0.060     -0.088        118 1.2381e-01   996.6081 0.0000e+00
     -0.055    26.6998     4.8575     60.472  26.598937     25.722      6.273   325.4468     0.7176     0.8566     0.0204      0.023     -0.054     -0.078        119 1.2375e-01   996.6114 0.0000e+00
     -0.049    26.7062     4.8608     60.480  26.548541     25.671      6.285   325.0304     0.7291     1.0008     0.0204      0.026     -0.048     -0.069        120 1.2377e-01   996.6131 0.0000e+00
     -0.044    26.7099     4.8554     60.377  26.543835     25.669      6.285   324.0840     0.6833     0.8422     0.0204      0.026     -0.043     -0.062        121 1.2398e-01   996.6122 0.0000e+00
     -0.040    26.7128     4.8465     60.229  26.545552     25.666      6.277   324.0840     0.6680     0.9143     0.0204      0.024     -0.039     -0.057        122 1.2369e-01   996.6105 0.0000e+00
     -0.037    26.7160     4.8355     60.057  26.516782     25.637      6.277   323.5918     0.6566     0.8422     0.0204      0.021     -0.037     -0.053        123 1.2362e-01   996.6095 0.0000e+00
     -0.035    26.7113     4.8176     59.795  26.550020     25.663      6.275   323.2511     0.6909     0.9575     0.0204      0.019     -0.035     -0.051        124 1.2375e-01   996.6087 0.0000e+00
     -0.034    26.6880     4.8010     59.538  26.533807     25.661      6.274   323.4783     0.6757     0.9431     0.0204      0.017     -0.034     -0.049        125 1.2370e-01   996.6079 0.0000e+00
     -0.034    26.6525     4.7720     59.129  26.477718     25.582      6.274   323.2890     0.7024     0.9431     0.0204      0.014     -0.031     -0.045        126 1.2365e-01   996.6091 0.0000e+00
     -0.025    26.6138     4.7581     58.915  26.530965     25.675      6.273   323.0240     0.7138     0.8710     0.0204      0.012     -0.024     -0.034        127 1.2367e-01   996.6156 0.0000e+00
     -0.012    26.5768     4.7469     58.740  26.556408     25.693      6.262   323.4783     0.7214     0.8998     0.0204      0.014     -0.014     -0.021        128 1.2384e-01   996.6253 0.0000e+00
     -0.007    26.5468     4.7380     58.596  26.505305     25.685      6.220   324.0083     0.7291     0.8566     0.0204      0.017     -0.007     -0.011        129 1.2372e-01   996.6358 0.0000e+00
     -0.003    26.5169     4.7330     58.497  26.476096     25.650      6.189   323.3268     0.6833     0.9143     0.0203      0.019     -0.003     -0.006        130 1.2359e-01   996.6459 0.0000e+00
     -0.001    26.4829     4.7325     58.448  26.533534     25.745      6.177   323.7433     0.6489     0.8277     0.0204      0.021     -0.001     -0.002        131 1.2368e-01   996.6540 0.0000e+00
      0.001    26.4487     4.7364     58.463  26.463458     25.679      6.176   323.5161     0.6795     0.8566     0.0203      0.021      0.001      0.002        132 1.2382e-01   996.6621 0.0000e+00
      0.004    26.4164     4.7351     58.424  26.415215     25.642      6.179   323.5161     0.6871     0.9719     0.0203      0.021      0.003      0.004        133 1.2380e-01   996.6712 0.0000e+00
      0.004    26.3794     4.7371     58.430  26.445483     25.713      6.180   323.8947     0.6757     0.8422     0.0203      0.018      0.003      0.005        134 1.2364e-01   996.6805 0.0000e+00
      0.003    26.3329     4.7345     58.373  26.425803     25.675      6.184   323.6297     0.6909     1.1161     0.0203      0.012      0.002      0.004        135 1.2364e-01   996.6892 0.0000e+00
      0.001    26.2868     4.7363     58.372  26.439720     25.748      6.189   323.5918     0.7062     1.0008     0.0203      0.007      0.001      0.002        136 1.2364e-01   996.6992 0.0000e+00
      0.000    26.2477     4.7415     58.415  26.428177     25.717      6.196   323.8568     0.7176     1.0873     0.0203      0.003      0.001      0.001        137 1.2378e-01   996.7117 0.0000e+00
      0.002    26.2134     4.7418     58.387  26.440183     25.795      6.203   324.2354     0.7138     1.1450     0.0203      0.002      0.002      0.003        138 1.2371e-01   996.7241 0.0000e+00
      0.005    26.1814     4.7437     58.380  26.424796     25.760      6.207   323.8568     0.6642     0.8422     0.0203      0.001      0.004      0.006        139 1.2358e-01   996.7345 0.0000e+00
      0.008    26.1460     4.7411     58.328  26.447343     25.832      6.206   324.1597     0.6680     0.9575     0.0203      0.001      0.007      0.010        140 1.2377e-01   996.7438 0.0000e+00
      0.010    26.1066     4.7408     58.308  26.412136     25.793      6.210   324.3111     0.6985     0.9143     0.0203      0.003      0.009      0.013        141 1.2370e-01   996.7524 0.0000e+00
      0.010    26.0738     4.7430     58.316  26.409381     25.811      6.212   324.4626     0.6680     0.9143     0.0203      0.004      0.010      0.015        142 1.2363e-01   996.7619 0.0000e+00
      0.011    26.0524     4.7437     58.307  26.450785     25.886      6.205   324.2733     0.7252     0.9287     0.0203      0.006      0.011      0.017        143 1.2369e-01   996.7724 0.0000e+00
      0.014    26.0343     4.7495     58.366  26.419866     25.848      6.193   324.5761     0.7176     0.7989     0.0203      0.007      0.013      0.019        144 1.2373e-01   996.7810 0.0000e+00
      0.014    26.0119     4.7550     58.430  26.447871     25.913      6.187   324.4247     0.7024     0.9719     0.0203      0.007      0.013      0.019        145 1.2363e-01   996.7867 0.0000e+00
      0.012    25.9904     4.7674     58.574  26.415939     25.867      6.190   324.0083     0.7024     0.9287     0.0203      0.005      0.013      0.019        146 1.2368e-01   996.7916 0.0000e+00
      0.013    25.9696     4.7777     58.691  26.400372     25.879      6.194   324.1597     0.6833     0.8422     0.0203      0.004      0.013      0.019        147 1.2375e-01   996.7976 0.0000e+00
      0.014    25.9402     4.7912     58.844  26.408012     25.890      6.195   324.6518     0.7100     0.8566     0.0203      0.003      0.013      0.019        148 1.2360e-01   996.8034 0.0000e+00
      0.012    25.9113     4.8029     58.976  26.406439     25.900      6.193   325.5226     0.7252     0.8422     0.0203      0.002      0.012      0.018        149 1.2364e-01   996.8089 0.0000e+00
      0.012    25.8924     4.8111     59.062  26.461577     25.970      6.197   324.9547     0.7138     0.9719     0.0203      0.001      0.012      0.018        150 1.2374e-01   996.8166 0.0000e+00
      0.013    25.8768     4.8169     59.118  26.457882     25.985      6.196   325.7876     0.7062     0.8854     0.0203      0.000      0.013      0.018        151 1.2367e-01   996.8242 0.0000e+00
      0.013    25.8592     4.8139     59.069  26.411047     25.940      6.197   326.2040     0.7176     0.8566     0.0203     -0.000      0.013      0.018        152 1.2360e-01   996.8293 0.0000e+00
      0.013    25.8423     4.8202     59.139  26.401391     25.948      6.187   325.9390     0.6985     0.9143     0.0203     -0.000      0.013      0.019        153 1.2375e-01   996.8334 0.0000e+00
      0.014    25.8320     4.8236     59.173  26.410667     25.957      6.173   325.4847     0.7291     0.9287     0.0203      0.001      0.015      0.023        154 1.2374e-01   996.8381 0.0000e+00
      0.020    25.8268     4.8264     59.201  26.399511     25.965      6.169   325.6740     0.7214     0.8133     0.0203      0.002      0.020      0.028        155 1.2378e-01   996.8426 0.0000e+00
      0.025    25.8204     4.8298     59.236  26.415280     25.971      6.167   326.0147     0.6528     0.8998     0.0203      0.005      0.024      0.034        156 1.2383e-01   996.8453 0.0000e+00
      0.027    25.8109     4.8322     59.258  26.450285     26.028      6.171   324.7276     0.6604     0.8710     0.0203      0.007      0.027      0.038        157 1.2370e-01   996.8468 0.0000e+00
      0.027    25.7994     4.8353     59.291  26.415189     25.976      6.176   325.5604     0.6680     0.8133     0.0203      0.009      0.027      0.039        158 1.2385e-01   996.8485 0.0000e+00
      0.027    25.7876     4.8458     59.420  26.399720     25.981      6.177   325.5604     0.6680     0.9431     0.0203      0.009      0.027      0.039        159 1.2370e-01   996.8509 0.0000e+00
      0.028    25.7744     4.8617     59.615  26.410301     25.987      6.177   325.2197     0.7367     0.8422     0.0203      0.009      0.027      0.039        160 1.2361e-01   996.8540 0.0000e+00
      0.027    25.7602     4.8735     59.758  26.402025     25.993      6.177   325.2954     0.7405     0.7412     0.0203      0.007      0.026      0.038        161 1.2378e-01   996.8571 0.0000e+00
      0.025    25.7487     4.8825     59.867  26.350784     25.945      6.167   325.6361     0.7291     0.8998     0.0202      0.005      0.026      0.037        162 1.2382e-01   996.8605 0.0000e+00
      0.028    25.7419     4.8957     60.032  26.355596     25.952      6.162   326.0526     0.7291     1.0585     0.0202      0.002      0.029      0.042        163 1.2379e-01   996.8642 0.0000e+00
      0.037    25.7359     4.9041     60.135  26.396043     26.013      6.165   325.7118     0.7901     0.9719     0.0203      0.003      0.036      0.051        164 1.2372e-01   996.8673 0.0000e+00
      0.044    25.7288     4.9212     60.346  26.359692     25.962      6.164   325.5604     0.7634     0.9143     0.0202      0.006      0.043      0.061        165 1.2370e-01   996.8691 0.0000e+00
      0.049    25.7226     4.9068     60.171  26.341595     25.965      6.149   325.1818     0.7672     0.8566     0.0202      0.010      0.048      0.069        166 1.2367e-01   996.8707 0.0000e+00
      0.054    25.7160     4.8994     60.081  26.359327     25.968      6.104   325.0683     0.7825     0.9719     0.0202      0.014      0.052      0.074        167 1.2380e-01   996.8726 0.0000e+00
      0.054    25.7113     4.8916     59.984  26.396867     26.027      6.075   325.0683     0.7863     1.0873     0.0203      0.016      0.054      0.078        168 1.2367e-01   996.8743 0.0000e+00
      0.057    25.7115     4.8817     59.863  26.413357     26.030      6.080   324.2733     0.7748     1.1161     0.0203      0.018      0.058      0.084        169 1.2352e-01   996.8761 0.0000e+00
      0.067    25.7117     4.8676     59.692  26.398047     26.032      6.095   325.0683     0.7901     1.0729     0.0203      0.020      0.064      0.093        170 1.2371e-01   996.8773 0.0000e+00
      0.071    25.7097     4.8835     60.088  26.356684     25.977      6.096   325.2954     0.7825     1.1161     0.0202      0.019      0.068      0.100        171 1.2378e-01   996.8772 0.0000e+00
      0.072    25.7094     5.1754     64.299  26.346356     25.977      6.089   325.0683     0.7329     0.8710     0.0202      0.017      0.073      0.107        172 1.2358e-01   996.8772 0.0000e+00
      0.084    25.7110     5.7642     72.166  26.351662     25.978      6.098   324.9168     0.7024     0.8710     0.0202      0.018      0.084      0.122        173 1.2364e-01   996.8778 0.0000e+00
      0.103    25.7117     6.4531     81.121  26.350081     25.978      6.113   324.9926     0.7367     0.9143     0.0202      0.023      0.099      0.144        174 1.2369e-01   996.8780 0.0000e+00
      0.116    25.7134     7.0718     89.097  26.348322     25.977      6.120   324.7654     0.7214     0.8133     0.0202      0.030      0.113      0.165        175 1.2368e-01   996.8777 0.0000e+00
      0.129    25.7140     7.5700     95.498  26.353849     25.977      6.118   324.4247     0.7519     1.0008     0.0202      0.037      0.128      0.186        176 1.2376e-01   996.8775 0.0000e+00
      0.149    25.7153     7.9396    100.237  26.402442     26.031      6.120   324.4247     0.6146     1.0152     0.0203      0.044      0.145      0.211        177 1.2364e-01   996.8771 0.0000e+00
      0.167    25.7141     8.1635    103.111  26.347089     25.976      6.113   324.5004     0.6108     0.8998     0.0202      0.051      0.164      0.237        178 1.2377e-01   996.8771 0.0000e+00
      0.185    25.7166     8.2418    104.126  26.363495     25.975      6.109   324.6140     0.6184     0.8133     0.0202      0.059      0.180      0.261        179 1.2370e-01   996.8768 0.0000e+00
      0.201    25.7139     8.1719    103.257  26.322786     25.975      6.106   324.5004     0.6337     0.8854     0.0202      0.064      0.195      0.282        180 1.2361e-01   996.8771 0.0000e+00
      0.210    25.9146     8.0293    101.466  26.397752     25.975      6.103   324.1597     0.6833     0.9575     0.0202      0.064      0.205      0.298        181 1.2374e-01   996.8765 0.0000e+00
      0.218    26.4246     7.8859     99.661  27.158806     26.800      6.097   324.4247     0.6337     0.8710     0.0206      0.060      0.215      0.312        182 1.2368e-01   996.8775 0.0000e+00
      0.230    26.8608     7.7612     98.089  27.774902     27.279      6.092   324.8411     0.6833     0.8710     0.0208      0.058      0.228      0.330        183 1.2373e-01   996.8247 0.0000e+00
      0.249    27.0843     7.6706     96.947  27.852503     27.077      6.097   325.2954     0.6604     0.8422     0.0209      0.056      0.245      0.355        184 1.2371e-01   996.6884 0.0000e+00
      0.269    27.2131     7.6043     96.111  27.832226     26.828      6.102   325.7876     0.6871     0.8710     0.0209      0.055      0.264      0.383        185 1.2373e-01   996.5701 0.0000e+00
      0.290    27.2842     7.5501     95.424  27.829603     26.711      6.100   326.1661     0.6604     0.8710     0.0209      0.056      0.284      0.412        186 1.2380e-01   996.5087 0.0000e+00
      0.309    27.3284     7.5104     94.914  27.826049     26.647      6.084   326.6583     0.6604     1.0152     0.0209      0.060      0.303      0.438        187 1.2374e-01   996.4732 0.0000e+00
      0.327    27.3532     7.4845     94.577  27.777354     26.556      6.076   327.0747     0.6566     0.8854     0.0209      0.064      0.318      0.462        188 1.2376e-01   996.4535 0.0000e+00
      0.338    27.3675     7.4685     94.372  27.771687     26.534      6.072   327.1126     0.7176     1.0152     0.0209      0.068      0.330      0.480        189 1.2371e-01   996.4413 0.0000e+00
      0.346    27.3748     7.4670     94.354  27.833083     26.575      6.071   327.0368     0.7176     0.8133     0.0209      0.067      0.342      0.497        190 1.2353e-01   996.4344 0.0000e+00
      0.365    27.3807     7.4580     94.250  27.819424     26.568      6.089   327.6426     0.7024     0.8710     0.0209      0.066      0.361      0.523        191 1.2369e-01   996.4305 0.0000e+00
      0.393    27.3851     7.4625     94.317  27.788681     26.511      6.098   327.9454     0.6947     0.8710     0.0209      0.066      0.383      0.556        192 1.2389e-01   996.4286 0.0000e+00
      0.412    27.3875     7.4634     94.333  27.812095     26.561      6.097   328.2483     0.6680     0.8422     0.0209      0.066      0.401      0.582        193 1.2385e-01   996.4270 0.0000e+00
      0.420    27.3893     7.4598     94.289  27.790282     26.506      6.099   328.4754     0.6757     0.8566     0.0209      0.065      0.412      0.597        194 1.2359e-01   996.4259 0.0000e+00
      0.427    27.3902     7.4496     94.158  27.815825     26.558      6.104   328.6647     0.6604     0.9287     0.0209      0.062      0.418      0.607        195 1.2346e-01   996.4253 0.0000e+00
      0.432    27.3888     7.4437     94.080  27.839550     26.557      6.078   328.8540     0.6718     0.8422     0.0209      0.058      0.423      0.614        196 1.2368e-01   996.4247 0.0000e+00
      0.436    27.3845     7.4453     94.099  27.819999     26.556      6.063   329.2704     0.6680     0.8422     0.0209      0.052      0.426      0.618        197 1.2370e-01   996.4245 0.0000e+00
      0.435    27.3788     7.4422     94.058  27.780912     26.504      6.059   328.9676     0.6947     0.9431     0.0209      0.043      0.430      0.623        198 1.2362e-01   996.4250 0.0000e+00
      0.442    27.3763     7.4361     93.981  27.769709     26.506      6.070   328.8919     0.6947     0.9143     0.0209      0.032      0.441      0.640        199 1.2358e-01   996.4262 0.0000e+00
      0.473    27.3781     7.4408     94.037  27.833944     26.562      6.084   329.1569     0.6795     0.8998     0.0209      0.029      0.468      0.680        200 1.2372e-01   996.4279 0.0000e+00
      0.518    27.3835     7.4347     93.952  27.819461     26.563      6.087   329.4597     0.6833     0.8277     0.0209      0.040      0.504      0.732        201 1.2385e-01   996.4287 0.0000e+00
      0.551    27.3890     7.4455     94.083  27.787733     26.509      6.080   329.4219     0.6833     0.9864     0.0209      0.058      0.537      0.779        202 1.2375e-01   996.4284 0.0000e+00
      0.574    27.3917     7.4528     94.170  27.814185     26.560      6.077   329.8383     0.6757     0.8133     0.0209      0.075      0.559      0.811        203 1.2377e-01   996.4270 0.0000e+00
      0.587    27.3925     7.4602     94.261  27.786541     26.504      6.066   330.0276     0.7024     0.8998     0.0209      0.088      0.571      0.828        204 1.2382e-01   996.4256 0.0000e+00
      0.587    27.3915     7.4468     94.100  27.822134     26.556      6.050   330.2169     0.6757     0.9143     0.0209      0.092      0.576      0.834        205 1.2371e-01   996.4248 0.0000e+00
      0.588    27.3900     7.4554     94.218  27.829132     26.555      6.048   329.9140     0.7214     0.8710     0.0209      0.087      0.579      0.838        206 1.2369e-01   996.4246 0.0000e+00
      0.595    27.3890     7.4624     94.316  27.777832     26.502      6.055   330.2547     0.7252     0.8854     0.0209      0.074      0.584      0.846        207 1.2366e-01   996.4248 0.0000e+00
      0.602    27.3883     7.4651     94.354  27.826734     26.556      6.063   330.4819     0.7252     0.7845     0.0209      0.055      0.591      0.857        208 1.2364e-01   996.4253 0.0000e+00
      0.611    27.3877     7.4680     94.388  27.827518     26.557      6.074   330.3683     0.7062     0.9287     0.0209      0.037      0.599      0.870        209 1.2374e-01   996.4256 0.0000e+00
      0.621    27.3853     7.4626     94.320  27.836099     26.557      6.086   330.7469     0.7252     0.8710     0.0209      0.028      0.607      0.881        210 1.2369e-01   996.4258 0.0000e+00
      0.625    27.3812     7.4604     94.294  27.845677     26.584      6.088   330.2547     0.7100     0.9143     0.0209      0.024      0.612      0.888        211 1.2371e-01   996.4260 0.0000e+00
      0.626    27.3781     7.4625     94.320  27.785977     26.506      6.095   330.3304     0.7100     0.8998     0.0209      0.023      0.616      0.893        212 1.2383e-01   996.4268 0.0000e+00
      0.633    27.3746     7.4689     94.400  27.821531     26.561      6.100   330.4819     0.7100     0.8710     0.0209      0.025      0.622      0.902        213 1.2366e-01   996.4279 0.0000e+00
      0.643    27.3735     7.4773     94.501  27.890298     26.616      6.106   330.4440     0.7062     0.9143     0.0209      0.026      0.632      0.916        214 1.2358e-01   996.4288 0.0000e+00
      0.657    27.3780     7.4882     94.633  27.818885     26.564      6.110   330.4061     0.6795     0.8998     0.0209      0.027      0.645      0.935        215 1.2375e-01   996.4299 0.0000e+00
      0.671    27.3843     7.4981     94.751  27.791917     26.512      6.115   330.3304     0.6833     0.8854     0.0209      0.030      0.661      0.959        216 1.2379e-01   996.4302 0.0000e+00
      0.695    27.3894     7.4941     94.693  27.834994     26.589      6.118   330.1033     0.6680     0.9287     0.0209      0.037      0.681      0.988        217 1.2364e-01   996.4291 0.0000e+00
      0.718    27.3912     7.4852     94.579  27.794897     26.506      6.117   330.9361     0.6833     0.8710     0.0209      0.047      0.701      1.018        218 1.2365e-01   996.4274 0.0000e+00
      0.732    27.3903     7.4760     94.460  27.812194     26.557      6.108   330.7469     0.6528     1.0152     0.0209      0.056      0.717      1.040        219 1.2375e-01   996.4261 0.0000e+00
      0.744    27.3905     7.4641     94.313  27.843088     26.556      6.101   330.8226     0.6680     0.9575     0.0209      0.062      0.730      1.059        220 1.2372e-01   996.4256 0.0000e+00
      0.758    27.3913     7.4549     94.200  27.815692     26.556      6.100   330.8604     0.7062     0.8854     0.0209      0.065      0.741      1.076        221 1.2367e-01   996.4259 0.0000e+00
      0.767    27.3913     7.4556     94.216  27.787045     26.503      6.093   330.8226     0.6757     0.8422     0.0209      0.064      0.750      1.089        222 1.2372e-01   996.4259 0.0000e+00
      0.771    27.3900     7.4494     94.149  27.819497     26.556      6.077   330.8983     0.6985     0.9431     0.0209      0.059      0.755      1.095        223 1.2379e-01   996.4257 0.0000e+00
      0.771    27.3872     7.4524     94.195  27.834550     26.556      6.075   331.0497     0.6718     1.0296     0.0209      0.049      0.757      1.097        224 1.2375e-01   996.4257 0.0000e+00
      0.772    27.3839     7.4572     94.259  27.768313     26.503      6.078   330.5197     0.6947     0.9719     0.0209      0.037      0.758      1.100        225 1.2378e-01   996.4261 0.0000e+00
      0.776    27.3798     7.4586     94.279  27.783443     26.505      6.083   330.6333     0.6833     0.8854     0.0209      0.027      0.762      1.106        226 1.2375e-01   996.4269 0.0000e+00
      0.784    27.3759     7.4607     94.305  27.815721     26.560      6.089   331.1633     0.6566     0.8422     0.0209      0.022      0.767      1.113        227 1.2358e-01   996.4278 0.0000e+00
      0.787    27.3739     7.4600     94.294  27.787386     26.508      6.093   330.8226     0.6680     0.8566     0.0209      0.018      0.771      1.118        228 1.2359e-01   996.4290 0.0000e+00
      0.786    27.3734     7.4515     94.188  27.818706     26.564      6.096   330.7090     0.6947     1.0152     0.0209      0.013      0.772      1.120        229 1.2370e-01   996.4301 0.0000e+00
      0.788    27.3744     7.4457     94.119  27.835988     26.565      6.100   330.7090     0.6909     0.8422     0.0209      0.011      0.775      1.124        230 1.2377e-01   996.4307 0.0000e+00
      0.797    27.3767     7.4513     94.196  27.825123     26.565      6.106   330.7469     0.6642     0.9143     0.0209      0.013      0.783      1.135        231 1.2378e-01   996.4309 0.0000e+00
      0.810    27.3815     7.4508     94.193  27.832228     26.564      6.111   330.8226     0.6909     0.8710     0.0209      0.017      0.795      1.152        232 1.2380e-01   996.4306 0.0000e+00
      0.824    27.3877     7.4520     94.210  27.827147     26.563      6.113   330.5954     0.6718     0.9431     0.0209      0.022      0.808      1.172        233 1.2380e-01   996.4300 0.0000e+00
      0.839    27.3925     7.4494     94.178  27.831446     26.561      6.112   330.8226     0.6985     0.8566     0.0209      0.028      0.822      1.192        234 1.2372e-01   996.4287 0.0000e+00
      0.850    27.3948     7.4551     94.250  27.826876     26.558      6.110   330.9740     0.6757     0.7124     0.0209      0.034      0.835      1.212        235 1.2373e-01   996.4271 0.0000e+00
      0.867    27.3958     7.4630     94.349  27.832832     26.555      6.113   330.8226     0.6985     0.8854     0.0209      0.042      0.850      1.232        236 1.2386e-01   996.4259 0.0000e+00
      0.882    27.3959     7.4661     94.386  27.853653     26.581      6.109   330.9361     0.6680     0.9431     0.0209      0.049      0.864      1.253        237 1.2368e-01   996.4252 0.0000e+00
      0.894    27.3946     7.4633     94.351  27.830585     26.554      6.104   331.0497     0.6833     0.8710     0.0209      0.053      0.876      1.272        238 1.2365e-01   996.4250 0.0000e+00
      0.906    27.3951     7.4664     94.391  27.831918     26.553      6.100   330.1790     0.6757     0.9143     0.0209      0.055      0.891      1.293        239 1.2372e-01   996.4250 0.0000e+00
      0.927    27.3979     7.4721     94.463  27.822372     26.554      6.097   330.6711     0.6833     0.9143     0.0209      0.056      0.908      1.318        240 1.2371e-01   996.4255 0.0000e+00
      0.945    27.4014     7.4820     94.588  27.783221     26.501      6.094   331.1633     0.6489     0.8422     0.0209      0.058      0.926      1.342        241 1.2382e-01   996.4254 0.0000e+00
      0.959    27.4034     7.4950     94.752  27.821398     26.552      6.086   330.9740     0.6909     0.9287     0.0209      0.059      0.941      1.364        242 1.2366e-01   996.4247 0.0000e+00
      0.974    27.4041     7.5023     94.844  27.834104     26.551      6.079   331.0497     0.6871     0.8710     0.0209      0.061      0.958      1.389        243 1.2381e-01   996.4238 0.0000e+00
      0.998    27.4047     7.4991     94.803  27.856273     26.576      6.077   330.7847     0.6566     0.8133     0.0209      0.063      0.978      1.420        244 1.2382e-01   996.4233 0.0000e+00
      1.021    27.4050     7.4893     94.678  27.823432     26.549      6.073   331.3147     0.6757     0.8710     0.0209      0.068      0.999      1.450        245 1.2356e-01   996.4233 0.0000e+00
      1.038    27.4044     7.4831     94.599  27.786110     26.496      6.071   330.8983     0.7024     0.9287     0.0209      0.071      1.017      1.476        246 1.2373e-01   996.4231 0.0000e+00
      1.054    27.4034     7.4652     94.373  27.813853     26.549      6.068   331.2011     0.6833     0.9719     0.0209      0.073      1.032      1.498        247 1.2370e-01   996.4231 0.0000e+00
      1.067    27.4035     7.4568     94.265  27.788905     26.496      6.070   330.7469     0.5994     0.7412     0.0209      0.071      1.047      1.519        248 1.2364e-01   996.4233 0.0000e+00
      1.084    27.4040     7.4485     94.160  27.817159     26.550      6.074   330.8226     0.5917     0.8710     0.0209      0.071      1.064      1.542        249 1.2371e-01   996.4236 0.0000e+00
      1.104    27.4041     7.4438     94.099  27.837936     26.550      6.073   331.1254     0.6070     0.8998     0.0209      0.071      1.080      1.567        250 1.2374e-01   996.4238 0.0000e+00
      1.116    27.4036     7.4387     94.036  27.822292     26.549      6.069   330.7090     0.6222     0.8710     0.0209      0.068      1.094      1.587        251 1.2380e-01   996.4237 0.0000e+00
      1.128    27.4035     7.4429     94.089  27.836628     26.549      6.069   330.9361     0.7138     0.9143     0.0209      0.063      1.107      1.606        252 1.2364e-01   996.4237 0.0000e+00
      1.145    27.4036     7.4504     94.186  27.820094     26.550      6.066   330.8226     0.7024     0.7845     0.0209      0.060      1.122      1.626        253 1.2367e-01   996.4239 0.0000e+00
      1.158    27.4034     7.4584     94.285  27.783624     26.496      6.070   330.8983     0.7291     0.8854     0.0209      0.059      1.136      1.646        254 1.2361e-01   996.4240 0.0000e+00
      1.171    27.4029     7.4714     94.447  27.763528     26.496      6.070   331.0497     0.7405     0.8566     0.0209      0.058      1.148      1.665        255 1.2370e-01   996.4240 0.0000e+00
      1.183    27.4026     7.4803     94.560  27.785861     26.496      6.072   330.8604     0.6795     0.8133     0.0209      0.056      1.161      1.684        256 1.2399e-01   996.4241 0.0000e+00
      1.198    27.4023     7.4846     94.619  27.844698     26.577      6.074   331.1633     0.7138     1.1161     0.0209      0.055      1.175      1.704        257 1.2373e-01   996.4244 0.0000e+00
      1.213    27.4015     7.4881     94.667  27.838415     26.550      6.081   331.2769     0.6795     1.1017     0.0209      0.053      1.191      1.727        258 1.2355e-01   996.4245 0.0000e+00
      1.232    27.4010     7.4831     94.606  27.823301     26.550      6.086   331.5040     0.7176     1.0873     0.0209      0.056      1.207      1.752        259 1.2365e-01   996.4248 0.0000e+00
      1.251    27.4007     7.4837     94.615  27.833884     26.551      6.077   331.2011     0.7291     1.1882     0.0209      0.058      1.222      1.773        260 1.2371e-01   996.4250 0.0000e+00
      1.256    27.4010     7.4836     94.611  27.825244     26.551      6.056   331.4661     0.7138     0.9575     0.0209      0.057      1.230      1.784        261 1.2369e-01   996.4251 0.0000e+00
      1.257    27.4015     7.4831     94.601  27.834055     26.551      6.052   331.0497     0.6947     0.9431     0.0209      0.054      1.233      1.788        262 1.2368e-01   996.4252 0.0000e+00
      1.258    27.4018     7.4831     94.597  27.882163     26.604      6.059   331.3526     0.7214     0.8998     0.0209      0.048      1.234      1.790        263 1.2374e-01   996.4252 0.0000e+00
      1.261    27.4011     7.4939     94.730  27.854239     26.577      6.064   331.4661     0.7329     0.8998     0.0209      0.039      1.236      1.793        264 1.2370e-01   996.4250 0.0000e+00
      1.263    27.3995     7.5063     94.884  27.779942     26.497      6.069   331.1633     0.6757     0.8566     0.0209      0.030      1.239      1.798        265 1.2375e-01   996.4249 0.0000e+00
      1.267    27.3999     7.5045     94.861  27.826517     26.551      6.073   330.9740     0.6680     0.8710     0.0209      0.022      1.246      1.808        266 1.2372e-01   996.4251 0.0000e+00
      1.284    27.4028     7.4938     94.727  27.825899     26.552      6.080   330.9361     0.6375     0.8854     0.0209      0.018      1.261      1.829        267 1.2362e-01   996.4257 0.0000e+00
      1.306    27.4051     7.4905     94.687  27.780712     26.498      6.086   331.0119     0.6718     0.8710     0.0209      0.021      1.280      1.856        268 1.2369e-01   996.4257 0.0000e+00
      1.325    27.4061     7.4830     94.594  27.823509     26.550      6.092   331.0497     0.6871     0.8998     0.0209      0.031      1.298      1.882        269 1.2363e-01   996.4249 0.0000e+00
      1.339    27.4067     7.4791     94.545  27.861503     26.575      6.090   331.1254     0.6985     0.8998     0.0209      0.042      1.313      1.903        270 1.2362e-01   996.4243 0.0000e+00
      1.351    27.4055     7.4727     94.468  27.822291     26.548      6.091   331.2011     0.6757     0.8710     0.0209      0.050      1.325      1.922        271 1.2371e-01   996.4241 0.0000e+00
      1.365    27.4033     7.4628     94.348  27.783442     26.495      6.094   330.9740     0.6642     0.8710     0.0209      0.057      1.338      1.941        272 1.2371e-01   996.4240 0.0000e+00
      1.379    27.4009     7.4592     94.304  27.820986     26.549      6.097   331.3904     0.7252     1.1594     0.0209      0.061      1.352      1.960        273 1.2379e-01   996.4244 0.0000e+00
      1.391    27.3987     7.4581     94.293  27.834811     26.550      6.094   331.0497     0.6947     1.1738     0.0209      0.061      1.364      1.978        274 1.2367e-01   996.4251 0.0000e+00
      1.402    27.3975     7.4638     94.365  27.825483     26.551      6.095   331.3147     0.7100     0.9719     0.0209      0.056      1.376      1.996        275 1.2368e-01   996.4258 0.0000e+00
      1.418    27.3970     7.4678     94.417  27.832596     26.552      6.095   331.3147     0.7138     1.1738     0.0209      0.053      1.390      2.017        276 1.2383e-01   996.4265 0.0000e+00
      1.433    27.3977     7.4735     94.489  27.855580     26.579      6.098   331.3904     0.7329     0.9143     0.0209      0.052      1.405      2.038        277 1.2379e-01   996.4269 0.0000e+00
      1.446    27.3987     7.4829     94.610  27.826502     26.553      6.098   331.7311     0.7519     0.9143     0.0209      0.052      1.418      2.056        278 1.2381e-01   996.4271 0.0000e+00
      1.456    27.3996     7.4921     94.725  27.779918     26.499      6.097   331.0119     0.6833     0.9719     0.0209      0.052      1.428      2.071        279 1.2389e-01   996.4270 0.0000e+00
      1.466    27.4000     7.5007     94.832  27.824687     26.552      6.095   331.5419     0.6795     0.8710     0.0209      0.051      1.440      2.088        280 1.2367e-01   996.4267 0.0000e+00
      1.481    27.4019     7.4980     94.796  27.830030     26.552      6.092   331.5797     0.7329     0.8998     0.0209      0.050      1.456      2.112        281 1.2361e-01   996.4265 0.0000e+00
      1.508    27.4051     7.4906     94.702  27.832511     26.551      6.088   331.7311     0.7138     0.9287     0.0209      0.054      1.480      2.146        282 1.2376e-01   996.4265 0.0000e+00
      1.536    27.4066     7.4848     94.628  27.851223     26.577      6.081   331.3147     0.7100     0.9287     0.0209      0.060      1.505      2.182        283 1.2373e-01   996.4261 0.0000e+00
      1.559    27.4075     7.4864     94.647  27.836367     26.549      6.084   331.3526     0.7024     0.8710     0.0209      0.067      1.528      2.216        284 1.2371e-01   996.4253 0.0000e+00
      1.581    27.4083     7.4845     94.621  27.821377     26.548      6.080   331.4661     0.7100     0.8998     0.0209      0.074      1.550      2.247        285 1.2365e-01   996.4250 0.0000e+00
      1.601    27.4089     7.4773     94.531  27.781011     26.494      6.081   331.4661     0.6795     1.1306     0.0209      0.081      1.570      2.277        286 1.2374e-01   996.4248 0.0000e+00
      1.622    27.4091     7.4749     94.500  27.827356     26.547      6.081   331.7311     0.6566     1.1161     0.0209      0.086      1.589      2.305        287 1.2374e-01   996.4247 0.0000e+00
      1.638    27.4095     7.4750     94.503  27.882188     26.600      6.081   331.5040     0.6528     1.1306     0.0209      0.088      1.607      2.330        288 1.2375e-01   996.4246 0.0000e+00
      1.655    27.4093     7.4716     94.460  27.831261     26.547      6.081   331.7311     0.6833     1.1882     0.0209      0.085      1.624      2.355        289 1.2384e-01   996.4246 0.0000e+00
      1.675    27.4082     7.4621     94.339  27.831489     26.547      6.085   331.5797     0.7100     0.9287     0.0209      0.080      1.642      2.380        290 1.2372e-01   996.4246 0.0000e+00
      1.691    27.4076     7.4482     94.164  27.822661     26.547      6.081   331.6933     0.7176     0.9287     0.0209      0.075      1.658      2.404        291 1.2369e-01   996.4247 0.0000e+00
      1.703    27.4070     7.4453     94.127  27.842249     26.547      6.080   331.3147     0.7024     0.9287     0.0209      0.071      1.674      2.427        292 1.2374e-01   996.4251 0.0000e+00
      1.726    27.4061     7.4522     94.210  27.866357     26.601      6.079   331.4661     0.7024     0.8854     0.0209      0.069      1.694      2.456        293 1.2376e-01   996.4254 0.0000e+00
      1.751    27.4055     7.4577     94.277  27.792660     26.495      6.070   331.9961     0.6947     1.1161     0.0209      0.070      1.716      2.489        294 1.2379e-01   996.4256 0.0000e+00
      1.773    27.4048     7.4627     94.339  27.815478     26.548      6.066   331.4661     0.6909     1.1882     0.0209      0.073      1.740      2.524        295 1.2377e-01   996.4259 0.0000e+00
      1.802    27.4048     7.4607     94.315  27.837961     26.549      6.057   332.0340     0.6985     1.0873     0.0209      0.078      1.764      2.560        296 1.2369e-01   996.4264 0.0000e+00
      1.823    27.4052     7.4631     94.347  27.823923     26.549      6.035   331.8826     0.6642     1.0585     0.0209      0.083      1.782      2.586        297 1.2359e-01   996.4266 0.0000e+00
      1.827    27.4056     7.4686     94.419  27.832947     26.549      6.016   331.8447     0.6680     0.9143     0.0209      0.082      1.789      2.596        298 1.2370e-01   996.4266 0.0000e+00
      1.825    27.4058     7.4793     94.550  27.826731     26.549      6.016   331.7690     0.6833     0.9431     0.0209      0.076      1.790      2.597        299 1.2372e-01   996.4265 0.0000e+00
      1.826    27.4054     7.4808     94.569  27.831661     26.549      6.032   331.8826     0.6871     0.8998     0.0209      0.065      1.791      2.598        300 1.2363e-01   996.4264 0.0000e+00
      1.828    27.4056     7.4816     94.579  27.826813     26.548      6.046   331.6933     0.6604     0.8133     0.0209      0.050      1.793      2.599        301 1.2364e-01   996.4263 0.0000e+00
      1.829    27.4052     7.4857     94.630  27.832765     26.549      6.060   331.6933     0.6757     0.9287     0.0209      0.034      1.793      2.601        302 1.2365e-01   996.4264 0.0000e+00
      1.829    27.4032     7.4887     94.671  27.853875     26.575      6.073   331.8826     0.6833     0.9431     0.0209      0.021      1.796      2.604        303 1.2373e-01   996.4264 0.0000e+00
      1.836    27.4016     7.4936     94.737  27.830162     26.549      6.081   331.9583     0.7024     0.9143     0.0209      0.010      1.801      2.612        304 1.2357e-01   996.4266 0.0000e+00
      1.844    27.4010     7.4974     94.787  27.773411     26.497      6.088   332.2233     0.6604     0.8710     0.0209      0.008      1.809      2.623        305 1.2364e-01   996.4271 0.0000e+00
      1.852    27.4016     7.4965     94.776  27.776393     26.497      6.095   331.9961     0.6871     0.9431     0.0209      0.012      1.817      2.635        306 1.2383e-01   996.4276 0.0000e+00
      1.862    27.4030     7.4881     94.670  27.826450     26.551      6.102   331.6554     0.6833     0.8133     0.0209      0.017      1.827      2.650        307 1.2377e-01   996.4278 0.0000e+00
      1.875    27.4037     7.4869     94.656  27.829601     26.550      6.111   331.8069     0.6680     0.8854     0.0209      0.023      1.840      2.669        308 1.2369e-01   996.4277 0.0000e+00
      1.893    27.4022     7.4813     94.586  27.831715     26.550      6.114   332.0340     0.6528     0.8998     0.0209      0.031      1.857      2.693        309 1.2370e-01   996.4273 0.0000e+00
      1.912    27.4012     7.4735     94.485  27.853442     26.576      6.111   332.5640     0.6833     0.8566     0.0209      0.041      1.872      2.715        310 1.2379e-01   996.4273 0.0000e+00
      1.921    27.4011     7.4702     94.439  27.832183     26.550      6.095   332.0719     0.7329     0.8422     0.0209      0.047      1.884      2.732        311 1.2373e-01   996.4278 0.0000e+00
      1.929    27.4012     7.4665     94.389  27.828549     26.551      6.093   332.3747     0.7252     0.8277     0.0209      0.049      1.896      2.749        312 1.2375e-01   996.4280 0.0000e+00
      1.950    27.4029     7.4632     94.345  27.828343     26.551      6.090   332.1854     0.7405     0.8710     0.0209      0.053      1.912      2.774        313 1.2377e-01   996.4281 0.0000e+00
      1.970    27.4053     7.4620     94.325  27.832440     26.551      6.091   332.6019     0.7138     0.8854     0.0209      0.057      1.931      2.800        314 1.2381e-01   996.4282 0.0000e+00
      1.986    27.4065     7.4523     94.194  27.823451     26.550      6.086   332.5262     0.7062     0.8566     0.0209      0.060      1.948      2.826        315 1.2383e-01   996.4278 0.0000e+00
      2.006    27.4066     7.4440     94.078  27.839529     26.549      6.091   332.4883     0.6680     0.8998     0.0209      0.062      1.968      2.855        316 1.2363e-01   996.4272 0.0000e+00
      2.030    27.4070     7.4424     94.048  27.901296     26.628      6.087   332.5262     0.7024     0.8277     0.0209      0.065      1.988      2.885        317 1.2360e-01   996.4270 0.0000e+00
      2.049    27.4076     7.4299     93.891  27.835449     26.548      6.081   332.6397     0.6909     0.8854     0.0209      0.069      2.006      2.910        318 1.2369e-01   996.4270 0.0000e+00
      2.060    27.4074     7.4330     93.911  27.832610     26.548      6.074   332.1097     0.6680     0.8710     0.0209      0.073      2.020      2.929        319 1.2369e-01   996.4270 0.0000e+00
      2.070    27.4060     7.4296     93.809  27.875208     26.601      6.072   332.4883     0.6757     0.9431     0.0209      0.072      2.030      2.944        320 1.2381e-01   996.4269 0.0000e+00
      2.080    27.4039     7.4415     93.867  27.841680     26.548      6.076   332.5262     0.6566     0.8422     0.0209      0.066      2.040      2.959        321 1.2381e-01   996.4270 0.0000e+00
      2.091    27.4019     7.4333     93.678  27.874335     26.602      6.081   332.1854     0.6528     0.8998     0.0209      0.061      2.050      2.974        322 1.2366e-01   996.4274 0.0000e+00
      2.102    27.4003     7.4106     93.345  27.864192     26.576      6.087   332.4504     0.6795     0.8710     0.0209      0.055      2.060      2.988        323 1.2369e-01   996.4280 0.0000e+00
      2.108    27.3974     7.3848     93.006  27.824681     26.550      6.090   333.0183     0.6528     1.0873     0.0209      0.048      2.067      2.998        324 1.2366e-01   996.4286 0.0000e+00
      2.112    27.3929     7.3598     92.671  27.834641     26.551      6.083   332.6019     0.6757     1.2459     0.0209      0.040      2.074      3.008        325 1.2369e-01   996.4291 0.0000e+00
      2.123    27.3859     7.3433     92.426  27.822177     26.553      6.084   332.5640     0.6642     1.1594     0.0209      0.036      2.085      3.024        326 1.2385e-01   996.4299 0.0000e+00
      2.144    27.3809     7.3283     92.199  27.840195     26.555      6.082   332.6019     0.6642     1.0873     0.0209      0.038      2.101      3.047        327 1.2369e-01   996.4313 0.0000e+00
      2.160    27.3801     7.3253     92.121  27.871464     26.612      6.081   332.9804     0.7138     0.9287     0.0209      0.041      2.117      3.071        328 1.2372e-01   996.4333 0.0000e+00
      2.173    27.3694     7.3072     91.889  27.842508     26.561      6.086   333.0183     0.7329     0.9287     0.0209      0.044      2.132      3.093        329 1.2383e-01   996.4347 0.0000e+00
      2.192    27.3338     7.3055     91.882  27.846609     26.588      6.089   332.9804     0.7024     0.7701     0.0209      0.049      2.149      3.117        330 1.2375e-01   996.4350 0.0000e+00
      2.209    27.2789     7.3099     91.848  27.836740     26.567      6.092   333.0183     0.7252     0.8998     0.0209      0.055      2.165      3.140        331 1.2374e-01   996.4381 0.0000e+00
      2.223    27.2286     7.3113     91.775  27.825174     26.585      6.089   333.3212     0.6947     0.8998     0.0209      0.060      2.177      3.158        332 1.2362e-01   996.4481 0.0000e+00
      2.230    27.2009     7.3123     91.731  27.831394     26.613      6.072   333.1697     0.7176     0.8854     0.0209      0.061      2.185      3.169        333 1.2367e-01   996.4633 0.0000e+00
      2.232    27.1911     7.3004     91.554  27.829019     26.639      6.057   332.9804     0.7100     0.8710     0.0209      0.056      2.190      3.175        334 1.2362e-01   996.4773 0.0000e+00
      2.237    27.1795     7.2936     91.426  27.828149     26.653      6.062   333.0183     0.7138     0.8854     0.0209      0.048      2.197      3.185        335 1.2368e-01   996.4851 0.0000e+00
      2.250    27.1571     7.2915     91.341  27.862109     26.684      6.069   333.2454     0.7291     0.8998     0.0209      0.043      2.208      3.202        336 1.2380e-01   996.4879 0.0000e+00
      2.266    27.1333     7.2839     91.193  27.875625     26.717      6.080   333.2454     0.7100     0.8566     0.0209      0.040      2.221      3.222        337 1.2364e-01   996.4911 0.0000e+00
      2.279    27.1087     7.2693     90.958  27.840955     26.675      6.089   333.2833     0.7176     0.8710     0.0209      0.038      2.235      3.242        338 1.2368e-01   996.4973 0.0000e+00
      2.292    27.1086     7.2349     90.498  27.964507     26.821      6.098   333.1697     0.7291     0.9143     0.0209      0.039      2.250      3.264        339 1.2374e-01   996.5040 0.0000e+00
      2.313    27.1118     7.1998     90.040  27.958850     26.834      6.107   333.4726     0.7176     0.7556     0.0209      0.044      2.269      3.291        340 1.2360e-01   996.5109 0.0000e+00
      2.337    27.0625     7.1682     89.602  27.907246     26.755      6.109   333.6619     0.6680     0.8422     0.0209      0.053      2.288      3.319        341 1.2362e-01   996.5110 0.0000e+00
      2.350    27.0049     7.1457     89.255  27.999109     26.884      6.091   333.6997     0.7405     0.9143     0.0210      0.060      2.302      3.339        342 1.2368e-01   996.5102 0.0000e+00
      2.357    26.9729     7.1099     88.734  27.992641     26.859      6.080   333.3212     0.7252     0.9575     0.0209      0.062      2.314      3.356        343 1.2371e-01   996.5238 0.0000e+00
      2.375    26.9539     7.0950     88.488  28.004173     26.941      6.082   333.3212     0.7329     0.8422     0.0210      0.063      2.331      3.380        344 1.2374e-01   996.5398 0.0000e+00
      2.397    26.9282     7.0822     88.241  27.984778     26.905      6.095   333.1697     0.6947     1.0873     0.0209      0.064      2.351      3.410        345 1.2373e-01   996.5487 0.0000e+00
      2.419    26.8927     7.0680     88.005  28.016794     26.967      6.100   333.6619     0.7519     1.0729     0.0210      0.067      2.372      3.440        346 1.2364e-01   996.5540 0.0000e+00
      2.441    26.8602     7.0503     87.720  28.082825     27.035      6.092   334.0404     0.7176     1.2459     0.0210      0.069      2.391      3.468        347 1.2366e-01   996.5612 0.0000e+00
      2.454    26.8286     7.0318     87.416  28.080344     27.053      6.081   334.1540     0.7062     1.0440     0.0210      0.069      2.406      3.489        348 1.2385e-01   996.5711 0.0000e+00
      2.465    26.8108     7.0005     87.003  28.079139     27.070      6.081   334.5704     0.7100     0.8277     0.0210      0.068      2.420      3.508        349 1.2374e-01   996.5800 0.0000e+00
      2.483    26.7979     6.9632     86.589  28.025094     27.033      6.087   334.4569     0.7024     0.8422     0.0210      0.069      2.436      3.532        350 1.2371e-01   996.5886 0.0000e+00
      2.503    26.7723     6.9430     86.416  28.029126     27.042      6.087   334.3812     0.7214     0.8710     0.0209      0.070      2.455      3.561        351 1.2372e-01   996.5936 0.0000e+00
      2.525    26.7305     6.9486     86.447  28.074128     27.102      6.088   334.7219     0.7100     1.0008     0.0210      0.070      2.475      3.590        352 1.2375e-01   996.5973 0.0000e+00
      2.544    26.6869     6.9684     86.590  28.028338     27.062      6.087   334.9112     0.7519     1.0873     0.0209      0.069      2.493      3.616        353 1.2374e-01   996.6043 0.0000e+00
      2.556    26.6456     6.9926     86.802  28.026877     27.084      6.087   334.7219     0.7825     1.0729     0.0209      0.068      2.508      3.639        354 1.2354e-01   996.6157 0.0000e+00
      2.574    26.5942     6.9998     86.825  28.075964     27.162      6.093   334.8354     0.7863     1.1738     0.0210      0.068      2.527      3.665        355 1.2370e-01   996.6277 0.0000e+00
      2.599    26.5542     6.9933     86.691  28.085757     27.182      6.087   335.2897     0.7825     1.1306     0.0210      0.072      2.548      3.696        356 1.2383e-01   996.6391 0.0000e+00
      2.620    26.5137     6.9683     86.343  28.133194     27.265      6.084   334.9869     0.9122     1.2171     0.0210      0.075      2.567      3.723        357 1.2366e-01   996.6532 0.0000e+00
      2.633    26.4687     6.9335     85.882  28.135434     27.285      6.085   335.4412     0.9007     1.1161     0.0210      0.074      2.579      3.741        358 1.2361e-01   996.6641 0.0000e+00
      2.638    26.4523     6.8920     85.335  28.082987     27.252      6.073   335.7440     0.9045     1.1306     0.0210      0.069      2.583      3.746        359 1.2367e-01   996.6750 0.0000e+00
      2.630    26.4857     6.8468     84.739  28.079993     27.276      6.057   335.3276     0.9122     1.1306     0.0210      0.059      2.579      3.741        360 1.2372e-01   996.6872 0.0000e+00
      2.621    26.5312     6.8061     84.200  28.079930     27.285      6.066   335.5547     0.8816     0.9719     0.0209      0.045      2.575      3.735        361 1.2372e-01   996.6916 0.0000e+00
      2.627    26.5097     6.7674     83.685  28.083068     27.268      6.081   335.5169     0.8893     1.3036     0.0210      0.033      2.580      3.742        362 1.2375e-01   996.6826 0.0000e+00
      2.643    26.4437     6.7544     83.495  28.135322     27.296      6.096   335.7819     0.8816     1.3324     0.0210      0.024      2.594      3.762        363 1.2369e-01   996.6704 0.0000e+00
      2.665    26.3873     6.7416     83.348  28.133379     27.309      6.104   336.2362     0.8855     1.3469     0.0210      0.020      2.614      3.791        364 1.2372e-01   996.6762 0.0000e+00
      2.689    26.3444     6.7470     83.407  28.144738     27.344      6.106   335.9333     0.8969     1.3180     0.0210      0.025      2.638      3.825        365 1.2379e-01   996.6942 0.0000e+00
      2.715    26.3110     6.7718     83.690  28.239697     27.482      6.100   336.3119     0.7786     1.1017     0.0210      0.037      2.660      3.857        366 1.2382e-01   996.7095 0.0000e+00
      2.730    26.2868     6.7909     83.873  28.252203     27.505      6.094   336.2740     0.7786     1.0296     0.0210      0.052      2.677      3.882        367 1.2381e-01   996.7211 0.0000e+00
      2.744    26.2670     6.8097     84.070  28.247680     27.523      6.096   336.3119     0.7939     1.1161     0.0210      0.065      2.693      3.905        368 1.2368e-01   996.7302 0.0000e+00
      2.765    26.2457     6.8399     84.433  28.245338     27.536      6.095   336.6147     0.7863     1.1738     0.0210      0.075      2.711      3.932        369 1.2359e-01   996.7368 0.0000e+00
      2.783    26.2216     6.8756     84.836  28.195882     27.492      6.094   336.6526     0.8969     1.1594     0.0210      0.078      2.728      3.957        370 1.2373e-01   996.7422 0.0000e+00
      2.796    26.1993     6.9198     85.317  28.131503     27.449      6.094   337.0690     0.8969     1.0729     0.0210      0.075      2.742      3.977        371 1.2392e-01   996.7479 0.0000e+00
      2.808    26.1742     6.9530     85.680  28.147732     27.462      6.096   337.0690     0.8778     1.1017     0.0210      0.070      2.756      3.998        372 1.2370e-01   996.7545 0.0000e+00
      2.829    26.1576     6.9782     85.952  28.175694     27.529      6.098   337.1826     0.8740     1.0873     0.0210      0.066      2.775      4.025        373 1.2374e-01   996.7606 0.0000e+00
      2.853    26.1615     7.0011     86.179  28.096714     27.433      6.092   337.2205     0.9579     1.2459     0.0209      0.066      2.799      4.059        374 1.2367e-01   996.7674 0.0000e+00
      2.879    26.1593     7.0048     86.160  28.127542     27.497      6.089   337.7883     0.9579     1.3901     0.0210      0.070      2.824      4.095        375 1.2354e-01   996.7719 0.0000e+00
      2.904    26.1408     6.9934     85.926  28.137335     27.494      6.085   338.0912     0.9465     1.3613     0.0210      0.075      2.848      4.130        376 1.2376e-01   996.7709 0.0000e+00
      2.930    26.1082     6.9689     85.478  28.084528     27.441      6.084   338.4697     0.9389     1.2748     0.0209      0.080      2.872      4.165        377 1.2375e-01   996.7716 0.0000e+00
      2.952    26.0846     6.9354     84.966  28.074773     27.450      6.078   338.3562     1.0533     1.3469     0.0209      0.086      2.892      4.195        378 1.2377e-01   996.7767 0.0000e+00
      2.965    26.0774     6.8995     84.511  28.090237     27.469      6.077   338.2805     1.1029     1.2315     0.0209      0.089      2.907      4.216        379 1.2378e-01   996.7854 0.0000e+00
      2.977    26.0526     6.8653     84.072  28.124538     27.536      6.078   338.2805     1.0533     1.3613     0.0210      0.087      2.919      4.235        380 1.2377e-01   996.7918 0.0000e+00
      2.990    26.0129     6.8401     83.665  28.032094     27.430      6.083   338.3183     1.0724     1.4189     0.0209      0.081      2.933      4.255        381 1.2378e-01   996.7938 0.0000e+00
      3.007    25.9823     6.8212     83.274  28.027555     27.443      6.088   338.1290     1.1029     1.2171     0.0209      0.074      2.951      4.280        382 1.2382e-01   996.8004 0.0000e+00
      3.031    25.9570     6.8018     82.847  28.070952     27.520      6.086   338.1669     1.0381     1.4334     0.0209      0.069      2.972      4.311        383 1.2377e-01   996.8111 0.0000e+00
      3.053    25.9223     6.7759     82.348  28.037346     27.482      6.089   338.2805     1.0381     1.3613     0.0209      0.068      2.992      4.341        384 1.2373e-01   996.8193 0.0000e+00
      3.069    25.8818     6.7621     82.009  28.010148     27.495      6.091   338.1669     1.0152     1.3757     0.0209      0.067      3.012      4.370        385 1.2370e-01   996.8261 0.0000e+00
      3.095    25.8198     6.7778     82.056  27.897457     27.377      6.093   338.2426     1.0190     1.3613     0.0208      0.071      3.037      4.405        386 1.2385e-01   996.8354 0.0000e+00
      3.126    25.7282     6.8299     82.560  27.822138     27.344      6.092   338.6969     1.0838     1.4045     0.0208      0.079      3.062      4.441        387 1.2396e-01   996.8463 0.0000e+00
      3.143    25.6633     6.9162     83.466  27.837303     27.376      6.079   338.7726     1.0838     1.2748     0.0208      0.084      3.078      4.465        388 1.2362e-01   996.8627 0.0000e+00
      3.145    25.6519     7.0047     84.396  27.848988     27.455      6.065   338.7347     1.0953     1.3180     0.0208      0.083      3.085      4.475        389 1.2372e-01   996.8868 0.0000e+00
      3.149    25.6374     7.0989     85.427  27.837249     27.462      6.072   338.6212     1.0876     1.3757     0.0208      0.075      3.093      4.486        390 1.2371e-01   996.9040 0.0000e+00
      3.168    25.5746     7.1737     86.256  27.822313     27.468      6.086   339.0376     1.0876     1.6785     0.0208      0.068      3.109      4.509        391 1.2357e-01   996.9071 0.0000e+00
      3.194    25.4696     7.2220     86.812  27.837963     27.475      6.092   338.9997     1.0876     1.5343     0.0208      0.064      3.132      4.542        392 1.2372e-01   996.9110 0.0000e+00
      3.219    25.3453     7.2541     87.193  27.758539     27.455      6.097   339.3405     1.0915     1.5343     0.0208      0.064      3.155      4.576        393 1.2355e-01   996.9275 0.0000e+00
      3.239    25.2234     7.2722     87.404  27.565720     27.290      6.098   339.2269     1.0686     1.6208     0.0207      0.064      3.175      4.605        394 1.2362e-01   996.9549 0.0000e+00
      3.255    25.1109     7.2682     87.349  27.485530     27.303      6.101   339.3405     1.1143     1.2027     0.0207      0.065      3.192      4.629        395 1.2375e-01   996.9874 0.0000e+00
      3.271    25.0151     7.2573     87.235  27.384437     27.258      6.099   339.6812     1.0762     1.4045     0.0206      0.070      3.207      4.652        396 1.2377e-01   997.0190 0.0000e+00
      3.287    24.9321     7.2332     87.047  27.306501     27.236      6.106   339.4162     1.0762     1.4045     0.0206      0.075      3.223      4.676        397 1.2377e-01   997.0480 0.0000e+00
      3.305    24.8423     7.2115     86.999  27.286353     27.288      6.105   339.4919     1.0953     1.3036     0.0206      0.076      3.241      4.701        398 1.2368e-01   997.0728 0.0000e+00
      3.322    24.7549     7.2021     86.990  27.142958     27.165      6.103   339.5676     1.0838     1.5776     0.0205      0.073      3.257      4.723        399 1.2382e-01   997.0941 0.0000e+00
      3.335    24.6884     7.1876     86.799  27.129534     27.214      6.098   339.3405     1.1067     1.5920     0.0205      0.068      3.270      4.742        400 1.2377e-01   997.1170 0.0000e+00
      3.345    24.6454     7.1594     86.387  27.184608     27.319      6.099   339.6433     1.0762     1.6064     0.0205      0.063      3.280      4.757        401 1.2372e-01   997.1394 0.0000e+00
      3.354    24.6286     7.1405     85.975  27.163313     27.326      6.099   339.7569     1.0838     1.5776     0.0205      0.058      3.287      4.767        402 1.2368e-01   997.1562 0.0000e+00
      3.353    24.6260     7.1171     85.446  27.185682     27.379      6.093   339.8326     1.0533     1.6497     0.0205      0.052      3.288      4.769        403 1.2352e-01   997.1672 0.0000e+00
      3.350    24.6207     7.0932     84.782  27.186407     27.388      6.094   339.9083     1.0228     1.6064     0.0205      0.042      3.287      4.768        404 1.2378e-01   997.1713 0.0000e+00
      3.354    24.6182     7.0649     84.020  27.192038     27.389      6.102   339.9083     1.0495     1.6497     0.0205      0.032      3.290      4.772        405 1.2373e-01   997.1720 0.0000e+00
      3.361    24.6276     7.0246     83.151  27.178677     27.392      6.108   340.0597     1.0190     1.5343     0.0205      0.024      3.297      4.782        406 1.2356e-01   997.1734 0.0000e+00
      3.370    24.6944     6.9632     82.063  27.143793     27.338      6.110   340.0597     1.0190     1.5631     0.0205      0.019      3.307      4.795        407 1.2383e-01   997.1740 0.0000e+00
      3.384    24.8206     6.8814     80.873  27.294692     27.501      6.116   339.9462     1.0953     1.6497     0.0205      0.019      3.320      4.814        408 1.2383e-01   997.1717 0.0000e+00
      3.401    24.8869     6.7780     79.556  27.435196     27.606      6.119   339.6812     1.0953     1.5776     0.0206      0.023      3.335      4.837        409 1.2367e-01   997.1549 0.0000e+00
      3.416    24.8795     6.6782     78.331  27.353989     27.449      6.120   340.0219     1.1029     1.5199     0.0206      0.031      3.349      4.857        410 1.2370e-01   997.1230 0.0000e+00
      3.428    24.8309     6.5770     77.142  27.306853     27.357      6.119   340.1733     1.0800     1.5199     0.0206      0.040      3.361      4.875        411 1.2374e-01   997.1062 0.0000e+00
      3.440    24.7199     6.5034     76.359  27.227242     27.306      6.121   340.2112     1.1449     1.8515     0.0205      0.047      3.375      4.894        412 1.2376e-01   997.1081 0.0000e+00
      3.456    24.5591     6.4742     76.025  27.097611     27.163      6.124   339.9462     1.1449     1.7362     0.0205      0.052      3.390      4.917        413 1.2379e-01   997.1205 0.0000e+00
      3.475    24.3233     6.4750     75.860  26.994263     27.170      6.123   340.5519     1.1449     1.7650     0.0204      0.056      3.408      4.943        414 1.2381e-01   997.1487 0.0000e+00
      3.493    24.0543     6.4865     75.878  26.793105     27.002      6.122   340.4762     1.1334     1.7939     0.0203      0.059      3.427      4.969        415 1.2380e-01   997.1894 0.0000e+00
      3.514    23.8028     6.4999     76.042  26.666740     27.048      6.116   340.6655     1.0686     1.5487     0.0203      0.061      3.447      4.999        416 1.2373e-01   997.2487 0.0000e+00
      3.539    23.5722     6.5108     76.211  26.559202     27.055      6.108   340.8547     1.0724     1.6497     0.0202      0.066      3.469      5.031        417 1.2375e-01   997.3156 0.0000e+00
      3.559    23.4226     6.5122     76.238  26.393869     27.050      6.101   340.8547     1.0838     1.6208     0.0201      0.071      3.487      5.058        418 1.2374e-01   997.3775 0.0000e+00
      3.570    23.3542     6.5288     76.274  26.309807     27.066      6.095   341.2333     1.0953     1.5920     0.0201      0.074      3.498      5.074        419 1.2367e-01   997.4338 0.0000e+00
      3.571    23.3178     6.5335     76.009  26.397316     27.264      6.077   341.1197     1.0381     1.3324     0.0201      0.071      3.502      5.079        420 1.2379e-01   997.4700 0.0000e+00
      3.572    23.3178     6.5239     75.605  26.462738     27.360      6.071   340.9683     1.1105     1.3469     0.0201      0.062      3.503      5.080        421 1.2367e-01   997.4865 0.0000e+00
      3.572    23.3726     6.4834     74.932  26.465378     27.380      6.066   340.6655     1.0991     1.3757     0.0201      0.050      3.503      5.080        422 1.2355e-01   997.4952 0.0000e+00
      3.572    23.3737     6.4420     74.204  26.453283     27.381      6.069   341.1197     1.0876     1.3469     0.0201      0.037      3.505      5.083        423 1.2362e-01   997.4952 0.0000e+00
      3.580    23.2588     6.3834     73.285  26.418550     27.291      6.078   341.3847     1.0533     1.3901     0.0201      0.026      3.511      5.093        424 1.2358e-01   997.4821 0.0000e+00
      3.591    23.1763     6.3093     72.241  26.390113     27.288      6.087   341.5362     1.1449     1.4910     0.0201      0.018      3.521      5.107        425 1.2365e-01   997.4818 0.0000e+00
      3.602    23.1797     6.2334     71.252  26.310959     27.241      6.092   341.3090     1.1487     1.3469     0.0200      0.016      3.531      5.122        426 1.2370e-01   997.5094 0.0000e+00
      3.611    23.2096     6.1806     70.484  26.339367     27.345      6.100   341.3847     1.1678     1.3324     0.0201      0.020      3.541      5.137        427 1.2371e-01   997.5293 0.0000e+00
      3.622    23.2134     6.1440     69.814  26.414023     27.400      6.106   341.5362     1.1067     1.2892     0.0201      0.026      3.552      5.153        428 1.2378e-01   997.5286 0.0000e+00
      3.636    23.1048     6.1023     69.131  26.395773     27.384      6.112   341.6119     1.4539     1.3613     0.0201      0.033      3.565      5.171        429 1.2377e-01   997.5214 0.0000e+00
      3.650    22.8856     6.0735     68.702  26.213975     27.177      6.114   341.7255     1.4539     1.3901     0.0200      0.040      3.579      5.191        430 1.2359e-01   997.5206 0.0000e+00
      3.663    22.6856     6.0527     68.337  25.988642     27.007      6.123   341.7633     1.4729     1.3757     0.0199      0.045      3.592      5.210        431 1.2373e-01   997.5464 0.0000e+00
      3.675    22.5370     6.0338     68.079  25.876509     27.015      6.123   342.0283     1.4539     1.3469     0.0198      0.047      3.602      5.225        432 1.2385e-01   997.5983 0.0000e+00
      3.681    22.3671     6.0349     68.096  25.820442     27.072      6.114   341.9526     1.2746     1.3180     0.0198      0.047      3.610      5.237        433 1.2371e-01   997.6454 0.0000e+00
      3.688    22.1902     6.0418     68.204  25.762295     27.094      6.111   342.1040     1.2708     1.4478     0.0198      0.045      3.620      5.251        434 1.2365e-01   997.6801 0.0000e+00
      3.707    22.0552     6.0607     68.480  25.593506     27.017      6.114   342.2176     1.2822     1.4334     0.0197      0.045      3.635      5.273        435 1.2355e-01   997.7194 0.0000e+00
      3.725    21.9634     6.0607     68.553  25.527035     27.028      6.115   342.4826     1.2593     1.4189     0.0196      0.047      3.654      5.300        436 1.2363e-01   997.7601 0.0000e+00
      3.746    21.8446     6.0877     68.874  25.578504     27.197      6.119   342.4448     1.3318     1.3324     0.0197      0.050      3.676      5.333        437 1.2370e-01   997.7911 0.0000e+00
      3.778    21.6569     6.1213     69.236  25.411028     27.040      6.122   343.3912     1.3509     1.3613     0.0196      0.058      3.704      5.373        438 1.2364e-01   997.8120 0.0000e+00
      3.808    21.5063     6.1328     69.284  25.291218     26.990      6.124   343.4669     1.3661     1.3036     0.0195      0.069      3.731      5.412        439 1.2356e-01   997.8389 0.0000e+00
      3.828    21.4202     6.1286     69.178  25.342609     27.158      6.121   343.8833     1.3318     1.3613     0.0195      0.079      3.753      5.443        440 1.2369e-01   997.8811 0.0000e+00
      3.846    21.3324     6.1291     69.059  25.228656     27.129      6.122   344.7919     1.5836     1.4334     0.0195      0.087      3.769      5.467        441 1.2386e-01   997.9147 0.0000e+00
      3.856    21.2919     6.1362     68.979  25.196134     27.114      6.102   344.5269     1.5874     1.3469     0.0194      0.089      3.777      5.479        442 1.2373e-01   997.9339 0.0000e+00
      3.853    21.2993     6.1283     68.825  25.323880     27.352      6.082   345.0569     1.5759     1.3613     0.0195      0.080      3.778      5.480        443 1.2366e-01   997.9533 0.0000e+00
      3.850    21.3190     6.1374     68.675  25.306653     27.311      6.081   345.0190     1.5836     1.3469     0.0195      0.066      3.777      5.478        444 1.2363e-01   997.9622 0.0000e+00
      3.854    21.3692     6.1325     68.252  25.276824     27.309      6.090   345.2840     1.5683     1.3180     0.0195      0.050      3.779      5.480        445 1.2372e-01   997.9605 0.0000e+00
      3.855    21.4186     6.1232     67.839  25.301764     27.296      6.088   345.3976     1.4653     1.4045     0.0195      0.032      3.780      5.483        446 1.2371e-01   997.9562 0.0000e+00
      3.855    21.4356     6.1145     67.540  25.334844     27.328      6.092   345.1705     1.4691     1.3324     0.0195      0.018      3.783      5.488        447 1.2372e-01   997.9451 0.0000e+00
      3.865    21.4167     6.1116     67.390  25.354116     27.296      6.102   345.1326     1.4577     1.4334     0.0195      0.011      3.793      5.502        448 1.2379e-01   997.9343 0.0000e+00
      3.883    21.3610     6.1096     67.299  25.277766     27.229      6.108   345.3598     1.4386     1.3901     0.0195      0.012      3.807      5.522        449 1.2357e-01   997.9306 0.0000e+00
      3.897    21.3138     6.1138     67.367  25.133672     27.057      6.111   345.7383     1.4882     1.0585     0.0194      0.019      3.822      5.543        450 1.2366e-01   997.9348 0.0000e+00
      3.911    21.2194     6.1278     67.569  25.178026     27.153      6.116   345.3598     1.4996     1.1161     0.0194      0.029      3.837      5.565        451 1.2387e-01   997.9471 0.0000e+00
      3.931    21.1105     6.1490     67.799  25.163347     27.178      6.118   345.5112     1.5035     1.1594     0.0194      0.040      3.853      5.589        452 1.2370e-01   997.9576 0.0000e+00
      3.945    21.0486     6.1754     67.948  25.063107     27.082      6.120   345.4733     1.5340     1.0729     0.0194      0.048      3.869      5.611        453 1.2354e-01   997.9784 0.0000e+00
      3.959    20.8686     6.1981     68.047  25.095475     27.242      6.121   345.5869     1.4539     1.4334     0.0194      0.055      3.886      5.636        454 1.2372e-01   998.0023 0.0000e+00
      3.984    20.5949     6.2058     68.050  24.945387     27.059      6.125   345.4355     1.4539     1.3324     0.0193      0.063      3.908      5.668        455 1.2378e-01   998.0158 0.0000e+00
      4.013    20.3651     6.2063     68.037  24.746419     26.987      6.127   346.1926     1.4767     1.3036     0.0192      0.069      3.931      5.703        456 1.2363e-01   998.0548 0.0000e+00
      4.029    20.2141     6.2024     67.971  24.721175     27.088      6.123   346.1926     1.4691     1.3469     0.0192      0.072      3.950      5.728        457 1.2369e-01   998.1134 0.0000e+00
      4.040    20.1224     6.1993     67.878  24.769562     27.318      6.115   346.3440     1.4195     1.3180     0.0192      0.074      3.962      5.745        458 1.2371e-01   998.1621 0.0000e+00
      4.050    20.0755     6.1866     67.690  24.715896     27.316      6.111   346.6469     1.4539     1.2748     0.0191      0.072      3.971      5.760        459 1.2374e-01   998.1938 0.0000e+00
      4.058    20.0875     6.1875     67.679  24.699161     27.371      6.110   346.9119     1.4615     1.3324     0.0191      0.067      3.980      5.772        460 1.2372e-01   998.2128 0.0000e+00
      4.067    20.1257     6.2043     67.881  24.760801     27.463      6.112   347.2148     1.4577     1.3901     0.0191      0.062      3.989      5.785        461 1.2377e-01   998.2226 0.0000e+00
      4.078    20.1172     6.2221     68.122  24.757671     27.453      6.114   347.4419     1.5035     1.0585     0.0191      0.055      3.999      5.800        462 1.2377e-01   998.2202 0.0000e+00
      4.088    20.0177     6.2622     68.452  24.703056     27.370      6.116   347.6312     1.5111     1.1306     0.0191      0.046      4.010      5.816        463 1.2363e-01   998.2123 0.0000e+00
      4.101    19.9044     6.3021     68.714  24.651056     27.310      6.119   347.6691     1.5073     1.1594     0.0191      0.041      4.021      5.833        464 1.2378e-01   998.2141 0.0000e+00
      4.114    19.8462     6.3343     68.934  24.644685     27.374      6.119   348.0098     1.5187     1.1450     0.0191      0.040      4.033      5.850        465 1.2379e-01   998.2347 0.0000e+00
      4.125    19.8303     6.3682     69.205  24.651778     27.442      6.117   348.0476     1.5073     1.0440     0.0191      0.042      4.045      5.866        466 1.2363e-01   998.2582 0.0000e+00
      4.135    19.8135     6.4078     69.540  24.642263     27.478      6.120   348.1612     1.5187     1.0296     0.0191      0.043      4.056      5.883        467 1.2378e-01   998.2702 0.0000e+00
      4.149    19.7703     6.4384     69.780  24.567695     27.393      6.119   348.2748     1.5187     1.0585     0.0190      0.045      4.067      5.899        468 1.2372e-01   998.2734 0.0000e+00
      4.159    19.7356     6.4778     70.136  24.566880     27.404      6.116   348.3505     1.5187     1.1882     0.0190      0.046      4.077      5.913        469 1.2377e-01   998.2770 0.0000e+00
      4.164    19.7174     6.5250     70.584  24.554432     27.430      6.116   348.6533     1.5149     1.1306     0.0190      0.044      4.083      5.922        470 1.2381e-01   998.2857 0.0000e+00
      4.168    19.7349     6.5970     71.288  24.523962     27.390      6.113   348.4641     1.6255     1.0152     0.0190      0.041      4.088      5.930        471 1.2369e-01   998.2929 0.0000e+00
      4.175    19.7611     6.6596     71.872  24.575193     27.494      6.114   348.6533     1.6293     1.0585     0.0190      0.037      4.096      5.941        472 1.2369e-01   998.2967 0.0000e+00
      4.187    19.6875     6.7262     72.490  24.520300     27.392      6.116   348.5776     1.6332     1.1594     0.0190      0.034      4.107      5.957        473 1.2376e-01   998.2931 0.0000e+00
      4.201    19.5600     6.8000     73.179  24.444185     27.309      6.118   348.5776     1.6484     1.0873     0.0190      0.034      4.119      5.974        474 1.2382e-01   998.2879 0.0000e+00
      4.211    19.4653     6.8678     73.807  24.403359     27.295      6.113   348.5776     1.6103     1.1017     0.0190      0.034      4.129      5.990        475 1.2379e-01   998.3028 0.0000e+00
      4.220    19.3938     6.9224     74.327  24.393423     27.372      6.111   348.3883     1.6408     1.1161     0.0189      0.035      4.140      6.005        476 1.2375e-01   998.3287 0.0000e+00
      4.235    19.3262     6.9677     74.771  24.397351     27.431      6.112   348.5019     1.6560     1.0585     0.0189      0.038      4.154      6.025        477 1.2364e-01   998.3477 0.0000e+00
      4.251    19.2611     7.0042     75.086  24.339271     27.412      6.118   348.8805     1.6637     1.2315     0.0189      0.043      4.168      6.045        478 1.2382e-01   998.3621 0.0000e+00
      4.264    19.2100     7.0302     75.282  24.317644     27.422      6.118   348.6912     1.6560     1.1450     0.0189      0.047      4.181      6.064        479 1.2368e-01   998.3757 0.0000e+00
      4.275    19.1651     7.0502     75.455  24.335436     27.494      6.121   348.6912     1.6217     1.0296     0.0189      0.049      4.196      6.085        480 1.2371e-01   998.3887 0.0000e+00
      4.297    19.1133     7.0602     75.527  24.346768     27.526      6.123   348.5019     1.6293     1.1017     0.0189      0.052      4.215      6.113        481 1.2381e-01   998.3990 0.0000e+00
      4.321    19.0500     7.0640     75.563  24.273943     27.491      6.117   349.2591     1.6599     1.1594     0.0189      0.057      4.238      6.145        482 1.2362e-01   998.4079 0.0000e+00
      4.344    18.9812     7.0699     75.624  24.189144     27.396      6.120   349.4483     1.8201     0.8854     0.0188      0.064      4.260      6.178        483 1.2379e-01   998.4182 0.0000e+00
      4.366    18.9096     7.0708     75.604  24.156145     27.436      6.119   349.5619     1.8124     0.8422     0.0188      0.071      4.281      6.209        484 1.2383e-01   998.4308 0.0000e+00
      4.386    18.8412     7.0734     75.589  24.107710     27.384      6.114   349.7512     1.8392     0.9719     0.0188      0.076      4.300      6.237        485 1.2371e-01   998.4443 0.0000e+00
      4.404    18.7971     7.0729     75.539  24.130976     27.492      6.112   349.9783     1.8124     0.8854     0.0188      0.079      4.317      6.262        486 1.2360e-01   998.4584 0.0000e+00
      4.419    18.7686     7.0779     75.514  24.097599     27.471      6.109   349.9783     1.8163     0.8854     0.0187      0.080      4.332      6.283        487 1.2383e-01   998.4718 0.0000e+00
      4.430    18.7182     7.0761     75.418  24.030801     27.435      6.106   349.9783     1.7438     0.8277     0.0187      0.078      4.343      6.299        488 1.2390e-01   998.4803 0.0000e+00
      4.437    18.6659     7.0737     75.320  24.036418     27.452      6.106   349.8269     1.7400     0.7412     0.0187      0.070      4.352      6.311        489 1.2374e-01   998.4858 0.0000e+00
      4.445    18.6364     7.0808     75.278  24.031387     27.484      6.106   350.0162     1.7514     0.9287     0.0187      0.061      4.360      6.323        490 1.2371e-01   998.4956 0.0000e+00
      4.455    18.6160     7.0903     75.215  23.977845     27.454      6.109   350.0919     1.7705     0.9287     0.0187      0.053      4.368      6.335        491 1.2378e-01   998.5057 0.0000e+00
      4.462    18.6118     7.1001     75.158  23.984599     27.471      6.110   350.0162     1.5912     0.8998     0.0187      0.045      4.375      6.345        492 1.2375e-01   998.5115 0.0000e+00
      4.465    18.6100     7.0946     74.983  24.022992     27.550      6.110   350.1676     1.5607     0.8998     0.0187      0.038      4.380      6.352        493 1.2362e-01   998.5154 0.0000e+00
      4.471    18.5901     7.0901     74.869  23.989305     27.487      6.111   350.3191     1.5836     0.8422     0.0187      0.032      4.385      6.361        494 1.2379e-01   998.5161 0.0000e+00
      4.481    18.5641     7.0910     74.843  24.026524     27.553      6.113   350.1298     1.5836     0.8998     0.0187      0.029      4.394      6.373        495 1.2384e-01   998.5166 0.0000e+00
      4.490    18.5334     7.0894     74.858  23.976677     27.501      6.113   350.2055     1.6484     0.9143     0.0187      0.028      4.404      6.387        496 1.2369e-01   998.5204 0.0000e+00
      4.501    18.4839     7.0842     74.904  23.932878     27.454      6.118   350.2055     1.6217     0.9287     0.0186      0.029      4.414      6.402        497 1.2368e-01   998.5254 0.0000e+00
      4.511    18.4330     7.0944     75.093  23.903337     27.472      6.119   350.7733     1.6332     1.0008     0.0186      0.031      4.424      6.417        498 1.2371e-01   998.5312 0.0000e+00
      4.523    18.3857     7.1047     75.235  23.835751     27.376      6.126   350.2055     1.6408     0.8998     0.0186      0.033      4.438      6.437        499 1.2370e-01   998.5407 0.0000e+00
      4.542    18.3089     7.1195     75.348  23.898538     27.537      6.129   350.1298     1.7552     1.1450     0.0186      0.039      4.458      6.466        500 1.2376e-01   998.5505 0.0000e+00
      4.574    18.2035     7.1319     75.366  23.825215     27.437      6.119   350.1676     1.7743     1.0585     0.0186      0.049      4.483      6.502        501 1.2369e-01   998.5597 0.0000e+00
      4.597    18.0995     7.1401     75.327  23.749319     27.422      6.106   350.7733     1.7705     1.1450     0.0185      0.059      4.504      6.533        502 1.2357e-01   998.5742 0.0000e+00
      4.609    18.0235     7.1360     75.145  23.756085     27.489      6.099   351.1898     1.7400     1.1594     0.0185      0.066      4.518      6.552        503 1.2356e-01   998.5940 0.0000e+00
      4.615    17.9791     7.1252     74.900  23.698362     27.491      6.093   351.1141     1.5950     1.1017     0.0185      0.068      4.525      6.563        504 1.2372e-01   998.6134 0.0000e+00
      4.619    17.9567     7.1057     74.615  23.702720     27.540      6.089   351.0005     1.5759     1.1882     0.0185      0.066      4.529      6.569        505 1.2366e-01   998.6276 0.0000e+00
      4.621    17.9788     7.0778     74.250  23.750686     27.633      6.086   351.0005     1.5836     1.1450     0.0185      0.059      4.530      6.570        506 1.2365e-01   998.6358 0.0000e+00
      4.617    18.0421     7.0454     73.846  23.816383     27.712      6.079   350.9248     1.5683     1.1882     0.0185      0.047      4.528      6.567        507 1.2379e-01   998.6400 0.0000e+00
      4.614    18.0959     7.0000     73.347  23.828283     27.731      6.073   351.0383     1.5683     1.1161     0.0185      0.031      4.527      6.565        508 1.2363e-01   998.6359 0.0000e+00
      4.617    18.1164     6.9477     72.784  23.824719     27.656      6.081   350.9248     1.5721     0.9287     0.0185      0.016      4.530      6.569        509 1.2383e-01   998.6241 0.0000e+00
      4.624    18.0882     6.8884     72.110  23.791184     27.623      6.089   350.9626     1.5836     0.8854     0.0185      0.009      4.535      6.578        510 1.2393e-01   998.6142 0.0000e+00
      4.632    18.0160     6.8409     71.519  23.721918     27.479      6.098   350.8869     1.5645     0.8710     0.0185      0.007      4.543      6.590        511 1.2363e-01   998.6104 0.0000e+00
      4.641    17.9339     6.7880     70.841  23.733214     27.562      6.106   350.8112     1.5874     0.9431     0.0185      0.010      4.554      6.605        512 1.2372e-01   998.6157 0.0000e+00
      4.658    17.8445     6.7435     70.266  23.717902     27.544      6.114   351.8712     1.6866     0.8133     0.0185      0.017      4.569      6.626        513 1.2381e-01   998.6292 0.0000e+00
      4.679    17.7608     6.7033     69.744  23.681763     27.597      6.119   352.4769     1.6751     0.9143     0.0185      0.028      4.585      6.650        514 1.2366e-01   998.6444 0.0000e+00
      4.690    17.7071     6.6703     69.309  23.630134     27.556      6.107   352.3255     1.7018     0.7845     0.0184      0.038      4.597      6.667        515 1.2371e-01   998.6609 0.0000e+00
      4.694    17.6609     6.6362     68.876  23.604485     27.611      6.098   351.6819     1.6827     0.9719     0.0184      0.044      4.606      6.680        516 1.2366e-01   998.6762 0.0000e+00
      4.707    17.6188     6.6263     68.721  23.624860     27.645      6.099   351.3791     1.6446     0.9287     0.0184      0.047      4.617      6.697        517 1.2363e-01   998.6860 0.0000e+00
      4.724    17.6033     6.6241     68.666  23.604795     27.675      6.103   351.8333     1.6065     0.8277     0.0184      0.050      4.631      6.716        518 1.2363e-01   998.6945 0.0000e+00
      4.734    17.5925     6.6438     68.834  23.570238     27.638      6.103   351.6062     1.6217     0.8998     0.0184      0.050      4.642      6.733        519 1.2355e-01   998.7021 0.0000e+00
      4.742    17.5580     6.6642     69.051  23.549414     27.647      6.107   351.7198     1.6560     0.9143     0.0184      0.048      4.653      6.750        520 1.2379e-01   998.7049 0.0000e+00
      4.760    17.4936     6.6970     69.350  23.571484     27.654      6.111   351.4926     1.5797     0.9287     0.0184      0.047      4.672      6.776        521 1.2390e-01   998.7070 0.0000e+00
      4.791    17.4104     6.7303     69.633  23.602010     27.742      6.113   351.9848     1.5607     0.9287     0.0184      0.051      4.696      6.811        522 1.2373e-01   998.7134 0.0000e+00
      4.813    17.3331     6.7602     69.868  23.511437     27.652      6.114   351.8333     1.5683     0.8854     0.0183      0.059      4.719      6.845        523 1.2369e-01   998.7250 0.0000e+00
      4.832    17.2625     6.7840     70.053  23.447291     27.642      6.116   352.2498     1.5797     0.8422     0.0183      0.067      4.740      6.875        524 1.2360e-01   998.7400 0.0000e+00
      4.856    17.1991     6.8119     70.301  23.444934     27.692      6.114   352.2498     1.5378     0.8854     0.0183      0.074      4.761      6.905        525 1.2372e-01   998.7539 0.0000e+00
      4.877    17.1439     6.8480     70.656  23.395932     27.672      6.109   352.4012     1.5149     0.7989     0.0183      0.079      4.781      6.933        526 1.2395e-01   998.7663 0.0000e+00
      4.892    17.1086     6.8820     71.002  23.389832     27.714      6.105   352.4391     1.5111     0.8422     0.0183      0.083      4.796      6.956        527 1.2371e-01   998.7777 0.0000e+00
      4.903    17.0833     6.9204     71.412  23.334082     27.683      6.105   353.0448     1.5187     0.8710     0.0182      0.082      4.806      6.971        528 1.2366e-01   998.7874 0.0000e+00
      4.908    17.0627     6.9611     71.846  23.287635     27.642      6.097   353.0826     1.5073     0.8422     0.0182      0.074      4.812      6.979        529 1.2375e-01   998.7935 0.0000e+00
      4.909    17.0606     6.9947     72.183  23.388415     27.789      6.082   353.0826     1.5721     0.9719     0.0183      0.061      4.816      6.985        530 1.2365e-01   998.7981 0.0000e+00
      4.917    17.0372     7.0213     72.416  23.386368     27.806      6.079   352.8934     1.5607     0.8566     0.0182      0.051      4.824      6.998        531 1.2372e-01   998.8017 0.0000e+00
      4.935    16.9921     7.0464     72.560  23.290189     27.670      6.090   353.0069     1.5950     0.8710     0.0182      0.044      4.839      7.018        532 1.2381e-01   998.8021 0.0000e+00
      4.951    16.9434     7.0557     72.520  23.211951     27.622      6.095   353.3855     1.5759     0.9143     0.0182      0.040      4.855      7.041        533 1.2379e-01   998.8062 0.0000e+00
      4.965    16.9002     7.0584     72.381  23.157966     27.550      6.102   353.3855     1.5836     0.8854     0.0181      0.040      4.870      7.063        534 1.2376e-01   998.8141 0.0000e+00
      4.983    16.8742     7.0554     72.137  23.209306     27.684      6.110   353.8019     1.5607     0.8277     0.0182      0.043      4.883      7.083        535 1.2387e-01   998.8226 0.0000e+00
      4.991    16.8612     7.0416     71.823  23.236921     27.711      6.101   353.4612     1.5683     0.8854     0.0182      0.047      4.893      7.097        536 1.2368e-01   998.8302 0.0000e+00
      4.994    16.8584     7.0360     71.645  23.153230     27.663      6.092   353.7262     1.5950     0.8422     0.0181      0.049      4.898      7.104        537 1.2355e-01   998.8347 0.0000e+00
      5.000    16.8678     7.0537     71.713  23.165389     27.637      6.095   353.6126     1.6332     0.9287     0.0181      0.048      4.904      7.112        538 1.2387e-01   998.8369 0.0000e+00
      5.006    16.8763     7.0739     71.776  23.251410     27.806      6.101   353.7641     1.6446     0.7268     0.0182      0.044      4.910      7.121        539 1.2387e-01   998.8374 0.0000e+00
      5.012    16.8711     7.0948     71.841  23.253490     27.733      6.104   353.7262     1.6370     0.8133     0.0181      0.036      4.916      7.130        540 1.2379e-01   998.8359 0.0000e+00
      5.021    16.8413     7.1141     71.962  23.251645     27.793      6.107   353.7262     1.6141     0.9143     0.0182      0.031      4.926      7.144        541 1.2380e-01   998.8344 0.0000e+00
      5.036    16.7681     7.1294     72.070  23.105625     27.565      6.118   353.8398     1.5683     0.9719     0.0181      0.030      4.939      7.164        542 1.2352e-01   998.8354 0.0000e+00
      5.051    16.6776     7.1504     72.285  23.079823     27.582      6.124   353.5369     1.5874     0.8710     0.0181      0.031      4.953      7.184        543 1.2359e-01   998.8406 0.0000e+00
      5.064    16.5670     7.1711     72.508  23.076457     27.633      6.128   353.6884     1.5836     0.9287     0.0181      0.036      4.968      7.205        544 1.2379e-01   998.8532 0.0000e+00
      5.083    16.4291     7.2093     72.763  22.872913     27.424      6.130   353.8776     1.5607     0.9143     0.0180      0.043      4.984      7.228        545 1.2372e-01   998.8687 0.0000e+00
      5.098    16.3148     7.2511     73.048  22.800081     27.430      6.131   354.0291     1.6866     0.9287     0.0179      0.049      4.998      7.249        546 1.2380e-01   998.8874 0.0000e+00
      5.107    16.2345     7.3020     73.400  22.752515     27.455      6.132   353.9912     1.6522     0.8422     0.0179      0.053      5.011      7.268        547 1.2378e-01   998.9106 0.0000e+00
      5.124    16.1599     7.3511     73.682  22.754457     27.531      6.133   354.2941     1.6141     0.8566     0.0179      0.056      5.029      7.293        548 1.2372e-01   998.9298 0.0000e+00
      5.153    16.0660     7.3743     73.737  22.797698     27.651      6.134   354.6726     1.6217     0.8133     0.0179      0.061      5.053      7.329        549 1.2370e-01   998.9432 0.0000e+00
      5.182    15.9721     7.3853     73.724  22.669115     27.532      6.130   354.5212     1.6103     0.7845     0.0178      0.068      5.078      7.364        550 1.2369e-01   998.9556 0.0000e+00
      5.197    15.9211     7.3667     73.452  22.618354     27.526      6.125   354.5969     1.5950     0.7989     0.0178      0.072      5.094      7.389        551 1.2372e-01   998.9711 0.0000e+00
      5.206    15.8910     7.3410     73.121  22.683207     27.694      6.115   354.6348     1.6408     0.8566     0.0178      0.073      5.107      7.407        552 1.2369e-01   998.9864 0.0000e+00
      5.222    15.8954     7.3132     72.758  22.618045     27.624      6.117   354.7484     1.6332     0.8566     0.0178      0.073      5.121      7.427        553 1.2386e-01   998.9947 0.0000e+00
      5.237    15.8971     7.2883     72.352  22.610618     27.645      6.116   354.9376     1.6179     0.8710     0.0177      0.072      5.136      7.449        554 1.2383e-01   998.9997 0.0000e+00
      5.253    15.8199     7.2440     71.789  22.603614     27.643      6.117   355.0512     1.5683     1.0873     0.0177      0.071      5.152      7.472        555 1.2373e-01   998.9989 0.0000e+00
      5.271    15.7285     7.2122     71.352  22.567534     27.570      6.121   355.3541     1.5836     1.1882     0.0177      0.067      5.169      7.497        556 1.2378e-01   998.9987 0.0000e+00
      5.288    15.6263     7.1826     70.873  22.596295     27.695      6.120   355.6569     1.5721     1.0440     0.0177      0.062      5.185      7.521        557 1.2371e-01   999.0113 0.0000e+00
      5.304    15.4937     7.1478     70.365  22.567840     27.686      6.121   355.6569     1.5836     1.2027     0.0177      0.060      5.200      7.543        558 1.2382e-01   999.0260 0.0000e+00
      5.316    15.3809     7.1056     69.901  22.573359     27.790      6.122   355.5055     1.5569     1.2027     0.0177      0.061      5.214      7.563        559 1.2385e-01   999.0423 0.0000e+00
      5.332    15.3036     7.0391     69.361  22.559846     27.848      6.126   355.7326     1.5683     1.1161     0.0177      0.063      5.229      7.584        560 1.2375e-01   999.0632 0.0000e+00
      5.347    15.2469     6.9699     68.813  22.495850     27.856      6.125   355.8462     1.5683     1.0296     0.0176      0.062      5.243      7.604        561 1.2368e-01   999.0809 0.0000e+00
      5.359    15.2021     6.9071     68.278  22.504960     27.910      6.129   355.6948     1.5836     1.1306     0.0176      0.060      5.255      7.623        562 1.2367e-01   999.0929 0.0000e+00
      5.372    15.1429     6.8631     67.872  22.489304     27.948      6.132   355.8462     1.6599     1.1882     0.0176      0.058      5.269      7.642        563 1.2377e-01   999.1017 0.0000e+00
      5.387    15.0461     6.8298     67.510  22.456122     27.911      6.137   355.7326     1.6446     1.0585     0.0176      0.056      5.284      7.664        564 1.2370e-01   999.1087 0.0000e+00
      5.405    14.9651     6.8197     67.394  22.427810     27.950      6.138   355.9598     1.6446     1.1738     0.0176      0.056      5.302      7.690        565 1.2361e-01   999.1177 0.0000e+00
      5.426    14.8847     6.8106     67.332  22.406099     27.951      6.136   356.1491     1.6408     1.1161     0.0175      0.058      5.323      7.720        566 1.2367e-01   999.1325 0.0000e+00
      5.453    14.7662     6.8246     67.486  22.453554     28.111      6.129   355.7326     1.6255     1.4334     0.0176      0.064      5.345      7.753        567 1.2380e-01   999.1449 0.0000e+00
      5.472    14.6573     6.8549     67.673  22.457625     28.132      6.124   355.8841     1.6522     1.3901     0.0176      0.068      5.363      7.778        568 1.2362e-01   999.1571 0.0000e+00
      5.481    14.6282     6.8958     67.930  22.430674     28.217      6.116   355.9976     1.6255     1.4045     0.0175      0.070      5.373      7.793        569 1.2360e-01   999.1748 0.0000e+00
      5.485    14.7005     6.9162     68.130  22.457511     28.294      6.112   355.8462     1.6332     1.3613     0.0175      0.069      5.377      7.799        570 1.2365e-01   999.1909 0.0000e+00
      5.483    14.7903     6.9217     68.244  22.483485     28.388      6.100   355.9219     1.6370     1.3180     0.0176      0.061      5.377      7.799        571 1.2358e-01   999.1951 0.0000e+00
      5.481    14.8479     6.9379     68.361  22.457587     28.263      6.096   356.0734     1.9498     1.3613     0.0175      0.049      5.377      7.798        572 1.2369e-01   999.1844 0.0000e+00
      5.485    14.8663     6.9559     68.341  22.489725     28.269      6.102   356.0355     1.9460     1.2171     0.0176      0.036      5.377      7.799        573 1.2365e-01   999.1712 0.0000e+00
      5.484    14.8465     6.9585     68.160  22.473080     28.194      6.101   355.7705     1.9193     1.3324     0.0176      0.023      5.377      7.799        574 1.2364e-01   999.1626 0.0000e+00
      5.481    14.8351     6.9501     67.922  22.448669     28.145      6.106   356.2248     1.9421     1.3324     0.0176      0.010      5.377      7.798        575 1.2365e-01   999.1599 0.0000e+00
      5.482    14.8546     6.9374     67.655  22.490485     28.230      6.111   356.0734     1.6713     1.3613     0.0176      0.003      5.377      7.799        576 1.2372e-01   999.1629 0.0000e+00
      5.485    14.8625     6.9265     67.405  22.450658     28.168      6.117   355.7705     1.6446     1.2603     0.0176      0.001      5.380      7.803        577 1.2370e-01   999.1645 0.0000e+00
      5.491    14.7870     6.9117     67.143  22.439005     28.155      6.120   356.1491     1.6332     1.3324     0.0176      0.002      5.386      7.811        578 1.2356e-01   999.1617 0.0000e+00
      5.499    14.6911     6.9069     66.978  22.445755     28.147      6.122   356.0734     1.6255     1.3324     0.0176      0.006      5.393      7.821        579 1.2373e-01   999.1605 0.0000e+00
      5.506    14.6871     6.9113     66.897  22.442260     28.201      6.127   355.9976     1.8620     1.6641     0.0176      0.010      5.400      7.831        580 1.2374e-01   999.1718 0.0000e+00
      5.512    14.7274     6.9279     66.952  22.443374     28.272      6.131   355.9976     1.8697     1.5920     0.0175      0.014      5.405      7.840        581 1.2363e-01   999.1860 0.0000e+00
      5.517    14.6956     6.9568     67.176  22.474006     28.308      6.130   355.8462     1.8697     1.6208     0.0176      0.019      5.411      7.849        582 1.2376e-01   999.1866 0.0000e+00
      5.524    14.5671     7.0075     67.621  22.433759     28.244      6.130   356.2248     1.8620     1.6208     0.0175      0.023      5.418      7.859        583 1.2366e-01   999.1807 0.0000e+00
      5.533    14.4272     7.0813     68.313  22.345383     28.124      6.137   356.0734     1.5759     1.1450     0.0175      0.025      5.426      7.870        584 1.2364e-01   999.1854 0.0000e+00
      5.541    14.3228     7.1500     68.937  22.376697     28.289      6.136   355.9219     1.5759     1.0873     0.0175      0.027      5.435      7.882        585 1.2363e-01   999.2043 0.0000e+00
      5.551    14.2254     7.2128     69.438  22.335594     28.318      6.138   356.0355     1.5759     1.1882     0.0175      0.029      5.447      7.900        586 1.2348e-01   999.2246 0.0000e+00
      5.571    14.1301     7.2481     69.632  22.218886     28.251      6.141   356.2248     1.5797     1.1161     0.0174      0.033      5.463      7.924        587 1.2362e-01   999.2396 0.0000e+00
      5.590    14.0479     7.2413     69.488  22.285054     28.392      6.142   356.4898     1.5683     1.0873     0.0174      0.039      5.480      7.949        588 1.2370e-01   999.2536 0.0000e+00
      5.604    13.9690     7.1886     68.955  22.312510     28.534      6.141   356.7926     1.8315     1.3901     0.0174      0.046      5.498      7.974        589 1.2380e-01   999.2671 0.0000e+00
      5.627    13.8840     7.1006     68.107  22.095904     28.271      6.142   357.0198     1.8239     1.3324     0.0173      0.054      5.517      8.001        590 1.2391e-01   999.2786 0.0000e+00
      5.646    13.8147     6.9605     66.761  22.021579     28.257      6.138   357.3227     1.8201     1.2748     0.0172      0.061      5.533      8.026        591 1.2380e-01   999.2896 0.0000e+00
      5.653    13.7743     6.7889     65.117  22.020039     28.318      6.133   357.2091     1.8239     1.3180     0.0172      0.064      5.545      8.042        592 1.2376e-01   999.3014 0.0000e+00
      5.662    13.7467     6.6239     63.535  22.097846     28.443      6.124   357.6255     1.6942     1.5776     0.0173      0.064      5.556      8.058        593 1.2378e-01   999.3111 0.0000e+00
      5.682    13.7307     6.4785     62.124  22.250532     28.722      6.123   357.4362     1.6827     1.5776     0.0174      0.063      5.572      8.082        594 1.2377e-01   999.3167 0.0000e+00
      5.702    13.7066     6.3671     61.013  22.303870     28.744      6.125   357.7012     1.6866     1.5920     0.0174      0.062      5.591      8.108        595 1.2381e-01   999.3205 0.0000e+00
      5.718    13.6368     6.2831     60.112  22.179548     28.682      6.128   357.7012     1.6904     1.6785     0.0173      0.061      5.608      8.133        596 1.2377e-01   999.3227 0.0000e+00
      5.735    13.5458     6.2245     59.437  22.286795     28.701      6.129   358.4205     1.7667     1.5776     0.0173      0.061      5.624      8.157        597 1.2376e-01   999.3261 0.0000e+00
      5.751    13.4922     6.1813     58.927  22.851563     29.654      6.136   358.0041     1.7629     1.6352     0.0177      0.061      5.639      8.178        598 1.2369e-01   999.3359 0.0000e+00
      5.763    13.4756     6.1404     58.447  22.957483     29.727      6.133   358.1555     1.7705     1.6352     0.0177      0.062      5.651      8.196        599 1.2370e-01   999.3481 0.0000e+00
      5.774    13.4721     6.1004     57.985  22.776919     29.622      6.133   357.9284     1.7667     1.5487     0.0176      0.062      5.661      8.210        600 1.2378e-01   999.3553 0.0000e+00
      5.781    13.4709     6.0562     57.502  22.780133     29.563      6.135   358.3448     2.0070     1.7650     0.0176      0.059      5.667      8.219        601 1.2369e-01   999.3575 0.0000e+00
      5.781    13.4720     6.0287     57.195  22.775797     29.637      6.128   358.4205     2.0070     1.7506     0.0176      0.051      5.669      8.222        602 1.2368e-01   999.3580 0.0000e+00
      5.779    13.4724     6.0233     57.103  22.782315     29.566      6.121   358.1555     1.9956     1.8371     0.0176      0.040      5.668      8.221        603 1.2373e-01   999.3582 0.0000e+00
      5.779    13.4613     6.0085     56.937  22.890484     29.783      6.121   357.9284     1.9917     1.7939     0.0177      0.030      5.668      8.221        604 1.2368e-01   999.3581 0.0000e+00
      5.781    13.4281     6.0124     56.897  22.937339     29.782      6.121   358.3448     1.7552     2.1111     0.0177      0.020      5.671      8.224        605 1.2373e-01   999.3581 0.0000e+00
      5.787    13.3567     6.0199     56.850  23.079394     30.009      6.124   358.0798     1.7667     1.9957     0.0178      0.014      5.677      8.234        606 1.2373e-01   999.3595 0.0000e+00
      5.799    13.2715     6.0330     56.842  23.454102     30.506      6.128   358.1555     1.7667     2.0823     0.0180      0.012      5.688      8.250        607 1.2366e-01   999.3642 0.0000e+00
      5.815    13.1966     6.0860     57.212  23.241049     30.345      6.129   358.0041     1.7552     2.0823     0.0179      0.015      5.703      8.271        608 1.2380e-01   999.3736 0.0000e+00
      5.830    13.1276     6.1805     57.990  22.544934     29.392      6.130   357.8905     1.7896     1.9957     0.0174      0.023      5.718      8.293        609 1.2396e-01   999.3845 0.0000e+00
      5.846    13.0643     6.2987     59.026  22.661949     29.669      6.135   358.0041     1.9154     2.2697     0.0175      0.033      5.732      8.314        610 1.2378e-01   999.3944 0.0000e+00
      5.859    13.0169     6.3378     59.375  23.006597     30.198      6.131   357.8905     1.8887     2.3274     0.0177      0.042      5.746      8.334        611 1.2354e-01   999.4034 0.0000e+00
      5.873    12.9794     6.2227     58.311  22.767587     29.882      6.131   357.9662     1.8659     2.2409     0.0175      0.049      5.760      8.354        612 1.2363e-01   999.4115 0.0000e+00
      5.888    12.9497     5.9218     55.502  22.485564     29.589      6.135   358.3448     1.8697     2.2120     0.0174      0.055      5.776      8.377        613 1.2369e-01   999.4175 0.0000e+00
      5.907    12.9259     5.4318     50.921  22.528353     29.617      6.134   358.4962     2.2664     2.8898     0.0174      0.058      5.796      8.406        614 1.2370e-01   999.4223 0.0000e+00
      5.934    12.8676     4.9173     46.101  22.388581     29.569      6.133   358.9884     2.2511     2.8898     0.0174      0.063      5.822      8.445        615 1.2373e-01   999.4262 0.0000e+00
      5.971    12.7744     4.4512     41.759  21.800695     28.665      6.130   356.3384     2.2473     2.8609     0.0170      0.071      5.857      8.495        616 1.2371e-01   999.4290 0.0000e+00
      6.012    12.6718     4.0600     38.078  21.571953     28.526      6.119   349.6376     2.2244     2.9042     0.0169      0.084      5.894      8.549        617 1.2377e-01   999.4365 0.0000e+00
      6.047    12.5714     3.7976     35.552  22.021745     29.077      6.117   346.4955     6.0850     3.3656     0.0171      0.099      5.928      8.598        618 1.2361e-01   999.4485 0.0000e+00
      6.077    12.4879     3.6790     34.366  22.692077     30.193      6.113   343.0505     6.0888     3.4089     0.0175      0.111      5.957      8.640        619 1.2359e-01   999.4615 0.0000e+00
      6.100    12.4326     3.6737     34.244  22.958881     30.497      6.110   342.8612     6.0850     3.2935     0.0176      0.120      5.978      8.671        620 1.2376e-01   999.4740 0.0000e+00
      6.112    12.4196     3.7046     34.463  22.992813     30.714      6.101   342.1798     6.0697     3.3224     0.0177      0.120      5.989      8.687        621 1.2373e-01   999.4842 0.0000e+00
      6.111    12.4293     3.6119     33.532  22.768337     30.387      6.086   341.1197     7.8703     3.8559     0.0175      0.109      5.992      8.691        622 1.2372e-01   999.4907 0.0000e+00
      6.108    12.4401     3.3732     31.263  22.557094     30.136      6.081   338.8483     7.9084     3.9424     0.0174      0.089      5.992      8.691        623 1.2380e-01   999.4921 0.0000e+00
      6.113    12.4468     2.9626     27.417  22.604165     30.202      6.084   337.0690     7.8665     3.7261     0.0174      0.067      5.996      8.697        624 1.2375e-01   999.4910 0.0000e+00
      6.121    12.4541     2.3974     22.156  22.680141     30.269      6.088   334.7597     7.8817     3.7550     0.0174      0.046      6.005      8.710        625 1.2370e-01   999.4898 0.0000e+00
      6.137    12.4797     1.7590     16.238  22.669847     30.299      6.096   331.9961     7.7673     4.4038     0.0175      0.034      6.021      8.733        626 1.2370e-01   999.4891 0.0000e+00
      6.162    12.4677     1.0891     10.045  22.587358     30.110      6.104   329.6869     7.7444     4.5192     0.0174      0.031      6.045      8.768        627 1.2363e-01   999.4883 0.0000e+00
      6.195    12.3882     0.4791      4.415  22.782793     30.421      6.109   329.1947     7.7902     4.4327     0.0175      0.039      6.074      8.810        628 1.2360e-01   999.4855 0.0000e+00
      6.224    12.2894    -0.0805     -0.741  23.048554     30.729      6.107   329.7247     7.7635     4.4471     0.0176      0.055      6.101      8.849        629 1.2376e-01   999.4872 0.0000e+00
      6.244    12.1968    -0.4565     -4.202  23.204335     31.057      6.108   330.2169     7.7635     4.5192     0.0178      0.071      6.124      8.882        630 1.2381e-01   999.4968 0.0000e+00
      6.267    12.1075    -0.6834     -6.290  23.358965     31.289      6.109   330.1411     9.0643     5.2258     0.0178      0.085      6.148      8.918        631 1.2365e-01   999.5087 0.0000e+00
      6.299    12.0194    -0.7902     -7.274  23.596556     31.742      6.109   330.8604     9.0643     5.2114     0.0180      0.095      6.178      8.960        632 1.2375e-01   999.5199 0.0000e+00
      6.332    11.9437    -0.7869     -7.243  23.767570     32.006      6.107   331.3147     9.0452     5.2114     0.0180      0.104      6.208      9.005        633 1.2380e-01   999.5305 0.0000e+00
      6.362    11.8783    -0.7223     -6.649  23.916211     32.309      6.101   331.9583     9.0338     5.0960     0.0181      0.109      6.236      9.045        634 1.2378e-01   999.5408 0.0000e+00
      6.384    11.8198    -0.6143     -5.656  24.033564     32.526      6.097   332.3369    14.2714     5.3988     0.0182      0.109      6.259      9.079        635 1.2373e-01   999.5496 0.0000e+00
      6.403    11.7704    -0.5084     -4.683  24.302752     32.924      6.096   332.9426    14.2981     5.3555     0.0183      0.105      6.278      9.106        636 1.2359e-01   999.5572 0.0000e+00
      6.419    11.7298    -0.3887     -3.577  24.617855     33.469      6.095   333.3590    14.2562     5.3700     0.0185      0.101      6.293      9.128        637 1.2374e-01   999.5639 0.0000e+00
      6.430    11.6986    -0.2900     -2.665  24.589219     33.400      6.094   333.8890    14.2600     5.3844     0.0185      0.095      6.306      9.146        638 1.2377e-01   999.5696 0.0000e+00
      6.442    11.6713    -0.2038     -1.870  24.545733     33.437      6.096   334.4190    13.5886     5.6439     0.0185      0.085      6.320      9.166        639 1.2371e-01   999.5742 0.0000e+00
      6.463    11.6446    -0.1223     -1.122  24.790460     33.732      6.096   335.1004    13.5657     5.5430     0.0186      0.076      6.335      9.188        640 1.2373e-01   999.5778 0.0000e+00
      6.474    11.6391    -0.0515     -0.472  24.965897     34.100      6.088   335.9333    13.5581     5.5718     0.0187      0.066      6.344      9.201        641 1.2366e-01   999.5810 0.0000e+00
      6.468    11.6479     0.0042      0.039  24.742075     33.706      6.084   335.9712    13.5810     5.6007     0.0185      0.055      6.346      9.203        642 1.2361e-01   999.5837 0.0000e+00
      6.471    11.6460     0.0476      0.435  24.743205     33.788      6.087   336.5769    14.8704     5.6728     0.0186      0.045      6.348      9.206        643 1.2359e-01   999.5843 0.0000e+00
      6.480    11.6433     0.0868      0.792  24.934873     34.006      6.091   336.3119    14.8665     5.6007     0.0187      0.038      6.353      9.214        644 1.2367e-01   999.5834 0.0000e+00
      6.483    11.6608     0.1116      1.017  24.977445     34.086      6.087   337.0690    14.8513     5.7160     0.0187      0.031      6.357      9.221        645 1.2365e-01   999.5837 0.0000e+00
      6.484    11.6758     0.1358      1.235  24.749463     33.782      6.089   337.1826    14.8665     5.6007     0.0186      0.024      6.364      9.230        646 1.2364e-01   999.5841 0.0000e+00
      6.500    11.6357     0.1465      1.330  24.863168     33.845      6.091   337.3340    14.8551     5.5718     0.0186      0.021      6.379      9.252        647 1.2368e-01   999.5822 0.0000e+00
      6.530    11.5680     0.1580      1.433  25.546799     34.891      6.093   337.2962    13.7946     5.1248     0.0191      0.026      6.401      9.284        648 1.2366e-01   999.5809 0.0000e+00
      6.551    11.5150     0.1673      1.515  25.794327     35.162      6.090   337.0690    13.8060     5.2114     0.0192      0.036      6.421      9.311        649 1.2363e-01   999.5856 0.0000e+00
      6.558    11.4792     0.1747      1.579  25.739912     35.226      6.084   336.5769    13.7946     5.2114     0.0192      0.047      6.432      9.328        650 1.2372e-01   999.5931 0.0000e+00
      6.567    11.4556     0.1857      1.676  25.792257     35.278      6.084   331.8826    13.7755     5.1393     0.0192      0.052      6.441      9.343        651 1.2379e-01   999.5988 0.0000e+00
      6.579    11.4246     0.1874      1.690  25.906925     35.542      6.083   326.8854    21.3020     5.3555     0.0193      0.056      6.456      9.363        652 1.2360e-01   999.6028 0.0000e+00
      6.603    11.3656     0.1887      1.702  26.278491     35.986      6.083   322.5318    21.3593     5.3844     0.0194      0.061      6.477      9.393        653 1.2373e-01   999.6056 0.0000e+00
      6.631    11.2804     0.1910      1.723  27.551452     37.817      6.084   321.9261    21.3058     5.4276     0.0202      0.066      6.502      9.430        654 1.2380e-01   999.6097 0.0000e+00
      6.657    11.1903     0.1880      1.696  29.595593     40.680      6.080   321.5475    21.3249     5.5286     0.0214      0.069      6.527      9.466        655 1.2360e-01   999.6170 0.0000e+00
      6.677    11.1132     0.1854      1.672  31.318468     43.200      6.079   320.6768    20.6459     5.7881     0.0224      0.071      6.549      9.499        656 1.2358e-01   999.6269 0.0000e+00
      6.701    11.0566     0.1901      1.716  31.865909     44.041      6.078   318.4054    20.6612     5.8891     0.0228      0.078      6.572      9.532        657 1.2366e-01   999.6367 0.0000e+00
      6.727    11.0006     0.1824      1.648  31.847483     44.058      6.076   312.6132    20.6726     5.8747     0.0227      0.087      6.595      9.565        658 1.2378e-01   999.6448 0.0000e+00
      6.746    10.9294     0.1811      1.639  32.141412     44.591      6.072   303.0732    20.6459     5.9179     0.0230      0.092      6.615      9.594        659 1.2370e-01   999.6509 0.0000e+00
      6.762    10.8585     0.1777      1.610  32.240879     44.776      6.072   289.0660    18.6966     6.1054     0.0230      0.091      6.633      9.620        660 1.2374e-01   999.6567 0.0000e+00
      6.783    10.7958     0.1740      1.576  32.138532     44.710      6.067   279.9803    18.6851     6.0621     0.0229      0.088      6.651      9.646        661 1.2373e-01   999.6639 0.0000e+00
      6.800    10.7516     0.1758      1.592  32.239180     44.955      6.065   274.0746    18.7042     6.0044     0.0230      0.083      6.668      9.670        662 1.2370e-01   999.6712 0.0000e+00
      6.813    10.7472     0.1747      1.581  32.293435     45.111      6.060   265.1781    18.7271     6.1919     0.0231      0.078      6.680      9.687        663 1.2381e-01   999.6775 0.0000e+00
      6.819    10.7615     0.1778      1.607  32.159930     44.973      6.052   259.0831    15.5265     5.5430     0.0230      0.071      6.686      9.696        664 1.2367e-01   999.6819 0.0000e+00
      6.819    10.7658     0.1747      1.578  32.168305     44.977      6.047   251.2845    15.5379     5.6007     0.0230      0.060      6.688      9.701        665 1.2376e-01   999.6823 0.0000e+00
      6.823    10.7632     0.1859      1.678  32.223756     45.076      6.043   245.3409    15.5265     5.7449     0.0230      0.049      6.692      9.706        666 1.2379e-01   999.6809 0.0000e+00
      6.829    10.7808     0.1828      1.648  32.150179     44.914      6.040   241.4795    15.5379     5.5718     0.0230      0.039      6.698      9.714        667 1.2363e-01   999.6804 0.0000e+00
      6.838    10.8346     0.1871      1.682  31.845057     44.567      6.041   237.0123    10.5673     5.9035     0.0228      0.032      6.708      9.729        668 1.2371e-01   999.6806 0.0000e+00
      6.854    10.8964     0.1925      1.726  31.240539     43.610      6.041   234.2109    10.5788     5.7593     0.0224      0.028      6.722      9.749        669 1.2370e-01   999.6787 0.0000e+00
      6.870    10.9327     0.1903      1.703  30.976621     43.231      6.040   232.5451    10.5826     5.8026     0.0223      0.029      6.736      9.770        670 1.2373e-01   999.6733 0.0000e+00
      6.882    10.9393     0.1905      1.702  31.047601     43.234      6.039   231.8259    10.5635     5.8602     0.0223      0.034      6.750      9.789        671 1.2383e-01   999.6673 0.0000e+00
      6.896    10.9269     0.1858      1.657  31.300323     43.540      6.037   230.1980    10.5978     5.9179     0.0224      0.040      6.763      9.809        672 1.2368e-01   999.6638 0.0000e+00
      6.911    10.8993     0.1819      1.620  31.639830     44.037      6.032   229.4030     8.0648     5.9323     0.0227      0.047      6.777      9.828        673 1.2364e-01   999.6633 0.0000e+00
      6.922    10.8685     0.1811      1.613  31.691709     44.091      6.029   227.3587     8.0458     5.7881     0.0227      0.051      6.788      9.845        674 1.2368e-01   999.6646 0.0000e+00
      6.932    10.8346     0.1761      1.567  31.620935     44.047      6.028   224.5194     8.0458     5.8314     0.0226      0.053      6.800      9.862        675 1.2362e-01   999.6674 0.0000e+00
      6.946    10.7949     0.1706      1.516  32.024209     44.592      6.026   221.9830     8.0458     5.7737     0.0229      0.052      6.815      9.884        676 1.2355e-01   999.6708 0.0000e+00
      6.969    10.7291     0.1666      1.480  32.286137     45.139      6.025   219.7115     8.3624     5.6439     0.0231      0.053      6.836      9.915        677 1.2366e-01   999.6744 0.0000e+00
      6.998    10.6111     0.1620      1.439  33.013504     45.933      6.025   218.1215     8.3548     5.5286     0.0234      0.059      6.861      9.950        678 1.2377e-01   999.6788 0.0000e+00
      7.019    10.4971     0.1598      1.420  34.645139     48.669      6.019   216.8344     8.3509     5.5286     0.0246      0.065      6.882      9.981        679 1.2367e-01   999.6862 0.0000e+00
      7.034    10.4197     0.1582      1.407  35.352329     49.503      6.014   214.7901     8.3433     5.6584     0.0249      0.070      6.901     10.009        680 1.2366e-01   999.6980 0.0000e+00
      7.060    10.3486     0.1536      1.366  36.400660     51.312      6.013   212.2537     5.6921     4.6057     0.0256      0.076      6.926     10.044        681 1.2361e-01   999.7095 0.0000e+00
      7.093    10.2827     0.1509      1.341  37.934065     53.554      6.008   210.2851     5.6921     4.4759     0.0266      0.084      6.952     10.083        682 1.2369e-01   999.7179 0.0000e+00
      7.113    10.2396     0.1524      1.355  38.511942     54.490      6.004   208.2787     5.6501     4.4471     0.0270      0.090      6.973     10.114        683 1.2387e-01   999.7248 0.0000e+00
      7.126    10.2076     0.1566      1.393  38.704585     54.831      5.999   206.2722     5.6844     4.3317     0.0271      0.090      6.990     10.139        684 1.2386e-01   999.7311 0.0000e+00
      7.147    10.1692     0.1514      1.347  39.502347     56.007      5.991   203.6601     4.4904     4.1731     0.0276      0.088      7.009     10.165        685 1.2384e-01   999.7356 0.0000e+00
      7.167    10.1299     0.1520      1.351  40.364623     57.405      5.990   201.3129     4.4713     4.2596     0.0282      0.085      7.027     10.192        686 1.2380e-01   999.7390 0.0000e+00
      7.181    10.1046     0.1431      1.272  41.158792     58.382      5.989   199.0415     4.5247     4.3606     0.0286      0.082      7.043     10.216        687 1.2374e-01   999.7430 0.0000e+00
      7.199    10.1079     0.1435      1.276  41.092875     58.725      5.984   196.3915     4.5133     4.2741     0.0287      0.079      7.062     10.243        688 1.2369e-01   999.7466 0.0000e+00
      7.224    10.1235     0.1397      1.241  40.209555     56.979      5.986   194.9150     4.4904     4.2020     0.0279      0.076      7.083     10.274        689 1.2367e-01   999.7485 0.0000e+00
      7.245    10.1430     0.1409      1.250  40.390627     57.768      5.977   193.8929     4.0441     3.7838     0.0283      0.074      7.102     10.301        690 1.2369e-01   999.7485 0.0000e+00
      7.256    10.1550     0.1385      1.228  40.185756     57.026      5.971   192.8707     3.9945     3.7550     0.0280      0.073      7.116     10.321        691 1.2367e-01   999.7470 0.0000e+00
      7.268    10.1413     0.1350      1.196  40.257012     57.353      5.969   191.2429     4.0326     3.8559     0.0281      0.072      7.127     10.336        692 1.2374e-01   999.7453 0.0000e+00
      7.276    10.1321     0.1432      1.267  40.746566     57.927      5.964   190.2965     4.0212     3.8126     0.0284      0.066      7.135     10.348        693 1.2377e-01   999.7445 0.0000e+00
      7.281    10.1428     0.1459      1.288  40.525045     57.674      5.960   189.2365     3.4642     3.7117     0.0283      0.060      7.140     10.356        694 1.2362e-01   999.7456 0.0000e+00
      7.286    10.1488     0.1434      1.266  40.740186     57.927      5.957   187.8357     3.5024     3.8126     0.0284      0.052      7.143     10.360        695 1.2365e-01   999.7466 0.0000e+00
      7.285    10.1425     0.1428      1.259  41.101321     58.545      5.954   186.0564     3.4604     3.7405     0.0286      0.040      7.142     10.359        696 1.2370e-01   999.7458 0.0000e+00
      7.279    10.1355     0.1361      1.199  40.994529     58.256      5.953   183.8607     3.4871     3.7405     0.0285      0.027      7.141     10.357        697 1.2369e-01   999.7452 0.0000e+00
      7.283    10.1268     0.1355      1.194  40.873080     58.189      5.955   182.7629     3.5978     3.7261     0.0285      0.017      7.144     10.362        698 1.2366e-01   999.7457 0.0000e+00
      7.294    10.1062     0.1347      1.187  41.104250     58.437      5.953   181.7786     3.5825     3.8126     0.0286      0.013      7.153     10.374        699 1.2362e-01   999.7466 0.0000e+00
      7.303    10.0765     0.1378      1.214  41.596135     59.248      5.954   181.1350     3.5978     3.8559     0.0289      0.012      7.163     10.389        700 1.2381e-01   999.7477 0.0000e+00
      7.316    10.0420     0.1297      1.142  42.306335     60.197      5.951   180.0750     3.5978     3.8559     0.0294      0.016      7.174     10.405        701 1.2380e-01   999.7498 0.0000e+00
      7.327     9.9855     0.1329      1.170  42.918037     61.245      5.956   179.5071     3.9602     3.4521     0.0298      0.021      7.185     10.421        702 1.2374e-01   999.7529 0.0000e+00
      7.338     9.9135     0.1356      1.192  43.769755     62.339      5.953   179.1664     3.9525     3.5098     0.0303      0.028      7.195     10.436        703 1.2369e-01   999.7565 0.0000e+00
      7.348     9.8579     0.1304      1.146  44.863266     64.238      5.953   178.1821     3.9487     3.5242     0.0311      0.035      7.205     10.450        704 1.2374e-01   999.7621 0.0000e+00
      7.356     9.8214     0.1319      1.158  45.767158     65.412      5.948   177.1221     3.9335     3.5531     0.0316      0.040      7.215     10.465        705 1.2373e-01   999.7689 0.0000e+00
      7.369     9.7935     0.1339      1.174  47.003324     67.520      5.951   175.8350     3.9335     4.0289     0.0325      0.042      7.226     10.480        706 1.2353e-01   999.7744 0.0000e+00
      7.379     9.7732     0.1341      1.176  47.713181     68.473      5.949   175.1157     3.9106     4.0866     0.0329      0.042      7.235     10.493        707 1.2368e-01   999.7780 0.0000e+00
      7.384     9.7643     0.1348      1.182  47.404121     68.167      5.949   174.5478     3.8915     4.0001     0.0327      0.040      7.240     10.501        708 1.2375e-01   999.7802 0.0000e+00
      7.386     9.7633     0.1346      1.180  46.883880     67.363      5.948   173.5636     3.9029     3.9712     0.0324      0.036      7.245     10.508        709 1.2373e-01   999.7817 0.0000e+00
      7.394     9.7572     0.1310      1.148  47.115246     67.742      5.947   171.8978     4.1471     4.2164     0.0325      0.033      7.253     10.519        710 1.2371e-01   999.7827 0.0000e+00
      7.407     9.7405     0.1302      1.140  48.154027     69.270      5.948   171.2164     4.1204     4.3029     0.0332      0.032      7.265     10.537        711 1.2361e-01   999.7834 0.0000e+00
      7.423     9.7167     0.1278      1.119  48.734307     70.127      5.945   170.0807     4.1318     4.2741     0.0336      0.033      7.281     10.560        712 1.2363e-01   999.7842 0.0000e+00
      7.443     9.6869     0.1286      1.125  49.210158     70.764      5.945   168.9450     4.1547     4.2452     0.0339      0.037      7.304     10.594        713 1.2374e-01   999.7860 0.0000e+00
      7.481     9.6513     0.1279      1.119  50.082485     72.181      5.943   167.5442     4.1433     4.2308     0.0345      0.048      7.338     10.643        714 1.2378e-01   999.7886 0.0000e+00
      7.524     9.6106     0.1261      1.102  51.177749     73.693      5.934   167.2792     4.0899     3.7117     0.0352      0.066      7.375     10.696        715 1.2378e-01   999.7919 0.0000e+00
      7.555     9.5777     0.1228      1.073  52.710918     76.108      5.927   166.5221     4.0822     3.8126     0.0362      0.086      7.403     10.737        716 1.2362e-01   999.7959 0.0000e+00
      7.567     9.5640     0.1214      1.060  53.127466     76.803      5.920   165.3107     4.0899     3.7982     0.0365      0.098      7.419     10.760        717 1.2360e-01   999.7996 0.0000e+00
      7.574     9.5539     0.1270      1.108  53.002456     76.514      5.915   163.5692     4.0975     3.7838     0.0364      0.101      7.429     10.775        718 1.2380e-01   999.8023 0.0000e+00
      7.586     9.5394     0.1220      1.064  53.845321     77.998      5.911   160.6542     3.0332     3.1349     0.0370      0.098      7.440     10.791        719 1.2365e-01   999.8039 0.0000e+00
      7.601     9.5282     0.1236      1.077  54.273470     78.466      5.911   157.0956     3.0408     3.1782     0.0372      0.089      7.454     10.811        720 1.2377e-01   999.8050 0.0000e+00
      7.615     9.5120     0.1240      1.081  54.189995     78.500      5.908   155.0514     3.0332     3.1493     0.0372      0.078      7.469     10.834        721 1.2397e-01   999.8063 0.0000e+00
      7.634     9.4865     0.1226      1.068  54.661106     79.051      5.905   151.7956     3.0332     3.1637     0.0375      0.065      7.488     10.861        722 1.2376e-01   999.8076 0.0000e+00
      7.658     9.4622     0.1317      1.148  55.288981     80.221      5.905   150.4328     2.8729     2.9619     0.0380      0.058      7.510     10.892        723 1.2366e-01   999.8092 0.0000e+00
      7.681     9.4375     0.1240      1.080  55.485041     80.322      5.902   149.5621     2.8501     2.8465     0.0380      0.061      7.533     10.925        724 1.2363e-01   999.8115 0.0000e+00
      7.705     9.4101     0.1236      1.077  56.018971     81.351      5.900   148.6535     2.8501     2.8177     0.0385      0.069      7.555     10.957        725 1.2372e-01   999.8140 0.0000e+00
      7.724     9.3878     0.1179      1.027  56.641723     82.181      5.900   147.4042     2.8615     2.8753     0.0388      0.076      7.575     10.986        726 1.2379e-01   999.8164 0.0000e+00
      7.742     9.3715     0.1224      1.066  56.845936     82.653      5.895   145.0949     2.6975     2.8898     0.0390      0.080      7.596     11.016        727 1.2370e-01   999.8188 0.0000e+00
      7.771     9.3544     0.1254      1.092  57.248135     83.154      5.895   143.4670     2.6784     2.9474     0.0393      0.084      7.623     11.056        728 1.2372e-01   999.8209 0.0000e+00
      7.808     9.3342     0.1199      1.043  58.188211     84.698      5.894   142.0285     2.6746     2.8177     0.0399      0.091      7.658     11.106        729 1.2363e-01   999.8228 0.0000e+00
      7.845     9.3149     0.1178      1.025  59.710863     86.815      5.891   140.5520     2.6631     2.8898     0.0409      0.099      7.693     11.158        730 1.2374e-01   999.8252 0.0000e+00
      7.880     9.2991     0.1124      0.977  61.198097     89.228      5.885   138.9242     2.3541     2.8465     0.0420      0.107      7.728     11.208        731 1.2370e-01   999.8278 0.0000e+00
      7.915     9.2917     0.1207      1.049  62.776052     91.316      5.882   137.6370     2.3847     2.8465     0.0429      0.116      7.763     11.260        732 1.2360e-01   999.8303 0.0000e+00
      7.954     9.2982     0.1098      0.953  66.946422     97.554      5.874   137.1827     2.3694     2.9042     0.0457      0.125      7.801     11.315        733 1.2355e-01   999.8339 0.0000e+00
      7.997     9.3045     0.1184      1.028  71.500776    104.429      5.872   134.9492     2.3732     2.8753     0.0488      0.136      7.840     11.371        734 1.2355e-01   999.8371 0.0000e+00
      8.033     9.2985     0.1078      0.936  72.632227    105.834      5.868   132.8291     2.1024     2.8465     0.0495      0.144      7.876     11.423        735 1.2379e-01   999.8373 0.0000e+00
      8.064     9.2839     0.1100      0.955  72.395656    105.529      5.864   130.9363     2.1405     2.8898     0.0493      0.145      7.909     11.471        736 1.2369e-01   999.8368 0.0000e+00
      8.098     9.2639     0.1124      0.975  72.359252    105.467      5.862   129.6491     2.1367     2.8465     0.0493      0.144      7.944     11.520        737 1.2366e-01   999.8375 0.0000e+00
      8.138     9.2416     0.1108      0.961  72.291584    105.430      5.858   127.3020     2.1291     2.8321     0.0493      0.144      7.980     11.574        738 1.2369e-01   999.8388 0.0000e+00
      8.175     9.2201     0.1161      1.007  72.539262    105.818      5.854   126.5070     2.1100     2.8465     0.0494      0.144      8.015     11.624        739 1.2373e-01   999.8407 0.0000e+00
      8.205     9.2002     0.1118      0.969  72.733887    106.255      5.851   126.0148     2.1596     2.8753     0.0496      0.142      8.045     11.668        740 1.2369e-01   999.8427 0.0000e+00
      8.232     9.1806     0.1114      0.965  72.643178    106.076      5.849   125.5227     2.1176     2.8177     0.0495      0.137      8.072     11.707        741 1.2372e-01   999.8444 0.0000e+00
      8.258     9.1612     0.1141      0.988  72.295901    105.770      5.848   124.4627     2.1405     2.8177     0.0494      0.131      8.095     11.741        742 1.2387e-01   999.8460 0.0000e+00
      8.273     9.1492     0.1146      0.992  71.622284    104.685      5.847   123.2513     2.1100     2.9330     0.0489      0.123      8.113     11.766        743 1.2365e-01   999.8472 0.0000e+00
      8.288     9.1442     0.1147      0.993  71.700204    104.950      5.847   123.1377     1.7514     2.9186     0.0490      0.112      8.130     11.791        744 1.2375e-01   999.8488 0.0000e+00
      8.311     9.1419     0.1164      1.008  71.486431    104.741      5.848   121.3205     1.7552     2.9619     0.0489      0.101      8.150     11.821        745 1.2384e-01   999.8498 0.0000e+00
      8.333     9.1356     0.1074      0.930  70.968030    103.772      5.849   119.5413     1.7743     2.8753     0.0485      0.091      8.171     11.851        746 1.2360e-01   999.8500 0.0000e+00
      8.352     9.1157     0.1120      0.969  70.979742    104.109      5.850   117.7998     1.7972     2.9763     0.0486      0.084      8.191     11.881        747 1.2378e-01   999.8503 0.0000e+00
      8.374     9.0925     0.1163      1.006  70.135973    102.608      5.849   115.6041     1.7094     2.8321     0.0479      0.080      8.212     11.911        748 1.2381e-01   999.8504 0.0000e+00
      8.398     9.0739     0.1157      1.002  69.761964    102.261      5.851   114.5820     1.6980     2.8465     0.0478      0.079      8.235     11.944        749 1.2367e-01   999.8518 0.0000e+00
      8.420     9.0627     0.1118      0.968  70.020284    102.699      5.853   113.4084     1.7094     3.0051     0.0479      0.081      8.257     11.976        750 1.2365e-01   999.8539 0.0000e+00
      8.442     9.0539     0.1107      0.959  69.844205    102.468      5.849   111.4777     1.6827     2.9763     0.0478      0.084      8.280     12.008        751 1.2372e-01   999.8553 0.0000e+00
      8.466     9.0410     0.1079      0.934  69.773313    102.420      5.851   109.3577     1.6904     3.2070     0.0478      0.087      8.303     12.041        752 1.2379e-01   999.8563 0.0000e+00
      8.489     9.0335     0.1102      0.954  69.781983    102.444      5.852   107.8055     1.7056     3.0916     0.0478      0.088      8.325     12.075        753 1.2369e-01   999.8570 0.0000e+00
      8.512     9.0349     0.1068      0.924  69.774053    102.486      5.850   106.4426     1.6866     3.0916     0.0478      0.089      8.347     12.107        754 1.2367e-01   999.8581 0.0000e+00
      8.535     9.0373     0.1056      0.913  69.783192    102.506      5.852   105.3069     1.7247     3.1205     0.0478      0.090      8.368     12.137        755 1.2373e-01   999.8588 0.0000e+00
      8.552     9.0306     0.1021      0.883  69.770618    102.504      5.855   104.8526     1.6217     3.2935     0.0478      0.089      8.385     12.161        756 1.2370e-01   999.8587 0.0000e+00
      8.564     9.0197     0.1046      0.905  69.670962    102.330      5.852   104.7012     1.6484     3.2647     0.0478      0.085      8.398     12.180        757 1.2371e-01   999.8586 0.0000e+00
      8.575     9.0096     0.1074      0.929  69.669733    102.352      5.853   103.4141     1.6408     3.3656     0.0478      0.079      8.412     12.200        758 1.2387e-01   999.8592 0.0000e+00
      8.593     9.0094     0.1071      0.926  69.742470    102.507      5.858   102.4676     1.6332     3.4521     0.0478      0.073      8.428     12.224        759 1.2377e-01   999.8601 0.0000e+00
      8.614     9.0184     0.1072      0.926  69.788248    102.579      5.859   102.0891     1.4500     3.1349     0.0479      0.069      8.446     12.250        760 1.2360e-01   999.8610 0.0000e+00
      8.629     9.0185     0.1094      0.945  69.761194    102.582      5.858   101.9376     1.4386     3.1493     0.0479      0.066      8.461     12.270        761 1.2371e-01   999.8611 0.0000e+00
      8.638     9.0120     0.1070      0.924  69.538660    102.181      5.858   101.7483     1.4500     3.1493     0.0477      0.062      8.470     12.284        762 1.2385e-01   999.8603 0.0000e+00
      8.642     9.0064     0.1039      0.897  69.352752    101.937      5.861   100.6883     1.4462     3.1926     0.0476      0.056      8.475     12.293        763 1.2363e-01   999.8603 0.0000e+00
      8.648     8.9988     0.1092      0.942  69.369176    101.954      5.863   100.2341     1.4386     3.0628     0.0476      0.051      8.482     12.303        764 1.2360e-01   999.8607 0.0000e+00
      8.658     8.9863     0.1044      0.900  69.221380    101.809      5.864    99.6283     1.4577     3.1493     0.0475      0.047      8.492     12.317        765 1.2375e-01   999.8612 0.0000e+00
      8.673     8.9780     0.1038      0.896  69.121110    101.582      5.866    99.1741     1.4539     3.0051     0.0474      0.044      8.505     12.336        766 1.2360e-01   999.8618 0.0000e+00
      8.688     8.9722     0.1020      0.879  69.137759    101.786      5.867    98.6062     1.4348     3.1061     0.0475      0.041      8.520     12.358        767 1.2370e-01   999.8627 0.0000e+00
      8.704     8.9624     0.1060      0.914  68.933515    101.358      5.871    97.8112     1.4462     3.0628     0.0473      0.041      8.536     12.381        768 1.2380e-01   999.8633 0.0000e+00
      8.721     8.9516     0.1082      0.932  68.930038    101.497      5.871    97.6219     1.5683     2.8753     0.0473      0.045      8.551     12.403        769 1.2362e-01   999.8639 0.0000e+00
      8.735     8.9381     0.1067      0.920  68.785889    101.240      5.872    97.2055     1.5683     2.8898     0.0472      0.050      8.565     12.423        770 1.2367e-01   999.8646 0.0000e+00
      8.747     8.9242     0.1071      0.923  68.608296    101.024      5.873    96.9783     1.6026     2.9042     0.0471      0.055      8.578     12.441        771 1.2365e-01   999.8654 0.0000e+00
      8.758     8.9111     0.1002      0.863  68.705807    101.230      5.876    96.5619     1.5836     2.8609     0.0472      0.056      8.591     12.460        772 1.2361e-01   999.8665 0.0000e+00
      8.777     8.8988     0.1090      0.939  68.545818    101.023      5.876    95.6155     1.8277     2.8177     0.0471      0.057      8.608     12.485        773 1.2363e-01   999.8675 0.0000e+00
      8.799     8.8885     0.1050      0.904  68.302802    100.692      5.877    94.6690     1.8124     2.8898     0.0469      0.059      8.628     12.513        774 1.2362e-01   999.8685 0.0000e+00
      8.816     8.8784     0.1128      0.971  68.177126    100.563      5.875    94.6312     1.8201     2.9330     0.0469      0.061      8.645     12.538        775 1.2383e-01   999.8694 0.0000e+00
      8.828     8.8695     0.0993      0.855  68.049208    100.387      5.879    93.7983     1.8430     2.8465     0.0468      0.061      8.658     12.558        776 1.2371e-01   999.8702 0.0000e+00
      8.842     8.8621     0.0987      0.850  67.987081    100.335      5.880    93.0033     1.6026     3.1493     0.0468      0.062      8.673     12.580        777 1.2352e-01   999.8709 0.0000e+00
      8.862     8.8546     0.1026      0.883  67.749852    100.031      5.881    92.7383     1.5378     3.0340     0.0466      0.064      8.692     12.608        778 1.2373e-01   999.8716 0.0000e+00
      8.888     8.8468     0.1034      0.890  67.543027     99.681      5.882    92.2462     1.5683     3.0195     0.0465      0.068      8.717     12.642        779 1.2382e-01   999.8722 0.0000e+00
      8.915     8.8383     0.0999      0.859  67.650839     99.950      5.884    91.8676     1.5607     3.1205     0.0466      0.073      8.742     12.679        780 1.2369e-01   999.8729 0.0000e+00
      8.940     8.8288     0.0922      0.793  67.734418    100.015      5.884    92.6247     1.7018     3.1349     0.0466      0.077      8.766     12.714        781 1.2373e-01   999.8736 0.0000e+00
      8.962     8.8192     0.1044      0.898  67.735840    100.123      5.885    92.1326     1.7247     3.0628     0.0467      0.081      8.791     12.749        782 1.2375e-01   999.8743 0.0000e+00
      8.989     8.8097     0.0994      0.855  67.649077     99.944      5.885    92.0190     1.6827     3.1493     0.0466      0.088      8.816     12.786        783 1.2364e-01   999.8751 0.0000e+00
      9.018     8.7999     0.1010      0.869  67.604948     99.973      5.887    91.5647     1.6980     3.0195     0.0466      0.095      8.841     12.824        784 1.2380e-01   999.8759 0.0000e+00
      9.041     8.7906     0.1052      0.905  67.523633     99.835      5.884    90.7319     1.5683     3.0340     0.0465      0.099      8.864     12.855        785 1.2387e-01   999.8767 0.0000e+00
      9.056     8.7832     0.0955      0.822  67.394102     99.699      5.886    90.6562     1.5950     3.1782     0.0464      0.097      8.880     12.880        786 1.2379e-01   999.8774 0.0000e+00
      9.069     8.7772     0.1035      0.890  67.409976     99.726      5.887    89.6340     1.5759     3.1493     0.0464      0.092      8.894     12.900        787 1.2370e-01   999.8781 0.0000e+00
      9.084     8.7721     0.1015      0.873  67.385160     99.748      5.890    88.4604     1.5836     3.0916     0.0465      0.085      8.908     12.921        788 1.2365e-01   999.8787 0.0000e+00
      9.100     8.7677     0.1021      0.878  67.365630     99.683      5.892    87.8926     1.5759     3.0916     0.0464      0.079      8.923     12.941        789 1.2375e-01   999.8791 0.0000e+00
      9.112     8.7637     0.0954      0.821  67.434288     99.864      5.890    88.0440     1.5340     2.9186     0.0465      0.071      8.937     12.961        790 1.2369e-01   999.8797 0.0000e+00
      9.126     8.7604     0.1052      0.906  67.418448     99.794      5.893    87.8169     1.5149     2.8321     0.0465      0.064      8.950     12.980        791 1.2373e-01   999.8801 0.0000e+00
      9.139     8.7568     0.1008      0.867  67.444710     99.889      5.895    87.8926     1.5111     2.8898     0.0465      0.058      8.962     12.998        792 1.2378e-01   999.8805 0.0000e+00
      9.149     8.7536     0.1001      0.862  67.460972     99.898      5.896    87.3626     1.5263     2.9330     0.0465      0.054      8.972     13.013        793 1.2378e-01   999.8807 0.0000e+00
      9.159     8.7516     0.0967      0.833  67.457577     99.909      5.898    86.9840     1.5149     2.9186     0.0465      0.052      8.981     13.027        794 1.2373e-01   999.8810 0.0000e+00
      9.168     8.7493     0.1038      0.894  67.448938     99.919      5.900    86.5676     1.5340     2.8898     0.0465      0.049      8.991     13.041        795 1.2364e-01   999.8813 0.0000e+00
      9.180     8.7470     0.0976      0.840  67.412363     99.842      5.902    86.2647     1.5187     2.8321     0.0465      0.046      9.001     13.056        796 1.2375e-01   999.8815 0.0000e+00
      9.190     8.7452     0.0947      0.815  67.503097    100.014      5.904    85.7726     1.5187     2.8465     0.0466      0.044      9.011     13.070        797 1.2367e-01   999.8817 0.0000e+00
      9.197     8.7466     0.1028      0.885  67.454749     99.938      5.906    85.8862     1.5187     2.8609     0.0465      0.041      9.019     13.081        798 1.2374e-01   999.8819 0.0000e+00
      9.203     8.7529     0.0964      0.830  67.413169     99.860      5.904    85.0912     1.5302     2.8177     0.0465      0.038      9.025     13.090        799 1.2378e-01   999.8820 0.0000e+00
      9.209     8.7599     0.1002      0.863  67.436117     99.940      5.906    84.2962     1.5263     2.8465     0.0465      0.035      9.030     13.096        800 1.2367e-01   999.8820 0.0000e+00
      9.211     8.7703     0.1010      0.870  67.485552     99.920      5.909    83.8797     1.5111     2.8177     0.0465      0.032      9.033     13.101        801 1.2369e-01   999.8815 0.0000e+00
      9.213     8.7785     0.0984      0.848  67.589096    100.149      5.909    82.6304     1.3432     2.5870     0.0466      0.027      9.038     13.108        802 1.2360e-01   999.8812 0.0000e+00
      9.225     8.7793     0.0973      0.838  67.485342     99.869      5.911    81.7976     1.3356     2.6014     0.0465      0.025      9.047     13.122        803 1.2373e-01   999.8804 0.0000e+00
      9.239     8.7812     0.0949      0.816  67.495939     99.926      5.912    81.2676     1.3356     2.6590     0.0465      0.025      9.060     13.141        804 1.2376e-01   999.8798 0.0000e+00
      9.253     8.7854     0.0944      0.812  67.575903    100.009      5.916    80.4726     1.3356     2.6158     0.0466      0.028      9.073     13.159        805 1.2369e-01   999.8799 0.0000e+00
      9.264     8.7854     0.0939      0.808  67.504552     99.919      5.912    80.1319     1.3280     2.9186     0.0465      0.032      9.083     13.174        806 1.2383e-01   999.8798 0.0000e+00
      9.271     8.7877     0.0979      0.842  67.466004     99.825      5.914    79.6776     1.2936     2.8898     0.0465      0.036      9.090     13.184        807 1.2381e-01   999.8795 0.0000e+00
      9.274     8.7971     0.0972      0.836  67.505148     99.906      5.914    78.8068     1.3509     2.8465     0.0465      0.037      9.095     13.191        808 1.2372e-01   999.8795 0.0000e+00
      9.279     8.7993     0.0961      0.826  67.574565     99.985      5.918    78.0497     1.3242     2.8321     0.0466      0.038      9.100     13.197        809 1.2373e-01   999.8794 0.0000e+00
      9.283     8.8021     0.0937      0.805  67.557701     99.953      5.917    77.5576     1.2212     2.8753     0.0466      0.035      9.104     13.203        810 1.2362e-01   999.8787 0.0000e+00
      9.286     8.8044     0.0962      0.827  67.585491     99.950      5.918    77.6711     1.2097     2.9330     0.0466      0.029      9.108     13.210        811 1.2366e-01   999.8786 0.0000e+00
      9.295     8.7942     0.1028      0.883  67.658705    100.106      5.922    76.4597     1.2288     2.9186     0.0466      0.024      9.117     13.223        812 1.2369e-01   999.8785 0.0000e+00
      9.311     8.7806     0.0983      0.844  67.644677    100.015      5.922    76.5733     1.2288     2.8465     0.0466      0.024      9.130     13.242        813 1.2376e-01   999.8784 0.0000e+00
      9.324     8.7659     0.1044      0.896  67.751358    100.255      5.920    76.1190     1.1830     2.9042     0.0467      0.027      9.143     13.260        814 1.2390e-01   999.8792 0.0000e+00
      9.333     8.7560     0.1000      0.858  67.882134    100.458      5.923    76.0054     1.2326     2.9186     0.0468      0.031      9.154     13.278        815 1.2371e-01   999.8803 0.0000e+00
      9.348     8.7496     0.0954      0.819  67.986538    100.670      5.922    74.9454     1.2021     2.9763     0.0469      0.037      9.169     13.299        816 1.2372e-01   999.8816 0.0000e+00
      9.368     8.7373     0.0958      0.822  68.185407    100.989      5.925    74.5290     1.2288     2.8898     0.0470      0.044      9.187     13.324        817 1.2379e-01   999.8826 0.0000e+00
      9.387     8.7233     0.1008      0.865  68.347036    101.256      5.924    74.5668     1.2173     2.9186     0.0471      0.052      9.205     13.351        818 1.2371e-01   999.8831 0.0000e+00
      9.404     8.7144     0.0927      0.795  68.527470    101.542      5.924    74.2640     1.2784     3.1061     0.0472      0.058      9.224     13.378        819 1.2384e-01   999.8842 0.0000e+00
      9.426     8.7074     0.0946      0.812  68.643579    101.792      5.923    74.0747     1.2822     3.1061     0.0474      0.063      9.248     13.412        820 1.2374e-01   999.8854 0.0000e+00
      9.460     8.6969     0.0920      0.789  68.796218    101.985      5.925    73.7718     1.2517     3.1061     0.0474      0.071      9.278     13.455        821 1.2361e-01   999.8862 0.0000e+00
      9.495     8.6840     0.0897      0.770  69.228033    102.710      5.922    73.6961     1.2784     3.1205     0.0478      0.082      9.308     13.500        822 1.2374e-01   999.8871 0.0000e+00
      9.519     8.6739     0.0955      0.820  69.531030    103.158      5.920    73.9990     1.2784     3.2214     0.0480      0.092      9.332     13.535        823 1.2374e-01   999.8881 0.0000e+00
      9.534     8.6696     0.0935      0.802  69.547152    103.239      5.919    72.8254     1.2746     3.1349     0.0480      0.096      9.349     13.560        824 1.2367e-01   999.8891 0.0000e+00
      9.549     8.6671     0.0869      0.746  69.504825    103.187      5.923    72.4090     1.2669     3.0340     0.0480      0.096      9.366     13.584        825 1.2354e-01   999.8899 0.0000e+00
      9.570     8.6617     0.0910      0.780  69.613400    103.366      5.922    71.6518     1.2593     3.0628     0.0480      0.094      9.386     13.613        826 1.2351e-01   999.8905 0.0000e+00
      9.593     8.6549     0.0927      0.795  69.827626    103.706      5.923    71.7654     1.1601     3.3512     0.0482      0.092      9.408     13.646        827 1.2370e-01   999.8908 0.0000e+00
      9.619     8.6483     0.1005      0.862  70.039723    104.013      5.923    70.9325     1.1449     3.3656     0.0483      0.088      9.431     13.679        828 1.2378e-01   999.8914 0.0000e+00
      9.640     8.6439     0.1005      0.862  70.180639    104.284      5.924    70.7433     1.1411     3.3800     0.0484      0.083      9.451     13.707        829 1.2371e-01   999.8921 0.0000e+00
      9.653     8.6421     0.1005      0.862  70.186603    104.263      5.922    70.2133     1.1754     3.4377     0.0484      0.079      9.464     13.727        830 1.2367e-01   999.8927 0.0000e+00
      9.661     8.6406     0.0969      0.831  70.180737    104.319      5.925    69.7590     1.2975     3.1061     0.0485      0.075      9.472     13.738        831 1.2365e-01   999.8930 0.0000e+00
      9.662     8.6405     0.0993      0.852  70.098888    104.157      5.924    69.0397     1.2479     2.9763     0.0484      0.069      9.476     13.744        832 1.2368e-01   999.8930 0.0000e+00
      9.665     8.6406     0.0906      0.777  70.140036    104.246      5.925    68.8125     1.2746     3.1061     0.0484      0.059      9.482     13.753        833 1.2375e-01   999.8931 0.0000e+00
      9.681     8.6391     0.0945      0.811  70.218584    104.370      5.925    68.3204     1.2708     3.1637     0.0485      0.050      9.497     13.774        834 1.2363e-01   999.8933 0.0000e+00
      9.707     8.6364     0.0963      0.826  70.268307    104.412      5.928    67.9418     1.0953     2.8753     0.0485      0.046      9.517     13.804        835 1.2368e-01   999.8934 0.0000e+00
      9.727     8.6326     0.0896      0.768  70.434389    104.708      5.929    68.0554     1.0838     2.8753     0.0486      0.045      9.535     13.830        836 1.2387e-01   999.8937 0.0000e+00
      9.737     8.6298     0.0903      0.774  70.516561    104.799      5.930    67.9040     1.0686     2.8177     0.0487      0.047      9.549     13.848        837 1.2379e-01   999.8940 0.0000e+00
      9.747     8.6281     0.0928      0.795  70.551965    104.894      5.932    67.7525     1.0762     2.7888     0.0487      0.051      9.560     13.864        838 1.2380e-01   999.8943 0.0000e+00
      9.759     8.6261     0.0956      0.820  70.568447    104.903      5.932    67.5254     1.2326     3.1349     0.0487      0.055      9.573     13.884        839 1.2377e-01   999.8946 0.0000e+00
      9.778     8.6240     0.0973      0.833  70.644482    105.033      5.932    66.7682     1.2021     3.1061     0.0488      0.059      9.590     13.909        840 1.2374e-01   999.8948 0.0000e+00
      9.801     8.6225     0.0894      0.766  70.872952    105.372      5.931    66.3518     1.2479     3.1205     0.0489      0.063      9.610     13.939        841 1.2377e-01   999.8952 0.0000e+00
      9.820     8.6227     0.0872      0.747  71.085659    105.711      5.933    65.1404     1.2097     3.0916     0.0491      0.063      9.627     13.965        842 1.2376e-01   999.8956 0.0000e+00
      9.832     8.6237     0.0873      0.748  71.151630    105.799      5.936    65.0647     1.2173     3.0772     0.0491      0.061      9.642     13.986        843 1.2376e-01   999.8958 0.0000e+00
      9.845     8.6277     0.0910      0.780  71.147097    105.799      5.935    64.2697     1.1296     3.0772     0.0491      0.062      9.658     14.009        844 1.2376e-01   999.8958 0.0000e+00
      9.869     8.6304     0.0944      0.809  71.031925    105.629      5.936    62.5661     1.1601     2.9474     0.0490      0.066      9.681     14.042        845 1.2375e-01   999.8958 0.0000e+00
      9.903     8.6245     0.0917      0.786  71.057462    105.617      5.937    62.5661     1.1639     3.1637     0.0490      0.073      9.711     14.085        846 1.2371e-01   999.8957 0.0000e+00
      9.936     8.6186     0.0855      0.732  71.293438    106.022      5.936    61.7332     1.1449     3.1349     0.0492      0.081      9.741     14.128        847 1.2370e-01   999.8958 0.0000e+00
      9.960     8.6135     0.0913      0.782  71.302312    106.002      5.934    61.7332     1.0991     3.2214     0.0492      0.087      9.766     14.164        848 1.2384e-01   999.8963 0.0000e+00
      9.980     8.6042     0.0951      0.815  71.462043    106.269      5.934    61.0518     1.0762     3.0628     0.0493      0.092      9.788     14.196        849 1.2386e-01   999.8969 0.0000e+00
     10.004     8.5943     0.0983      0.843  71.925915    106.992      5.933    60.7111     1.0686     3.1061     0.0497      0.097      9.811     14.230        850 1.2364e-01   999.8976 0.0000e+00
     10.029     8.5871     0.0925      0.792  72.239121    107.480      5.934    60.7111     1.0838     3.1061     0.0499      0.101      9.833     14.261        851 1.2381e-01   999.8986 0.0000e+00
     10.046     8.5843     0.0877      0.751  72.289487    107.595      5.934    60.8625     1.0876     3.1637     0.0499      0.100      9.848     14.282        852 1.2381e-01   999.8994 0.0000e+00
     10.049     8.5833     0.0920      0.787  72.249195    107.535      5.933    60.8625     1.0991     3.1637     0.0499      0.090      9.853     14.290        853 1.2365e-01   999.8999 0.0000e+00
     10.047     8.5829     0.0952      0.815  72.170518    107.461      5.935    59.9539     1.1067     3.1205     0.0499      0.074      9.854     14.293        854 1.2374e-01   999.9000 0.0000e+00
     10.052     8.5837     0.0964      0.825  72.060828    107.256      5.937    58.8561     1.0838     3.1061     0.0498      0.059      9.859     14.299        855 1.2362e-01   999.9000 0.0000e+00
     10.060     8.5849     0.0878      0.751  72.177884    107.465      5.939    58.4775     1.0915     2.9042     0.0499      0.047      9.865     14.308        856 1.2360e-01   999.9002 0.0000e+00
     10.066     8.5896     0.0907      0.776  72.232664    107.546      5.938    58.6668     1.0876     2.8321     0.0499      0.036      9.870     14.315        857 1.2367e-01   999.9002 0.0000e+00
     10.067     8.5929     0.0968      0.828  72.022343    107.208      5.942    58.2125     1.1029     2.8177     0.0497      0.026      9.874     14.321        858 1.2372e-01   999.9000 0.0000e+00
     10.073     8.5931     0.0939      0.803  72.053673    107.236      5.943    57.7961     1.0991     2.8465     0.0498      0.019      9.882     14.332        859 1.2380e-01   999.8997 0.0000e+00
     10.091     8.5981     0.0964      0.824  72.342115    107.681      5.942    57.4932     1.0876     2.8465     0.0500      0.020      9.899     14.357        860 1.2375e-01   999.8998 0.0000e+00
     10.119     8.5945     0.0870      0.745  72.494662    107.893      5.945    57.5311     1.0876     2.8177     0.0501      0.030      9.923     14.392        861 1.2369e-01   999.9000 0.0000e+00
     10.146     8.5773     0.0826      0.706  73.556123    109.371      5.947    56.8496     1.0800     2.9330     0.0507      0.043      9.947     14.427        862 1.2367e-01   999.9003 0.0000e+00
     10.164     8.5591     0.0925      0.791  75.118444    111.925      5.948    57.7204     1.0762     2.8898     0.0519      0.055      9.966     14.455        863 1.2369e-01   999.9015 0.0000e+00
     10.179     8.5427     0.0912      0.779  76.459054    113.690      5.945    56.6225     1.1029     3.0340     0.0527      0.064      9.982     14.478        864 1.2373e-01   999.9035 0.0000e+00
     10.194     8.5281     0.0909      0.776  78.984739    117.756      5.947    56.0546     1.1029     3.1349     0.0545      0.071      9.997     14.500        865 1.2364e-01   999.9062 0.0000e+00
     10.209     8.5175     0.0891      0.761  80.735885    120.399      5.948    55.3354     1.1029     3.1926     0.0557      0.075     10.011     14.520        866 1.2365e-01   999.9082 0.0000e+00
     10.222     8.5153     0.0938      0.801  81.496599    121.413      5.949    54.3511     1.1182     3.1349     0.0562      0.074     10.024     14.540        867 1.2379e-01   999.9097 0.0000e+00
     10.236     8.5171     0.0928      0.792  81.631857    121.993      5.948    53.8589     1.0724     3.0916     0.0565      0.068     10.039     14.560        868 1.2369e-01   999.9106 0.0000e+00
     10.253     8.5183     0.0916      0.782  81.013104    120.583      5.948    52.8746     1.0762     3.2791     0.0558      0.062     10.054     14.583        869 1.2365e-01   999.9106 0.0000e+00
     10.268     8.5227     0.0944      0.806  81.464682    121.742      5.950    51.9282     1.1029     3.4233     0.0563      0.059     10.068     14.604        870 1.2368e-01   999.9107 0.0000e+00
     10.280     8.5262     0.0905      0.773  80.921363    120.615      5.948    51.0575     1.0800     3.3512     0.0558      0.057     10.083     14.625        871 1.2377e-01   999.9104 0.0000e+00
     10.297     8.5157     0.0937      0.800  80.887304    120.553      5.949    50.0732     1.0953     3.3800     0.0558      0.057     10.102     14.652        872 1.2377e-01   999.9102 0.0000e+00
     10.328     8.4880     0.0965      0.824  86.349105    128.559      5.946    49.0889     1.0800     3.2791     0.0595      0.062     10.131     14.694        873 1.2374e-01   999.9131 0.0000e+00
     10.370     8.4620     0.0918      0.784  94.326754    141.001      5.944    51.3982     1.0991     3.3224     0.0652      0.073     10.166     14.745        874 1.2366e-01   999.9183 0.0000e+00
     10.403     8.4477     0.0938      0.801 100.109950    149.280      5.939    50.8682     1.1029     3.2503     0.0690      0.085     10.196     14.789        875 1.2367e-01   999.9235 0.0000e+00
     10.421     8.4453     0.0915      0.782 103.138165    154.416      5.936    50.6411     1.0838     3.3368     0.0713      0.094     10.216     14.818        876 1.2373e-01   999.9271 0.0000e+00
     10.431     8.4498     0.0906      0.774 104.947324    156.538      5.932    50.4896     1.0266     3.3224     0.0723      0.097     10.230     14.837        877 1.2372e-01   999.9291 0.0000e+00
     10.443     8.4496     0.0881      0.752 108.057730    161.784      5.931    50.5653     1.0190     3.3656     0.0748      0.097     10.242     14.855        878 1.2380e-01   999.9310 0.0000e+00
     10.458     8.4464     0.0885      0.756 112.947961    168.507      5.929    50.6411     1.0304     3.3079     0.0779      0.092     10.255     14.874        879 1.2372e-01   999.9334 0.0000e+00
     10.469     8.4446     0.0876      0.748 117.244180    175.674      5.930    49.9596     1.0190     3.3945     0.0812      0.082     10.265     14.889        880 1.2371e-01   999.9358 0.0000e+00
     10.476     8.4424 -9.990e-29 -9.990e-29 118.716536    177.160      5.929    50.0353     0.9846     3.1637     0.0819      0.067     10.273     14.900        881 1.2362e-01   999.9370 0.0000e+00
     10.482     8.4390 -9.990e-29 -9.990e-29 118.137276    176.958      5.928    49.5811     0.9808     3.1061     0.0818      0.052     10.280     14.910        882 1.2352e-01   999.9368 0.0000e+00
     10.492     8.4334 -9.990e-29 -9.990e-29 117.191433    174.833      5.930    49.7325     1.0037     3.1926     0.0808      0.043     10.290     14.924        883 1.2368e-01   999.9364 0.0000e+00
     10.506     8.4305 -9.990e-29 -9.990e-29 118.346352    177.155      5.930    48.9375     0.9808     3.0051     0.0819      0.040     10.303     14.943        884 1.2367e-01   999.9374 0.0000e+00
     10.520     8.4344 -9.990e-29 -9.990e-29 121.520703    181.506      5.929    48.0668     1.0113     3.1061     0.0839      0.041     10.316     14.962        885 1.2370e-01   999.9396 0.0000e+00
     10.532     8.4418 -9.990e-29 -9.990e-29 124.638928    186.641      5.928    48.0289     1.0304     3.1637     0.0863      0.041     10.327     14.978        886 1.2368e-01   999.9416 0.0000e+00
     10.540     8.4456 -9.990e-29 -9.990e-29 126.073089    188.419      5.928    47.8775     1.0266     3.1349     0.0871      0.041     10.336     14.991        887 1.2375e-01   999.9422 0.0000e+00
     10.547     8.4445 -9.990e-29 -9.990e-29 128.100074    191.443      5.928    47.4232     1.0152     3.1349     0.0885      0.041     10.343     15.001        888 1.2380e-01   999.9428 0.0000e+00
     10.554     8.4360 -9.990e-29 -9.990e-29 132.327733    197.875      5.930    47.1960     1.0457     3.1782     0.0916      0.041     10.349     15.010        889 1.2368e-01   999.9449 0.0000e+00
     10.559     8.4280 -9.990e-29 -9.990e-29 136.741346    204.350      5.929    46.4010     1.0113     3.1349     0.0946      0.039     10.354     15.018        890 1.2376e-01   999.9475 0.0000e+00
     10.564 -9.990e-29 -9.990e-29 -9.990e-29 145.539904    217.320      5.930    45.7953     1.0152     3.1349     0.1007      0.034     10.358     15.024        891 1.2377e-01   999.9530 0.0000e+00
     10.567 -9.990e-29 -9.990e-29 -9.990e-29 152.092570    228.353      5.928    44.3189     1.0381     3.1637     0.1058      0.029     10.360     15.026        892 1.2376e-01   999.9572 0.0000e+00
