* Sea-Bird SBE19plus  Data File:
* FileName = C:\DATA\071019_bvr_0007.hex
* Software version 2.8.0.119
* Temperature SN = 7809
* Conductivity SN = 7809
* System UpLoad Time = Jul 12 2019 13:03:42
* <ApplicationData>
* <Seaterm232>
* <SoftwareVersion>2.8.0.119</SoftwareVersion>
* <BuildDate>07-Nov-2018</BuildDate>
* </Seaterm232>
* </ApplicationData>
* <InstrumentState>
* <HardwareData DeviceType='SBE19plus' SerialNumber='01907809'>
*
*    <Manufacturer>Sea-Bird Electronics, Inc.</Manufacturer>
*
*    <FirmwareVersion>3.1.8</FirmwareVersion>
*
*    <FirmwareDate>Mar  9 2016 16:22:29</FirmwareDate>
*
*    <CommandSetVersion>1.4</CommandSetVersion>
*
*    <PCBAssembly PCBSerialNum='120721' AssemblyNum='41054J'/>
*
*    <PCBAssembly PCBSerialNum='120715' AssemblyNum='41967A'/>
*
*    <PCBAssembly PCBSerialNum='116699' AssemblyNum='41606'/>
*
*    <PCBAssembly PCBSerialNum='120719' AssemblyNum='41059D'/>
*
*    <MfgDate>28-Apr-2017</MfgDate>
*
*    <InternalSensors>
*
*       <Sensor id='Main Temperature'>
*
*          <type>temperature0</type>
*
*          <SerialNumber>01907809</SerialNumber>
*
*       </Sensor>
*
*       <Sensor id='Main Conductivity'>
*
*          <type>conductivity-0</type>
*
*          <SerialNumber>01907809</SerialNumber>
*
*       </Sensor>
*
*       <Sensor id='Main Pressure'>
*
*          <type>strain-0</type>
*
*          <SerialNumber>10586018</SerialNumber>
*
*       </Sensor>
*
*    </InternalSensors>
*
*    <ExternalSensors>
*
*       <Sensor id='volt 0'>
*
*          <type>pH</type>
*
*          <SerialNumber>27-0363</SerialNumber>
*
*       </Sensor>
*
*       <Sensor id='volt 1'>
*
*          <type>ORP</type>
*
*          <SerialNumber>27-0363</SerialNumber>
*
*       </Sensor>
*
*       <Sensor id='volt 2'>
*
*          <type>OXY</type>
*
*          <SerialNumber>43-0434</SerialNumber>
*
*       </Sensor>
*
*       <Sensor id='volt 3'>
*
*          <type>PAR</type>
*
*          <SerialNumber>1122</SerialNumber>
*
*       </Sensor>
*
*       <Sensor id='volt 4'>
*
*          <type>ECO AFL/FL</type>
*
*          <SerialNumber>FLNTURT-2496</SerialNumber>
*
*       </Sensor>
*
*       <Sensor id='volt 5'>
*
*          <type>ECO-NTU</type>
*
*          <SerialNumber>FLNTURT-2496</SerialNumber>
*
*       </Sensor>
*
*       <Sensor id='serial'>
*
*          <type>not assigned</type>
*
*          <SerialNumber>not assigned</SerialNumber>
*
*       </Sensor>
*
*    </ExternalSensors>
*
* </HardwareData>
* <StatusData DeviceType='SBE19plus' SerialNumber='01907809'>
*
*    <DateTime>2019-07-12T12:59:51</DateTime>
*
*    <LoggingState>not logging</LoggingState>
*
*    <EventSummary numEvents='0'/>
*
*    <Power>
*
*       <vMain>12.8</vMain>
*
*       <vLith>8.6</vLith>
*
*       <iMain>63.0</iMain>
*
*       <iPump>123.3</iPump>
*
*       <iExt01>19.1</iExt01>
*
*       <iExt2345>36.6</iExt2345>
*
*    </Power>
*
*    <MemorySummary>
*
*       <Bytes>253115</Bytes>
*
*       <Samples>11005</Samples>
*
*       <SamplesFree>2849783</SamplesFree>
*
*       <SampleLength>23</SampleLength>
*
*       <Profiles>10</Profiles>
*
*    </MemorySummary>
*
* </StatusData>
* <ConfigurationData DeviceType='SBE19plus' SerialNumber='01907809'>
*
*    <ProfileMode>
*
*       <ScansToAverage>1</ScansToAverage>
*
*       <MinimumCondFreq>5</MinimumCondFreq>
*
*       <PumpDelay>45</PumpDelay>
*
*       <AutoRun>no</AutoRun>
*
*       <IgnoreSwitch>no</IgnoreSwitch>
*
*    </ProfileMode>
*
*    <Battery>
*
*       <Type>alkaline</Type>
*
*       <CutOff>7.5</CutOff>
*
*    </Battery>
*
*    <DataChannels>
*
*       <ExtVolt0>yes</ExtVolt0>
*
*       <ExtVolt1>yes</ExtVolt1>
*
*       <ExtVolt2>yes</ExtVolt2>
*
*       <ExtVolt3>yes</ExtVolt3>
*
*       <ExtVolt4>yes</ExtVolt4>
*
*       <ExtVolt5>yes</ExtVolt5>
*
*       <SBE38>no</SBE38>
*
*       <WETLABS>no</WETLABS>
*
*       <OPTODE>no</OPTODE>
*
*       <SBE63>no</SBE63>
*
*       <SeaFET>no</SeaFET>
*
*       <GTD>no</GTD>
*
*    </DataChannels>
*
*    <EchoCharacters>yes</EchoCharacters>
*
*    <OutputExecutedTag>yes</OutputExecutedTag>
*
*    <OutputFormat>raw HEX</OutputFormat>
*
* </ConfigurationData>
* <CalibrationCoefficients DeviceType='SBE19plus' SerialNumber='01907809'>
*
*    <Calibration format='TEMP1' id='Main Temperature'>
*
*       <SerialNum>01907809</SerialNum>
*
*       <CalDate>24-Mar-19</CalDate>
*
*       <TA0>1.217923e-03</TA0>
*
*       <TA1>2.816693e-04</TA1>
*
*       <TA2>-1.603333e-06</TA2>
*
*       <TA3>1.984146e-07</TA3>
*
*       <TOFFSET>0.000000e+00</TOFFSET>
*
*    </Calibration>
*
*    <Calibration format='WBCOND0' id='Main Conductivity'>
*
*       <SerialNum>01907809</SerialNum>
*
*       <CalDate>24-Mar-19</CalDate>
*
*       <G>-1.005893e+00</G>
*
*       <H>1.268163e-01</H>
*
*       <I>-1.515604e-04</I>
*
*       <J>2.671373e-05</J>
*
*       <CPCOR>-9.570000e-08</CPCOR>
*
*       <CTCOR>3.250000e-06</CTCOR>
*
*       <CSLOPE>1.000000e+00</CSLOPE>
*
*    </Calibration>
*
*    <Calibration format='STRAIN0' id='Main Pressure'>
*
*       <SerialNum>10586018</SerialNum>
*
*       <CalDate>11-Mar-19</CalDate>
*
*       <PA0>4.565618e-02</PA0>
*
*       <PA1>4.850951e-04</PA1>
*
*       <PA2>-2.883271e-12</PA2>
*
*       <PTCA0>5.252467e+05</PTCA0>
*
*       <PTCA1>1.223042e+01</PTCA1>
*
*       <PTCA2>-3.567450e-01</PTCA2>
*
*       <PTCB0>2.516687e+01</PTCB0>
*
*       <PTCB1>3.750000e-04</PTCB1>
*
*       <PTCB2>0.000000e+00</PTCB2>
*
*       <PTEMPA0>-5.487846e+01</PTEMPA0>
*
*       <PTEMPA1>5.537568e+01</PTEMPA1>
*
*       <PTEMPA2>-5.867271e-01</PTEMPA2>
*
*       <POFFSET>7.140000e-01</POFFSET>
*
*       <PRANGE>1.600000e+02</PRANGE>
*
*    </Calibration>
*
*    <Calibration format='VOLT0' id='Volt 0'>
*
*       <OFFSET>-4.920000e-02</OFFSET>
*
*       <SLOPE>1.248122e+00</SLOPE>
*
*    </Calibration>
*
*    <Calibration format='VOLT0' id='Volt 1'>
*
*       <OFFSET>-4.784000e-02</OFFSET>
*
*       <SLOPE>1.248871e+00</SLOPE>
*
*    </Calibration>
*
*    <Calibration format='VOLT0' id='Volt 2'>
*
*       <OFFSET>-4.864632e-02</OFFSET>
*
*       <SLOPE>1.248714e+00</SLOPE>
*
*    </Calibration>
*
*    <Calibration format='VOLT0' id='Volt 3'>
*
*       <OFFSET>-4.743790e-02</OFFSET>
*
*       <SLOPE>1.248571e+00</SLOPE>
*
*    </Calibration>
*
*    <Calibration format='VOLT0' id='Volt 4'>
*
*       <OFFSET>-4.671263e-02</OFFSET>
*
*       <SLOPE>1.248951e+00</SLOPE>
*
*    </Calibration>
*
*    <Calibration format='VOLT0' id='Volt 5'>
*
*       <OFFSET>-4.871053e-02</OFFSET>
*
*       <SLOPE>1.249136e+00</SLOPE>
*
*    </Calibration>
*
*    <Calibration format='FREQ0' id='external frequency channel'>
*
*       <EXTFREQSF>1.000014e+00</EXTFREQSF>
*
*    </Calibration>
*
* </CalibrationCoefficients>
* <EventCounters DeviceType='SBE19plus' SerialNumber='01907809'>
*
*    <EventSummary numEvents='0'/>
*
* </EventCounters></InstrumentState>
* <Headers>
*
* cast   7 11 Jul 2019 07:10:46 samples 6576 to 7480, avg = 1, stop = mag switch
*
# nquan = 18
# nvalues = 781                         
# units = specified
# name 0 = depFM: Depth [fresh water, m]
# name 1 = tv290C: Temperature [ITS-90, deg C]
# name 2 = sbeox0Mg/L: Oxygen, SBE 43 [mg/l]
# name 3 = sbeox0PS: Oxygen, SBE 43 [% saturation]
# name 4 = c0uS/cm: Conductivity [uS/cm]
# name 5 = specc: Specific Conductance [uS/cm]
# name 6 = ph: pH
# name 7 = orp: Oxidation Reduction Potential [mV]
# name 8 = flECO-AFL: Fluorescence, WET Labs ECO-AFL/FL [mg/m^3]
# name 9 = turbWETntu0: Turbidity, WET Labs ECO [NTU]
# name 10 = sal00: Salinity, Practical [PSU]
# name 11 = dz/dtM: Descent Rate [m/s]
# name 12 = prdM: Pressure, Strain Gauge [db]
# name 13 = prdE: Pressure, Strain Gauge [psi]
# name 14 = scan: Scan Count
# name 15 = par/sat/log: PAR/Logarithmic, Satlantic
# name 16 = density00: Density [density, kg/m^3]
# name 17 = flag:  0.000e+00
# span 0 =     -0.691,     10.514       
# span 1 =     8.3669,    27.3166       
# span 2 =    -0.8541,     8.3175       
# span 3 =     -7.923,    100.579       
# span 4 =  -0.023588, 107.272299       
# span 5 =      0.195,    160.428       
# span 6 =      6.001,      7.964       
# span 7 =    12.8217,   321.5475       
# span 8 =    -0.1560,    14.0502       
# span 9 =    -0.5854,    21.2029       
# span 10 =     0.0108,     0.0741      
# span 11 =     -0.016,      0.168      
# span 12 =     -0.677,     10.310      
# span 13 =     -0.982,     14.953      
# span 14 =          1,        781      
# span 15 = 1.2344e-01, 5.9289e+01      
# span 16 =   996.4473,   999.9347      
# span 17 = 0.0000e+00, 0.0000e+00      
# interval = seconds: 0.25
# start_time = Jul 11 2019 07:10:46 [Instrument's time stamp, header]
# bad_flag = -9.990e-29
# <Sensors count="9" >
#   <sensor Channel="1" >
#     <!-- Count, Temperature -->
#     <TemperatureSensor SensorID="58" >
#       <SerialNumber>7809</SerialNumber>
#       <CalibrationDate>24-Mar-19</CalibrationDate>
#       <A0>1.21792325e-003</A0>
#       <A1>2.81669265e-004</A1>
#       <A2>-1.60333336e-006</A2>
#       <A3>1.98414625e-007</A3>
#       <Slope>1.00000000</Slope>
#       <Offset>0.0000</Offset>
#     </TemperatureSensor>
#   </sensor>
#   <sensor Channel="2" >
#     <!-- Frequency 0, Conductivity -->
#     <ConductivitySensor SensorID="3" >
#       <SerialNumber>7809</SerialNumber>
#       <CalibrationDate>24-Mar-19</CalibrationDate>
#       <UseG_J>1</UseG_J>
#       <!-- Cell const and series R are applicable only for wide range sensors. -->
#       <SeriesR>0.0000</SeriesR>
#       <CellConst>2000.0000</CellConst>
#       <ConductivityType>0</ConductivityType>
#       <Coefficients equation="0" >
#         <A>0.00000000e+000</A>
#         <B>0.00000000e+000</B>
#         <C>0.00000000e+000</C>
#         <D>0.00000000e+000</D>
#         <M>0.0</M>
#         <CPcor>-9.57000000e-008</CPcor>
#       </Coefficients>
#       <Coefficients equation="1" >
#         <G>-1.00589325e+000</G>
#         <H>1.26816302e-001</H>
#         <I>-1.51560448e-004</I>
#         <J>2.67137274e-005</J>
#         <CPcor>-9.57000000e-008</CPcor>
#         <CTcor>3.2500e-006</CTcor>
#         <!-- WBOTC not applicable unless ConductivityType = 1. -->
#         <WBOTC>0.00000000e+000</WBOTC>
#       </Coefficients>
#       <Slope>1.00000000</Slope>
#       <Offset>0.00000</Offset>
#     </ConductivitySensor>
#   </sensor>
#   <sensor Channel="3" >
#     <!-- Count, Pressure, Strain Gauge -->
#     <PressureSensor SensorID="46" >
#       <SerialNumber>7809</SerialNumber>
#       <CalibrationDate>11-Mar-19</CalibrationDate>
#       <PA0>4.56561833e-002</PA0>
#       <PA1>4.85095118e-004</PA1>
#       <PA2>-2.88327090e-012</PA2>
#       <PTEMPA0>-5.48784562e+001</PTEMPA0>
#       <PTEMPA1>5.53756816e+001</PTEMPA1>
#       <PTEMPA2>-5.86727098e-001</PTEMPA2>
#       <PTCA0>5.25246745e+005</PTCA0>
#       <PTCA1>1.22304214e+001</PTCA1>
#       <PTCA2>-3.56745036e-001</PTCA2>
#       <PTCB0>2.51668750e+001</PTCB0>
#       <PTCB1>3.75000000e-004</PTCB1>
#       <PTCB2>0.00000000e+000</PTCB2>
#       <Offset>0.000000</Offset>
#     </PressureSensor>
#   </sensor>
#   <sensor Channel="4" >
#     <!-- A/D voltage 0, Oxygen, SBE 43 -->
#     <OxygenSensor SensorID="38" >
#       <SerialNumber>0434</SerialNumber>
#       <CalibrationDate>13-Apr-19</CalibrationDate>
#       <Use2007Equation>1</Use2007Equation>
#       <CalibrationCoefficients equation="0" >
#         <!-- Coefficients for Owens-Millard equation. -->
#         <Boc>0.0000</Boc>
#         <Soc>0.0000e+000</Soc>
#         <offset>0.0000</offset>
#         <Pcor>0.00e+000</Pcor>
#         <Tcor>0.0000</Tcor>
#         <Tau>0.0</Tau>
#       </CalibrationCoefficients>
#       <CalibrationCoefficients equation="1" >
#         <!-- Coefficients for Sea-Bird equation - SBE calibration in 2007 and later. -->
#         <Soc>4.2007e-001</Soc>
#         <offset>-0.6109</offset>
#         <A>-4.3656e-003</A>
#         <B> 1.7017e-004</B>
#         <C>-2.5341e-006</C>
#         <D0> 2.5826e+000</D0>
#         <D1> 1.92634e-004</D1>
#         <D2>-4.64803e-002</D2>
#         <E> 3.6000e-002</E>
#         <Tau20> 1.1800</Tau20>
#         <H1>-3.3000e-002</H1>
#         <H2> 5.0000e+003</H2>
#         <H3> 1.4500e+003</H3>
#       </CalibrationCoefficients>
#     </OxygenSensor>
#   </sensor>
#   <sensor Channel="5" >
#     <!-- A/D voltage 1, PAR/Logarithmic, Satlantic -->
#     <PARLog_SatlanticSensor SensorID="76" >
#       <SerialNumber>1122</SerialNumber>
#       <CalibrationDate>08-May-2019</CalibrationDate>
#       <a0>9.7456e-001</a0>
#       <a1>8.1640e-001</a1>
#       <Im>1.3589e+000</Im>
#       <Multiplier>1.0000e+000</Multiplier>
#     </PARLog_SatlanticSensor>
#   </sensor>
#   <sensor Channel="6" >
#     <!-- A/D voltage 2, pH -->
#     <pH_Sensor SensorID="43" >
#       <SerialNumber>0363</SerialNumber>
#       <CalibrationDate>15-Apr-19</CalibrationDate>
#       <Slope>4.5952</Slope>
#       <Offset>2.5370</Offset>
#     </pH_Sensor>
#   </sensor>
#   <sensor Channel="7" >
#     <!-- A/D voltage 3, Oxidation Reduction Potential -->
#     <OxidationReductionPotentialSensor SensorID="41" >
#       <SerialNumber>0363</SerialNumber>
#       <CalibrationDate>15-Apr-19</CalibrationDate>
#       <B>2.499480</B>
#       <M>-0.496195</M>
#       <Offset>0.0</Offset>
#     </OxidationReductionPotentialSensor>
#   </sensor>
#   <sensor Channel="8" >
#     <!-- A/D voltage 4, Fluorometer, WET Labs ECO-AFL/FL -->
#     <FluoroWetlabECO_AFL_FL_Sensor SensorID="20" >
#       <SerialNumber>FLNTURT-2496</SerialNumber>
#       <CalibrationDate>08-May-2019</CalibrationDate>
#       <ScaleFactor>5.00000000e+001</ScaleFactor>
#       <!-- Dark output -->
#       <Vblank>0.0550</Vblank>
#     </FluoroWetlabECO_AFL_FL_Sensor>
#   </sensor>
#   <sensor Channel="9" >
#     <!-- A/D voltage 5, Turbidity Meter, WET Labs, ECO-NTU -->
#     <TurbidityMeter SensorID="67" >
#       <SerialNumber>FLNTURT-2496</SerialNumber>
#       <CalibrationDate>08-May-2019</CalibrationDate>
#       <ScaleFactor>189.000000</ScaleFactor>
#       <!-- Dark output -->
#       <DarkVoltage>0.071000</DarkVoltage>
#     </TurbidityMeter>
#   </sensor>
# </Sensors>
# datcnv_date = Jul 12 2019 13:13:05, 7.26.7.129 [datcnv_vars = 17]
# datcnv_in = C:\DATA\071119_bvr50_c.hex C:\DATA\SBE19plusV2_7809.xmlcon
# datcnv_skipover = 0
# datcnv_ox_hysteresis_correction = yes
# datcnv_ox_tau_correction = yes
# filter_date = Jul 12 2019 13:13:33, 7.26.7.129
# filter_in = C:\DATA\071119_bvr50_c.cnv
# filter_low_pass_tc_A = 0.030
# filter_low_pass_tc_B = 0.150
# filter_low_pass_A_vars = tv290C c0uS/cm par/sat/log density00
# filter_low_pass_B_vars = prdM prdE
# alignctd_date = Jul 12 2019 13:14:04, 7.26.7.129
# alignctd_in = C:\DATA\071119_bvr50_c.cnv
# alignctd_adv = tv290C 0.500, sbeox0Mg/L 3.000, sbeox0PS 3.000                                                                                                                                                                      
# file_type = ascii
*END*
     -0.690    22.1275     8.3175     95.369   0.258731      0.284      6.648   238.7159    -0.1178    -0.2682     0.0109      0.000     -0.676     -0.981          1 3.9832e+01   997.7481 0.0000e+00
     -0.690    22.1273     8.3170     95.363   0.194103      0.195      6.651   237.2773    -0.1178    -0.3403     0.0109     -0.000     -0.677     -0.982          2 3.8972e+01   997.7481 0.0000e+00
     -0.690    22.1278     8.3058     95.305   0.176453      0.195      6.651   239.7759    -0.1331    -0.2537     0.0109     -0.000     -0.677     -0.982          3 3.8929e+01   997.7481 0.0000e+00
     -0.691    22.1275     8.1823     95.300   0.191954      0.195      6.649   246.2873    -0.1369    -0.4700     0.0109     -0.000     -0.677     -0.982          4 4.1631e+01   997.7481 0.0000e+00
     -0.690    22.1280     8.0020     95.264   0.174812      0.195      6.617   255.2974    -0.1560    -0.4700     0.0109     -0.000     -0.677     -0.982          5 4.3915e+01   997.7480 0.0000e+00
     -0.691    22.1269     7.8740     95.211   0.227365      0.225      6.612   250.4895    -0.1331    -0.4700     0.0109     -0.001     -0.677     -0.982          6 4.5070e+01   997.7481 0.0000e+00
     -0.691    22.1288     7.7910     95.226   0.244878      0.284      6.611   245.9088    -0.1293    -0.5566     0.0109     -0.001     -0.677     -0.982          7 4.3870e+01   997.7479 0.0000e+00
     -0.690    22.1260     7.7321     95.220   0.300924      0.284      6.598   243.6373    -0.1293    -0.5277     0.0109     -0.000     -0.677     -0.982          8 4.2731e+01   997.7482 0.0000e+00
     -0.691    22.1312     7.6875     95.206   0.216779      0.284      6.594   241.0630    -0.1254    -0.4700     0.0109     -0.000     -0.677     -0.982          9 4.1664e+01   997.7477 0.0000e+00
     -0.691    22.1229     7.6565     95.267   0.349596      0.284      6.605   212.5187    -0.1483    -0.5854     0.0109     -0.000     -0.677     -0.982         10 4.0425e+01   997.7483 0.0000e+00
     -0.690    22.1365     7.6427     95.424   0.135635      0.284      6.614   234.5894    -0.1254    -0.4845     0.0109     -0.000     -0.677     -0.982         11 3.9912e+01   997.7472 0.0000e+00
     -0.690    22.1150     7.6418     95.626   0.483048      0.284      6.618   233.6809    -0.0949    -0.5133     0.0109      0.000     -0.677     -0.982         12 3.9469e+01   997.7490 0.0000e+00
     -0.690    22.1908     7.6537     95.897  -0.023588      0.343      6.623   237.3530    -0.1254     2.2841     0.0108      0.000     -0.676     -0.981         13 3.9520e+01   997.7459 0.0000e+00
     -0.691    22.9517     7.6749     96.258   0.943626      0.402      6.626   230.6901    -0.1407     2.2841     0.0108      0.000     -0.670     -0.972         14 4.2546e+01   997.7509 0.0000e+00
     -0.670    24.0990     7.7038     96.635   5.462772      6.401      6.679   309.3954    -0.1178     2.3274     0.0120      0.005     -0.643     -0.932         15 4.9965e+01   997.7346 0.0000e+00
     -0.602    24.9485     7.7471     97.039  14.591769     14.324      6.912   283.0846    -0.1064     2.3418     0.0150      0.027     -0.590     -0.855         16 5.2869e+01   997.5597 0.0000e+00
     -0.536    25.5303     7.7795     97.327  25.872007     27.365      7.262   249.4673    -0.1331    -0.4556     0.0203      0.061     -0.531     -0.769         17 5.3685e+01   997.2863 0.0000e+00
     -0.487    25.9467     7.8090     97.605  27.634343     27.045      7.512   243.8266    -0.1254    -0.5277     0.0204      0.097     -0.482     -0.699         18 5.5311e+01   997.0731 0.0000e+00
     -0.452    26.2573     7.8257     97.746  26.730053     26.814      7.700   239.8137    -0.1407    -0.5421     0.0205      0.128     -0.447     -0.649         19 5.5390e+01   996.9225 0.0000e+00
     -0.429    26.5158     7.8396     97.865  27.471085     26.734      7.757   228.9866    -0.1102    -0.5133     0.0206      0.151     -0.419     -0.609         20 5.6048e+01   996.8133 0.0000e+00
     -0.402    26.7077     7.8430     97.914  27.215533     26.680      7.794   229.9330     0.0538    21.2029     0.0207      0.163     -0.389     -0.565         21 5.7620e+01   996.7304 0.0000e+00
     -0.358    26.8319     7.8343     97.883  27.492274     26.600      7.840   235.1573     0.0386    21.1740     0.0207      0.168     -0.350     -0.508         22 5.8492e+01   996.6610 0.0000e+00
     -0.311    26.9033     7.8232     97.817  27.304315     26.448      7.906   241.1766     0.0538    21.1740     0.0207      0.163     -0.305     -0.443         23 5.8525e+01   996.6092 0.0000e+00
     -0.266    26.9596     7.8724     98.500  27.271647     26.277      7.949   247.7259     0.0615    21.1740     0.0207      0.152     -0.264     -0.383         24 5.8938e+01   996.5755 0.0000e+00
     -0.230    26.9636     8.0181    100.406  27.088570     26.106      7.964   240.6845     0.7176     0.9575     0.0206      0.146     -0.231     -0.335         25 5.8971e+01   996.5560 0.0000e+00
     -0.212    26.8903     8.0246    100.579  27.087814     26.052      7.923   237.6937     0.7405     0.8566     0.0206      0.143     -0.212     -0.307         26 5.8966e+01   996.5407 0.0000e+00
     -0.205    26.8190     7.8464     98.420  27.065228     26.047      7.875   230.5387     0.7100     0.8710     0.0206      0.136     -0.202     -0.292         27 5.9093e+01   996.5396 0.0000e+00
     -0.199    26.7696     7.5898     95.240  26.938956     25.953      7.833   232.8101     0.7252     0.9287     0.0205      0.123     -0.195     -0.283         28 5.9125e+01   996.5597 0.0000e+00
     -0.194    26.7291     7.3165     91.826  26.889534     25.933      7.792   235.7630     0.7138     0.8854     0.0205      0.103     -0.189     -0.274         29 5.8846e+01   996.5792 0.0000e+00
     -0.185    26.6998     7.0542     88.543  26.919414     26.013      7.766   234.7787     0.7176     0.8854     0.0205      0.079     -0.183     -0.264         30 5.8712e+01   996.5927 0.0000e+00
     -0.180    26.7035     6.7947     85.284  26.842548     25.924      7.739   236.2173     0.7062     0.8422     0.0205      0.056     -0.178     -0.257         31 5.8860e+01   996.6037 0.0000e+00
     -0.178    26.7461     6.5660     82.407  26.837106     25.967      7.719   237.8830     0.7176     0.8998     0.0205      0.037     -0.175     -0.254         32 5.9078e+01   996.6117 0.0000e+00
     -0.178    26.7880     6.3910     80.205  26.896576     25.992      7.700   238.9052     0.7024     0.8710     0.0205      0.024     -0.175     -0.254         33 5.9262e+01   996.6107 0.0000e+00
     -0.178    26.8262     6.3003     79.070  27.123982     26.213      7.688   240.6845     0.7138     0.8854     0.0206      0.018     -0.175     -0.254         34 5.9225e+01   996.5992 0.0000e+00
     -0.179    26.8728     6.2521     78.476  27.294602     26.353      7.677   241.2145     0.7024     0.7845     0.0207      0.013     -0.175     -0.253         35 5.9178e+01   996.5878 0.0000e+00
     -0.177    26.9231     6.2095     77.949  27.306257     26.334      7.670   242.1230     0.7062     0.8133     0.0207      0.010     -0.174     -0.252         36 5.9185e+01   996.5773 0.0000e+00
     -0.176    26.9650     6.1691     77.443  27.346428     26.364      7.665   242.7666     0.7176     1.0008     0.0207      0.006     -0.173     -0.251         37 5.9243e+01   996.5646 0.0000e+00
     -0.176    26.9875     6.1430     77.093  27.422321     26.392      7.659   243.6752     0.7176     0.8133     0.0207      0.003     -0.173     -0.250         38 5.9242e+01   996.5508 0.0000e+00
     -0.175    26.9974     6.1181     76.733  27.596865     26.559      7.651   245.3788     0.7329     0.9287     0.0208      0.002     -0.172     -0.249         39 5.9080e+01   996.5394 0.0000e+00
     -0.174    27.0026     6.0850     76.284  27.721617     26.655      7.643   245.9466     0.7062     0.8566     0.0208      0.002     -0.171     -0.248         40 5.9175e+01   996.5332 0.0000e+00
     -0.174    27.0017     6.0429     75.759  27.711377     26.650      7.632   246.6659     0.6985     0.9143     0.0208      0.002     -0.171     -0.248         41 5.9256e+01   996.5306 0.0000e+00
     -0.174    26.9976     6.0197     75.472  27.728089     26.647      7.620   246.8930     0.7291     0.9575     0.0208      0.002     -0.171     -0.248         42 5.9289e+01   996.5292 0.0000e+00
     -0.174    26.9939     6.0387     75.701  27.760061     26.701      7.611   247.6502     0.7252     0.9287     0.0209      0.002     -0.171     -0.248         43 5.8975e+01   996.5293 0.0000e+00
     -0.175    26.9963     6.0887     76.313  27.730833     26.650      7.606   248.3695     0.7176     0.8277     0.0208      0.001     -0.172     -0.249         44 5.8665e+01   996.5306 0.0000e+00
     -0.175    27.0031     6.1750     77.412  27.764465     26.705      7.606   249.0131     0.7062     0.8998     0.0209      0.001     -0.173     -0.251         45 5.9177e+01   996.5316 0.0000e+00
     -0.179    27.0092     6.2823     78.789  27.718207     26.650      7.603   249.9973     0.7138     0.9431     0.0208     -0.001     -0.177     -0.256         46 5.8727e+01   996.5309 0.0000e+00
     -0.188    27.0101     6.3831     80.069  27.669913     26.593      7.601   249.8459     0.7291     0.8277     0.0208     -0.005     -0.183     -0.266         47 5.7244e+01   996.5290 0.0000e+00
     -0.194    26.9936     6.4634     81.075  27.765321     26.697      7.607   248.6345     0.7176     0.8422     0.0209     -0.009     -0.187     -0.271         48 5.6268e+01   996.5273 0.0000e+00
     -0.189    26.9592     6.5159     81.726  27.836444     26.750      7.607   249.5809     0.7100     0.8422     0.0209     -0.010     -0.184     -0.266         49 5.5934e+01   996.5271 0.0000e+00
     -0.178    26.9353     6.5575     82.232  27.818373     26.759      7.599   250.1109     0.6947     0.8422     0.0209     -0.007     -0.177     -0.256         50 5.6266e+01   996.5316 0.0000e+00
     -0.173    26.9357     6.5949     82.681  27.728572     26.669      7.586   250.1109     0.7252     0.8422     0.0208     -0.003     -0.173     -0.251         51 5.6548e+01   996.5410 0.0000e+00
     -0.177    26.9391     6.6282     83.107  27.711238     26.682      7.570   250.6031     0.7481     0.8133     0.0208     -0.000     -0.174     -0.252         52 5.6586e+01   996.5476 0.0000e+00
     -0.181    26.9315     6.6443     83.335  27.988061     26.923      7.567   250.9816     0.7176     0.8277     0.0209      0.002     -0.175     -0.253         53 5.6646e+01   996.5475 0.0000e+00
     -0.176    26.9222     6.6223     83.076  29.042919     27.943      7.563   250.8681     0.6985     0.8854     0.0213      0.005     -0.170     -0.246         54 5.6616e+01   996.5469 0.0000e+00
     -0.162    26.9334     6.5694     82.422  29.923612     28.860      7.532   251.7766     0.7176     0.9719     0.0217      0.012     -0.162     -0.235         55 5.6595e+01   996.5494 0.0000e+00
     -0.159    26.9565     6.5013     81.577  29.972900     28.812      7.459   252.7231     0.7176     0.8422     0.0217      0.014     -0.159     -0.231         56 5.6646e+01   996.5520 0.0000e+00
     -0.166    26.9674     6.4198     80.564  30.166552     29.074      7.429   252.2309     0.7176     0.8422     0.0218      0.011     -0.164     -0.237         57 5.6607e+01   996.5489 0.0000e+00
     -0.175    26.9668     6.3309     79.455  30.304735     29.142      7.409   252.7609     0.7100     0.8710     0.0218      0.006     -0.172     -0.249         58 5.6553e+01   996.5426 0.0000e+00
     -0.185    26.9622     6.2269     78.154  30.334175     29.189      7.401   253.4424     0.7748     0.8422     0.0218      0.000     -0.181     -0.262         59 5.7181e+01   996.5395 0.0000e+00
     -0.194    26.9504     6.1247     76.865  30.248410     29.109      7.410   252.8366     0.7672     1.0008     0.0218     -0.005     -0.187     -0.270         60 5.6967e+01   996.5396 0.0000e+00
     -0.192    26.9377     6.0360     75.739  29.730097     28.602      7.425   252.6852     0.7786     0.8710     0.0216     -0.010     -0.183     -0.265         61 5.5436e+01   996.5408 0.0000e+00
     -0.171    26.9435     5.9680     74.880  29.320233     28.205      7.407   253.6695     0.7748     0.8998     0.0214     -0.010     -0.169     -0.245         62 5.4734e+01   996.5440 0.0000e+00
     -0.154    26.9603     5.9338     74.443  29.188396     28.105      7.363   254.1616     0.7062     0.9864     0.0214     -0.005     -0.155     -0.226         63 5.4464e+01   996.5475 0.0000e+00
     -0.153    26.9720     5.9172     74.080  29.094323     27.994      7.350   254.8431     0.7100     0.8998     0.0214      0.004     -0.150     -0.219         64 5.4125e+01   996.5459 0.0000e+00
     -0.153    26.9786     5.9526     74.369  29.052196     27.958      7.350   255.0324     0.7252     0.8422     0.0213      0.013     -0.149     -0.216         65 5.4336e+01   996.5412 0.0000e+00
     -0.149    26.9854     6.0227     75.176  29.033452     27.925      7.347   255.1838     0.7214     0.8710     0.0213      0.021     -0.145     -0.211         66 5.4810e+01   996.5380 0.0000e+00
     -0.143    26.9906     6.1048     76.229  28.969529     27.867      7.336   254.8052     0.7634     0.8854     0.0213      0.026     -0.142     -0.206         67 5.5370e+01   996.5362 0.0000e+00
     -0.144    26.9965     6.2031     77.543  28.835514     27.730      7.312   255.9788     0.7710     0.9143     0.0213      0.026     -0.143     -0.208         68 5.4267e+01   996.5343 0.0000e+00
     -0.153    26.9983     6.3124     78.955  28.667014     27.566      7.304   255.2974     0.7748     0.9719     0.0212      0.017     -0.148     -0.213         69 5.3905e+01   996.5328 0.0000e+00
     -0.153    26.9957     6.4177     80.181  28.557138     27.456      7.291   255.3731     0.7710     0.8998     0.0212      0.007     -0.149     -0.215         70 5.2434e+01   996.5312 0.0000e+00
     -0.148    26.9839     6.4883     80.950  28.468662     27.373      7.276   255.4866     0.7596     0.8854     0.0211      0.002     -0.145     -0.210         71 5.2567e+01   996.5307 0.0000e+00
     -0.143    26.9843     6.5386     81.482  28.451272     27.349      7.261   256.1681     0.7596     0.8998     0.0211      0.002     -0.140     -0.204         72 5.0136e+01   996.5314 0.0000e+00
     -0.138    26.9694     6.5427     81.462  28.430669     27.354      7.247   257.3795     0.7748     0.8854     0.0211      0.004     -0.137     -0.199         73 4.4761e+01   996.5346 0.0000e+00
     -0.138    26.8621     6.5004     80.911  28.257326     27.168      7.204   256.5088     0.7825     0.9287     0.0210      0.004     -0.138     -0.201         74 5.0294e+01   996.5345 0.0000e+00
     -0.148    26.7433     6.4204     79.907  28.193040     27.118      7.165   257.0388     0.7710     0.8998     0.0210      0.002     -0.147     -0.213         75 5.3043e+01   996.5385 0.0000e+00
     -0.164    26.6954     6.3166     78.615  28.184838     27.178      7.148   257.3795     0.7748     0.8277     0.0210     -0.002     -0.160     -0.233         76 5.1299e+01   996.5678 0.0000e+00
     -0.180    26.7131     6.1966     77.122  28.208323     27.239      7.134   257.3416     0.7672     0.9864     0.0210     -0.009     -0.169     -0.247         77 5.1869e+01   996.6003 0.0000e+00
     -0.173    26.7766     6.0658     75.494  28.282342     27.374      7.115   257.9095     0.7748     0.9575     0.0210     -0.015     -0.167     -0.243         78 5.1631e+01   996.6134 0.0000e+00
     -0.159    26.8043     5.9093     73.555  28.211231     27.255      7.088   258.5152     0.7748     0.9143     0.0210     -0.016     -0.158     -0.230         79 5.1654e+01   996.6086 0.0000e+00
     -0.156    26.7460     5.7904     72.084  28.119082     27.168      7.063   258.5152     0.7024     0.8854     0.0210     -0.014     -0.152     -0.221         80 5.1171e+01   996.5913 0.0000e+00
     -0.151    26.6661     5.6703     70.581  28.041538     27.044      7.044   259.0074     0.7138     1.0152     0.0209     -0.009     -0.147     -0.214         81 5.0597e+01   996.5837 0.0000e+00
     -0.144    26.6021     5.5737     69.350  28.070751     27.130      7.027   258.8559     0.7100     0.8710     0.0210      0.000     -0.142     -0.206         82 5.0206e+01   996.5996 0.0000e+00
     -0.139    26.5550     5.4908     68.291  28.082743     27.172      7.010   259.1588     0.7062     0.8422     0.0210      0.011     -0.138     -0.200         83 5.0612e+01   996.6215 0.0000e+00
     -0.140    26.5367     5.4118     67.296  28.026642     27.152      6.994   259.4995     0.6833     0.8566     0.0209      0.019     -0.136     -0.197         84 5.1240e+01   996.6388 0.0000e+00
     -0.136    26.5311     5.3475     66.492  28.081350     27.231      6.971   259.6131     0.6871     0.8710     0.0210      0.021     -0.134     -0.194         85 5.0561e+01   996.6515 0.0000e+00
     -0.133    26.5312     5.2917     65.787  28.133165     27.294      6.956   259.4617     0.7291     0.8998     0.0210      0.018     -0.132     -0.192         86 4.9479e+01   996.6566 0.0000e+00
     -0.138    26.5311     5.2431     65.165  28.139899     27.297      6.941   259.7267     0.7291     0.8854     0.0210      0.012     -0.136     -0.197         87 4.9738e+01   996.6581 0.0000e+00
     -0.145    26.5314     5.1904     64.494  28.072971     27.243      6.905   259.9159     0.6909     0.8998     0.0210      0.007     -0.142     -0.206         88 4.9923e+01   996.6581 0.0000e+00
     -0.152    26.5384     5.1480     63.960  27.979480     27.135      6.873   259.9917     0.7138     1.0008     0.0209      0.000     -0.147     -0.213         89 4.9998e+01   996.6580 0.0000e+00
     -0.151    26.5452     5.1032     63.395  27.960029     27.135      6.856   260.2188     0.7519     1.0296     0.0209     -0.005     -0.147     -0.213         90 5.0068e+01   996.6578 0.0000e+00
     -0.145    26.5389     5.0643     62.903  27.978689     27.131      6.850   260.4081     0.7329     1.0296     0.0209     -0.007     -0.144     -0.208         91 4.9882e+01   996.6560 0.0000e+00
     -0.145    26.5164     5.0221     62.371  27.956256     27.127      6.847   260.4459     0.7024     0.8422     0.0209     -0.006     -0.144     -0.208         92 4.9659e+01   996.6542 0.0000e+00
     -0.151    26.4941     4.9796     61.840  27.899082     27.049      6.843   260.9381     0.7672     0.9719     0.0209     -0.008     -0.147     -0.213         93 4.9617e+01   996.6558 0.0000e+00
     -0.153    26.4835     4.9500     61.468  27.960978     27.142      6.838   261.6195     0.7825     0.9575     0.0209     -0.008     -0.149     -0.216         94 4.9731e+01   996.6619 0.0000e+00
     -0.150    26.4793     4.9162     61.041  27.968097     27.154      6.826   261.5438     0.7825     1.0296     0.0209     -0.004     -0.147     -0.214         95 4.9801e+01   996.6680 0.0000e+00
     -0.147    26.4701     4.8882     60.682  27.890230     27.079      6.813   261.8088     0.7519     0.8854     0.0209     -0.001     -0.146     -0.211         96 4.9779e+01   996.6709 0.0000e+00
     -0.148    26.4545     4.8634     60.365  27.880158     27.081      6.795   262.4145     0.8511     0.8566     0.0209      0.001     -0.146     -0.211         97 4.9839e+01   996.6720 0.0000e+00
     -0.150    26.4420     4.8339     59.991  27.862146     27.058      6.786   262.6417     0.8359     0.8422     0.0209     -0.000     -0.147     -0.212         98 4.9909e+01   996.6745 0.0000e+00
     -0.150    26.4344     4.8089     59.675  27.883026     27.094      6.778   262.7552     0.8206     0.9431     0.0209     -0.002     -0.147     -0.213         99 4.9828e+01   996.6786 0.0000e+00
     -0.149    26.4276     4.7876     59.407  27.883801     27.100      6.772   263.0960     0.8664     0.8710     0.0209     -0.000     -0.147     -0.213        100 4.9881e+01   996.6821 0.0000e+00
     -0.150    26.4199     4.7726     59.216  27.831563     27.050      6.765   263.3988     0.8321     0.7989     0.0209      0.001     -0.148     -0.214        101 4.9968e+01   996.6841 0.0000e+00
     -0.151    26.4137     4.7518     58.948  27.829550     27.054      6.763   263.8152     0.8206     0.7701     0.0209     -0.000     -0.149     -0.215        102 5.0006e+01   996.6859 0.0000e+00
     -0.153    26.4106     4.7346     58.726  27.827068     27.058      6.759   263.9667     0.8397     0.9719     0.0209     -0.002     -0.149     -0.216        103 5.0040e+01   996.6880 0.0000e+00
     -0.151    26.4063     4.7154     58.481  27.834658     27.061      6.750   264.3831     0.8282     1.0152     0.0209     -0.002     -0.148     -0.215        104 5.0028e+01   996.6896 0.0000e+00
     -0.150    26.3987     4.6975     58.252  27.820105     27.062      6.744   264.4967     0.7672     0.8710     0.0209     -0.001     -0.148     -0.215        105 4.9952e+01   996.6905 0.0000e+00
     -0.151    26.3898     4.6883     58.129  27.785935     27.010      6.740   264.5345     0.7519     0.8422     0.0208     -0.001     -0.148     -0.215        106 4.9930e+01   996.6916 0.0000e+00
     -0.151    26.3816     4.6724     57.925  27.758698     27.014      6.729   264.8374     0.7710     0.8998     0.0208     -0.001     -0.149     -0.215        107 4.9988e+01   996.6937 0.0000e+00
     -0.152    26.3744     4.6631     57.801  27.735519     26.965      6.723   264.8374     0.7748     0.8422     0.0208     -0.001     -0.149     -0.215        108 5.0051e+01   996.6961 0.0000e+00
     -0.151    26.3693     4.6547     57.689  27.755542     27.023      6.719   265.4431     0.8206     0.9864     0.0208     -0.000     -0.148     -0.215        109 5.0080e+01   996.6983 0.0000e+00
     -0.150    26.3654     4.6426     57.533  27.793025     27.027      6.720   265.7081     0.8549     0.7845     0.0208      0.000     -0.147     -0.213        110 4.9986e+01   996.7003 0.0000e+00
     -0.147    26.3597     4.6398     57.495  27.807361     27.084      6.721   266.1245     0.8244     0.8422     0.0208      0.001     -0.145     -0.211        111 4.9995e+01   996.7017 0.0000e+00
     -0.147    26.3515     4.6382     57.470  27.737703     26.978      6.720   266.2381     0.8282     0.8710     0.0208      0.002     -0.144     -0.209        112 5.0138e+01   996.7026 0.0000e+00
     -0.147    26.3429     4.6316     57.381  27.701985     26.981      6.716   266.2381     0.8473     0.9431     0.0208      0.002     -0.144     -0.209        113 5.0175e+01   996.7041 0.0000e+00
     -0.147    26.3359     4.6250     57.294  27.733328     26.985      6.715   265.9731     0.9084     0.8998     0.0208      0.003     -0.145     -0.210        114 5.0142e+01   996.7064 0.0000e+00
     -0.147    26.3294     4.6198     57.221  27.698700     26.989      6.707   266.7681     0.8740     0.7845     0.0208      0.003     -0.145     -0.210        115 5.0074e+01   996.7087 0.0000e+00
     -0.147    26.3222     4.6123     57.121  27.685839     26.939      6.703   266.8817     0.9160     0.9287     0.0208      0.002     -0.144     -0.209        116 5.0054e+01   996.7106 0.0000e+00
     -0.146    26.3149     4.6127     57.121  27.749337     27.051      6.701   267.1467     0.8816     1.0008     0.0208      0.002     -0.143     -0.208        117 5.0042e+01   996.7124 0.0000e+00
     -0.145    26.3074     4.6149     57.144  27.738166     27.000      6.701   267.1088     0.8282     0.8277     0.0208      0.001     -0.143     -0.207        118 5.0066e+01   996.7143 0.0000e+00
     -0.145    26.2994     4.6152     57.142  27.699743     27.004      6.700   267.2224     0.8511     0.8710     0.0208      0.001     -0.142     -0.206        119 5.0322e+01   996.7162 0.0000e+00
     -0.145    26.2935     4.6224     57.224  27.678672     26.954      6.698   267.6010     0.8282     0.8277     0.0208      0.001     -0.141     -0.205        120 5.0492e+01   996.7183 0.0000e+00
     -0.142    26.2902     4.6224     57.216  27.705149     27.012      6.698   267.7903     0.8397     0.9287     0.0208      0.002     -0.139     -0.201        121 5.0453e+01   996.7205 0.0000e+00
     -0.137    26.2853     4.6205     57.185  27.726038     27.016      6.698   267.7524     0.8397     1.0440     0.0208      0.004     -0.135     -0.197        122 5.0360e+01   996.7220 0.0000e+00
     -0.136    26.2792     4.6177     57.141  27.711921     27.017      6.694   268.0553     0.8282     0.8710     0.0208      0.006     -0.134     -0.195        123 5.0342e+01   996.7230 0.0000e+00
     -0.137    26.2727     4.6232     57.204  27.722719     27.020      6.689   268.6988     0.8321     0.8854     0.0208      0.006     -0.135     -0.196        124 5.0428e+01   996.7243 0.0000e+00
     -0.138    26.2646     4.6194     57.151  27.653359     26.969      6.679   268.6610     0.8206     0.9287     0.0208      0.005     -0.136     -0.197        125 5.0460e+01   996.7259 0.0000e+00
     -0.139    26.2576     4.6188     57.138  27.620512     26.918      6.666   268.8503     0.8473     0.9143     0.0208      0.005     -0.136     -0.197        126 5.0429e+01   996.7276 0.0000e+00
     -0.139    26.2533     4.6174     57.113  27.645114     26.976      6.652   269.5317     0.8321     0.8566     0.0208      0.003     -0.136     -0.198        127 5.0409e+01   996.7298 0.0000e+00
     -0.140    26.2492     4.6180     57.116  27.622746     26.926      6.644   269.4560     0.8244     0.8710     0.0208      0.002     -0.137     -0.199        128 5.0473e+01   996.7317 0.0000e+00
     -0.140    26.2431     4.6199     57.135  27.648352     26.982      6.636   269.1531     0.8244     0.8277     0.0208     -0.000     -0.137     -0.199        129 5.0522e+01   996.7328 0.0000e+00
     -0.140    26.2359     4.6229     57.167  27.613250     26.930      6.636   269.3424     0.7825     0.8133     0.0208     -0.002     -0.137     -0.198        130 5.0487e+01   996.7339 0.0000e+00
     -0.139    26.2287     4.6282     57.226  27.607189     26.933      6.635   270.0238     0.7901     0.9431     0.0208     -0.002     -0.137     -0.198        131 5.0448e+01   996.7355 0.0000e+00
     -0.140    26.2210     4.6272     57.208  27.655896     26.991      6.632   269.9481     0.7786     0.8710     0.0208     -0.001     -0.137     -0.198        132 5.0467e+01   996.7374 0.0000e+00
     -0.138    26.2136     4.6284     57.217  27.611879     26.941      6.628   270.4024     0.7748     0.9287     0.0208     -0.000     -0.136     -0.197        133 5.0522e+01   996.7394 0.0000e+00
     -0.138    26.2077     4.6314     57.249  27.602727     26.945      6.630   270.1374     0.7748     0.8998     0.0208      0.000     -0.136     -0.197        134 5.0553e+01   996.7415 0.0000e+00
     -0.138    26.2021     4.6289     57.213  27.608046     26.949      6.631   270.3645     0.7672     0.8566     0.0208      0.001     -0.136     -0.197        135 5.0623e+01   996.7434 0.0000e+00
     -0.139    26.1960     4.6279     57.197  27.605263     26.952      6.632   270.4781     0.7634     0.8277     0.0208      0.001     -0.137     -0.198        136 5.0573e+01   996.7450 0.0000e+00
     -0.140    26.1897     4.6245     57.153  27.606193     26.955      6.628   271.0081     0.7519     0.9719     0.0208      0.000     -0.137     -0.198        137 5.0568e+01   996.7465 0.0000e+00
     -0.140    26.1848     4.6171     57.068  27.606890     26.958      6.632   270.9324     0.7672     0.8422     0.0208     -0.000     -0.137     -0.198        138 5.0616e+01   996.7481 0.0000e+00
     -0.140    26.1808     4.6159     57.076  27.604398     26.961      6.629   271.4624     0.8473     0.9719     0.0208     -0.000     -0.137     -0.198        139 5.0548e+01   996.7498 0.0000e+00
     -0.138    26.1757     4.6370     57.369  27.609296     26.964      6.627   271.2731     0.8473     0.8566     0.0208     -0.000     -0.136     -0.197        140 5.0630e+01   996.7512 0.0000e+00
     -0.138    26.1697     4.6868     57.993  27.600796     26.966      6.623   271.3488     0.8321     0.8422     0.0208     -0.000     -0.136     -0.197        141 5.0618e+01   996.7522 0.0000e+00
     -0.138    26.1639     4.7347     58.606  27.555736     26.914      6.626   271.8031     0.7977     0.8998     0.0207      0.000     -0.136     -0.197        142 5.0564e+01   996.7536 0.0000e+00
     -0.138    26.1586     4.7720     59.102  27.606132     26.972      6.627   271.7274     0.7748     0.9287     0.0208      0.001     -0.136     -0.197        143 5.0570e+01   996.7552 0.0000e+00
     -0.139    26.1535     4.7926     59.304  27.656567     27.029      6.622   271.8410     0.7672     0.9431     0.0208      0.001     -0.136     -0.197        144 5.0667e+01   996.7567 0.0000e+00
     -0.139    26.1488     4.8026     59.331  27.611459     26.978      6.618   272.0303     0.7634     0.9143     0.0208      0.001     -0.136     -0.197        145 5.0191e+01   996.7581 0.0000e+00
     -0.139    26.1450     4.7954     59.148  27.603026     26.980      6.621   271.7653     0.7939     0.8998     0.0208      0.000     -0.137     -0.198        146 4.9856e+01   996.7595 0.0000e+00
     -0.141    26.1436     4.7903     59.038  27.548577     26.928      6.628   271.8410     0.8359     0.9287     0.0207     -0.001     -0.137     -0.199        147 5.0908e+01   996.7607 0.0000e+00
     -0.140    26.1491     4.7871     58.986  27.560738     26.930      6.627   272.0681     0.8168     0.9143     0.0207     -0.001     -0.137     -0.199        148 5.2382e+01   996.7618 0.0000e+00
     -0.138    26.1712     4.8121     59.320  27.647137     27.040      6.608   272.1060     0.8321     0.8854     0.0208     -0.001     -0.135     -0.196        149 5.2379e+01   996.7622 0.0000e+00
     -0.136    26.2014     4.8692     60.076  27.678025     27.037      6.567   271.8410     0.7977     0.9719     0.0208      0.000     -0.133     -0.193        150 5.2019e+01   996.7607 0.0000e+00
     -0.134    26.2092     4.9458     61.029  27.700023     27.080      6.570   272.2574     0.7176     0.8133     0.0208      0.002     -0.130     -0.189        151 5.2020e+01   996.7548 0.0000e+00
     -0.129    26.2308     5.0243     61.924  27.678995     27.009      6.579   272.0681     0.7329     0.9143     0.0208      0.004     -0.124     -0.180        152 5.2197e+01   996.7468 0.0000e+00
     -0.116    26.2573     5.1062     62.882  27.644942     27.005      6.586   272.4467     0.6947     0.8998     0.0208      0.009     -0.111     -0.162        153 5.1370e+01   996.7446 0.0000e+00
     -0.095    26.2124     5.2179     64.238  27.564668     26.886      6.586   271.7653     0.7176     0.8998     0.0207      0.018     -0.091     -0.133        154 4.6107e+01   996.7390 0.0000e+00
     -0.068    26.1200     5.3451     65.803  27.541918     26.869      6.585   271.3488     0.6909     0.8566     0.0207      0.031     -0.069     -0.100        155 4.0960e+01   996.7320 0.0000e+00
     -0.049    26.0367     5.4666     67.305  27.554766     26.895      6.571   271.6517     0.7329     0.9287     0.0207      0.044     -0.050     -0.073        156 3.8752e+01   996.7441 0.0000e+00
     -0.039    25.9901     5.5677     68.593  27.548692     26.943      6.559   271.1595     0.7252     0.8710     0.0207      0.054     -0.037     -0.053        157 3.8291e+01   996.7689 0.0000e+00
     -0.023    25.9798     5.6652     69.915  27.549506     26.989      6.555   271.0081     0.7291     0.9575     0.0207      0.062     -0.023     -0.033        158 3.8616e+01   996.7912 0.0000e+00
     -0.008    26.0027     5.7532     71.207  27.613026     27.066      6.554   271.2731     0.7024     0.9431     0.0207      0.067     -0.005     -0.008        159 3.7549e+01   996.8036 0.0000e+00
      0.016    26.0505     5.7982     71.953  27.706632     27.182      6.560   270.7053     0.7786     0.8710     0.0208      0.070      0.019      0.027        160 3.4801e+01   996.8065 0.0000e+00
      0.050    26.0538     5.8023     72.193  27.669990     27.115      6.556   271.1974     0.7748     0.8998     0.0208      0.075      0.046      0.067        161 3.2756e+01   996.8005 0.0000e+00
      0.073    25.9945     5.7679     71.891  27.599376     27.035      6.552   271.2731     0.7672     0.7845     0.0207      0.078      0.071      0.102        162 3.2534e+01   996.7880 0.0000e+00
      0.092    25.9459     5.7250     71.434  27.616770     27.031      6.557   271.3110     0.7672     0.8854     0.0207      0.080      0.094      0.137        163 3.0255e+01   996.7871 0.0000e+00
      0.127    25.9310     5.6913     71.065  27.648344     27.120      6.558   271.5003     0.7748     0.9143     0.0208      0.088      0.123      0.178        164 2.7821e+01   996.8030 0.0000e+00
      0.157    25.9282     5.6749     70.915  27.619342     27.090      6.550   271.6517     0.7558     0.9431     0.0207      0.097      0.149      0.216        165 2.7247e+01   996.8161 0.0000e+00
      0.170    25.9366     5.6776     70.964  27.593637     27.099      6.542   271.7274     0.7825     0.8422     0.0207      0.100      0.167      0.242        166 2.6344e+01   996.8201 0.0000e+00
      0.185    25.9684     5.6815     71.018  27.621098     27.099      6.536   271.8410     0.7405     0.8998     0.0207      0.098      0.185      0.267        167 2.5984e+01   996.8210 0.0000e+00
      0.210    26.0675     5.6895     71.110  27.644410     27.151      6.534   271.8410     0.6985     0.9143     0.0208      0.094      0.205      0.298        168 2.6148e+01   996.8188 0.0000e+00
      0.232    26.2214     5.6831     70.997  27.683107     27.133      6.526   272.4467     0.7481     0.8133     0.0208      0.089      0.227      0.330        169 2.5908e+01   996.8104 0.0000e+00
      0.254    26.3722     5.6768     70.919  27.869141     27.301      6.517   272.9010     0.7176     0.9143     0.0209      0.087      0.249      0.361        170 2.5252e+01   996.7842 0.0000e+00
      0.277    26.5115     5.7192     71.523  27.916425     27.243      6.515   273.2038     0.7214     0.8133     0.0209      0.086      0.269      0.389        171 2.4792e+01   996.7432 0.0000e+00
      0.290    26.6129     5.9590     74.737  27.772316     27.030      6.507   273.5067     0.7672     0.8854     0.0208      0.080      0.285      0.413        172 2.4575e+01   996.7027 0.0000e+00
      0.307    26.6703     6.3724     80.127  27.722587     26.900      6.504   273.8853     0.7596     0.8710     0.0208      0.078      0.303      0.438        173 2.3741e+01   996.6653 0.0000e+00
      0.328    26.7144     6.8174     85.853  27.711669     26.849      6.502   274.3396     0.7672     0.8710     0.0208      0.079      0.323      0.468        174 2.2841e+01   996.6379 0.0000e+00
      0.351    26.7536     7.2111     90.893  27.667379     26.763      6.506   275.2860     0.7939     0.8710     0.0208      0.079      0.344      0.499        175 2.2365e+01   996.6223 0.0000e+00
      0.372    26.7683     7.5307     94.971  27.718437     26.796      6.511   275.3238     0.7672     0.7845     0.0208      0.077      0.367      0.532        176 2.1471e+01   996.6105 0.0000e+00
      0.401    26.7722     7.7622     97.921  27.707353     26.774      6.504   275.5131     0.8893     0.8710     0.0208      0.080      0.390      0.565        177 2.0717e+01   996.5999 0.0000e+00
      0.418    26.7641     7.8960     99.626  27.621916     26.660      6.492   276.1567     0.8969     0.8277     0.0208      0.081      0.406      0.589        178 2.0406e+01   996.5959 0.0000e+00
      0.424    26.7419     7.9198     99.937  27.587785     26.658      6.481   276.1188     0.9198     0.9719     0.0208      0.079      0.415      0.602        179 2.0281e+01   996.5949 0.0000e+00
      0.427    26.7392     7.8506     99.067  27.631342     26.661      6.472   276.3838     0.9122     0.8710     0.0208      0.074      0.423      0.614        180 2.0085e+01   996.5971 0.0000e+00
      0.444    26.8025     7.7464     97.750  27.804685     26.890      6.475   276.7246     0.8282     0.8277     0.0209      0.068      0.441      0.639        181 1.9384e+01   996.6033 0.0000e+00
      0.479    26.9560     7.6407     96.415  27.727526     26.782      6.479   277.2546     0.8473     0.8854     0.0208      0.066      0.468      0.679        182 1.8864e+01   996.6041 0.0000e+00
      0.510    27.1015     7.5594     95.390  27.668119     26.698      6.472   277.6710     0.8435     0.9287     0.0208      0.069      0.494      0.717        183 1.8678e+01   996.5871 0.0000e+00
      0.523    27.1863     7.4996     94.637  27.819347     26.777      6.454   277.5953     0.8511     1.0296     0.0209      0.070      0.512      0.743        184 1.8532e+01   996.5451 0.0000e+00
      0.535    27.2370     7.4546     94.070  27.835490     26.703      6.450   278.0874     0.7672     0.8422     0.0209      0.070      0.526      0.763        185 1.8463e+01   996.5050 0.0000e+00
      0.551    27.2663     7.4277     93.733  27.766464     26.606      6.456   278.3903     0.7939     0.9287     0.0209      0.073      0.542      0.786        186 1.8149e+01   996.4817 0.0000e+00
      0.572    27.2842     7.4155     93.583  27.727484     26.527      6.467   278.5417     0.7901     0.9287     0.0209      0.078      0.562      0.815        187 1.7679e+01   996.4677 0.0000e+00
      0.596    27.2939     7.4111     93.530  27.765493     26.566      6.458   278.6931     0.8206     0.9719     0.0209      0.081      0.580      0.841        188 1.7295e+01   996.4597 0.0000e+00
      0.603    27.2995     7.3992     93.381  27.719151     26.503      6.443   278.8067     0.7596     0.8422     0.0209      0.075      0.589      0.854        189 1.7109e+01   996.4547 0.0000e+00
      0.603    27.3012     7.3932     93.305  27.725906     26.498      6.445   279.1096     0.7901     0.9719     0.0209      0.063      0.592      0.859        190 1.6857e+01   996.4520 0.0000e+00
      0.607    27.3007     7.3902     93.269  27.816325     26.602      6.456   279.6017     0.7748     0.9719     0.0209      0.053      0.596      0.865        191 1.6282e+01   996.4505 0.0000e+00
      0.615    27.2997     7.3802     93.145  27.784352     26.548      6.460   279.5260     0.7748     0.9431     0.0209      0.047      0.602      0.874        192 1.6039e+01   996.4500 0.0000e+00
      0.618    27.3002     7.3722     93.045  27.765695     26.548      6.460   279.2610     0.8473     0.8133     0.0209      0.039      0.610      0.884        193 1.5708e+01   996.4502 0.0000e+00
      0.633    27.3010     7.3513     92.782  27.780302     26.549      6.460   279.4124     0.8511     0.8133     0.0209      0.033      0.625      0.906        194 1.5235e+01   996.4506 0.0000e+00
      0.661    27.3013     7.3468     92.727  27.766174     26.549      6.463   280.0181     0.8473     0.8566     0.0209      0.033      0.648      0.939        195 1.5009e+01   996.4505 0.0000e+00
      0.686    27.3032     7.3496     92.764  27.783276     26.548      6.462   279.9803     0.8359     0.9431     0.0209      0.039      0.670      0.971        196 1.4842e+01   996.4504 0.0000e+00
      0.703    27.3052     7.3516     92.792  27.818263     26.602      6.440   280.0939     0.8359     0.8133     0.0209      0.050      0.686      0.996        197 1.4623e+01   996.4505 0.0000e+00
      0.710    27.3066     7.3493     92.764  27.781878     26.547      6.417   280.0939     0.7481     0.8133     0.0209      0.059      0.698      1.013        198 1.4250e+01   996.4499 0.0000e+00
      0.722    27.3075     7.3541     92.826  27.769313     26.546      6.413   280.2074     0.7519     0.8422     0.0209      0.063      0.710      1.030        199 1.3915e+01   996.4494 0.0000e+00
      0.738    27.3078     7.3648     92.961  27.774655     26.545      6.429   280.1696     0.8015     0.9719     0.0209      0.065      0.724      1.051        200 1.3581e+01   996.4491 0.0000e+00
      0.755    27.3088     7.3673     92.991  27.775230     26.545      6.431   280.4346     0.7825     0.8277     0.0209      0.066      0.738      1.072        201 1.3325e+01   996.4489 0.0000e+00
      0.764    27.3100     7.3673     92.992  27.768599     26.545      6.429   280.4724     0.7634     0.8998     0.0209      0.061      0.752      1.092        202 1.3062e+01   996.4489 0.0000e+00
      0.786    27.3105     7.3514     92.787  27.782907     26.544      6.443   281.0781     0.7634     0.8277     0.0209      0.057      0.772      1.120        203 1.2760e+01   996.4487 0.0000e+00
      0.812    27.3111     7.3385     92.622  27.816665     26.597      6.439   280.6996     0.7596     0.8422     0.0209      0.058      0.794      1.152        204 1.2611e+01   996.4485 0.0000e+00
      0.830    27.3122     7.3391     92.624  27.785831     26.543      6.440   281.0024     0.7634     0.8710     0.0209      0.063      0.814      1.181        205 1.2429e+01   996.4484 0.0000e+00
      0.849    27.3134     7.3394     92.625  27.762037     26.543      6.445   281.3431     0.8816     0.8133     0.0209      0.069      0.833      1.208        206 1.2250e+01   996.4483 0.0000e+00
      0.867    27.3147     7.3300     92.507  27.787033     26.543      6.446   281.3810     0.9007     0.8710     0.0209      0.073      0.850      1.233        207 1.2035e+01   996.4481 0.0000e+00
      0.883    27.3158     7.3283     92.485  27.813966     26.595      6.452   281.6460     0.9045     0.8422     0.0209      0.074      0.869      1.260        208 1.1860e+01   996.4479 0.0000e+00
      0.910    27.3166     7.3346     92.566  27.787762     26.541      6.450   281.5703     0.8893     0.8998     0.0209      0.077      0.891      1.292        209 1.1668e+01   996.4476 0.0000e+00
      0.932    27.3160     7.3392     92.625  27.819645     26.594      6.450   281.9867     0.9885     1.1450     0.0209      0.080      0.910      1.320        210 1.1468e+01   996.4474 0.0000e+00
      0.942    27.3154     7.3489     92.745  27.833531     26.594      6.438   281.7217     0.9999     1.1450     0.0209      0.077      0.923      1.338        211 1.1406e+01   996.4473 0.0000e+00
      0.950    27.3152     7.3566     92.841  27.770479     26.541      6.435   281.5324     1.0266     1.1882     0.0209      0.072      0.933      1.353        212 1.1301e+01   996.4475 0.0000e+00
      0.962    27.3139     7.3575     92.855  27.779627     26.541      6.437   281.7974     1.0190     1.1161     0.0209      0.067      0.943      1.368        213 1.1265e+01   996.4477 0.0000e+00
      0.971    27.3115     7.3545     92.819  27.822149     26.594      6.443   281.4946     0.9236     1.2603     0.0209      0.062      0.954      1.384        214 1.1156e+01   996.4477 0.0000e+00
      0.986    27.3088     7.3554     92.832  27.776804     26.542      6.450   281.9489     0.9236     1.0873     0.0209      0.057      0.967      1.403        215 1.1029e+01   996.4482 0.0000e+00
      1.002    27.3072     7.3486     92.749  27.776814     26.543      6.447   282.0624     0.8969     1.0585     0.0209      0.053      0.980      1.422        216 1.0992e+01   996.4489 0.0000e+00
      1.009    27.3068     7.3456     92.712  27.822137     26.598      6.438   282.2896     0.8740     1.0585     0.0209      0.047      0.991      1.437        217 1.0909e+01   996.4498 0.0000e+00
      1.022    27.3073     7.3396     92.639  27.779645     26.545      6.438   282.4789     0.8969     1.1161     0.0209      0.045      1.002      1.453        218 1.0847e+01   996.4502 0.0000e+00
      1.033    27.3077     7.3339     92.569  27.770453     26.545      6.432   282.3653     0.9045     0.8133     0.0209      0.046      1.011      1.466        219 1.0793e+01   996.4504 0.0000e+00
      1.036    27.3080     7.3257     92.466  27.774333     26.545      6.421   282.5924     0.8893     0.8566     0.0209      0.045      1.015      1.472        220 1.0759e+01   996.4503 0.0000e+00
      1.035    27.3072     7.3324     92.548  27.774816     26.545      6.412   282.7439     0.8816     0.8422     0.0209      0.039      1.015      1.473        221 1.0720e+01   996.4501 0.0000e+00
      1.035    27.3063     7.3411     92.656  27.829095     26.598      6.408   282.5167     0.9045     0.8998     0.0209      0.032      1.019      1.478        222 1.0623e+01   996.4500 0.0000e+00
      1.049    27.3078     7.3459     92.718  27.825269     26.598      6.418   282.8953     0.8282     0.8710     0.0209      0.027      1.029      1.492        223 1.0542e+01   996.4503 0.0000e+00
      1.063    27.3091     7.3496     92.765  27.779578     26.546      6.424   283.2739     0.8435     0.8133     0.0209      0.026      1.040      1.509        224 1.0506e+01   996.4507 0.0000e+00
      1.070    27.3099     7.3584     92.876  27.767472     26.545      6.424   282.6682     0.8130     0.9431     0.0209      0.026      1.050      1.523        225 1.0448e+01   996.4502 0.0000e+00
      1.080    27.3115     7.3614     92.912  27.781092     26.544      6.432   282.8953     0.8321     0.8998     0.0209      0.027      1.060      1.538        226 1.0392e+01   996.4499 0.0000e+00
      1.094    27.3125     7.3629     92.929  27.821870     26.597      6.437   283.1603     0.8778     1.0008     0.0209      0.031      1.076      1.561        227 1.0274e+01   996.4498 0.0000e+00
      1.120    27.3136     7.3649     92.953  27.775967     26.543      6.443   283.2739     0.8359     0.9287     0.0209      0.041      1.098      1.593        228 1.0196e+01   996.4494 0.0000e+00
      1.144    27.3151     7.3628     92.925  27.778975     26.542      6.435   283.5389     0.8244     0.8133     0.0209      0.052      1.120      1.624        229 1.0164e+01   996.4492 0.0000e+00
      1.159    27.3153     7.3609     92.901  27.847748     26.622      6.437   283.3874     0.8321     0.7845     0.0209      0.060      1.138      1.649        230 1.0059e+01   996.4489 0.0000e+00
      1.176    27.3141     7.3555     92.834  27.838488     26.594      6.439   283.2739     1.0876     1.0873     0.0209      0.065      1.155      1.675        231 9.9244e+00   996.4487 0.0000e+00
      1.199    27.3131     7.3534     92.809  27.820120     26.594      6.435   283.4632     1.0724     1.1882     0.0209      0.070      1.175      1.704        232 9.8350e+00   996.4487 0.0000e+00
      1.219    27.3130     7.3497     92.764  27.781742     26.542      6.435   283.9174     1.0800     1.1161     0.0209      0.075      1.193      1.731        233 9.8417e+00   996.4491 0.0000e+00
      1.234    27.3136     7.3482     92.747  27.767764     26.542      6.431   284.3339     1.0762     1.0585     0.0209      0.077      1.207      1.751        234 9.8057e+00   996.4495 0.0000e+00
      1.241    27.3135     7.3515     92.789  27.778273     26.542      6.408   283.8039     0.8816     1.1017     0.0209      0.073      1.217      1.765        235 9.7632e+00   996.4495 0.0000e+00
      1.248    27.3126     7.3547     92.829  27.827906     26.595      6.406   284.2582     0.9160     1.0873     0.0209      0.065      1.226      1.777        236 9.7292e+00   996.4494 0.0000e+00
      1.261    27.3115     7.3653     92.964  27.824481     26.595      6.412   284.0689     0.9122     1.0873     0.0209      0.059      1.236      1.792        237 9.6878e+00   996.4495 0.0000e+00
      1.270    27.3105     7.3743     93.077  27.782534     26.542      6.418   284.4096     0.8969     1.0296     0.0209      0.054      1.246      1.807        238 9.6616e+00   996.4498 0.0000e+00
      1.279    27.3098     7.3739     93.073  27.820866     26.596      6.423   284.2582     0.9122     1.1594     0.0209      0.047      1.258      1.824        239 9.5853e+00   996.4502 0.0000e+00
      1.298    27.3098     7.3655     92.966  27.836022     26.597      6.431   284.4853     0.8359     0.8998     0.0209      0.044      1.274      1.848        240 9.5109e+00   996.4505 0.0000e+00
      1.320    27.3105     7.3543     92.822  27.822916     26.597      6.431   284.9774     0.8282     0.8566     0.0209      0.045      1.293      1.875        241 9.4640e+00   996.4508 0.0000e+00
      1.336    27.3112     7.3512     92.782  27.777933     26.544      6.432   284.7882     0.8473     0.7845     0.0209      0.050      1.310      1.900        242 9.4159e+00   996.4509 0.0000e+00
      1.352    27.3124     7.3443     92.695  27.773517     26.543      6.433   284.9017     0.8244     0.9287     0.0209      0.056      1.325      1.924        243 9.3402e+00   996.4507 0.0000e+00
      1.369    27.3137     7.3406     92.648  27.828413     26.597      6.426   285.2046     0.8969     0.9287     0.0209      0.061      1.340      1.944        244 9.2906e+00   996.4506 0.0000e+00
      1.378    27.3140     7.3289     92.496  27.828103     26.596      6.416   284.9774     0.9122     0.8998     0.0209      0.062      1.350      1.959        245 9.2921e+00   996.4503 0.0000e+00
      1.385    27.3141     7.3274     92.476  27.773902     26.542      6.410   284.8260     0.8893     0.7412     0.0209      0.061      1.359      1.971        246 9.2513e+00   996.4500 0.0000e+00
      1.395    27.3142     7.3296     92.502  27.777379     26.542      6.405   285.4317     0.8893     0.8422     0.0209      0.057      1.366      1.981        247 9.2019e+00   996.4499 0.0000e+00
      1.397    27.3141     7.3286     92.488  27.823777     26.595      6.386   284.9017     0.9045     0.8854     0.0209      0.049      1.371      1.989        248 9.1681e+00   996.4499 0.0000e+00
      1.403    27.3140     7.3316     92.524  27.834647     26.595      6.384   284.9774     0.9084     0.8710     0.0209      0.040      1.379      2.001        249 9.1193e+00   996.4499 0.0000e+00
      1.420    27.3138     7.3270     92.462  27.852716     26.622      6.398   285.2424     0.9045     0.8422     0.0209      0.037      1.394      2.022        250 9.0812e+00   996.4500 0.0000e+00
      1.442    27.3123     7.3266     92.456  27.830911     26.595      6.412   285.0532     0.8816     0.8422     0.0209      0.037      1.413      2.050        251 9.0390e+00   996.4502 0.0000e+00
      1.461    27.3113     7.3231     92.411  27.832161     26.595      6.419   285.0532     0.8969     0.9575     0.0209      0.042      1.433      2.079        252 8.9654e+00   996.4503 0.0000e+00
      1.483    27.3118     7.3218     92.391  27.821538     26.596      6.426   285.4696     0.8969     0.9719     0.0209      0.050      1.454      2.109        253 8.8996e+00   996.4508 0.0000e+00
      1.504    27.3113     7.3241     92.419  27.784888     26.543      6.426   285.5074     0.9122     1.0008     0.0209      0.059      1.475      2.139        254 8.8349e+00   996.4512 0.0000e+00
      1.525    27.3093     7.3334     92.539  27.818530     26.596      6.428   285.6589     0.8969     0.9287     0.0209      0.068      1.496      2.169        255 8.7725e+00   996.4511 0.0000e+00
      1.545    27.3082     7.3430     92.656  27.838916     26.596      6.424   285.5453     0.9274     0.8998     0.0209      0.076      1.516      2.198        256 8.7359e+00   996.4514 0.0000e+00
      1.565    27.3076     7.3525     92.774  27.818761     26.598      6.414   286.1132     0.8969     0.8710     0.0209      0.081      1.533      2.224        257 8.6806e+00   996.4520 0.0000e+00
      1.579    27.3066     7.3674     92.963  27.784369     26.545      6.402   285.9617     0.9084     0.8998     0.0209      0.080      1.548      2.245        258 8.6880e+00   996.4524 0.0000e+00
      1.590    27.3048     7.3738     93.043  27.822473     26.598      6.400   285.8103     0.8931     0.8133     0.0209      0.075      1.560      2.262        259 8.6710e+00   996.4526 0.0000e+00
      1.602    27.3031     7.3737     93.042  27.830585     26.599      6.403   286.2646     0.8893     0.8133     0.0209      0.070      1.570      2.277        260 8.5079e+00   996.4529 0.0000e+00
      1.611    27.3024     7.3681     92.972  27.833517     26.600      6.407   286.1132     0.9007     0.8998     0.0209      0.063      1.579      2.290        261 8.4831e+00   996.4535 0.0000e+00
      1.617    27.3019     7.3598     92.865  27.818824     26.601      6.407   286.1132     0.9045     0.9719     0.0209      0.055      1.587      2.301        262 8.4879e+00   996.4540 0.0000e+00
      1.626    27.3000     7.3456     92.683  27.789629     26.548      6.403   286.0374     0.8931     0.9719     0.0209      0.048      1.599      2.318        263 8.3653e+00   996.4542 0.0000e+00
      1.648    27.2993     7.3398     92.605  27.840231     26.628      6.404   286.1889     0.9045     0.8710     0.0209      0.045      1.617      2.344        264 8.2922e+00   996.4544 0.0000e+00
      1.670    27.3003     7.3257     92.422  27.844715     26.602      6.406   286.3403     1.0037     1.0440     0.0209      0.047      1.639      2.376        265 8.2430e+00   996.4550 0.0000e+00
      1.695    27.2984     7.3199     92.345  27.813670     26.603      6.406   286.5296     1.0419     1.1161     0.0209      0.053      1.659      2.406        266 8.1698e+00   996.4554 0.0000e+00
      1.712    27.2967     7.3199     92.347  27.790002     26.549      6.385   286.8324     1.0495     1.1161     0.0209      0.060      1.673      2.426        267 8.1657e+00   996.4552 0.0000e+00
      1.709    27.2971     7.3155     92.290  27.814926     26.603      6.366   286.6810     1.0075     1.0440     0.0209      0.061      1.676      2.430        268 8.2030e+00   996.4556 0.0000e+00
      1.705    27.2973     7.3095     92.214  27.841895     26.604      6.378   286.6810     0.8969     0.9864     0.0209      0.057      1.676      2.430        269 8.1811e+00   996.4561 0.0000e+00
      1.714    27.2978     7.3091     92.207  27.845305     26.630      6.395   286.7946     0.8778     0.8133     0.0209      0.052      1.682      2.440        270 8.1946e+00   996.4560 0.0000e+00
      1.726    27.2975     7.3104     92.221  27.840305     26.604      6.409   287.0596     0.9045     0.9287     0.0209      0.045      1.693      2.456        271 8.2274e+00   996.4560 0.0000e+00
      1.738    27.2965     7.3129     92.251  27.818496     26.603      6.424   286.9839     0.9236     0.8566     0.0209      0.037      1.707      2.477        272 8.2136e+00   996.4560 0.0000e+00
      1.761    27.2947     7.3171     92.304  27.783581     26.550      6.434   287.2489     0.8969     0.8854     0.0209      0.034      1.725      2.502        273 8.1783e+00   996.4561 0.0000e+00
      1.778    27.2916     7.3151     92.278  27.824514     26.604      6.430   287.2110     0.9084     0.9287     0.0209      0.037      1.742      2.526        274 8.1479e+00   996.4564 0.0000e+00
      1.788    27.2885     7.3163     92.293  27.826799     26.605      6.426   287.4003     0.8931     0.9431     0.0209      0.042      1.755      2.546        275 8.1115e+00   996.4570 0.0000e+00
      1.804    27.2870     7.3161     92.289  27.780738     26.553      6.424   287.1732     0.9122     0.8710     0.0209      0.052      1.770      2.568        276 8.0274e+00   996.4580 0.0000e+00
      1.824    27.2869     7.3166     92.297  27.822594     26.608      6.426   287.1732     0.9732     1.1594     0.0209      0.060      1.787      2.591        277 7.9656e+00   996.4590 0.0000e+00
      1.837    27.2869     7.3189     92.326  27.833954     26.609      6.413   287.4003     0.9160     1.1450     0.0209      0.062      1.799      2.608        278 7.9430e+00   996.4594 0.0000e+00
      1.841    27.2866     7.3191     92.327  27.825845     26.609      6.399   287.4382     0.9618     1.0585     0.0209      0.060      1.804      2.616        279 7.8884e+00   996.4594 0.0000e+00
      1.841    27.2857     7.3194     92.332  27.832686     26.609      6.392   287.3246     0.9389     1.1882     0.0209      0.053      1.805      2.618        280 7.8582e+00   996.4594 0.0000e+00
      1.839    27.2839     7.3244     92.394  27.825440     26.609      6.404   287.3624     0.9770     1.0296     0.0209      0.042      1.805      2.618        281 7.8453e+00   996.4595 0.0000e+00
      1.842    27.2827     7.3289     92.451  27.834863     26.609      6.414   287.5139     0.8969     0.8133     0.0209      0.033      1.808      2.622        282 7.8023e+00   996.4598 0.0000e+00
      1.850    27.2824     7.3345     92.521  27.850582     26.637      6.422   287.5896     0.8740     0.7268     0.0209      0.026      1.814      2.632        283 7.7583e+00   996.4603 0.0000e+00
      1.858    27.2822     7.3356     92.535  27.835501     26.611      6.424   287.5896     0.9045     0.8566     0.0209      0.020      1.823      2.645        284 7.7119e+00   996.4607 0.0000e+00
      1.871    27.2821     7.3332     92.505  27.824011     26.611      6.433   287.5517     0.9236     0.9287     0.0209      0.018      1.835      2.662        285 7.6835e+00   996.4608 0.0000e+00
      1.884    27.2819     7.3341     92.517  27.835259     26.611      6.433   287.8925     0.9465     0.8710     0.0209      0.021      1.849      2.681        286 7.6478e+00   996.4610 0.0000e+00
      1.900    27.2822     7.3400     92.592  27.821503     26.611      6.437   288.3467     0.9503     0.8710     0.0209      0.029      1.866      2.705        287 7.5955e+00   996.4610 0.0000e+00
      1.922    27.2823     7.3424     92.623  27.781887     26.558      6.434   287.9682     0.9541     0.8998     0.0209      0.040      1.884      2.732        288 7.5639e+00   996.4611 0.0000e+00
      1.939    27.2821     7.3391     92.582  27.825317     26.611      6.430   288.3089     0.9694     0.8710     0.0209      0.050      1.900      2.756        289 7.5535e+00   996.4612 0.0000e+00
      1.951    27.2820     7.3334     92.508  27.856319     26.638      6.423   288.6496     0.9122     1.1017     0.0209      0.056      1.911      2.772        290 7.5376e+00   996.4612 0.0000e+00
      1.955    27.2814     7.3275     92.427  27.832170     26.611      6.400   288.2332     0.8816     1.0873     0.0209      0.057      1.918      2.782        291 7.5492e+00   996.4613 0.0000e+00
      1.962    27.2812     7.3210     92.335  27.825749     26.611      6.390   288.1196     0.8893     1.0873     0.0209      0.055      1.926      2.794        292 7.5599e+00   996.4613 0.0000e+00
      1.977    27.2815     7.3140     92.243  27.834689     26.612      6.395   288.5360     0.9160     1.1306     0.0209      0.052      1.937      2.809        293 7.5004e+00   996.4615 0.0000e+00
      1.986    27.2817     7.2961     92.012  27.821044     26.612      6.391   288.7253     0.8893     0.8710     0.0209      0.048      1.946      2.822        294 7.5164e+00   996.4616 0.0000e+00
      1.990    27.2818     7.2845     91.861  27.783487     26.558      6.387   288.5739     0.9045     0.8998     0.0209      0.041      1.952      2.831        295 7.5190e+00   996.4616 0.0000e+00
      1.995    27.2820     7.2687     91.660  27.822185     26.611      6.387   288.3846     0.9160     0.8998     0.0209      0.035      1.960      2.843        296 7.4343e+00   996.4615 0.0000e+00
      2.013    27.2825     7.2519     91.451  27.861749     26.638      6.397   288.8010     0.9274     0.8710     0.0209      0.034      1.974      2.864        297 7.4069e+00   996.4616 0.0000e+00
      2.031    27.2830     7.2519     91.454  27.823116     26.611      6.407   288.5360     0.7748     0.7845     0.0209      0.038      1.991      2.888        298 7.3410e+00   996.4617 0.0000e+00
      2.046    27.2831     7.2602     91.558  27.781400     26.558      6.409   288.6496     0.7672     0.7989     0.0209      0.043      2.007      2.910        299 7.2778e+00   996.4616 0.0000e+00
      2.062    27.2820     7.2726     91.718  27.824800     26.611      6.419   288.7632     0.7672     0.8422     0.0209      0.047      2.022      2.933        300 7.2333e+00   996.4615 0.0000e+00
      2.078    27.2779     7.2877     91.911  27.828347     26.611      6.416   288.8767     0.8015     0.8566     0.0209      0.051      2.037      2.955        301 7.1223e+00   996.4615 0.0000e+00
      2.093    27.2726     7.2999     92.067  27.836227     26.611      6.416   289.4446     0.7634     0.9719     0.0209      0.056      2.049      2.973        302 7.0831e+00   996.4619 0.0000e+00
      2.098    27.2695     7.3169     92.284  27.844615     26.640      6.387   288.9525     0.8473     0.9287     0.0209      0.058      2.057      2.984        303 7.1138e+00   996.4630 0.0000e+00
      2.104    27.2665     7.3198     92.320  27.788290     26.563      6.385   289.4067     0.8244     0.8277     0.0209      0.055      2.064      2.993        304 7.0890e+00   996.4646 0.0000e+00
      2.113    27.2635     7.3310     92.461  27.817462     26.618      6.384   289.5582     0.8359     0.8422     0.0209      0.049      2.070      3.003        305 7.0814e+00   996.4655 0.0000e+00
      2.116    27.2627     7.3277     92.418  27.837935     26.619      6.378   289.4067     0.8397     0.8998     0.0209      0.042      2.074      3.009        306 7.0843e+00   996.4664 0.0000e+00
      2.117    27.2640     7.3287     92.423  27.822055     26.621      6.375   289.4825     0.9579     0.9287     0.0209      0.034      2.076      3.011        307 7.0677e+00   996.4672 0.0000e+00
      2.118    27.2653     7.3150     92.243  27.777981     26.568      6.376   289.4825     0.9618     0.9431     0.0209      0.026      2.078      3.015        308 7.0926e+00   996.4674 0.0000e+00
      2.123    27.2659     7.2992     92.035  27.774299     26.567      6.384   289.5960     0.9923     1.0008     0.0209      0.020      2.083      3.021        309 7.0614e+00   996.4670 0.0000e+00
      2.132    27.2677     7.2904     91.918  27.856258     26.646      6.394   289.8610     0.9465     0.8710     0.0209      0.017      2.088      3.030        310 7.0387e+00   996.4667 0.0000e+00
      2.134    27.2694     7.2901     91.907  27.824091     26.620      6.398   289.5203     0.9084     0.8998     0.0209      0.016      2.093      3.036        311 7.0514e+00   996.4665 0.0000e+00
      2.137    27.2707     7.2842     91.827  27.784710     26.565      6.402   289.7853     0.9084     0.8710     0.0209      0.015      2.097      3.042        312 7.0246e+00   996.4660 0.0000e+00
      2.145    27.2720     7.2857     91.840  27.816402     26.618      6.414   290.0125     0.8855     0.8422     0.0209      0.015      2.107      3.055        313 7.0095e+00   996.4657 0.0000e+00
      2.163    27.2718     7.2952     91.950  27.784649     26.564      6.426   290.0503     0.9007     0.8998     0.0209      0.021      2.122      3.079        314 6.9471e+00   996.4653 0.0000e+00
      2.186    27.2716     7.3054     92.052  27.824225     26.616      6.427   290.2396     0.9427     0.8422     0.0209      0.030      2.142      3.107        315 6.8797e+00   996.4651 0.0000e+00
      2.204    27.2705     7.3107     92.085  27.885636     26.670      6.431   290.3153     0.9579     0.8277     0.0209      0.039      2.162      3.135        316 6.8372e+00   996.4653 0.0000e+00
      2.223    27.2668     7.3143     92.107  27.856332     26.643      6.429   290.0882     0.9312     0.9287     0.0209      0.049      2.182      3.164        317 6.7576e+00   996.4654 0.0000e+00
      2.249    27.2621     7.3185     92.133  27.831073     26.617      6.420   290.0882     0.9389     0.8566     0.0209      0.060      2.204      3.197        318 6.6891e+00   996.4657 0.0000e+00
      2.270    27.2568     7.3273     92.214  27.828207     26.619      6.418   290.3153     0.9846     0.8422     0.0209      0.070      2.226      3.229        319 6.5836e+00   996.4670 0.0000e+00
      2.293    27.2522     7.3339     92.259  27.830278     26.621      6.412   290.6182     0.9618     0.8133     0.0209      0.079      2.247      3.259        320 6.5058e+00   996.4684 0.0000e+00
      2.313    27.2490     7.3315     92.184  27.828498     26.624      6.401   290.1639     0.9389     0.9431     0.0209      0.083      2.267      3.288        321 6.4826e+00   996.4699 0.0000e+00
      2.331    27.2455     7.3063     91.825  27.830424     26.626      6.400   290.2396     0.9694     0.8566     0.0209      0.084      2.287      3.317        322 6.3889e+00   996.4712 0.0000e+00
      2.355    27.2416     7.2652     91.291  27.827883     26.628      6.395   290.5046     0.9236     0.9431     0.0209      0.084      2.307      3.346        323 6.3219e+00   996.4722 0.0000e+00
      2.372    27.2354     7.2131     90.649  27.772419     26.576      6.376   290.6560     0.9732     1.1306     0.0209      0.083      2.324      3.371        324 6.3008e+00   996.4732 0.0000e+00
      2.383    27.2194     7.1665     90.032  27.780964     26.579      6.371   290.8832     0.9885     1.0585     0.0209      0.079      2.339      3.392        325 6.2436e+00   996.4744 0.0000e+00
      2.401    27.1992     7.1193     89.387  27.817250     26.635      6.374   291.0725     0.9465     1.0585     0.0209      0.075      2.355      3.415        326 6.1958e+00   996.4763 0.0000e+00
      2.416    27.1843     7.0797     88.871  27.786506     26.590      6.381   290.7317     0.9579     1.1594     0.0209      0.071      2.373      3.441        327 6.1443e+00   996.4807 0.0000e+00
      2.441    27.1686     7.0607     88.642  27.759987     26.600      6.388   291.0725     1.0457     1.0729     0.0209      0.070      2.394      3.473        328 6.0893e+00   996.4864 0.0000e+00
      2.467    27.1498     7.0393     88.378  27.791018     26.608      6.392   290.8832     0.9923     1.1594     0.0209      0.072      2.417      3.506        329 6.0627e+00   996.4906 0.0000e+00
      2.485    27.1272     7.0316     88.285  27.836761     26.696      6.401   291.3753     0.9999     1.0873     0.0209      0.074      2.436      3.534        330 6.0233e+00   996.4950 0.0000e+00
      2.501    27.1007     7.0293     88.224  27.910418     26.732      6.400   291.1482     1.0190     1.1594     0.0209      0.074      2.452      3.556        331 5.9881e+00   996.5003 0.0000e+00
      2.514    27.0746     7.0327     88.190  27.995576     26.878      6.403   291.1482     0.9694     1.1882     0.0210      0.075      2.466      3.576        332 5.9406e+00   996.5067 0.0000e+00
      2.528    27.0656     7.0263     88.024  27.997387     26.838      6.404   291.4132     0.9541     1.1306     0.0209      0.074      2.479      3.596        333 5.9378e+00   996.5141 0.0000e+00
      2.541    27.0708     7.0109     87.678  27.997040     26.905      6.404   291.4510     0.9618     1.1450     0.0210      0.070      2.493      3.617        334 5.8925e+00   996.5213 0.0000e+00
      2.559    27.0523     6.9687     86.996  27.996017     26.857      6.406   291.5646     0.9808     1.0585     0.0209      0.067      2.512      3.644        335 5.7907e+00   996.5239 0.0000e+00
      2.587    27.0198     6.9087     86.153  28.117152     27.014      6.410   291.7539     1.0228     0.8998     0.0210      0.065      2.535      3.677        336 5.8035e+00   996.5226 0.0000e+00
      2.608    27.0086     6.8585     85.477  28.142511     27.024      6.411   292.0189     1.0342     0.9143     0.0210      0.066      2.556      3.707        337 5.7722e+00   996.5278 0.0000e+00
      2.624    27.0132     6.8125     84.855  28.023709     26.933      6.417   292.0189     1.0457     0.9143     0.0210      0.069      2.572      3.730        338 5.6931e+00   996.5367 0.0000e+00
      2.636    27.0169     6.7830     84.425  28.028032     26.939      6.413   292.1325     1.0037     0.9719     0.0210      0.070      2.583      3.747        339 5.6884e+00   996.5399 0.0000e+00
      2.643    27.0193     6.7637     84.137  28.077892     26.990      6.404   291.9432     0.9999     1.1738     0.0210      0.069      2.593      3.761        340 5.6866e+00   996.5388 0.0000e+00
      2.655    26.9975     6.7529     83.968  28.080148     26.989      6.407   291.9053     1.0381     1.1738     0.0210      0.066      2.605      3.780        341 5.6526e+00   996.5378 0.0000e+00
      2.675    26.9516     6.7385     83.750  28.143711     27.041      6.414   292.2082     0.9923     1.1450     0.0210      0.063      2.623      3.806        342 5.5888e+00   996.5372 0.0000e+00
      2.696    26.8941     6.7284     83.585  28.235767     27.159      6.418   292.5489     1.0228     1.1450     0.0210      0.061      2.645      3.837        343 5.5177e+00   996.5433 0.0000e+00
      2.723    26.7994     6.7102     83.315  28.202571     27.131      6.421   292.5110     1.0075     1.1017     0.0210      0.061      2.669      3.871        344 5.4670e+00   996.5560 0.0000e+00
      2.745    26.7013     6.7043     83.183  28.185038     27.159      6.423   292.9653     1.0190     1.1017     0.0210      0.065      2.689      3.901        345 5.4319e+00   996.5719 0.0000e+00
      2.758    26.6408     6.7049     83.160  28.198367     27.210      6.421   293.1925     1.0533     1.1594     0.0210      0.070      2.703      3.921        346 5.4143e+00   996.5979 0.0000e+00
      2.767    26.6073     6.7107     83.213  28.186018     27.261      6.414   292.7760     0.9961     1.1017     0.0210      0.072      2.716      3.939        347 5.4082e+00   996.6247 0.0000e+00
      2.786    26.5753     6.7328     83.453  28.200441     27.294      6.411   293.1925     0.9923     1.0729     0.0210      0.073      2.733      3.963        348 5.3434e+00   996.6412 0.0000e+00
      2.808    26.5349     6.7607     83.759  28.239687     27.365      6.412   293.6468     1.0190     1.1306     0.0210      0.073      2.750      3.988        349 5.2751e+00   996.6504 0.0000e+00
      2.817    26.5031     6.7872     84.043  28.255681     27.382      6.401   293.5710     1.0228     1.1017     0.0210      0.068      2.761      4.004        350 5.3168e+00   996.6591 0.0000e+00
      2.821    26.4801     6.8232     84.400  28.239795     27.404      6.396   293.8360     1.0342     1.2027     0.0210      0.061      2.770      4.017        351 5.2766e+00   996.6701 0.0000e+00
      2.837    26.4544     6.8771     84.994  28.259471     27.420      6.402   294.0632     1.0228     1.1306     0.0210      0.055      2.782      4.035        352 5.1928e+00   996.6788 0.0000e+00
      2.851    26.4287     6.9448     85.795  28.349696     27.541      6.399   294.0253     0.9465     1.1306     0.0211      0.052      2.796      4.055        353 5.1910e+00   996.6851 0.0000e+00
      2.864    26.3981     7.0011     86.494  28.305254     27.500      6.402   293.8739     0.9694     1.1017     0.0210      0.052      2.811      4.078        354 5.1388e+00   996.6920 0.0000e+00
      2.887    26.3615     7.0388     86.974  28.196299     27.406      6.408   294.3282     0.9579     1.0585     0.0210      0.054      2.831      4.107        355 5.1106e+00   996.6991 0.0000e+00
      2.911    26.3396     7.0510     87.112  28.189077     27.422      6.407   294.3282     0.9694     1.1450     0.0210      0.056      2.852      4.137        356 5.0863e+00   996.7075 0.0000e+00
      2.927    26.3274     7.0536     87.081  28.195764     27.442      6.408   295.0475     0.9694     1.0008     0.0210      0.060      2.869      4.161        357 5.0263e+00   996.7174 0.0000e+00
      2.938    26.3042     7.0489     86.886  28.187991     27.453      6.410   295.3503     0.9465     1.2027     0.0210      0.065      2.884      4.182        358 4.9811e+00   996.7234 0.0000e+00
      2.957    26.2795     7.0194     86.336  28.139518     27.406      6.412   295.7668     0.9656     1.1017     0.0210      0.068      2.900      4.205        359 4.9424e+00   996.7267 0.0000e+00
      2.975    26.2477     6.9774     85.659  28.078362     27.363      6.409   295.4639     0.9579     1.1161     0.0209      0.069      2.918      4.231        360 4.9124e+00   996.7329 0.0000e+00
      2.994    26.1924     6.9331     84.979  28.027129     27.323      6.409   295.8803     0.9618     1.1450     0.0209      0.070      2.936      4.258        361 4.8423e+00   996.7397 0.0000e+00
      3.013    26.1438     6.9028     84.436  28.025554     27.338      6.409   295.7668     0.9770     1.3324     0.0209      0.070      2.953      4.282        362 4.8125e+00   996.7483 0.0000e+00
      3.026    26.1223     6.8845     84.042  28.080335     27.424      6.402   295.7668     0.9732     1.3469     0.0209      0.068      2.967      4.302        363 4.8340e+00   996.7632 0.0000e+00
      3.036    26.1238     6.8950     84.003  28.077461     27.449      6.400   296.1075     0.9732     1.3613     0.0209      0.064      2.977      4.318        364 4.7980e+00   996.7762 0.0000e+00
      3.047    26.1324     6.9466     84.391  28.088392     27.461      6.401   296.1832     0.9389     1.3036     0.0209      0.062      2.988      4.333        365 4.7404e+00   996.7821 0.0000e+00
      3.057    26.1240     7.0183     84.934  28.125986     27.515      6.402   296.4103     1.0915     1.3036     0.0210      0.059      2.999      4.349        366 4.7064e+00   996.7818 0.0000e+00
      3.071    26.0840     7.0916     85.478  28.089923     27.455      6.404   296.2968     1.1067     1.3901     0.0209      0.054      3.011      4.367        367 4.6813e+00   996.7795 0.0000e+00
      3.084    25.9974     7.1425     85.814  28.074027     27.460      6.404   296.4860     1.0838     1.3901     0.0209      0.051      3.024      4.387        368 4.6441e+00   996.7817 0.0000e+00
      3.098    25.8797     7.1625     85.832  28.027283     27.426      6.406   296.6753     1.0838     1.3324     0.0209      0.048      3.039      4.408        369 4.5880e+00   996.7924 0.0000e+00
      3.114    25.7773     7.1455     85.385  27.881515     27.336      6.405   296.5996     1.0304     1.5776     0.0208      0.048      3.055      4.430        370 4.5727e+00   996.8155 0.0000e+00
      3.131    25.6872     7.0994     84.564  27.840759     27.345      6.406   296.6753     1.0304     1.5631     0.0208      0.051      3.073      4.456        371 4.5446e+00   996.8468 0.0000e+00
      3.155    25.5775     7.0241     83.463  27.811448     27.400      6.405   297.2810     1.0457     1.6208     0.0208      0.057      3.093      4.485        372 4.4902e+00   996.8739 0.0000e+00
      3.172    25.4675     6.9257     82.155  27.681059     27.283      6.394   297.0160     1.0266     1.5487     0.0207      0.062      3.110      4.510        373 4.4691e+00   996.8978 0.0000e+00
      3.184    25.3570     6.8311     80.965  27.647603     27.343      6.393   296.8268     1.0762     1.4334     0.0207      0.065      3.126      4.534        374 4.4126e+00   996.9265 0.0000e+00
      3.207    25.2017     6.7488     79.975  27.616151     27.347      6.394   297.3189     1.0953     1.4189     0.0207      0.068      3.147      4.565        375 4.3346e+00   996.9554 0.0000e+00
      3.237    24.9931     6.6911     79.303  27.424030     27.240      6.393   297.1675     1.0953     1.4045     0.0206      0.073      3.173      4.602        376 4.2746e+00   996.9842 0.0000e+00
      3.262    24.7778     6.6287     78.632  27.205454     27.075      6.393   297.6975     1.0915     1.3324     0.0205      0.079      3.196      4.635        377 4.2718e+00   997.0245 0.0000e+00
      3.277    24.6028     6.6024     78.332  27.177320     27.188      6.393   297.8489     1.1334     1.3036     0.0205      0.081      3.213      4.660        378 4.2703e+00   997.0783 0.0000e+00
      3.290    24.4624     6.5884     78.084  27.074045     27.194      6.389   297.8111     1.1830     1.3613     0.0205      0.081      3.230      4.684        379 4.2097e+00   997.1332 0.0000e+00
      3.313    24.3082     6.5879     77.968  26.948984     27.149      6.392   298.1896     1.1372     1.3469     0.0204      0.080      3.250      4.714        380 4.1628e+00   997.1777 0.0000e+00
      3.341    24.1400     6.5846     77.692  26.859092     27.169      6.388   298.6818     1.1449     1.4910     0.0204      0.083      3.272      4.746        381 4.1010e+00   997.2131 0.0000e+00
      3.356    24.0075     6.5614     77.201  26.741664     27.084      6.382   298.4546     1.1258     1.2892     0.0203      0.083      3.289      4.770        382 4.0472e+00   997.2517 0.0000e+00
      3.365    23.9178     6.5224     76.633  26.769355     27.264      6.381   298.5303     1.1334     1.5631     0.0203      0.077      3.299      4.785        383 4.0336e+00   997.2938 0.0000e+00
      3.372    23.8737     6.4608     75.939  26.735829     27.251      6.381   298.8711     1.1296     1.5920     0.0203      0.069      3.307      4.796        384 4.0547e+00   997.3265 0.0000e+00
      3.379    23.8628     6.4157     75.343  26.753814     27.358      6.375   298.6818     1.1411     1.5631     0.0203      0.062      3.315      4.809        385 4.0273e+00   997.3486 0.0000e+00
      3.393    23.8723     6.3756     74.634  26.776626     27.383      6.379   298.8711     1.1525     1.6352     0.0203      0.057      3.328      4.827        386 3.9780e+00   997.3595 0.0000e+00
      3.410    23.9171     6.3363     74.090  26.766698     27.388      6.379   299.0982     1.1563     1.5199     0.0203      0.053      3.344      4.850        387 3.9906e+00   997.3623 0.0000e+00
      3.428    23.9228     6.2916     73.616  26.766174     27.384      6.384   299.3632     1.1487     1.7073     0.0203      0.049      3.360      4.873        388 3.9478e+00   997.3600 0.0000e+00
      3.440    23.8731     6.2821     73.300  26.629172     27.215      6.381   299.8175     1.1296     1.5920     0.0202      0.047      3.371      4.889        389 3.9110e+00   997.3491 0.0000e+00
      3.444    23.7892     6.2728     72.792  26.611362     27.182      6.373   299.8175     1.1258     1.6929     0.0202      0.047      3.379      4.900        390 3.8995e+00   997.3477 0.0000e+00
      3.453    23.6354     6.2590     72.238  26.580996     27.213      6.377   300.0068     1.2021     1.6208     0.0202      0.047      3.388      4.914        391 3.8686e+00   997.3599 0.0000e+00
      3.469    23.4811     6.2430     71.752  26.430019     27.055      6.383   300.3853     1.1906     1.4910     0.0201      0.048      3.400      4.931        392 3.8414e+00   997.3805 0.0000e+00
      3.477    23.4110     6.2116     71.180  26.384606     27.145      6.386   299.8932     1.2097     1.6785     0.0201      0.047      3.411      4.947        393 3.8188e+00   997.4181 0.0000e+00
      3.489    23.4259     6.1799     70.632  26.489463     27.287      6.390   300.1582     1.2364     1.5487     0.0201      0.045      3.424      4.966        394 3.7969e+00   997.4556 0.0000e+00
      3.509    23.3778     6.1449     70.053  26.506915     27.416      6.397   300.2718     1.3165     1.3757     0.0202      0.045      3.441      4.991        395 3.7525e+00   997.4726 0.0000e+00
      3.529    23.2155     6.1127     69.526  26.274053     27.087      6.400   300.9532     1.3127     1.2459     0.0200      0.048      3.457      5.014        396 3.7396e+00   997.4690 0.0000e+00
      3.537    23.1572     6.0885     69.107  26.216487     27.113      6.393   300.5746     1.3547     1.3180     0.0200      0.051      3.466      5.028        397 3.7511e+00   997.4806 0.0000e+00
      3.538    23.1815     6.0616     68.663  26.311999     27.266      6.394   300.9911     1.3242     1.3324     0.0200      0.051      3.475      5.039        398 3.7271e+00   997.5196 0.0000e+00
      3.557    23.0395     6.0494     68.407  26.214469     27.242      6.399   301.0668     1.3318     1.4334     0.0200      0.051      3.491      5.063        399 3.6835e+00   997.5336 0.0000e+00
      3.584    22.7522     6.0409     68.215  25.952832     26.904      6.403   301.1046     1.3356     1.3324     0.0199      0.054      3.512      5.094        400 3.6182e+00   997.5278 0.0000e+00
      3.603    22.4693     6.0353     68.058  25.808273     26.870      6.404   301.7103     1.3242     1.4045     0.0198      0.058      3.532      5.123        401 3.5824e+00   997.5616 0.0000e+00
      3.619    22.2505     6.0354     67.983  25.772415     26.974      6.407   302.0132     1.3547     1.3901     0.0198      0.061      3.548      5.146        402 3.5752e+00   997.6294 0.0000e+00
      3.633    22.0949     6.0439     68.011  25.701358     27.076      6.407   302.7325     1.3623     1.3180     0.0197      0.062      3.564      5.169        403 3.5496e+00   997.6954 0.0000e+00
      3.651    21.9590     6.0489     68.055  25.600610     27.084      6.407   302.6946     1.3547     1.3036     0.0197      0.064      3.582      5.195        404 3.4991e+00   997.7460 0.0000e+00
      3.674    21.8270     6.0610     68.233  25.512826     27.084      6.407   302.7704     1.3318     1.3469     0.0196      0.070      3.602      5.224        405 3.4236e+00   997.7816 0.0000e+00
      3.694    21.7082     6.0795     68.452  25.455236     27.103      6.403   302.8461     1.3127     1.3324     0.0196      0.075      3.622      5.253        406 3.4059e+00   997.8125 0.0000e+00
      3.711    21.6011     6.0938     68.609  25.405761     27.120      6.405   303.4518     1.3394     1.3324     0.0196      0.073      3.640      5.280        407 3.3860e+00   997.8425 0.0000e+00
      3.730    21.4970     6.1080     68.750  25.396730     27.189      6.405   303.2246     1.4615     1.3324     0.0196      0.072      3.658      5.305        408 3.3280e+00   997.8692 0.0000e+00
      3.748    21.4085     6.1074     68.689  25.348042     27.191      6.405   303.4139     1.4729     1.3036     0.0195      0.073      3.675      5.330        409 3.2965e+00   997.8932 0.0000e+00
      3.763    21.3355     6.1030     68.589  25.347918     27.252      6.403   303.7925     1.4577     1.3036     0.0195      0.073      3.692      5.355        410 3.2538e+00   997.9165 0.0000e+00
      3.785    21.2664     6.0991     68.429  25.278447     27.244      6.406   304.7768     1.4500     1.3757     0.0195      0.074      3.710      5.381        411 3.2196e+00   997.9361 0.0000e+00
      3.802    21.2066     6.1019     68.310  25.197582     27.166      6.396   304.6254     1.6408     1.3180     0.0194      0.073      3.727      5.405        412 3.2174e+00   997.9522 0.0000e+00
      3.814    21.1571     6.0923     68.077  25.270870     27.328      6.392   304.7011     1.6332     1.4189     0.0195      0.070      3.739      5.424        413 3.1955e+00   997.9676 0.0000e+00
      3.825    21.1489     6.0940     68.003  25.246501     27.302      6.390   304.8904     1.6408     1.3180     0.0194      0.066      3.747      5.436        414 3.1920e+00   997.9807 0.0000e+00
      3.824    21.1779     6.1045     68.035  25.227930     27.332      6.383   304.8525     1.6293     1.3757     0.0194      0.059      3.751      5.441        415 3.1999e+00   997.9915 0.0000e+00
      3.826    21.1870     6.1212     68.133  25.234760     27.337      6.387   304.9282     1.4539     1.3324     0.0194      0.050      3.754      5.445        416 3.1729e+00   997.9933 0.0000e+00
      3.835    21.1842     6.1479     68.350  25.238005     27.319      6.387   305.1932     1.4424     1.4189     0.0194      0.042      3.759      5.452        417 3.1639e+00   997.9870 0.0000e+00
      3.838    21.1680     6.1614     68.441  25.223885     27.314      6.385   305.0039     1.4462     1.3469     0.0194      0.033      3.764      5.460        418 3.1819e+00   997.9851 0.0000e+00
      3.842    21.1312     6.1781     68.571  25.193090     27.256      6.388   305.1932     1.4462     1.3613     0.0194      0.025      3.772      5.470        419 3.1591e+00   997.9856 0.0000e+00
      3.857    21.0896     6.1933     68.674  25.217095     27.324      6.392   305.9125     1.5492     1.6208     0.0194      0.022      3.786      5.490        420 3.0990e+00   997.9893 0.0000e+00
      3.880    21.0058     6.2115     68.747  25.134783     27.227      6.393   306.1396     1.4996     1.5776     0.0194      0.027      3.806      5.520        421 3.0353e+00   997.9974 0.0000e+00
      3.904    20.8925     6.2252     68.746  25.028973     27.159      6.393   306.1775     1.5263     1.5487     0.0194      0.036      3.827      5.551        422 3.0106e+00   998.0065 0.0000e+00
      3.924    20.7994     6.2300     68.661  25.052608     27.210      6.395   306.7075     1.5569     1.6064     0.0193      0.048      3.846      5.579        423 3.0020e+00   998.0248 0.0000e+00
      3.939    20.7287     6.2319     68.572  25.046161     27.307      6.395   306.5939     1.5836     1.3469     0.0193      0.058      3.862      5.602        424 2.9686e+00   998.0494 0.0000e+00
      3.954    20.6653     6.2302     68.492  24.948178     27.211      6.400   306.8589     1.5836     1.4189     0.0193      0.065      3.878      5.625        425 2.9390e+00   998.0694 0.0000e+00
      3.972    20.5992     6.2475     68.650  24.967252     27.313      6.398   307.1996     1.5836     1.4189     0.0193      0.070      3.894      5.649        426 2.9179e+00   998.0847 0.0000e+00
      3.986    20.5405     6.2553     68.687  24.933595     27.290      6.395   307.2754     1.5683     1.3180     0.0193      0.072      3.908      5.669        427 2.9032e+00   998.0983 0.0000e+00
      3.996    20.4953     6.2722     68.824  24.871616     27.268      6.394   307.1618     1.5836     1.4622     0.0192      0.068      3.923      5.689        428 2.8684e+00   998.1123 0.0000e+00
      4.017    20.4562     6.2966     69.042  24.866698     27.304      6.391   307.8432     1.6408     1.1017     0.0192      0.064      3.943      5.719        429 2.8322e+00   998.1250 0.0000e+00
      4.052    20.4045     6.3191     69.226  24.821262     27.269      6.393   308.0325     1.6408     1.0873     0.0192      0.066      3.973      5.763        430 2.7562e+00   998.1348 0.0000e+00
      4.087    20.3119     6.3411     69.404  24.780087     27.263      6.388   308.1839     1.6408     1.1161     0.0192      0.075      4.006      5.810        431 2.6986e+00   998.1431 0.0000e+00
      4.117    20.1997     6.3565     69.505  24.710631     27.200      6.387   308.2597     1.6217     1.0729     0.0191      0.085      4.035      5.852        432 2.6889e+00   998.1542 0.0000e+00
      4.140    20.0990     6.3835     69.718  24.700397     27.257      6.385   308.7897     1.6904     1.2027     0.0191      0.094      4.058      5.885        433 2.6585e+00   998.1737 0.0000e+00
      4.158    20.0184     6.4027     69.857  24.704001     27.324      6.382   308.9032     1.6980     1.0585     0.0191      0.099      4.075      5.910        434 2.6589e+00   998.1972 0.0000e+00
      4.168    19.9735     6.4168     69.964  24.706182     27.386      6.376   308.9411     1.6904     1.0729     0.0191      0.100      4.085      5.925        435 2.6367e+00   998.2183 0.0000e+00
      4.171    19.9482     6.4456     70.231  24.697716     27.435      6.365   309.0547     1.6904     1.1882     0.0191      0.093      4.091      5.934        436 2.6173e+00   998.2349 0.0000e+00
      4.178    19.9140     6.4783     70.545  24.714563     27.462      6.364   309.2439     1.5836     1.2748     0.0191      0.079      4.098      5.944        437 2.6270e+00   998.2442 0.0000e+00
      4.187    19.8782     6.4857     70.650  24.685233     27.477      6.368   309.5847     1.5759     1.1882     0.0191      0.062      4.107      5.957        438 2.5813e+00   998.2495 0.0000e+00
      4.199    19.8421     6.5195     71.061  24.586140     27.343      6.374   309.2061     1.5759     1.0585     0.0190      0.049      4.119      5.975        439 2.5573e+00   998.2565 0.0000e+00
      4.216    19.7965     6.5329     71.225  24.541718     27.365      6.377   309.5847     1.5721     1.0440     0.0190      0.042      4.134      5.997        440 2.5391e+00   998.2639 0.0000e+00
      4.232    19.7506     6.5387     71.281  24.533203     27.324      6.381   309.4711     1.5378     1.1882     0.0190      0.041      4.150      6.020        441 2.5054e+00   998.2714 0.0000e+00
      4.249    19.7017     6.5239     71.134  24.537513     27.415      6.383   310.1147     1.5187     1.1450     0.0190      0.044      4.168      6.045        442 2.5061e+00   998.2808 0.0000e+00
      4.269    19.6436     6.5037     70.975  24.477135     27.318      6.385   309.5468     1.5073     1.0873     0.0190      0.051      4.185      6.070        443 2.4746e+00   998.2901 0.0000e+00
      4.284    19.5926     6.4773     70.729  24.489891     27.410      6.383   310.3418     1.5111     1.1882     0.0190      0.057      4.199      6.090        444 2.4517e+00   998.3003 0.0000e+00
      4.292    19.5601     6.4685     70.475  24.492039     27.415      6.381   310.2282     1.5111     1.1161     0.0190      0.060      4.209      6.105        445 2.4753e+00   998.3122 0.0000e+00
      4.300    19.5251     6.4520     70.003  24.444863     27.415      6.381   310.3797     1.5263     1.1161     0.0190      0.059      4.221      6.123        446 2.4474e+00   998.3224 0.0000e+00
      4.322    19.4975     6.4290     69.565  24.459764     27.435      6.383   310.4554     1.5111     1.0873     0.0190      0.059      4.239      6.149        447 2.3835e+00   998.3291 0.0000e+00
      4.347    19.5127     6.3894     68.999  24.443889     27.456      6.378   310.7204     1.5302     1.0440     0.0190      0.060      4.260      6.179        448 2.3579e+00   998.3363 0.0000e+00
      4.363    19.5439     6.3520     68.435  24.464631     27.475      6.375   310.7204     1.4958     1.0296     0.0190      0.062      4.275      6.201        449 2.3634e+00   998.3419 0.0000e+00
      4.370    19.5553     6.3182     67.832  24.493195     27.526      6.367   310.4554     1.6408     0.9287     0.0190      0.060      4.285      6.216        450 2.3598e+00   998.3388 0.0000e+00
      4.378    19.5519     6.2819     67.120  24.467573     27.445      6.367   310.8339     1.6103     0.8854     0.0190      0.058      4.296      6.231        451 2.3308e+00   998.3327 0.0000e+00
      4.396    19.5611     6.2494     66.528  24.496508     27.500      6.367   311.1747     1.6332     0.8998     0.0190      0.058      4.310      6.251        452 2.3073e+00   998.3305 0.0000e+00
      4.411    19.6050     6.2210     66.158  24.546034     27.534      6.363   310.9475     1.6484     0.9431     0.0190      0.059      4.324      6.271        453 2.2909e+00   998.3312 0.0000e+00
      4.420    19.6309     6.2218     66.157  24.494790     27.497      6.360   311.6289     1.5874     0.9719     0.0190      0.056      4.336      6.289        454 2.2692e+00   998.3293 0.0000e+00
      4.434    19.5188     6.2615     66.527  24.471422     27.408      6.360   311.5532     1.5836     1.0152     0.0190      0.052      4.352      6.311        455 2.2739e+00   998.3205 0.0000e+00
      4.458    19.3180     6.3201     67.022  24.367782     27.327      6.362   311.5154     1.5683     0.8422     0.0189      0.052      4.374      6.344        456 2.2575e+00   998.3154 0.0000e+00
      4.488    19.1789     6.3837     67.511  24.209129     27.145      6.361   311.9318     1.5721     0.7412     0.0188      0.059      4.399      6.381        457 2.1994e+00   998.3381 0.0000e+00
      4.512    19.0809     6.4494     68.000  24.195024     27.335      6.366   311.9697     1.7209     0.9719     0.0188      0.068      4.421      6.412        458 2.1938e+00   998.3784 0.0000e+00
      4.523    18.9642     6.5149     68.478  24.207688     27.355      6.361   312.0832     1.7094     0.8710     0.0188      0.073      4.437      6.434        459 2.2096e+00   998.4060 0.0000e+00
      4.536    18.7900     6.5672     68.815  24.163800     27.448      6.364   312.1589     1.7171     0.9719     0.0188      0.074      4.453      6.457        460 2.1656e+00   998.4254 0.0000e+00
      4.563    18.5564     6.5852     68.834  23.953513     27.203      6.363   312.2725     1.6942     0.8422     0.0187      0.078      4.473      6.486        461 2.1096e+00   998.4483 0.0000e+00
      4.582    18.3787     6.5868     68.719  23.847477     27.247      6.363   312.3482     1.7552     0.8566     0.0186      0.080      4.488      6.509        462 2.1029e+00   998.4823 0.0000e+00
      4.584    18.3252     6.5801     68.484  23.881183     27.395      6.355   313.1054     1.7857     0.8998     0.0186      0.075      4.494      6.518        463 2.1100e+00   998.5272 0.0000e+00
      4.582    18.3181     6.5524     67.970  23.852402     27.509      6.355   313.1811     1.7743     0.9719     0.0186      0.063      4.495      6.520        464 2.1206e+00   998.5610 0.0000e+00
      4.586    18.2785     6.4941     67.141  23.824114     27.476      6.359   313.2190     1.7476     0.8133     0.0186      0.050      4.500      6.527        465 2.1178e+00   998.5711 0.0000e+00
      4.598    18.1866     6.4103     66.098  23.797943     27.480      6.366   313.2568     1.7476     0.8710     0.0186      0.042      4.513      6.546        466 2.0876e+00   998.5725 0.0000e+00
      4.623    18.0530     6.3131     64.978  23.736897     27.409      6.376   313.2947     1.7056     0.8998     0.0185      0.041      4.534      6.577        467 2.0558e+00   998.5800 0.0000e+00
      4.650    17.9059     6.2069     63.784  23.692784     27.435      6.380   313.7490     1.7094     0.8710     0.0185      0.044      4.559      6.612        468 2.0139e+00   998.5973 0.0000e+00
      4.673    17.7545     6.1043     62.622  23.615939     27.423      6.378   313.5218     1.6942     0.8133     0.0184      0.048      4.582      6.645        469 2.0106e+00   998.6223 0.0000e+00
      4.693    17.6064     5.9957     61.456  23.506792     27.387      6.382   313.5218     1.7171     0.9287     0.0184      0.058      4.602      6.675        470 1.9898e+00   998.6495 0.0000e+00
      4.712    17.4873     5.9113     60.680  23.562117     27.549      6.385   314.0897     1.7209     0.8710     0.0184      0.070      4.620      6.701        471 1.9596e+00   998.6773 0.0000e+00
      4.728    17.3939     5.9057     60.704  23.606370     27.711      6.385   314.3925     1.6866     1.0008     0.0184      0.079      4.638      6.727        472 1.9883e+00   998.7043 0.0000e+00
      4.749    17.2770     5.9859     61.491  23.570230     27.723      6.387   314.2790     1.7018     0.8422     0.0184      0.083      4.659      6.758        473 1.9336e+00   998.7258 0.0000e+00
      4.777    17.1190     6.1175     62.719  23.607132     27.849      6.382   314.4682     1.6827     0.8854     0.0184      0.084      4.683      6.793        474 1.8908e+00   998.7426 0.0000e+00
      4.803    16.9585     6.2540     64.096  23.619714     27.926      6.377   314.7711     1.6332     0.8422     0.0184      0.084      4.707      6.827        475 1.9080e+00   998.7636 0.0000e+00
      4.821    16.8327     6.4100     65.586  23.613844     28.032      6.372   314.8847     1.6675     0.9719     0.0184      0.083      4.725      6.852        476 1.8519e+00   998.7915 0.0000e+00
      4.830    16.7439     6.5517     66.687  23.555253     28.072      6.363   314.5440     1.6637     0.9287     0.0183      0.081      4.737      6.870        477 1.8590e+00   998.8195 0.0000e+00
      4.841    16.6696     6.6621     67.540  23.514981     28.091      6.360   315.4147     1.6255     0.9143     0.0183      0.077      4.749      6.888        478 1.8585e+00   998.8413 0.0000e+00
      4.856    16.5865     6.7267     68.069  23.427072     28.082      6.361   315.7175     1.5340     1.0008     0.0182      0.073      4.764      6.910        479 1.8142e+00   998.8564 0.0000e+00
      4.876    16.5516     6.7563     68.284  23.161212     27.765      6.363   315.7554     1.5263     0.9143     0.0181      0.070      4.783      6.938        480 1.8018e+00   998.8692 0.0000e+00
      4.902    16.6149     6.7805     68.423  23.105468     27.786      6.363   316.3990     1.5073     0.8998     0.0181      0.068      4.807      6.972        481 1.7682e+00   998.8834 0.0000e+00
      4.928    16.6811     6.7977     68.476  23.289156     28.014      6.360   316.3611     1.5225     0.8710     0.0181      0.068      4.831      7.007        482 1.7626e+00   998.8895 0.0000e+00
      4.949    16.6487     6.8289     68.633  23.317629     28.034      6.361   316.1718     1.6332     0.8998     0.0182      0.071      4.850      7.035        483 1.7549e+00   998.8789 0.0000e+00
      4.959    16.5624     6.8610     68.802  23.158871     27.757      6.352   316.8154     1.6599     0.9575     0.0181      0.074      4.862      7.052        484 1.7484e+00   998.8676 0.0000e+00
      4.964    16.5407     6.9121     69.172  23.220172     27.876      6.345   316.4368     1.6408     0.9287     0.0181      0.074      4.872      7.066        485 1.7383e+00   998.8731 0.0000e+00
      4.983    16.4571     6.9580     69.481  23.211729     27.940      6.348   316.5504     1.6332     0.9719     0.0181      0.072      4.889      7.091        486 1.7238e+00   998.8878 0.0000e+00
      5.011    16.2202     6.9887     69.647  22.932471     27.581      6.351   316.3611     1.6293     0.8998     0.0180      0.072      4.911      7.124        487 1.7089e+00   998.8915 0.0000e+00
      5.031    16.0269     7.0120     69.750  22.856947     27.566      6.353   316.7775     1.7094     0.9431     0.0179      0.070      4.931      7.153        488 1.7033e+00   998.9056 0.0000e+00
      5.044    15.9406     7.0286     69.795  22.861519     27.732      6.358   316.7018     1.6980     0.9287     0.0179      0.067      4.947      7.176        489 1.6920e+00   998.9451 0.0000e+00
      5.061    15.8804     7.0392     69.777  22.808381     27.792      6.364   317.3075     1.6980     0.9719     0.0179      0.066      4.962      7.198        490 1.6726e+00   998.9769 0.0000e+00
      5.075    15.8100     7.0465     69.717  22.745440     27.783      6.364   317.2697     1.6942     0.8710     0.0178      0.067      4.974      7.216        491 1.6924e+00   998.9909 0.0000e+00
      5.083    15.7253     7.0513     69.623  22.673343     27.719      6.361   317.0804     1.8392     1.0008     0.0178      0.067      4.984      7.230        492 1.6693e+00   999.0006 0.0000e+00
      5.092    15.6202     7.0367     69.360  22.661205     27.769      6.365   317.2697     1.8239     0.8998     0.0178      0.064      4.994      7.244        493 1.6461e+00   999.0120 0.0000e+00
      5.103    15.5152     7.0119     69.022  22.612494     27.756      6.366   317.4211     1.8124     0.8133     0.0177      0.056      5.006      7.260        494 1.6524e+00   999.0256 0.0000e+00
      5.117    15.4183     6.9850     68.672  22.615529     27.830      6.373   317.6861     1.8163     0.8422     0.0177      0.050      5.021      7.282        495 1.6268e+00   999.0424 0.0000e+00
      5.140    15.3179     6.9492     68.239  22.568614     27.867      6.376   317.4968     1.4882     0.7845     0.0177      0.049      5.042      7.312        496 1.6074e+00   999.0590 0.0000e+00
      5.165    15.2239     6.9088     67.786  22.463608     27.761      6.375   317.5347     1.5187     0.9287     0.0176      0.054      5.065      7.346        497 1.5947e+00   999.0741 0.0000e+00
      5.187    15.1385     6.8762     67.434  22.479704     27.900      6.376   317.8754     1.5263     0.8422     0.0176      0.060      5.086      7.376        498 1.5914e+00   999.0899 0.0000e+00
      5.206    15.0580     6.8522     67.147  22.459769     27.895      6.377   318.3297     1.4920     0.8422     0.0176      0.067      5.106      7.406        499 1.5838e+00   999.1044 0.0000e+00
      5.228    14.9768     6.8496     67.030  22.488445     28.025      6.380   318.5190     1.4386     1.1017     0.0176      0.074      5.127      7.437        500 1.5625e+00   999.1176 0.0000e+00
      5.252    14.8884     6.8540     66.949  22.503272     28.081      6.378   318.9733     1.4539     1.1306     0.0176      0.081      5.150      7.469        501 1.5455e+00   999.1301 0.0000e+00
      5.274    14.7956     6.8783     67.054  22.441343     28.068      6.379   319.3140     1.4577     1.1450     0.0176      0.085      5.171      7.499        502 1.5104e+00   999.1424 0.0000e+00
      5.292    14.7159     6.9044     67.179  22.447082     28.130      6.380   319.3140     1.4539     1.0585     0.0176      0.086      5.188      7.525        503 1.5010e+00   999.1557 0.0000e+00
      5.306    14.6535     6.9395     67.423  22.466544     28.231      6.379   319.9197     1.4958     1.3469     0.0176      0.082      5.202      7.546        504 1.5219e+00   999.1696 0.0000e+00
      5.319    14.5965     6.9584     67.612  22.446767     28.252      6.382   319.9575     1.5073     1.4045     0.0175      0.078      5.216      7.566        505 1.5298e+00   999.1815 0.0000e+00
      5.332    14.5421     6.9903     67.910  22.442103     28.297      6.386   319.8061     1.5263     1.4622     0.0175      0.073      5.230      7.586        506 1.5121e+00   999.1907 0.0000e+00
      5.349    14.5044     7.0482     68.319  22.383523     28.267      6.385   319.6925     1.5416     1.3613     0.0175      0.069      5.247      7.610        507 1.4698e+00   999.1991 0.0000e+00
      5.371    14.4819     7.0960     68.597  22.341998     28.236      6.387   320.0711     1.5111     1.3036     0.0175      0.066      5.267      7.639        508 1.4424e+00   999.2071 0.0000e+00
      5.392    14.4460     7.1338     68.826  22.375338     28.333      6.383   320.2225     1.7743     1.5920     0.0175      0.065      5.287      7.669        509 1.4280e+00   999.2127 0.0000e+00
      5.412    14.3838     7.1597     68.966  22.342045     28.278      6.386   320.3740     1.7781     1.6064     0.0175      0.066      5.308      7.699        510 1.4154e+00   999.2161 0.0000e+00
      5.435    14.2994     7.1574     68.853  22.264981     28.233      6.382   320.2225     1.7552     1.6208     0.0174      0.070      5.330      7.731        511 1.4060e+00   999.2214 0.0000e+00
      5.459    14.2093     7.1100     68.371  22.234337     28.207      6.379   320.2604     1.7629     1.6208     0.0174      0.076      5.354      7.765        512 1.4088e+00   999.2304 0.0000e+00
      5.483    14.1203     7.0318     67.637  22.202512     28.268      6.383   319.9954     2.1253     1.5343     0.0174      0.082      5.377      7.799        513 1.3847e+00   999.2425 0.0000e+00
      5.506    14.0576     6.9228     66.599  22.097311     28.155      6.377   320.1090     2.1253     1.7073     0.0173      0.086      5.399      7.830        514 1.3271e+00   999.2554 0.0000e+00
      5.527    14.0592     6.8298     65.700  22.128370     28.290      6.374   320.3361     2.1329     1.6785     0.0173      0.088      5.418      7.858        515 1.3351e+00   999.2681 0.0000e+00
      5.541    14.0480     6.7527     64.915  22.223113     28.445      6.373   320.4875     2.1176     1.4910     0.0174      0.086      5.435      7.883        516 1.3275e+00   999.2769 0.0000e+00
      5.562    13.9492     6.6922     64.210  22.275565     28.513      6.375   321.1690     4.5553     2.0246     0.0174      0.085      5.455      7.912        517 1.2970e+00   999.2768 0.0000e+00
      5.587    13.8266     6.6464     63.630  22.211172     28.448      6.376   320.9418     4.5820     2.0967     0.0174      0.084      5.478      7.945        518 1.2932e+00   999.2785 0.0000e+00
      5.608    13.7369     6.6061     63.131  22.392102     28.701      6.370   321.2447     4.5553     2.0967     0.0174      0.083      5.499      7.975        519 1.2625e+00   999.2924 0.0000e+00
      5.626    13.6639     6.5398     62.416  22.938881     29.583      6.372   321.0933     4.5629     2.0967     0.0177      0.081      5.518      8.002        520 1.2390e+00   999.3096 0.0000e+00
      5.644    13.6055     6.4688     61.668  22.863433     29.507      6.373   321.5475     5.4861     2.5870     0.0177      0.079      5.533      8.024        521 1.2378e+00   999.3219 0.0000e+00
      5.655    13.5879     6.4081     61.013  22.574868     29.165      6.363   321.0933     5.4975     2.6735     0.0175      0.076      5.542      8.039        522 1.2353e+00   999.3317 0.0000e+00
      5.656    13.5993     6.3980     60.828  22.646479     29.355      6.357   321.2447     5.5128     2.6879     0.0176      0.070      5.547      8.045        523 1.2207e+00   999.3395 0.0000e+00
      5.659    13.6059     6.4524     61.255  22.685482     29.368      6.356   321.0933     5.5051     2.6735     0.0176      0.061      5.549      8.049        524 1.2480e+00   999.3420 0.0000e+00
      5.660    13.6037     6.5465     62.056  22.644796     29.359      6.356   321.0933     5.4784     2.6735     0.0176      0.048      5.554      8.055        525 1.2479e+00   999.3405 0.0000e+00
      5.669    13.5713     6.6497     62.958  22.845188     29.535      6.359   320.2604     6.4474     2.6590     0.0176      0.037      5.567      8.073        526 1.2233e+00   999.3397 0.0000e+00
      5.701    13.4872     6.7449     63.810  23.087638     29.970      6.366   319.4654     6.4359     2.7167     0.0178      0.035      5.593      8.111        527 1.1785e+00   999.3403 0.0000e+00
      5.738    13.3874     6.8562     64.822  22.846541     29.560      6.368   319.0111     6.4436     2.7456     0.0176      0.043      5.623      8.156        528 1.1352e+00   999.3446 0.0000e+00
      5.762    13.3070     6.9964     66.102  22.641775     29.445      6.363   318.5190     6.4397     2.6735     0.0175      0.054      5.648      8.191        529 1.1617e+00   999.3558 0.0000e+00
      5.776    13.2474     7.1241     67.269  22.454024     29.230      6.362   319.0868     9.7929     2.8177     0.0174      0.065      5.665      8.215        530 1.1486e+00   999.3690 0.0000e+00
      5.790    13.1965     7.2112     68.060  22.132542     28.892      6.362   319.0490     9.8196     2.9474     0.0172      0.076      5.680      8.238        531 1.1403e+00   999.3795 0.0000e+00
      5.810    13.1399     7.2352     68.266  22.094206     28.863      6.363   318.8975     9.8158     2.9186     0.0172      0.083      5.699      8.266        532 1.1192e+00   999.3873 0.0000e+00
      5.835    13.0755     7.2132     68.021  22.324063     29.231      6.361   312.6511     9.7738     2.9186     0.0173      0.087      5.722      8.299        533 1.1236e+00   999.3941 0.0000e+00
      5.860    13.0090     7.1311     67.212  22.349953     29.310      6.362   309.5847    13.2262     3.5098     0.0173      0.087      5.746      8.334        534 1.1121e+00   999.4015 0.0000e+00
      5.884    12.9433     6.9946     65.902  22.032389     28.920      6.360   308.5625    13.1919     3.5387     0.0172      0.083      5.767      8.365        535 1.0275e+00   999.4097 0.0000e+00
      5.899    12.8890     6.8005     64.085  21.801234     28.677      6.358   306.9346    13.2300     3.6540     0.0170      0.080      5.782      8.386        536 1.0312e+00   999.4182 0.0000e+00
      5.903    12.8542     6.5677     61.818  21.808439     28.727      6.356   303.6032    13.1842     3.6540     0.0170      0.077      5.790      8.398        537 1.0340e+00   999.4266 0.0000e+00
      5.912    12.8252     6.3269     59.400  21.904987     28.916      6.358   298.3032     9.4191     3.1782     0.0171      0.073      5.797      8.409        538 1.0049e+00   999.4335 0.0000e+00
      5.921    12.7959     6.0917     57.061  21.977240     29.016      6.355   295.7668     9.3924     3.1349     0.0171      0.066      5.807      8.423        539 1.0205e+00   999.4379 0.0000e+00
      5.931    12.7689     5.8223     54.439  22.073904     29.185      6.358   293.8360     9.4496     3.0916     0.0172      0.057      5.821      8.443        540 1.0162e+00   999.4416 0.0000e+00
      5.957    12.7495     5.4707     51.063  22.110457     29.245      6.358   290.9967     9.4496     3.1349     0.0172      0.052      5.843      8.475        541 9.8305e-01   999.4454 0.0000e+00
      5.989    12.7339     5.0034     46.618  22.139061     29.302      6.359   290.3153    10.0485     3.3079     0.0172      0.054      5.867      8.509        542 9.4829e-01   999.4489 0.0000e+00
      5.999    12.7120     4.4279     41.189  22.216003     29.430      6.353   288.7253    10.0218     3.3079     0.0172      0.056      5.880      8.528        543 9.2206e-01   999.4514 0.0000e+00
      5.999    12.6863     3.7373     34.722  22.222013     29.440      6.355   283.1224    10.0485     3.3368     0.0172      0.057      5.887      8.539        544 9.3013e-01   999.4534 0.0000e+00
      6.013    12.6742     3.0154     27.993  22.338890     29.607      6.360   280.5860    10.0371     3.4377     0.0173      0.060      5.898      8.555        545 9.2084e-01   999.4562 0.0000e+00
      6.031    12.6777     2.2695     21.055  22.366705     29.699      6.361   279.6017    10.0332     3.3512     0.0173      0.061      5.916      8.581        546 9.0500e-01   999.4594 0.0000e+00
      6.055    12.6261     1.5032     13.938  22.424324     29.711      6.361   278.1631    13.0774     3.7838     0.0173      0.063      5.940      8.616        547 8.8189e-01   999.4611 0.0000e+00
      6.086    12.5142     0.8093      7.502  22.889111     30.409      6.360   277.1788    13.0850     3.8415     0.0176      0.066      5.967      8.655        548 8.3091e-01   999.4610 0.0000e+00
      6.114    12.4125     0.2332      2.162  23.120985     30.711      6.361   276.9517    13.0774     3.7982     0.0177      0.069      5.994      8.693        549 8.1390e-01   999.4675 0.0000e+00
      6.134    12.3326    -0.2081     -1.931  23.083474     30.767      6.360   277.2546    13.0850     3.7838     0.0177      0.075      6.017      8.726        550 7.8887e-01   999.4811 0.0000e+00
      6.157    12.2558    -0.5605     -5.204  23.143132     30.925      6.358   277.5953    14.0273     3.6829     0.0177      0.085      6.039      8.758        551 7.6971e-01   999.4935 0.0000e+00
      6.182    12.1773    -0.7609     -7.061  23.224471     31.103      6.355   278.7310    14.0311     3.8126     0.0177      0.093      6.060      8.790        552 7.4344e-01   999.5032 0.0000e+00
      6.201    12.1061    -0.8541     -7.923  23.456138     31.467      6.355   279.5260    14.0502     3.8415     0.0179      0.095      6.080      8.818        553 7.3075e-01   999.5125 0.0000e+00
      6.216    12.0522    -0.8302     -7.697  23.684112     31.871      6.353   280.0939    14.0464     3.8847     0.0180      0.092      6.096      8.841        554 7.2049e-01   999.5218 0.0000e+00
      6.231    12.0168    -0.7426     -6.879  23.710818     31.932      6.351   280.3210    12.8447     4.6922     0.0180      0.086      6.111      8.862        555 6.6022e-01   999.5301 0.0000e+00
      6.247    11.9880    -0.6088     -5.635  23.719094     32.017      6.351   280.7753    12.8447     4.6922     0.0180      0.079      6.126      8.884        556 6.5477e-01   999.5364 0.0000e+00
      6.261    11.9644    -0.4673     -4.322  23.703449     32.009      6.350   280.9267    12.8371     4.7932     0.0180      0.073      6.139      8.903        557 6.7246e-01   999.5405 0.0000e+00
      6.271    11.9497    -0.3474     -3.210  23.700685     32.034      6.349   281.2296    12.8638     4.7355     0.0180      0.067      6.149      8.917        558 6.6010e-01   999.5439 0.0000e+00
      6.276    11.9663    -0.2242     -2.070  23.692926     32.055      6.348   281.2296    12.2496     4.9230     0.0180      0.059      6.154      8.926        559 6.5955e-01   999.5465 0.0000e+00
      6.278    12.0102    -0.1386     -1.278  23.624262     31.954      6.346   282.0624    12.2649     5.0383     0.0179      0.049      6.157      8.931        560 6.6638e-01   999.5483 0.0000e+00
      6.281    12.0225    -0.0686     -0.632  23.608437     31.941      6.342   282.8953    12.2572     5.0383     0.0179      0.041      6.161      8.936        561 6.5998e-01   999.5464 0.0000e+00
      6.289    12.0014    -0.0231     -0.213  23.623762     31.901      6.344   283.3874    12.2687     4.9951     0.0179      0.034      6.168      8.946        562 6.5463e-01   999.5414 0.0000e+00
      6.299    11.9816     0.0175      0.161  23.664414     31.966      6.343   284.1446    12.6731     4.7211     0.0180      0.029      6.178      8.961        563 6.4036e-01   999.5401 0.0000e+00
      6.311    11.9593     0.0555      0.511  23.705927     32.023      6.343   284.4096    12.6731     4.7067     0.0180      0.027      6.191      8.980        564 6.3113e-01   999.5425 0.0000e+00
      6.329    11.9263     0.0933      0.857  23.690573     32.040      6.342   283.4253    12.6502     4.6201     0.0180      0.029      6.211      9.007        565 6.0219e-01   999.5449 0.0000e+00
      6.358    11.8912     0.1232      1.131  23.772381     32.135      6.342   283.8417    12.6921     4.7211     0.0180      0.039      6.237      9.046        566 5.6240e-01   999.5476 0.0000e+00
      6.391    11.8563     0.1569      1.438  23.900297     32.390      6.338   284.2203    12.6807     4.7211     0.0181      0.054      6.266      9.088        567 5.5479e-01   999.5515 0.0000e+00
      6.417    11.8124     0.1816      1.663  23.886800     32.346      6.334   284.8639    12.1428     4.8797     0.0181      0.069      6.292      9.126        568 5.3720e-01   999.5556 0.0000e+00
      6.440    11.7668     0.1973      1.804  23.966894     32.527      6.329   285.7724    12.1199     4.8364     0.0181      0.082      6.315      9.160        569 5.1696e-01   999.5598 0.0000e+00
      6.463    11.7282     0.2087      1.906  24.156042     32.794      6.329   286.1889    12.1466     4.9230     0.0182      0.091      6.337      9.192        570 5.1953e-01   999.5649 0.0000e+00
      6.484    11.6931     0.2047      1.867  24.214152     32.948      6.326   286.1889    12.1504     4.9662     0.0183      0.096      6.358      9.222        571 4.9187e-01   999.5701 0.0000e+00
      6.504    11.6611     0.1996      1.818  24.042679     32.717      6.323   286.3403    11.7613     5.1825     0.0182      0.098      6.377      9.249        572 4.5761e-01   999.5744 0.0000e+00
      6.520    11.6316     0.1969      1.792  24.250982     33.014      6.322   286.7567    11.7270     5.1104     0.0183      0.094      6.393      9.272        573 4.5515e-01   999.5784 0.0000e+00
      6.534    11.6024     0.1848      1.679  24.606530     33.614      6.320   286.9082    11.7270     5.1681     0.0185      0.085      6.409      9.296        574 4.2780e-01   999.5822 0.0000e+00
      6.554    11.5703     0.1785      1.620  24.873793     33.870      6.323   287.2110    11.7194     5.1681     0.0186      0.079      6.428      9.323        575 4.1803e-01   999.5856 0.0000e+00
      6.575    11.5302     0.1727      1.565  25.547419     34.964      6.320   286.8324    11.3264     4.9951     0.0191      0.075      6.450      9.354        576 4.0405e-01   999.5893 0.0000e+00
      6.601    11.4778     0.1713      1.550  26.285878     35.873      6.317   287.3246    11.3188     4.9085     0.0194      0.075      6.475      9.390        577 3.6689e-01   999.5932 0.0000e+00
      6.631    11.4156     0.1712      1.546  26.976073     36.982      6.314   287.2489    11.2921     4.9518     0.0199      0.079      6.501      9.428        578 3.5704e-01   999.5980 0.0000e+00
      6.653    11.3568     0.1680      1.515  27.265535     37.341      6.313   287.6653    11.3036     4.9230     0.0200      0.082      6.521      9.458        579 3.6768e-01   999.6039 0.0000e+00
      6.665    11.3088     0.1752      1.579  27.347507     37.558      6.310   287.6653     9.2360     5.6295     0.0201      0.084      6.537      9.481        580 3.6736e-01   999.6107 0.0000e+00
      6.680    11.2593     0.1795      1.615  27.673887     38.042      6.308   286.7567     9.2245     5.5863     0.0203      0.084      6.552      9.503        581 3.3502e-01   999.6172 0.0000e+00
      6.698    11.1966     0.1822      1.638  28.696019     39.476      6.306   286.3782     9.2283     5.5574     0.0209      0.083      6.569      9.528        582 3.0533e-01   999.6228 0.0000e+00
      6.719    11.1301     0.1850      1.661  30.371036     41.916      6.308   284.8639     9.2207     5.5574     0.0219      0.080      6.588      9.554        583 3.1403e-01   999.6289 0.0000e+00
      6.735    11.0751     0.1911      1.714  31.366370     43.339      6.302   284.2960     5.2457     6.0765     0.0225      0.075      6.604      9.577        584 3.1939e-01   999.6360 0.0000e+00
      6.746    11.0245     0.1927      1.726  31.694005     43.844      6.299   284.0310     5.2534     6.0477     0.0227      0.069      6.619      9.599        585 3.1059e-01   999.6431 0.0000e+00
      6.767    10.9653     0.1863      1.668  32.037300     44.414      6.298   280.2831     5.2686     6.1631     0.0229      0.066      6.639      9.629        586 2.9896e-01   999.6490 0.0000e+00
      6.798    10.8955     0.1955      1.749  31.976181     44.398      6.298   274.0367     5.2419     6.0189     0.0229      0.069      6.665      9.668        587 2.5142e-01   999.6543 0.0000e+00
      6.826    10.8198     0.1872      1.674  31.977492     44.394      6.294   269.2667     5.2495     6.0621     0.0228      0.076      6.690      9.704        588 2.4816e-01   999.6604 0.0000e+00
      6.844    10.7548     0.1861      1.664  32.094954     44.791      6.290   259.8781     3.7580     6.2928     0.0230      0.080      6.710      9.733        589 2.6970e-01   999.6676 0.0000e+00
      6.860    10.7063     0.1828      1.633  32.274474     44.925      6.286   241.2902     3.7885     6.3361     0.0230      0.082      6.729      9.760        590 2.3585e-01   999.6753 0.0000e+00
      6.882    10.6588     0.1796      1.604  32.850421     46.061      6.282   230.4251     3.7923     6.3794     0.0235      0.084      6.750      9.790        591 1.9953e-01   999.6821 0.0000e+00
      6.907    10.6074     0.1711      1.527  33.007882     46.123      6.276   225.2387     3.7694     6.2784     0.0235      0.087      6.773      9.824        592 2.0649e-01   999.6870 0.0000e+00
      6.932    10.5566     0.1769      1.578  33.560070     47.085      6.270   221.1880     4.3340     6.3361     0.0239      0.089      6.798      9.860        593 1.9523e-01   999.6921 0.0000e+00
      6.959    10.5047     0.1722      1.533  34.296724     48.173      6.264   217.0994     4.3340     6.2784     0.0243      0.090      6.822      9.894        594 1.5649e-01   999.6976 0.0000e+00
      6.978    10.4605     0.1697      1.510  34.254276     48.163      6.255   212.6701     4.3416     6.2784     0.0243      0.088      6.841      9.920        595 1.7125e-01   999.7025 0.0000e+00
      6.988    10.4312     0.1726      1.534  34.235193     48.195      6.247   206.8401     4.3149     6.3794     0.0243      0.085      6.853      9.938        596 1.9977e-01   999.7075 0.0000e+00
      6.997    10.4174     0.1637      1.454  34.113068     48.137      6.243   202.7136     3.8381     6.0333     0.0242      0.081      6.863      9.953        597 1.8998e-01   999.7117 0.0000e+00
      7.009    10.4055     0.1650      1.466  34.050689     47.979      6.238   198.8143     3.8610     6.1054     0.0241      0.075      6.877      9.973        598 1.5308e-01   999.7145 0.0000e+00
      7.031    10.3825     0.1654      1.469  34.698067     49.023      6.236   195.3693     3.8381     6.1198     0.0246      0.069      6.897     10.003        599 1.3978e-01   999.7161 0.0000e+00
      7.059    10.3568     0.1616      1.435  35.707726     50.379      6.230   193.3250     3.8305     6.0333     0.0252      0.067      6.922     10.039        600 1.5406e-01   999.7179 0.0000e+00
      7.085    10.3349     0.1536      1.362  37.535743     53.018      6.223   191.0536     4.0136     5.8170     0.0263      0.068      6.946     10.074        601 1.4890e-01   999.7212 0.0000e+00
      7.103    10.3166     0.1536      1.360  38.379999     54.437      6.216   189.9179     4.0059     5.7593     0.0269      0.070      6.967     10.105        602 1.3667e-01   999.7240 0.0000e+00
      7.126    10.2816     0.1590      1.407  38.094961     53.683      6.212   189.1607     4.0288     5.8891     0.0266      0.076      6.991     10.140        603 1.2473e-01   999.7260 0.0000e+00
      7.159    10.2252     0.1578      1.396  39.817041     56.476      6.204   187.4193     4.0403     5.8602     0.0278      0.086      7.019     10.181        604 1.2347e-01   999.7287 0.0000e+00
      7.189    10.1662     0.1567      1.386  41.750066     59.146      6.197   186.2079     3.4948     4.6778     0.0290      0.095      7.046     10.219        605 1.2828e-01   999.7330 0.0000e+00
      7.207    10.1275     0.1524      1.346  42.299441     60.074      6.192   184.8450     3.5138     4.7499     0.0294      0.099      7.066     10.247        606 1.2409e-01   999.7386 0.0000e+00
      7.218    10.1131     0.1487      1.313  42.334826     60.174      6.184   181.5893     3.5405     4.7643     0.0294      0.095      7.078     10.266        607 1.2344e-01   999.7440 0.0000e+00
      7.229    10.1101     0.1477      1.303  42.951131     61.077      6.177   178.8257     3.5215     4.7499     0.0298      0.088      7.091     10.285        608 1.2376e-01   999.7479 0.0000e+00
      7.248    10.1049     0.1516      1.338  43.429779     61.975      6.175   175.9864     3.5291     4.6490     0.0301      0.082      7.111     10.314        609 1.2361e-01   999.7495 0.0000e+00
      7.277    10.0728     0.1427      1.258  43.606837     61.903      6.171   173.5257     3.5176     3.3656     0.0301      0.081      7.137     10.352        610 1.2382e-01   999.7500 0.0000e+00
      7.308    10.0251     0.1463      1.289  45.280452     64.614      6.162   171.7085     3.5176     3.3800     0.0313      0.080      7.165     10.393        611 1.2363e-01   999.7515 0.0000e+00
      7.334     9.9862     0.1465      1.290  47.158102     67.146      6.159   170.8000     3.5443     3.3224     0.0324      0.080      7.190     10.428        612 1.2381e-01   999.7554 0.0000e+00
      7.352     9.9573     0.1498      1.319  48.445456     69.231      6.150   169.0964     3.5329     3.3945     0.0333      0.082      7.209     10.455        613 1.2366e-01   999.7604 0.0000e+00
      7.367     9.9335     0.1445      1.271  49.193665     70.267      6.143   167.2792     3.1819     3.1637     0.0338      0.086      7.224     10.478        614 1.2360e-01   999.7643 0.0000e+00
      7.382     9.9084     0.1467      1.290  49.577846     70.924      6.141   165.5757     3.1552     3.1061     0.0340      0.087      7.239     10.500        615 1.2369e-01   999.7671 0.0000e+00
      7.398     9.8810     0.1416      1.244  49.805959     71.293      6.133   162.7364     3.1743     3.0916     0.0342      0.085      7.255     10.524        616 1.2371e-01   999.7694 0.0000e+00
      7.417     9.8534     0.1368      1.201  49.918076     71.464      6.126   159.9728     3.1629     3.0340     0.0343      0.080      7.272     10.548        617 1.2359e-01   999.7717 0.0000e+00
      7.433     9.8277     0.1390      1.220  50.476291     72.362      6.123   157.7771     3.1781     2.9186     0.0347      0.072      7.286     10.568        618 1.2370e-01   999.7745 0.0000e+00
      7.441     9.8089     0.1331      1.168  50.801694     72.900      6.117   155.9599     3.1667     2.8898     0.0349      0.065      7.296     10.582        619 1.2372e-01   999.7771 0.0000e+00
      7.446     9.7965     0.1361      1.193  50.729051     72.793      6.116   154.0292     3.1934     2.8465     0.0348      0.058      7.305     10.594        620 1.2362e-01   999.7793 0.0000e+00
      7.459     9.7791     0.1360      1.191  50.626024     72.753      6.111   152.0985     3.1552     2.9763     0.0348      0.054      7.318     10.613        621 1.2378e-01   999.7809 0.0000e+00
      7.482     9.7551     0.1355      1.186  50.514727     72.536      6.110   150.3949     3.0027     3.1782     0.0347      0.053      7.336     10.641        622 1.2379e-01   999.7820 0.0000e+00
      7.502     9.7291     0.1360      1.189  50.393061     72.493      6.106   148.5020     2.9798     3.0916     0.0347      0.054      7.356     10.669        623 1.2355e-01   999.7836 0.0000e+00
      7.520     9.7036     0.1343      1.174  50.036039     71.940      6.101   147.0635     2.9988     3.1349     0.0344      0.056      7.376     10.698        624 1.2367e-01   999.7855 0.0000e+00
      7.543     9.6796     0.1311      1.146  50.247301     72.316      6.097   144.9056     2.9798     3.1637     0.0346      0.060      7.399     10.731        625 1.2380e-01   999.7880 0.0000e+00
      7.571     9.6527     0.1281      1.120  51.435074     74.101      6.094   141.4606     2.8539     3.1061     0.0353      0.069      7.425     10.769        626 1.2376e-01   999.7909 0.0000e+00
      7.600     9.6204     0.1379      1.205  52.354046     75.522      6.088   139.4163     2.8729     3.1637     0.0360      0.080      7.452     10.808        627 1.2378e-01   999.7935 0.0000e+00
      7.625     9.5918     0.1316      1.150  52.632996     75.903      6.086   136.8042     2.8577     3.2503     0.0361      0.089      7.475     10.841        628 1.2382e-01   999.7960 0.0000e+00
      7.640     9.5689     0.1334      1.165  52.897152     76.419      6.083   134.1920     2.8539     3.1493     0.0363      0.092      7.492     10.867        629 1.2382e-01   999.7990 0.0000e+00
      7.655     9.5448     0.1341      1.171  53.122746     76.765      6.077   130.4441     2.9836     2.9330     0.0365      0.090      7.510     10.893        630 1.2373e-01   999.8015 0.0000e+00
      7.682     9.5162     0.1335      1.166  53.835296     77.825      6.075   127.3777     2.9874     2.9474     0.0369      0.090      7.533     10.927        631 1.2385e-01   999.8039 0.0000e+00
      7.710     9.4828     0.1346      1.174  54.976566     79.620      6.070   125.6363     2.9836     2.8032     0.0377      0.090      7.558     10.962        632 1.2376e-01   999.8067 0.0000e+00
      7.730     9.4550     0.1308      1.141  55.617896     80.535      6.069   124.2356     2.9836     2.8609     0.0381      0.089      7.577     10.989        633 1.2365e-01   999.8094 0.0000e+00
      7.739     9.4400     0.1271      1.109  55.677204     80.777      6.063   122.3427     2.9912     2.8321     0.0382      0.083      7.589     11.007        634 1.2381e-01   999.8122 0.0000e+00
      7.748     9.4296     0.1233      1.075  55.822361     80.923      6.059   120.3363     2.8081     2.7023     0.0383      0.076      7.600     11.023        635 1.2376e-01   999.8146 0.0000e+00
      7.764     9.4155     0.1242      1.082  56.742528     82.419      6.061   118.1405     2.8234     2.5725     0.0389      0.072      7.614     11.043        636 1.2375e-01   999.8164 0.0000e+00
      7.780     9.3993     0.1283      1.117  57.498627     83.499      6.058   116.8155     2.8195     2.6158     0.0394      0.069      7.630     11.067        637 1.2378e-01   999.8177 0.0000e+00
      7.799     9.3888     0.1201      1.045  58.055692     84.305      6.057   113.8248     2.8005     2.6302     0.0398      0.065      7.650     11.096        638 1.2368e-01   999.8192 0.0000e+00
      7.825     9.3920     0.1192      1.037  58.511657     85.117      6.056   112.3862     2.6708     2.9619     0.0401      0.063      7.673     11.128        639 1.2374e-01   999.8209 0.0000e+00
      7.847     9.3933     0.1217      1.059  59.007958     85.672      6.051   111.3641     2.6784     2.8321     0.0404      0.065      7.695     11.161        640 1.2376e-01   999.8221 0.0000e+00
      7.870     9.3754     0.1243      1.081  60.939089     88.631      6.050   109.6984     2.6860     2.8465     0.0417      0.070      7.718     11.193        641 1.2367e-01   999.8230 0.0000e+00
      7.893     9.3513     0.1215      1.055  63.348252     92.081      6.046   108.2598     2.6784     2.8465     0.0433      0.078      7.739     11.223        642 1.2375e-01   999.8242 0.0000e+00
      7.908     9.3320     0.1238      1.076  64.110563     93.352      6.045   107.5784     2.1825     2.8177     0.0438      0.082      7.756     11.248        643 1.2378e-01   999.8261 0.0000e+00
      7.922     9.3170     0.1172      1.017  64.411960     93.579      6.042   105.3069     2.1825     2.8177     0.0439      0.082      7.773     11.273        644 1.2366e-01   999.8283 0.0000e+00
      7.948     9.3019     0.1240      1.076  66.119008     96.402      6.038   103.9819     2.1977     2.9474     0.0452      0.082      7.795     11.305        645 1.2367e-01   999.8309 0.0000e+00
      7.976     9.2840     0.1217      1.055  67.179958     97.870      6.036   103.4519     2.1901     2.8898     0.0459      0.083      7.820     11.341        646 1.2382e-01   999.8327 0.0000e+00
      7.998     9.2661     0.1255      1.088  67.038989     97.709      6.034   102.7326     1.7705     2.9042     0.0458      0.083      7.843     11.375        647 1.2382e-01   999.8339 0.0000e+00
      8.020     9.2495     0.1162      1.006  67.481679     98.372      6.031   102.5812     1.7743     2.8898     0.0461      0.084      7.865     11.407        648 1.2378e-01   999.8357 0.0000e+00
      8.041     9.2314     0.1163      1.007  68.172500     99.525      6.029   101.3698     1.7667     2.8465     0.0466      0.085      7.886     11.438        649 1.2379e-01   999.8376 0.0000e+00
      8.063     9.2140     0.1186      1.026  68.197658     99.533      6.026   100.8019     1.7590     2.8753     0.0466      0.087      7.908     11.470        650 1.2371e-01   999.8390 0.0000e+00
      8.087     9.1970     0.1172      1.014  68.192439     99.585      6.023    99.5148     1.5225     2.9474     0.0466      0.089      7.933     11.505        651 1.2377e-01   999.8405 0.0000e+00
      8.117     9.1748     0.1208      1.045  68.268060     99.801      6.021    98.3033     1.5111     2.9186     0.0467      0.093      7.960     11.546        652 1.2373e-01   999.8421 0.0000e+00
      8.148     9.1519     0.1159      1.002  67.806745     99.112      6.019    97.0540     1.5263     2.8898     0.0464      0.095      7.989     11.587        653 1.2370e-01   999.8433 0.0000e+00
      8.176     9.1304     0.1148      0.993  67.401176     98.606      6.013    96.1455     1.5225     2.7888     0.0461      0.097      8.016     11.625        654 1.2370e-01   999.8450 0.0000e+00
      8.196     9.1073     0.1251      1.082  67.644884     98.998      6.012    95.0098     1.5187     2.8465     0.0463      0.100      8.037     11.656        655 1.2367e-01   999.8470 0.0000e+00
      8.214     9.0845     0.1191      1.030  67.562837     99.061      6.009    94.0633     1.5759     2.9907     0.0463      0.100      8.055     11.683        656 1.2380e-01   999.8487 0.0000e+00
      8.230     9.0641     0.1150      0.994  67.147130     98.307      6.008    93.4576     1.5530     2.9186     0.0460      0.097      8.072     11.708        657 1.2371e-01   999.8503 0.0000e+00
      8.251     9.0424     0.1111      0.961  66.618823     97.882      6.005    91.5269     1.5950     2.8898     0.0458      0.093      8.091     11.735        658 1.2368e-01   999.8519 0.0000e+00
      8.271     9.0210     0.1114      0.962  65.608461     96.133      6.007    90.4669     1.5950     2.9186     0.0450      0.087      8.110     11.763        659 1.2367e-01   999.8530 0.0000e+00
      8.288     9.0060     0.1099      0.950  65.555271     96.360      6.006    90.0126     1.5797     2.9042     0.0450      0.081      8.128     11.789        660 1.2376e-01   999.8548 0.0000e+00
      8.307     8.9941     0.1131      0.977  65.675923     96.503      6.006    88.9147     1.5683     2.7888     0.0451      0.076      8.148     11.817        661 1.2382e-01   999.8565 0.0000e+00
      8.331     8.9844     0.1171      1.012  65.577046     96.380      6.007    87.6654     1.5607     2.8898     0.0450      0.075      8.171     11.851        662 1.2372e-01   999.8578 0.0000e+00
      8.359     8.9792     0.1113      0.961  65.737695     96.743      6.005    86.9462     1.5759     2.8465     0.0452      0.078      8.197     11.888        663 1.2354e-01   999.8589 0.0000e+00
      8.386     8.9789     0.1123      0.969  66.989672     98.376      6.003    86.1512     1.5187     3.2214     0.0459      0.083      8.223     11.925        664 1.2355e-01   999.8604 0.0000e+00
      8.408     8.9804     0.1148      0.990  68.708571    101.354      6.002    85.1669     1.5187     3.1637     0.0473      0.087      8.245     11.957        665 1.2375e-01   999.8618 0.0000e+00
      8.426     8.9785     0.1089      0.939  68.970942    101.273      6.006    83.5011     1.5302     3.0340     0.0472      0.089      8.264     11.986        666 1.2374e-01   999.8620 0.0000e+00
      8.446     8.9729     0.1090      0.940  69.186165    101.967      6.004    82.4033     1.5302     3.1349     0.0476      0.090      8.284     12.015        667 1.2384e-01   999.8621 0.0000e+00
      8.469     8.9633     0.1058      0.913  69.331248    101.891      6.006    81.1161     1.4424     3.0916     0.0475      0.090      8.306     12.047        668 1.2368e-01   999.8624 0.0000e+00
      8.494     8.9500     0.1025      0.884  69.057546    101.743      6.006    80.0940     1.4653     3.1205     0.0475      0.090      8.329     12.081        669 1.2377e-01   999.8629 0.0000e+00
      8.517     8.9399     0.1058      0.912  68.665959    100.989      6.005    79.1097     1.4691     3.1493     0.0471      0.088      8.352     12.114        670 1.2401e-01   999.8635 0.0000e+00
      8.539     8.9327     0.1025      0.883  68.571867    101.029      6.005    78.5797     1.4767     3.1637     0.0471      0.087      8.376     12.148        671 1.2366e-01   999.8645 0.0000e+00
      8.566     8.9225     0.1117      0.962  68.670031    101.142      6.003    77.7468     1.5683     2.7888     0.0472      0.088      8.401     12.185        672 1.2363e-01   999.8654 0.0000e+00
      8.596     8.9083     0.1088      0.937  68.514122    100.957      6.005    76.6490     1.5797     2.9186     0.0471      0.092      8.429     12.226        673 1.2366e-01   999.8660 0.0000e+00
      8.625     8.8939     0.1075      0.926  68.380019    100.781      6.003    76.4218     1.5836     2.7600     0.0470      0.097      8.458     12.267        674 1.2367e-01   999.8668 0.0000e+00
      8.652     8.8801     0.1083      0.932  68.302635    100.700      6.003    75.7783     1.5759     2.9763     0.0469      0.101      8.485     12.306        675 1.2379e-01   999.8680 0.0000e+00
      8.679     8.8691     0.1110      0.955  68.283927    100.743      6.001    74.9454     1.3890     3.1637     0.0470      0.104      8.511     12.343        676 1.2363e-01   999.8692 0.0000e+00
      8.704     8.8658     0.1072      0.923  68.195536    100.618      6.002    74.5668     1.3928     3.1493     0.0469      0.105      8.537     12.381        677 1.2374e-01   999.8703 0.0000e+00
      8.734     8.8597     0.1081      0.930  68.086139    100.529      6.003    73.8475     1.3966     3.0051     0.0469      0.108      8.565     12.421        678 1.2390e-01   999.8712 0.0000e+00
      8.761     8.8468     0.1063      0.915  67.826430    100.124      6.002    73.4690     1.3890     3.0484     0.0467      0.109      8.590     12.458        679 1.2369e-01   999.8714 0.0000e+00
      8.782     8.8346     0.1052      0.905  67.628278     99.852      6.002    73.0147     1.3623     3.0772     0.0465      0.107      8.612     12.490        680 1.2365e-01   999.8718 0.0000e+00
      8.800     8.8224     0.1063      0.914  67.620373     99.892      6.003    72.5225     1.3394     3.1782     0.0466      0.102      8.631     12.518        681 1.2376e-01   999.8728 0.0000e+00
      8.820     8.8106     0.1040      0.894  67.569142     99.844      6.003    71.7275     1.3356     3.1926     0.0465      0.097      8.651     12.546        682 1.2386e-01   999.8738 0.0000e+00
      8.843     8.7996     0.1055      0.907  67.513955     99.798      6.005    70.8568     1.3509     3.1061     0.0465      0.093      8.673     12.578        683 1.2372e-01   999.8748 0.0000e+00
      8.868     8.7889     0.1061      0.912  67.510973     99.832      6.006    69.9861     1.3585     3.1637     0.0465      0.091      8.697     12.613        684 1.2365e-01   999.8758 0.0000e+00
      8.894     8.7803     0.1088      0.935  67.513502     99.865      6.006    69.2668     1.3470     3.3079     0.0465      0.089      8.721     12.647        685 1.2375e-01   999.8767 0.0000e+00
      8.914     8.7734     0.1075      0.924  67.510820     99.897      6.006    69.0397     1.3470     3.3512     0.0465      0.087      8.741     12.677        686 1.2374e-01   999.8776 0.0000e+00
      8.931     8.7676     0.1006      0.865  67.454958     99.840      6.009    69.1154     1.3509     3.4377     0.0465      0.086      8.758     12.703        687 1.2375e-01   999.8783 0.0000e+00
      8.946     8.7632     0.1041      0.895  67.404940     99.777      6.009    68.6232     1.3318     3.3512     0.0465      0.084      8.776     12.729        688 1.2380e-01   999.8788 0.0000e+00
      8.970     8.7577     0.1086      0.933  67.394984     99.795      6.010    67.3361     1.4310     2.8609     0.0465      0.084      8.799     12.762        689 1.2378e-01   999.8794 0.0000e+00
      9.001     8.7498     0.1056      0.908  67.348628     99.724      6.008    67.1847     1.4043     2.8177     0.0464      0.085      8.824     12.799        690 1.2356e-01   999.8798 0.0000e+00
      9.024     8.7417     0.1141      0.980  67.343909     99.741      6.012    66.3140     1.3738     2.8898     0.0464      0.085      8.848     12.833        691 1.2356e-01   999.8803 0.0000e+00
      9.042     8.7356     0.1051      0.903  67.400862     99.847      6.011    65.1404     1.4081     2.8465     0.0465      0.085      8.868     12.862        692 1.2370e-01   999.8810 0.0000e+00
      9.063     8.7362     0.1082      0.929  67.515209    100.037      6.012    64.3075     1.1639     3.1637     0.0466      0.085      8.888     12.891        693 1.2365e-01   999.8817 0.0000e+00
      9.085     8.7383     0.1076      0.924  67.617158    100.220      6.014    63.6261     1.1563     3.1061     0.0466      0.086      8.909     12.921        694 1.2366e-01   999.8823 0.0000e+00
      9.105     8.7331     0.1023      0.878  67.719220    100.344      6.015    63.1339     1.1334     3.0628     0.0467      0.088      8.929     12.951        695 1.2361e-01   999.8824 0.0000e+00
      9.127     8.7259     0.0968      0.831  67.922469    100.667      6.017    62.7932     1.1449     3.0916     0.0468      0.087      8.949     12.980        696 1.2360e-01   999.8824 0.0000e+00
      9.146     8.7227     0.1007      0.864  68.046908    100.851      6.016    62.3768     1.1182     3.1205     0.0469      0.084      8.968     13.008        697 1.2381e-01   999.8830 0.0000e+00
      9.163     8.7227     0.1080      0.927  68.128326    100.995      6.018    61.6954     1.1754     3.1061     0.0470      0.080      8.988     13.035        698 1.2386e-01   999.8837 0.0000e+00
      9.185     8.7190     0.1035      0.888  68.266390    101.214      6.019    60.5218     1.1449     3.1349     0.0471      0.079      9.010     13.069        699 1.2369e-01   999.8840 0.0000e+00
      9.217     8.7094     0.1011      0.868  68.409383    101.419      6.020    59.7268     1.1639     3.0628     0.0472      0.082      9.038     13.110        700 1.2362e-01   999.8842 0.0000e+00
      9.248     8.6995     0.1029      0.884  68.603401    101.722      6.017    59.4239     1.0953     3.1205     0.0473      0.087      9.067     13.152        701 1.2370e-01   999.8848 0.0000e+00
      9.273     8.6910     0.1007      0.864  68.767022    101.999      6.018    58.7046     1.0915     3.1061     0.0474      0.092      9.092     13.188        702 1.2370e-01   999.8857 0.0000e+00
      9.294     8.6853     0.1052      0.902  68.918167    102.237      6.018    58.5532     1.0609     3.1061     0.0475      0.095      9.114     13.218        703 1.2376e-01   999.8866 0.0000e+00
      9.313     8.6815     0.0977      0.839  69.068352    102.512      6.020    58.0232     1.0724     3.1205     0.0477      0.096      9.133     13.246        704 1.2390e-01   999.8874 0.0000e+00
      9.331     8.6767     0.0973      0.835  69.144120    102.613      6.021    57.9096     1.1525     3.0916     0.0477      0.096      9.150     13.272        705 1.2376e-01   999.8879 0.0000e+00
      9.349     8.6700     0.0971      0.833  69.180088    102.707      6.020    56.8496     1.1525     2.9907     0.0477      0.093      9.169     13.300        706 1.2376e-01   999.8882 0.0000e+00
      9.372     8.6649     0.0963      0.826  69.320438    102.888      6.019    55.9789     1.1563     3.1061     0.0478      0.088      9.191     13.331        707 1.2382e-01   999.8888 0.0000e+00
      9.396     8.6632     0.1029      0.882  69.533465    103.282      6.022    55.4868     1.1258     3.0340     0.0480      0.083      9.213     13.362        708 1.2378e-01   999.8895 0.0000e+00
      9.416     8.6595     0.0986      0.846  69.746151    103.547      6.022    55.3732     1.1487     3.1349     0.0481      0.081      9.233     13.392        709 1.2372e-01   999.8900 0.0000e+00
      9.434     8.6556     0.0930      0.797  69.916618    103.884      6.022    54.8432     1.0266     3.3512     0.0483      0.080      9.251     13.417        710 1.2381e-01   999.8903 0.0000e+00
      9.449     8.6572     0.1004      0.861  69.796286    103.647      6.024    54.9189     1.0419     3.4521     0.0482      0.078      9.268     13.442        711 1.2390e-01   999.8906 0.0000e+00
      9.468     8.6562     0.1062      0.911  69.777164    103.659      6.025    54.4646     1.0304     3.2791     0.0482      0.078      9.288     13.471        712 1.2370e-01   999.8909 0.0000e+00
      9.496     8.6495     0.1046      0.897  70.029473    104.027      6.025    53.4803     1.0342     3.3368     0.0483      0.079      9.313     13.508        713 1.2363e-01   999.8911 0.0000e+00
      9.528     8.6417     0.1024      0.878  70.343168    104.487      6.024    53.1396     1.0838     3.0484     0.0485      0.083      9.341     13.548        714 1.2362e-01   999.8915 0.0000e+00
      9.552     8.6344     0.1035      0.887  70.603888    104.925      6.026    52.7989     1.0876     3.1349     0.0487      0.086      9.365     13.583        715 1.2369e-01   999.8923 0.0000e+00
      9.568     8.6293     0.0939      0.804  70.625279    104.949      6.025    52.4961     1.0991     3.0772     0.0487      0.087      9.383     13.609        716 1.2372e-01   999.8929 0.0000e+00
      9.583     8.6253     0.0985      0.843  70.761847    105.180      6.025    51.4361     1.0800     3.0628     0.0488      0.087      9.401     13.634        717 1.2376e-01   999.8935 0.0000e+00
      9.607     8.6198     0.1013      0.868  70.908922    105.445      6.025    50.7546     1.0342     3.2214     0.0490      0.088      9.422     13.665        718 1.2362e-01   999.8940 0.0000e+00
      9.632     8.6128     0.0964      0.826  71.125044    105.707      6.026    50.6411     1.0190     3.1061     0.0491      0.089      9.446     13.700        719 1.2357e-01   999.8946 0.0000e+00
      9.656     8.6102     0.0908      0.778  71.442874    106.307      6.026    49.6946     1.0762     3.1061     0.0494      0.088      9.469     13.734        720 1.2363e-01   999.8953 0.0000e+00
      9.679     8.6157     0.0943      0.807  71.374320    106.121      6.026    49.4296     1.0113     3.0916     0.0493      0.086      9.490     13.765        721 1.2370e-01   999.8959 0.0000e+00
      9.699     8.6196     0.0916      0.784  71.180677    105.922      6.027    48.8618     1.0266     3.1493     0.0492      0.084      9.509     13.792        722 1.2389e-01   999.8961 0.0000e+00
      9.713     8.6166     0.0939      0.804  71.238553    105.903      6.029    48.1046     1.0304     3.1637     0.0492      0.083      9.526     13.817        723 1.2370e-01   999.8957 0.0000e+00
      9.731     8.6066     0.0942      0.806  71.599166    106.516      6.028    47.0825     1.0457     3.1637     0.0494      0.083      9.545     13.844        724 1.2365e-01   999.8958 0.0000e+00
      9.756     8.5942     0.0962      0.823  72.127217    107.231      6.031    46.4389     1.0381     3.1637     0.0498      0.083      9.566     13.875        725 1.2373e-01   999.8964 0.0000e+00
      9.777     8.5860     0.1028      0.879  72.629887    108.097      6.033    46.0603     1.0266     2.8609     0.0502      0.081      9.585     13.903        726 1.2381e-01   999.8974 0.0000e+00
      9.791     8.5819     0.1106      0.945  72.725240    108.220      6.028    45.5682     1.0190     2.8898     0.0502      0.077      9.600     13.923        727 1.2374e-01   999.8984 0.0000e+00
      9.799     8.5800     0.1090      0.931  72.661720    108.163      6.031    45.5303     1.0113     2.8753     0.0502      0.072      9.611     13.940        728 1.2355e-01   999.8990 0.0000e+00
      9.813     8.5766     0.0992      0.848  72.649569    108.176      6.032    44.8868     1.0342     2.9619     0.0502      0.068      9.626     13.962        729 1.2373e-01   999.8993 0.0000e+00
      9.837     8.5672     0.1017      0.869  72.977882    108.600      6.031    44.1296     1.6599     3.2070     0.0504      0.067      9.648     13.994        730 1.2370e-01   999.8997 0.0000e+00
      9.865     8.5543     0.0969      0.828  74.390848    110.776      6.032    43.3346     1.6408     3.1926     0.0514      0.070      9.674     14.031        731 1.2365e-01   999.9009 0.0000e+00
      9.891     8.5481     0.0991      0.847  75.582371    112.641      6.032    43.3725     1.6332     3.1205     0.0522      0.073      9.699     14.067        732 1.2377e-01   999.9022 0.0000e+00
      9.912     8.5463     0.0919      0.785  75.859793    112.977      6.032    42.5775     1.6522     3.0628     0.0524      0.076      9.719     14.097        733 1.2367e-01   999.9034 0.0000e+00
      9.929     8.5377     0.0952      0.813  75.708415    112.915      6.032    42.3125     1.6293     3.1061     0.0523      0.079      9.738     14.124        734 1.2365e-01   999.9039 0.0000e+00
      9.949     8.5231     0.0940      0.803  76.156787    113.336      6.035    40.9117     1.0915     3.5531     0.0525      0.084      9.758     14.153        735 1.2371e-01   999.9044 0.0000e+00
      9.973     8.5078     0.0944      0.806  78.330759    116.871      6.032    40.3060     1.0686     3.6396     0.0541      0.087      9.780     14.185        736 1.2358e-01   999.9063 0.0000e+00
      9.996     8.4947     0.0987      0.843  80.338048    119.801      6.031    40.3060     1.1258     3.6108     0.0555      0.088      9.801     14.215        737 1.2369e-01   999.9084 0.0000e+00
     10.013     8.4839     0.0917      0.783  81.172434    121.152      6.033    39.7760     1.0609     3.5819     0.0561      0.085      9.819     14.241        738 1.2380e-01   999.9100 0.0000e+00
     10.027     8.4751     0.0964      0.822  81.866255    122.159      6.033    39.2082     1.2097     3.0772     0.0565      0.080      9.834     14.262        739 1.2361e-01   999.9114 0.0000e+00
     10.041     8.4700     0.0965      0.823  82.563640    123.328      6.035    38.6403     1.2059     3.0628     0.0571      0.076      9.849     14.284        740 1.2373e-01   999.9125 0.0000e+00
     10.060     8.4656     0.0973      0.831  83.066960    124.029      6.031    37.8453     1.2135     3.0484     0.0574      0.074      9.867     14.311        741 1.2377e-01   999.9135 0.0000e+00
     10.083     8.4578     0.0997      0.850  83.705335    125.052      6.031    37.5803     1.2059     3.0340     0.0578      0.073      9.888     14.341        742 1.2368e-01   999.9143 0.0000e+00
     10.105     8.4493     0.0919      0.784  84.858558    126.740      6.030    37.7696     1.0648     3.1205     0.0586      0.072      9.909     14.371        743 1.2368e-01   999.9154 0.0000e+00
     10.123     8.4424     0.0930      0.794  86.058085    128.654      6.030    37.3910     1.0381     3.1782     0.0595      0.072      9.925     14.395        744 1.2380e-01   999.9166 0.0000e+00
     10.134     8.4369     0.0972      0.829  86.728135    129.606      6.030    37.5424     1.0152     3.0195     0.0599      0.070      9.938     14.415        745 1.2372e-01   999.9176 0.0000e+00
     10.147     8.4327     0.0916      0.781  87.262983    130.471      6.028    37.3153     1.0266     3.1782     0.0603      0.069      9.953     14.436        746 1.2371e-01   999.9185 0.0000e+00
     10.169     8.4282     0.0928      0.791  88.096131    131.706      6.029    36.7474     1.0190     2.9042     0.0609      0.070      9.973     14.465        747 1.2381e-01   999.9194 0.0000e+00
     10.194     8.4230     0.0989      0.843  89.464698    133.774      6.028    36.7474     1.0304     2.9042     0.0618      0.071      9.995     14.498        748 1.2369e-01   999.9205 0.0000e+00
     10.216     8.4175     0.1003      0.855  90.848785    135.929      6.027    36.2553     1.0266     2.9042     0.0628      0.072     10.015     14.527        749 1.2375e-01   999.9217 0.0000e+00
     10.229     8.4127     0.0935      0.797  91.752020    137.207      6.025    36.2553     1.0533     2.8898     0.0634      0.072     10.030     14.548        750 1.2373e-01   999.9226 0.0000e+00
     10.239     8.4092     0.0946      0.806  92.203738    138.025      6.024    36.5203     1.0190     3.1061     0.0638      0.070     10.041     14.564        751 1.2360e-01   999.9233 0.0000e+00
     10.251     8.4069     0.0916      0.781  92.455994    138.255      6.023    36.3310     1.0381     3.0628     0.0639      0.068     10.054     14.583        752 1.2355e-01   999.9239 0.0000e+00
     10.269     8.4042     0.0897      0.765  93.607554    140.114      6.023    35.5360     1.0190     3.1493     0.0647      0.067     10.073     14.609        753 1.2377e-01   999.9248 0.0000e+00
     10.296     8.4015     0.0854      0.728  95.317794    142.638      6.023    34.0974     1.0190     3.1061     0.0659      0.067     10.098     14.646        754 1.2378e-01   999.9259 0.0000e+00
     10.327     8.3986     0.0834      0.711  96.866348    144.998      6.023    33.1510     1.0152     3.2791     0.0670      0.070     10.127     14.688        755 1.2363e-01   999.9271 0.0000e+00
     10.358     8.3922     0.0867      0.740  98.011481    146.729      6.021    32.5453     1.0533     3.2791     0.0678      0.075     10.155     14.729        756 1.2373e-01   999.9281 0.0000e+00
     10.382     8.3832     0.0911      0.778  98.618990    147.621      6.017    32.0531     1.0190     3.3800     0.0682      0.083     10.179     14.764        757 1.2373e-01   999.9287 0.0000e+00
     10.400     8.3749     0.0950      0.811  99.291068    148.657      6.014    31.5610     1.0495     3.3079     0.0686      0.090     10.196     14.789        758 1.2368e-01   999.9296 0.0000e+00
     10.409     8.3694     0.0919      0.784 100.118169    149.956      6.015    31.0689     1.1601     3.5098     0.0692      0.093     10.207     14.805        759 1.2362e-01   999.9307 0.0000e+00
     10.418     8.3669     0.0940      0.802 100.265271    150.245      6.015    30.7281     1.1334     3.5819     0.0694      0.088     10.217     14.819        760 1.2373e-01   999.9313 0.0000e+00
     10.428     8.3684     0.0913      0.779 101.753983    152.243      6.017    29.0246     1.1258     3.5675     0.0703      0.079     10.228     14.834        761 1.2384e-01   999.9327 0.0000e+00
     10.440     8.3736     0.0973      0.831 103.319891    155.193      6.015    27.5860     1.1296     3.4666     0.0717      0.067     10.239     14.850        762 1.2368e-01   999.9338 0.0000e+00
     10.453     8.3836     0.0924      0.789 104.649630    156.279      6.013    26.9424     1.1220     3.4377     0.0722      0.057     10.251     14.867        763 1.2364e-01   999.9344 0.0000e+00
     10.464     8.3982     0.0930      0.793 105.659596    158.981      6.014    26.6774     1.1258     3.7550     0.0734      0.048     10.261     14.882        764 1.2376e-01   999.9347 0.0000e+00
     10.473     8.4123     0.0940      0.802 103.936435    155.033      6.014    26.3746     1.1678     3.7117     0.0716      0.043     10.270     14.895        765 1.2368e-01   999.9331 0.0000e+00
     10.480     8.4226     0.0866      0.739 104.177252    156.346      6.013    25.1631     1.1525     3.8271     0.0722      0.041     10.277     14.905        766 1.2377e-01   999.9323 0.0000e+00
     10.485     8.4222     0.0872      0.744 105.597699    157.751      6.014    23.0431     1.1601     3.7694     0.0729      0.040     10.282     14.914        767 1.2371e-01   999.9321 0.0000e+00
     10.491     8.4141     0.0890      0.759 106.599475    159.628      6.013    21.1881     1.1525     3.7405     0.0737      0.037     10.287     14.921        768 1.2349e-01   999.9320 0.0000e+00
     10.494     8.4091     0.0935      0.798 107.272299    160.428      6.012    19.6360     1.1220     3.8126     0.0741      0.032     10.291     14.926        769 1.2367e-01   999.9324 0.0000e+00
     10.497     8.4082 -9.990e-29 -9.990e-29 106.604177    159.545      6.016    19.2952     1.1678     3.6396     0.0737      0.027     10.294     14.930        770 1.2363e-01   999.9326 0.0000e+00
     10.500     8.4109 -9.990e-29 -9.990e-29 105.825046    158.352      6.017    19.0302     1.1678     3.7838     0.0731      0.022     10.296     14.934        771 1.2357e-01   999.9324 0.0000e+00
     10.501     8.4146 -9.990e-29 -9.990e-29 105.149122    157.350      6.017    18.4624     1.1296     3.7838     0.0727      0.018     10.297     14.935        772 1.2376e-01   999.9322 0.0000e+00
     10.500     8.4132 -9.990e-29 -9.990e-29 104.412135    156.289      6.021    17.8567     1.1372     3.7982     0.0722      0.014     10.297     14.935        773 1.2378e-01   999.9317 0.0000e+00
     10.501     8.4114 -9.990e-29 -9.990e-29 103.768576    155.180      6.020    17.8188     1.1601     3.7982     0.0717      0.010     10.298     14.936        774 1.2366e-01   999.9311 0.0000e+00
     10.501     8.4112 -9.990e-29 -9.990e-29 103.333291    154.726      6.020    17.4402     1.1411     3.8271     0.0715      0.007     10.298     14.936        775 1.2368e-01   999.9309 0.0000e+00
     10.501     8.4103 -9.990e-29 -9.990e-29 102.575083    153.394      6.022    17.4402     1.1678     3.2503     0.0708      0.004     10.298     14.936        776 1.2364e-01   999.9306 0.0000e+00
     10.501     8.4097 -9.990e-29 -9.990e-29 101.917197    152.595      6.024    16.5317     1.1563     3.3368     0.0705      0.003     10.299     14.937        777 1.2377e-01   999.9302 0.0000e+00
     10.504     8.4165 -9.990e-29 -9.990e-29 101.178752    151.345      6.025    16.5317     1.1525     3.1926     0.0699      0.002     10.301     14.941        778 1.2374e-01   999.9299 0.0000e+00
     10.509     8.4242 -9.990e-29 -9.990e-29 100.312796    150.170      6.024    15.5095     1.1449     3.2935     0.0694      0.003     10.306     14.946        779 1.2370e-01   999.9296 0.0000e+00
     10.513 -9.990e-29 -9.990e-29 -9.990e-29  99.932607    149.433      6.024    14.1088     1.0342     3.3656     0.0690      0.005     10.309     14.951        780 1.2388e-01   999.9289 0.0000e+00
     10.514 -9.990e-29 -9.990e-29 -9.990e-29  99.927543    149.556      6.025    12.8217     1.0342     3.3224     0.0691      0.007     10.310     14.953        781 1.2379e-01   999.9284 0.0000e+00
