* Sea-Bird SBE19plus  Data File:
* FileName = C:\R\Reservoirs\Data\DataNotYetUploadedToEDI\Raw_CTD\RawDownloads\071122_bvr40_0001.hex
* Software version 2.8.0.119
* Temperature SN = 7809
* Conductivity SN = 7809
* System UpLoad Time = Jul 14 2022 16:05:20
* <ApplicationData>
* <Seaterm232>
* <SoftwareVersion>2.8.0.119</SoftwareVersion>
* <BuildDate>07-Nov-2018</BuildDate>
* </Seaterm232>
* </ApplicationData>
* <InstrumentState>
* <HardwareData DeviceType='SBE19plus' SerialNumber='01907809'>
*
*    <Manufacturer>Sea-Bird Electronics, Inc.</Manufacturer>
*
*    <FirmwareVersion>3.1.8</FirmwareVersion>
*
*    <FirmwareDate>Mar  9 2016 16:22:29</FirmwareDate>
*
*    <CommandSetVersion>1.4</CommandSetVersion>
*
*    <PCBAssembly PCBSerialNum='120721' AssemblyNum='41054J'/>
*
*    <PCBAssembly PCBSerialNum='120715' AssemblyNum='41967A'/>
*
*    <PCBAssembly PCBSerialNum='116699' AssemblyNum='41606'/>
*
*    <PCBAssembly PCBSerialNum='120719' AssemblyNum='41059D'/>
*
*    <MfgDate>28-Apr-2017</MfgDate>
*
*    <InternalSensors>
*
*       <Sensor id='Main Temperature'>
*
*          <type>temperature0</type>
*
*          <SerialNumber>01907809</SerialNumber>
*
*       </Sensor>
*
*       <Sensor id='Main Conductivity'>
*
*          <type>conductivity-0</type>
*
*          <SerialNumber>01907809</SerialNumber>
*
*       </Sensor>
*
*       <Sensor id='Main Pressure'>
*
*          <type>strain-0</type>
*
*          <SerialNumber>10586018</SerialNumber>
*
*       </Sensor>
*
*    </InternalSensors>
*
*    <ExternalSensors>
*
*       <Sensor id='volt 0'>
*
*          <type>pH</type>
*
*          <SerialNumber>27-0363</SerialNumber>
*
*       </Sensor>
*
*       <Sensor id='volt 1'>
*
*          <type>ORP</type>
*
*          <SerialNumber>27-0363</SerialNumber>
*
*       </Sensor>
*
*       <Sensor id='volt 2'>
*
*          <type>OXY</type>
*
*          <SerialNumber>43-0434</SerialNumber>
*
*       </Sensor>
*
*       <Sensor id='volt 3'>
*
*          <type>PAR</type>
*
*          <SerialNumber>1122</SerialNumber>
*
*       </Sensor>
*
*       <Sensor id='volt 4'>
*
*          <type>ECO AFL/FL</type>
*
*          <SerialNumber>FLNTURT-2496</SerialNumber>
*
*       </Sensor>
*
*       <Sensor id='volt 5'>
*
*          <type>ECO-NTU</type>
*
*          <SerialNumber>FLNTURT-2496</SerialNumber>
*
*       </Sensor>
*
*       <Sensor id='serial'>
*
*          <type>not assigned</type>
*
*          <SerialNumber>not assigned</SerialNumber>
*
*       </Sensor>
*
*    </ExternalSensors>
*
* </HardwareData>
* <StatusData DeviceType='SBE19plus' SerialNumber='01907809'>
*
*    <DateTime>2022-07-14T13:04:48</DateTime>
*
*    <LoggingState>not logging</LoggingState>
*
*    <EventSummary numEvents='0'/>
*
*    <Power>
*
*       <vMain>12.3</vMain>
*
*       <vLith>8.6</vLith>
*
*       <iMain>63.0</iMain>
*
*       <iPump>44.7</iPump>
*
*       <iExt01>20.3</iExt01>
*
*       <iExt2345>37.5</iExt2345>
*
*    </Power>
*
*    <MemorySummary>
*
*       <Bytes>198904</Bytes>
*
*       <Samples>8648</Samples>
*
*       <SamplesFree>2852140</SamplesFree>
*
*       <SampleLength>23</SampleLength>
*
*       <Profiles>4</Profiles>
*
*    </MemorySummary>
*
* </StatusData>
* <ConfigurationData DeviceType='SBE19plus' SerialNumber='01907809'>
*
*    <ProfileMode>
*
*       <ScansToAverage>1</ScansToAverage>
*
*       <MinimumCondFreq>5</MinimumCondFreq>
*
*       <PumpDelay>40</PumpDelay>
*
*       <AutoRun>no</AutoRun>
*
*       <IgnoreSwitch>no</IgnoreSwitch>
*
*    </ProfileMode>
*
*    <Battery>
*
*       <Type>alkaline</Type>
*
*       <CutOff>7.5</CutOff>
*
*    </Battery>
*
*    <DataChannels>
*
*       <ExtVolt0>yes</ExtVolt0>
*
*       <ExtVolt1>yes</ExtVolt1>
*
*       <ExtVolt2>yes</ExtVolt2>
*
*       <ExtVolt3>yes</ExtVolt3>
*
*       <ExtVolt4>yes</ExtVolt4>
*
*       <ExtVolt5>yes</ExtVolt5>
*
*       <SBE38>no</SBE38>
*
*       <WETLABS>no</WETLABS>
*
*       <OPTODE>no</OPTODE>
*
*       <SBE63>no</SBE63>
*
*       <SeaFET>no</SeaFET>
*
*       <GTD>no</GTD>
*
*    </DataChannels>
*
*    <EchoCharacters>yes</EchoCharacters>
*
*    <OutputExecutedTag>yes</OutputExecutedTag>
*
*    <OutputFormat>raw HEX</OutputFormat>
*
* </ConfigurationData>
* <CalibrationCoefficients DeviceType='SBE19plus' SerialNumber='01907809'>
*
*    <Calibration format='TEMP1' id='Main Temperature'>
*
*       <SerialNum>01907809</SerialNum>
*
*       <CalDate>25-Sep-21</CalDate>
*
*       <TA0>1.232513e-03</TA0>
*
*       <TA1>2.763223e-04</TA1>
*
*       <TA2>-9.501887e-07</TA2>
*
*       <TA3>1.718014e-07</TA3>
*
*       <TOFFSET>0.000000e+00</TOFFSET>
*
*    </Calibration>
*
*    <Calibration format='WBCOND0' id='Main Conductivity'>
*
*       <SerialNum>01907809</SerialNum>
*
*       <CalDate>25-Sep-21</CalDate>
*
*       <G>-1.004440e+00</G>
*
*       <H>1.264604e-01</H>
*
*       <I>-7.854363e-05</I>
*
*       <J>2.210938e-05</J>
*
*       <CPCOR>-9.570000e-08</CPCOR>
*
*       <CTCOR>3.250000e-06</CTCOR>
*
*       <CSLOPE>1.000000e+00</CSLOPE>
*
*    </Calibration>
*
*    <Calibration format='STRAIN0' id='Main Pressure'>
*
*       <SerialNum>10586018</SerialNum>
*
*       <CalDate>10-Sep-21</CalDate>
*
*       <PA0>4.789196e-02</PA0>
*
*       <PA1>4.853655e-04</PA1>
*
*       <PA2>-3.689276e-12</PA2>
*
*       <PTCA0>5.254946e+05</PTCA0>
*
*       <PTCA1>1.325193e+01</PTCA1>
*
*       <PTCA2>-3.889275e-01</PTCA2>
*
*       <PTCB0>2.516687e+01</PTCB0>
*
*       <PTCB1>3.750000e-04</PTCB1>
*
*       <PTCB2>0.000000e+00</PTCB2>
*
*       <PTEMPA0>-5.401644e+01</PTEMPA0>
*
*       <PTEMPA1>5.390655e+01</PTEMPA1>
*
*       <PTEMPA2>-2.194112e-02</PTEMPA2>
*
*       <POFFSET>-1.280000e-01</POFFSET>
*
*       <PRANGE>1.600000e+02</PRANGE>
*
*    </Calibration>
*
*    <Calibration format='VOLT0' id='Volt 0'>
*
*       <OFFSET>-4.920000e-02</OFFSET>
*
*       <SLOPE>1.248122e+00</SLOPE>
*
*    </Calibration>
*
*    <Calibration format='VOLT0' id='Volt 1'>
*
*       <OFFSET>-4.784000e-02</OFFSET>
*
*       <SLOPE>1.248871e+00</SLOPE>
*
*    </Calibration>
*
*    <Calibration format='VOLT0' id='Volt 2'>
*
*       <OFFSET>-4.864632e-02</OFFSET>
*
*       <SLOPE>1.248714e+00</SLOPE>
*
*    </Calibration>
*
*    <Calibration format='VOLT0' id='Volt 3'>
*
*       <OFFSET>-4.743790e-02</OFFSET>
*
*       <SLOPE>1.248571e+00</SLOPE>
*
*    </Calibration>
*
*    <Calibration format='VOLT0' id='Volt 4'>
*
*       <OFFSET>-4.671263e-02</OFFSET>
*
*       <SLOPE>1.248951e+00</SLOPE>
*
*    </Calibration>
*
*    <Calibration format='VOLT0' id='Volt 5'>
*
*       <OFFSET>-4.871053e-02</OFFSET>
*
*       <SLOPE>1.249136e+00</SLOPE>
*
*    </Calibration>
*
*    <Calibration format='FREQ0' id='external frequency channel'>
*
*       <EXTFREQSF>1.000014e+00</EXTFREQSF>
*
*    </Calibration>
*
* </CalibrationCoefficients>
* <EventCounters DeviceType='SBE19plus' SerialNumber='01907809'>
*
*    <EventSummary numEvents='0'/>
*
* </EventCounters></InstrumentState>
* <Headers>
*
* cast   1 11 Jul 2022 07:50:16 samples 1 to 703, avg = 1, stop = mag switch
*
# nquan = 15
# nvalues = 703                         
# units = specified
# name 0 = depFM: Depth [fresh water, m]
# name 1 = dz/dtM: Descent Rate [m/s]
# name 2 = sbeox0Mg/L: Oxygen, SBE 43 [mg/l]
# name 3 = sbeox0PS: Oxygen, SBE 43 [% saturation]
# name 4 = specc: Specific Conductance [uS/cm]
# name 5 = c0uS/cm: Conductivity [uS/cm]
# name 6 = flECO-AFL: Fluorescence, WET Labs ECO-AFL/FL [mg/m^3]
# name 7 = ph: pH
# name 8 = orp: Oxidation Reduction Potential [mV]
# name 9 = par/sat/log: PAR/Logarithmic, Satlantic
# name 10 = turbWETntu0: Turbidity, WET Labs ECO [NTU]
# name 11 = prdM: Pressure, Strain Gauge [db]
# name 12 = prdE: Pressure, Strain Gauge [psi]
# name 13 = tv290C: Temperature [ITS-90, deg C]
# name 14 = flag:  0.000e+00
# span 0 =     -0.740,      2.145       
# span 1 =     -0.287,      0.203       
# span 2 =     0.0275,     7.2976       
# span 3 =      0.305,     88.307       
# span 4 =      0.725,    235.041       
# span 5 =   0.740794, 207.535385       
# span 6 =    -1.6297,   227.5524       
# span 7 =      6.033,      7.428       
# span 8 =  -163.9376,  1240.2295       
# span 9 = 1.0649e+01, 2.2782e+03       
# span 10 =    -7.9924,    37.4208      
# span 11 =     -0.726,      2.105      
# span 12 =     -1.053,      3.053      
# span 13 =    18.4505,    26.0712      
# span 14 = 0.0000e+00, 0.0000e+00      
# interval = seconds: 0.25
# start_time = Jul 11 2022 07:50:16 [Instrument's time stamp, header]
# bad_flag = -9.990e-29
# <Sensors count="9" >
#   <sensor Channel="1" >
#     <!-- Count, Temperature -->
#     <TemperatureSensor SensorID="58" >
#       <SerialNumber>7809</SerialNumber>
#       <CalibrationDate>25-Sep-21</CalibrationDate>
#       <A0>1.23251324e-003</A0>
#       <A1>2.76322262e-004</A1>
#       <A2>-9.50188734e-007</A2>
#       <A3>1.71801404e-007</A3>
#       <Slope>1.00000000</Slope>
#       <Offset>0.0000</Offset>
#     </TemperatureSensor>
#   </sensor>
#   <sensor Channel="2" >
#     <!-- Frequency 0, Conductivity -->
#     <ConductivitySensor SensorID="3" >
#       <SerialNumber>7809</SerialNumber>
#       <CalibrationDate>25-Sep-21</CalibrationDate>
#       <UseG_J>1</UseG_J>
#       <!-- Cell const and series R are applicable only for wide range sensors. -->
#       <SeriesR>0.0000</SeriesR>
#       <CellConst>2000.0000</CellConst>
#       <ConductivityType>0</ConductivityType>
#       <Coefficients equation="0" >
#         <A>0.00000000e+000</A>
#         <B>0.00000000e+000</B>
#         <C>0.00000000e+000</C>
#         <D>0.00000000e+000</D>
#         <M>0.0</M>
#         <CPcor>-9.57000000e-008</CPcor>
#       </Coefficients>
#       <Coefficients equation="1" >
#         <G>-1.00443970e+000</G>
#         <H>1.26460406e-001</H>
#         <I>-7.85436262e-005</I>
#         <J>2.21093811e-005</J>
#         <CPcor>-9.57000000e-008</CPcor>
#         <CTcor>3.2500e-006</CTcor>
#         <!-- WBOTC not applicable unless ConductivityType = 1. -->
#         <WBOTC>0.00000000e+000</WBOTC>
#       </Coefficients>
#       <Slope>1.00000000</Slope>
#       <Offset>0.00000</Offset>
#     </ConductivitySensor>
#   </sensor>
#   <sensor Channel="3" >
#     <!-- Count, Pressure, Strain Gauge -->
#     <PressureSensor SensorID="46" >
#       <SerialNumber>7809</SerialNumber>
#       <CalibrationDate>10-Sep-21</CalibrationDate>
#       <PA0>4.78919585e-002</PA0>
#       <PA1>4.85365526e-004</PA1>
#       <PA2>-3.68927597e-012</PA2>
#       <PTEMPA0>-5.40164371e+001</PTEMPA0>
#       <PTEMPA1>5.39065456e+001</PTEMPA1>
#       <PTEMPA2>-2.19411190e-002</PTEMPA2>
#       <PTCA0>5.25494622e+005</PTCA0>
#       <PTCA1>1.32519328e+001</PTCA1>
#       <PTCA2>-3.88927502e-001</PTCA2>
#       <PTCB0>2.51668750e+001</PTCB0>
#       <PTCB1>3.75000000e-004</PTCB1>
#       <PTCB2>0.00000000e+000</PTCB2>
#       <Offset>0.000000</Offset>
#     </PressureSensor>
#   </sensor>
#   <sensor Channel="4" >
#     <!-- A/D voltage 0, Oxygen, SBE 43 -->
#     <OxygenSensor SensorID="38" >
#       <SerialNumber>0434</SerialNumber>
#       <CalibrationDate>25-Sep-21</CalibrationDate>
#       <Use2007Equation>1</Use2007Equation>
#       <CalibrationCoefficients equation="0" >
#         <!-- Coefficients for Owens-Millard equation. -->
#         <Boc>0.0000</Boc>
#         <Soc>0.0000e+000</Soc>
#         <offset>0.0000</offset>
#         <Pcor>0.00e+000</Pcor>
#         <Tcor>0.0000</Tcor>
#         <Tau>0.0</Tau>
#       </CalibrationCoefficients>
#       <CalibrationCoefficients equation="1" >
#         <!-- Coefficients for Sea-Bird equation - SBE calibration in 2007 and later. -->
#         <Soc>4.7287e-001</Soc>
#         <offset>-0.5046</offset>
#         <A>-3.6094e-003</A>
#         <B> 1.1544e-004</B>
#         <C>-1.3802e-006</C>
#         <D0> 2.5826e+000</D0>
#         <D1> 1.92634e-004</D1>
#         <D2>-4.64803e-002</D2>
#         <E> 3.6000e-002</E>
#         <Tau20> 0.7700</Tau20>
#         <H1>-3.3000e-002</H1>
#         <H2> 5.0000e+003</H2>
#         <H3> 1.4500e+003</H3>
#       </CalibrationCoefficients>
#     </OxygenSensor>
#   </sensor>
#   <sensor Channel="5" >
#     <!-- A/D voltage 1, PAR/Logarithmic, Satlantic -->
#     <PARLog_SatlanticSensor SensorID="76" >
#       <SerialNumber>1122</SerialNumber>
#       <CalibrationDate>08-Sep-2021</CalibrationDate>
#       <a0>9.6751e-001</a0>
#       <a1>8.0992e-001</a1>
#       <Im>1.3589e+000</Im>
#       <Multiplier>1.0000e+000</Multiplier>
#     </PARLog_SatlanticSensor>
#   </sensor>
#   <sensor Channel="6" >
#     <!-- A/D voltage 2, pH -->
#     <pH_Sensor SensorID="43" >
#       <SerialNumber>0363</SerialNumber>
#       <CalibrationDate>16-Sep-21</CalibrationDate>
#       <Slope>4.5144</Slope>
#       <Offset>2.4957</Offset>
#     </pH_Sensor>
#   </sensor>
#   <sensor Channel="7" >
#     <!-- A/D voltage 3, Oxidation Reduction Potential -->
#     <OxidationReductionPotentialSensor SensorID="41" >
#       <SerialNumber>0363</SerialNumber>
#       <CalibrationDate>16-Sep-21</CalibrationDate>
#       <B>2.499480</B>
#       <M>-0.496195</M>
#       <Offset>0.0</Offset>
#     </OxidationReductionPotentialSensor>
#   </sensor>
#   <sensor Channel="8" >
#     <!-- A/D voltage 4, Fluorometer, WET Labs ECO-AFL/FL -->
#     <FluoroWetlabECO_AFL_FL_Sensor SensorID="20" >
#       <SerialNumber>FLNTURT-2496</SerialNumber>
#       <CalibrationDate>02-Sep-2021</CalibrationDate>
#       <ScaleFactor>4.80000000e+001</ScaleFactor>
#       <!-- Dark output -->
#       <Vblank>0.0550</Vblank>
#     </FluoroWetlabECO_AFL_FL_Sensor>
#   </sensor>
#   <sensor Channel="9" >
#     <!-- A/D voltage 5, Turbidity Meter, WET Labs, ECO-NTU -->
#     <TurbidityMeter SensorID="67" >
#       <SerialNumber>FLNTURT-2496</SerialNumber>
#       <CalibrationDate>02-Sep-2021</CalibrationDate>
#       <ScaleFactor>197.000000</ScaleFactor>
#       <!-- Dark output -->
#       <DarkVoltage>0.070000</DarkVoltage>
#     </TurbidityMeter>
#   </sensor>
# </Sensors>
# datcnv_date = Jul 14 2022 16:13:07, 7.26.7.129 [datcnv_vars = 14]
# datcnv_in = C:\R\Reservoirs\Data\DataNotYetUploadedToEDI\Raw_CTD\RawDownloads\071122_bvr40_S7809001.hex C:\R\Reservoirs\Data\DataNotYetUploadedToEDI\Raw_CTD\RawDownloads\SBE19plusV2_7809_Old_CTD.xmlcon
# datcnv_skipover = 0
# datcnv_ox_hysteresis_correction = yes
# datcnv_ox_tau_correction = yes
# filter_date = Jul 14 2022 16:13:48, 7.26.7.129
# filter_in = C:\R\Reservoirs\Data\DataNotYetUploadedToEDI\Raw_CTD\RawDownloads\071122_bvr40_S7809001.cnv
# filter_low_pass_tc_A = 0.030
# filter_low_pass_tc_B = 0.150
# filter_low_pass_A_vars = sbeox0Mg/L prdM prdE tv290C
# filter_low_pass_B_vars = depFM dz/dtM sbeox0PS specc c0uS/cm flECO-AFL ph orp par/sat/log turbWETntu0
# alignctd_date = Jul 14 2022 16:14:19, 7.26.7.129
# alignctd_in = C:\R\Reservoirs\Data\DataNotYetUploadedToEDI\Raw_CTD\RawDownloads\071122_bvr40_S7809001.cnv
# alignctd_adv = dz/dtM 1.000, sbeox0PS 1.000, specc 1.000, c0uS/cm 1.000, flECO-AFL 1.000, ph 1.000, orp 1.000, turbWETntu0 1.000                                                                                                   
# file_type = ascii
*END*
     -0.739 8.4212e-09     6.9647     85.934      0.725   0.740794    -0.0490      6.033  1240.2295 6.8266e+02     0.7463     -0.725     -1.051    26.0617 0.0000e+00
     -0.739 9.2633e-08     6.9623     85.944      0.735   0.751076    -0.0752      6.078  1240.2295 7.1229e+02     0.7493     -0.725     -1.051    26.0625 0.0000e+00
     -0.739      0.000     6.9632     85.957      0.737   0.753349    -0.2479      6.109  1240.2293 7.9678e+02     1.2090     -0.724     -1.050    26.0630 0.0000e+00
     -0.739      0.000     6.9641     85.958      0.752   0.768274    -0.5648      6.130  1240.2277 9.4885e+02     2.0690     -0.725     -1.051    26.0642 0.0000e+00
     -0.740      0.000     6.9628     85.958      0.788   0.804939    -0.7518      6.144  1240.2094 1.0956e+03     2.5055     -0.726     -1.052    26.0649 0.0000e+00
     -0.740      0.001     6.9642     85.975      0.925   0.943462    -0.7773      6.154  1240.0087 1.1424e+03     2.5581     -0.726     -1.053    26.0660 0.0000e+00
     -0.739      0.005     6.9657     85.995      2.153   2.189934    -0.7895      6.163  1237.8009 1.1126e+03     2.6030     -0.725     -1.052    26.0666 0.0000e+00
     -0.739      0.014     6.9652     85.995      7.283   7.392979    -1.0076      6.214  1213.5149 1.1442e+03     2.5698     -0.724     -1.051    26.0685 0.0000e+00
     -0.737      0.035     6.9643     85.984     17.761  18.007694    -1.4179      6.399   946.3684 1.2526e+03     2.4640     -0.724     -1.050    26.0680 0.0000e+00
     -0.734      0.072     6.9655     85.984     27.870  28.228808    -1.6297      6.691   457.3802 1.3206e+03     2.4167     -0.720     -1.043    26.0712 0.0000e+00
     -0.726      0.118     6.9781     86.003     31.568  31.938885    -1.6037      6.946   192.3602 1.3578e+03     2.5787     -0.717     -1.040    25.9989 0.0000e+00
     -0.701      0.162     6.9976     86.061     31.428  31.749508    -1.2212      7.105   171.2658 1.3934e+03     4.2862     -0.700     -1.016    25.8357 0.0000e+00
     -0.644      0.192     7.0113     86.178     31.135  31.391291    -0.5329      7.195   172.9911 1.1942e+03     7.3483     -0.643     -0.932    25.7178 0.0000e+00
     -0.560      0.203     7.0196     86.332     30.968  31.157870    -0.1650      7.246   174.7609 7.8573e+02     8.9956     -0.550     -0.798    25.6475 0.0000e+00
     -0.478      0.196     7.0287     86.488     30.881  31.019213    -0.1016      7.287   171.7568 7.1393e+02     9.2078     -0.454     -0.659    25.5870 0.0000e+00
     -0.424      0.172     7.0414     86.641     30.876  30.982631     0.2581      7.333   164.9754 1.0385e+03     9.7432     -0.405     -0.587    25.5155 0.0000e+00
     -0.398      0.139     7.0660     86.767     30.943  31.032495     0.8964      7.378   159.6204 1.2865e+03    10.6178     -0.386     -0.561    25.4061 0.0000e+00
     -0.383      0.110     7.0958     86.896     31.098  31.178323     1.2324      7.407   158.7198 1.4100e+03    11.0384     -0.375     -0.543    25.2904 0.0000e+00
     -0.372      0.094     7.1180     87.094     31.275  31.351102     1.2659      7.422   159.8505 1.6524e+03    11.0710     -0.365     -0.531    25.2067 0.0000e+00
     -0.357      0.092     7.1387     87.339     31.337  31.409851     1.3676      7.428   157.2027 1.9455e+03    11.2169     -0.354     -0.515    25.1597 0.0000e+00
     -0.331      0.094     7.1520     87.589     31.312  31.381476     1.5379      7.421   153.8939 1.9845e+03    11.4355     -0.331     -0.480    25.1341 0.0000e+00
     -0.292      0.094     7.1599     87.842     31.321  31.388388     1.6187      7.405   158.8199 1.6317e+03    11.5283     -0.284     -0.413    25.1219 0.0000e+00
     -0.257      0.087     7.1795     88.067     31.361  31.430033     1.6208      7.390   165.8265 1.1325e+03    11.5190     -0.247     -0.358    25.1143 0.0000e+00
     -0.234      0.072     7.2023     88.222     31.368  31.441227     1.6550      7.379   168.6613 7.7001e+02    11.4933     -0.227     -0.328    25.1087 0.0000e+00
     -0.222      0.052     7.2224     88.302     31.319  31.396956     1.7166      7.370   169.4337 5.4925e+02    11.4225     -0.214     -0.311    25.1030 0.0000e+00
     -0.218      0.029     7.2452     88.307     31.198  31.275134     1.7414      7.366   169.5731 4.5274e+02    11.3471     -0.215     -0.312    25.0989 0.0000e+00
     -0.215      0.011     7.2654     88.255     31.038  31.109421     1.7294      7.366   170.4321 4.4841e+02    11.2990     -0.211     -0.306    25.1015 0.0000e+00
     -0.213      0.001     7.2761     88.243     30.915  30.978226     1.7217      7.362   171.7325 4.7169e+02    11.2843     -0.205     -0.298    25.1105 0.0000e+00
     -0.218     -0.003     7.2821     88.257     30.839  30.893371     1.7149      7.354   173.0783 5.1113e+02    11.3060     -0.213     -0.309    25.1201 0.0000e+00
     -0.224     -0.004     7.2811     87.322     30.796  30.844164     1.6973      7.345   174.2284 5.5570e+02    11.3218     -0.222     -0.321    25.1210 0.0000e+00
     -0.226     -0.003     7.2783     83.981     30.781  30.827021     1.6828      7.331   175.0563 5.8473e+02    11.3053     -0.223     -0.324    25.1119 0.0000e+00
     -0.225     -0.001     7.2683     78.243     30.765  30.812890     1.6732      7.313   175.8608 5.9869e+02    11.3119     -0.221     -0.321    25.0977 0.0000e+00
     -0.222      0.002     7.2976     71.444     30.749  30.800097     1.6737      7.294   176.6413 6.2677e+02    11.3679     -0.217     -0.314    25.0805 0.0000e+00
     -0.220      0.005     7.2931     64.781     30.744  30.799139     1.6885      7.279   177.5243 6.8595e+02    11.3673     -0.215     -0.313    25.0678 0.0000e+00
     -0.220      0.006     7.0092     58.890     30.740  30.801318     1.6931      7.267   178.4492 8.0110e+02    11.3035     -0.217     -0.314    25.0662 0.0000e+00
     -0.219      0.006     6.4816     54.134     30.760  30.826447     1.6792      7.257   178.8761 9.1646e+02    11.2798     -0.216     -0.313    25.0712 0.0000e+00
     -0.217      0.005     5.8867     50.782     30.780  30.849406     1.6618      7.251   178.8143 9.2123e+02    11.3207     -0.214     -0.310    25.0765 0.0000e+00
     -0.214      0.004     5.3200     48.861     30.755  30.825334     1.6494      7.247   178.9928 8.2123e+02    11.3873     -0.210     -0.304    25.0822 0.0000e+00
     -0.212      0.003     4.8262     48.166     30.716  30.788972     1.6379      7.244   179.6581 7.1293e+02    11.3680     -0.207     -0.300    25.0926 0.0000e+00
     -0.212      0.002     4.4207     48.250     30.715  30.790123     1.6227      7.239   180.0614 6.5808e+02    11.2917     -0.207     -0.300    25.1048 0.0000e+00
     -0.213      0.000     4.1459     48.565     30.761  30.839258     1.6149      7.233   176.9859 6.5497e+02    11.2855     -0.209     -0.303    25.1090 0.0000e+00
     -0.214     -0.001     3.9922     48.850     30.796  30.875914     1.6190      7.223   170.6933 6.7614e+02    11.3268     -0.209     -0.304    25.1083 0.0000e+00
     -0.215      0.000     3.9471     49.130     30.772  30.852956     1.6219      7.210   167.1303 6.8236e+02    11.3803     -0.210     -0.305    25.1123 0.0000e+00
     -0.216      0.001     3.9746     49.407     30.735  30.815253     1.6252      7.198   167.4613 6.4766e+02    11.3866     -0.212     -0.307    25.1181 0.0000e+00
     -0.217      0.003     4.0068     49.603     30.720  30.800422     1.6337      7.188   171.8562 5.5985e+02    11.3350     -0.214     -0.311    25.1218 0.0000e+00
     -0.215      0.003     4.0261     49.669     30.720  30.800424     1.6586      7.184   179.2280 4.5675e+02    11.3365     -0.211     -0.307    25.1241 0.0000e+00
     -0.211      0.004     4.0489     49.622     30.734  30.815283     1.6922      7.183   183.9758 4.2493e+02    11.3715     -0.205     -0.299    25.1254 0.0000e+00
     -0.209      0.006     4.0756     49.554     30.769  30.853289     1.6997      7.176   185.8119 4.6942e+02    11.3472     -0.203     -0.296    25.1261 0.0000e+00
     -0.211      0.007     4.0927     49.614     30.791  30.879579     1.6820      7.164   186.7149 5.4919e+02    11.3157     -0.206     -0.298    25.1246 0.0000e+00
     -0.212      0.007     4.0983     49.875     30.788  30.879587     1.6536      7.157   186.7208 6.8418e+02    11.3331     -0.210     -0.305    25.1229 0.0000e+00
     -0.208      0.006     4.0917     50.231     30.761  30.853391     1.6312      7.154   186.4854 8.1226e+02    11.3864     -0.206     -0.299    25.1241 0.0000e+00
     -0.201      0.005     4.0804     50.561     30.723  30.816424     1.6277      7.152   186.5355 7.9852e+02    11.4140     -0.195     -0.281    25.1297 0.0000e+00
     -0.197      0.004     4.0809     50.795     30.718  30.812986     1.6275      7.151   186.5532 6.6767e+02    11.3933     -0.191     -0.278    25.1383 0.0000e+00
     -0.199      0.001     4.1074     50.826     30.715  30.811833     1.6368      7.149   183.4306 5.3369e+02    11.3749     -0.195     -0.284    25.1435 0.0000e+00
     -0.203     -0.003     4.1412     50.602     30.703  30.802478     1.6575      7.147   177.0866 4.5318e+02    11.3622     -0.199     -0.289    25.1443 0.0000e+00
     -0.205     -0.004     4.1675     50.180     30.725  30.826672     1.6781      7.143   173.1730 4.3029e+02    11.3769     -0.201     -0.291    25.1450 0.0000e+00
     -0.206     -0.001     4.1924     49.692     30.747  30.850791     1.6939      7.134   172.5920 4.6060e+02    11.3821     -0.201     -0.292    25.1474 0.0000e+00
     -0.206      0.004     4.1954     49.230     30.736  30.840513     1.6899      7.122   172.5564 5.7848e+02    11.3218     -0.203     -0.295    25.1515 0.0000e+00
     -0.206      0.008     4.1754     48.773     30.723  30.829194     1.6803      7.107   172.5713 7.6696e+02    11.2637     -0.204     -0.296    25.1563 0.0000e+00
     -0.202      0.010     4.1353     48.295     30.734  30.840728     1.6778      7.091   172.5999 8.6319e+02    11.2938     -0.199     -0.289    25.1603 0.0000e+00
     -0.197      0.011     4.0912     47.807     30.747  30.853180     1.6763      7.075   172.5582 7.7384e+02    11.3792     -0.191     -0.278    25.1629 0.0000e+00
     -0.192      0.009     4.0555     47.332     30.747  30.852963     1.6783      7.065   172.5836 5.7998e+02    11.3729     -0.187     -0.272    25.1650 0.0000e+00
     -0.189      0.006     4.0179     46.882     30.733  30.838105     1.6777      7.063   172.8205 3.9450e+02    11.2866     -0.185     -0.268    25.1666 0.0000e+00
     -0.188      0.002     3.9785     46.455     30.695  30.800321     1.6771      7.060   173.2718 3.0718e+02    11.2926     -0.183     -0.266    25.1669 0.0000e+00
     -0.190     -0.002     3.9372     46.054     30.672  30.776481     1.6874      7.049   173.8235 2.9859e+02    11.3771     -0.186     -0.270    25.1673 0.0000e+00
     -0.194     -0.004     3.8981     45.712     30.699  30.803438     1.6861      7.034   174.8453 3.2679e+02    11.3860     -0.189     -0.275    25.1666 0.0000e+00
     -0.197     -0.008     3.8607     45.444     30.767  30.872683     1.6535      7.031   178.5723 3.8921e+02    11.3315     -0.195     -0.282    25.1655 0.0000e+00
     -0.196     -0.014     3.8264     45.217     30.810  30.916372     1.6174      7.036   181.9744 4.1333e+02    11.2995     -0.194     -0.281    25.1655 0.0000e+00
     -0.194     -0.019     3.7918     45.018     30.780  30.887917     1.6069      7.042   183.5431 4.0484e+02    11.3063     -0.188     -0.271    25.1644 0.0000e+00
     -0.198     -0.022     3.7626     44.869     30.736  30.845616     1.6194      7.051   188.3326 4.4493e+02    11.3448     -0.191     -0.277    25.1632 0.0000e+00
     -0.210     -0.022     3.7426     44.759     30.739  30.848677     1.6269      7.060   189.3794 4.6367e+02    11.3556     -0.205     -0.298    25.1636 0.0000e+00
     -0.223     -0.019     3.7242     44.671     30.814  30.924931     1.6142      7.067   183.2936 4.2024e+02    11.3343     -0.220     -0.319    25.1671 0.0000e+00
     -0.231     -0.013     3.7057     44.591     30.895  31.006858     1.6071      7.072   179.2786 4.0353e+02    11.3263     -0.229     -0.332    25.1708 0.0000e+00
     -0.233     -0.006     3.6943     44.447     30.902  31.015103     1.6156      7.072   179.2951 4.1665e+02    11.3263     -0.230     -0.334    25.1727 0.0000e+00
     -0.228     -0.005     3.6864     44.184     30.911  31.024626     1.6263      7.057   183.3210 4.1627e+02    11.3348     -0.224     -0.325    25.1737 0.0000e+00
     -0.221     -0.015     3.6773     43.808     30.945  31.058616     1.6441      7.038   192.2488 4.4380e+02    11.3266     -0.216     -0.313    25.1738 0.0000e+00
     -0.217     -0.040     3.6747     43.378     30.933  31.045693     1.6644      7.041   200.1688 5.9905e+02    11.2955     -0.211     -0.306    25.1756 0.0000e+00
     -0.221     -0.075     3.6642     43.048     30.882  30.995165     1.6550      7.060   201.5598 7.4873e+02    11.0947     -0.210     -0.305    25.1775 0.0000e+00
     -0.241     -0.115     3.6419     43.025     30.905  31.018245     1.4070      7.071   195.9893 6.9002e+02     8.5573     -0.226     -0.328    25.1788 0.0000e+00
     -0.283     -0.151     3.6100     43.345     31.023  31.134575     0.9785      7.078   184.0948 5.3664e+02     3.8105     -0.272     -0.396    25.1777 0.0000e+00
     -0.340     -0.176     3.5702     43.769     31.089  31.197175     1.1937      7.097   168.3914 5.1467e+02     1.1499     -0.333     -0.484    25.1755 0.0000e+00
     -0.400     -0.182     3.5355     44.133     31.104  31.204579     6.4309      7.122   157.8086 8.9824e+02     0.8122     -0.393     -0.571    25.1776 0.0000e+00
     -0.456     -0.168     3.5298     44.562     31.386  31.477669    64.2597      7.140   159.8161 1.5068e+03    -0.2390     -0.449     -0.651    25.1777 0.0000e+00
     -0.506     -0.142     3.5680     45.252     32.134  32.216754   170.2231      7.139   166.6806 1.8009e+03    -2.2686     -0.503     -0.729    25.1745 0.0000e+00
     -0.540     -0.118     3.6099     46.269     32.970  33.040152   227.5524      7.111   171.7166 1.8099e+03    -3.4369     -0.539     -0.783    25.1686 0.0000e+00
     -0.552     -0.104     3.6339     47.510     33.458  33.508285   227.5162      7.070   178.0306 1.7711e+03    -3.4004     -0.545     -0.791    25.1578 0.0000e+00
     -0.554     -0.094     3.6638     48.789     33.660  33.692366   169.9684      7.036   183.6556 1.7069e+03    -1.2457     -0.540     -0.784    25.1410 0.0000e+00
     -0.567     -0.085     3.7195     50.114     33.719  33.744155    63.6514      7.015   183.1135 1.6184e+03     2.7686     -0.543     -0.789    25.1249 0.0000e+00
     -0.605     -0.079     3.8081     51.843     31.891  31.915290     5.6730      7.003   173.1120 1.5384e+03     4.9649     -0.590     -0.855    25.1050 0.0000e+00
     -0.650     -0.074     3.9203     54.253     24.748  24.765399     0.8696      6.998   160.2963 1.5196e+03     5.1215     -0.651     -0.944    25.0687 0.0000e+00
     -0.670     -0.065     4.0314     57.061     14.847  14.852961     5.6654      7.000   153.4332 1.5346e+03     4.9697     -0.664     -0.964    25.0330 0.0000e+00
     -0.671     -0.046     4.1269     59.766     11.732  11.731374    63.6426      7.003   158.3599 1.5195e+03     3.4709     -0.654     -0.947    25.0251 0.0000e+00
     -0.673     -0.020     4.2546     62.113     15.852  15.848971   169.9787      7.005   173.3178 1.5022e+03     0.6974     -0.659     -0.955    25.0373 0.0000e+00
     -0.679     -0.000     4.4671     64.030     16.567  16.562184   227.5228      7.011   181.1378 1.4922e+03    -0.8262     -0.668     -0.969    25.0292 0.0000e+00
     -0.681      0.003     4.7211     65.507     11.112  11.108600   227.4651      7.017   178.3149 1.3686e+03    -0.7407     -0.671     -0.973    25.0032 0.0000e+00
     -0.671     -0.006     4.9499     66.547      5.967   5.964775   169.4320      7.022   174.3761 1.1014e+03     1.7989     -0.663     -0.962    24.9883 0.0000e+00
     -0.657     -0.017     5.1465     67.140      3.958   3.956759    62.2148      7.027   172.4901 9.1034e+02     6.4462     -0.635     -0.922    24.9827 0.0000e+00
     -0.658     -0.026     5.3051     67.350      3.356   3.355842     3.7020      7.032   179.7739 1.0653e+03     8.9240     -0.634     -0.921    24.9804 0.0000e+00
     -0.680     -0.035     5.4265     67.353      2.940   2.940823    -1.5755      7.038   192.9244 1.4433e+03     8.8025     -0.666     -0.967    24.9792 0.0000e+00
     -0.706     -0.043     5.5141     67.298      2.610   2.610628    -1.5455      7.044   192.6243 1.6431e+03     5.3527     -0.700     -1.013    24.9803 0.0000e+00
     -0.720     -0.044     5.5609     67.207      2.338   2.338883    -0.6710      7.051   181.3940 1.6508e+03    -0.9838     -0.711     -1.031    24.9865 0.0000e+00
     -0.725     -0.037     5.5716     67.134      2.123   2.124087    -0.1821      7.057   173.3782 1.6112e+03    -4.4455     -0.710     -1.029    24.9938 0.0000e+00
     -0.730     -0.024     5.5645     67.117      2.038   2.039294    -0.1293      7.061   168.7540 1.5344e+03    -4.5983     -0.715     -1.036    25.0008 0.0000e+00
     -0.735     -0.013     5.5623     67.112      2.009   2.010016    -0.0156      7.064   163.4257 1.4483e+03    -2.7280     -0.723     -1.049    25.0076 0.0000e+00
     -0.739     -0.007     5.5510     67.114      1.895   1.896692     0.1768      7.067   153.9536 1.3980e+03     0.6778     -0.725     -1.052    25.0141 0.0000e+00
     -0.739     -0.005     5.5416     67.134      1.742   1.745260     0.2748      7.073   138.0306 1.4075e+03     2.4901     -0.725     -1.051    25.0202 0.0000e+00
     -0.737     -0.003     5.5441     67.159      1.632   1.635032     0.2870      7.083   118.3728 1.3882e+03     2.6850     -0.724     -1.050    25.0269 0.0000e+00
     -0.736     -0.001     5.5413     67.193      1.573   1.576783     0.2659      7.089   103.3214 1.2488e+03     2.7953     -0.719     -1.043    25.0331 0.0000e+00
     -0.737     -0.000     5.5396     67.236      1.544   1.547404    -0.0553      7.089    97.2368 1.0064e+03     3.6529     -0.723     -1.049    25.0470 0.0000e+00
     -0.739     -0.001     5.5401     67.274      1.529   1.533017    -0.6412      7.086   128.3480 7.1372e+02     5.3335     -0.725     -1.052    25.0724 0.0000e+00
     -0.739     -0.001     5.5395     67.319      1.525   1.529435    -0.9502      7.082   192.3708 4.5999e+02     6.3098     -0.724     -1.050    25.0909 0.0000e+00
     -0.739     -0.001     5.5409     67.352      1.500   1.504101    -0.9040      7.079   223.5415 3.1880e+02     6.4386     -0.725     -1.051    25.1005 0.0000e+00
     -0.739     -0.000     5.5454     67.361      1.476   1.479921    -0.1072      7.077   219.1502 2.7282e+02     6.9599     -0.724     -1.050    25.1083 0.0000e+00
     -0.739 -3.555e-08     5.5460     67.378      1.486   1.490274     1.3759      7.075   212.0651 2.9269e+02     8.0007     -0.725     -1.051    25.1146 0.0000e+00
     -0.739 -3.910e-07     5.5504     67.408      1.498   1.502681     2.1955      7.073   204.9859 3.1140e+02     8.6392     -0.724     -1.050    25.1205 0.0000e+00
     -0.739 -3.910e-07     5.5540     67.438      1.498   1.503336     2.2209      7.071   198.2580 2.9929e+02     8.5993     -0.724     -1.050    25.1258 0.0000e+00
     -0.739 -3.555e-08     5.5514     67.468      1.493   1.498188     1.7248      7.071   191.4626 2.9431e+02     7.1075     -0.725     -1.051    25.1310 0.0000e+00
     -0.739 -3.232e-09     5.5529     67.516      1.498   1.503741     0.8325      7.071   185.4603 2.9207e+02     4.4362     -0.724     -1.050    25.1363 0.0000e+00
     -0.739 -2.938e-10     5.5553     67.572      1.502   1.507180     0.3550      7.067   182.6424 2.8305e+02     3.0146     -0.724     -1.050    25.1415 0.0000e+00
     -0.739 -2.671e-11     5.5575     67.619      1.471   1.476458     0.3042      7.059   184.2366 2.6816e+02     2.7965     -0.724     -1.050    25.1466 0.0000e+00
     -0.739 -2.428e-12     5.5582     67.663      1.443   1.448792     0.2266      7.053   187.8714 2.4852e+02     1.8675     -0.725     -1.051    25.1517 0.0000e+00
     -0.739 -2.207e-13     5.5622     67.710      1.420   1.425887     0.1161      7.053   185.0334 2.2082e+02     0.2544     -0.725     -1.051    25.1571 0.0000e+00
     -0.739 -2.006e-14     5.5673     67.762      1.384   1.389419     0.0755      7.060   168.5933 1.8741e+02    -0.5845     -0.724     -1.050    25.1623 0.0000e+00
     -0.739 -1.824e-15     5.5699     67.816      1.383   1.387672     0.0760      7.073   101.7206 1.6594e+02    -0.6575     -0.725     -1.051    25.1671 0.0000e+00
     -0.739 -1.658e-16     5.5730     67.844      1.400   1.404764     0.0398      7.074   -22.7924 1.6256e+02    -0.6282     -0.725     -1.051    25.1724 0.0000e+00
     -0.739 -1.504e-17     5.5763     67.836      1.401   1.406178    -0.0212      7.054  -105.1449 1.6779e+02    -0.4702     -0.724     -1.049    25.1776 0.0000e+00
     -0.739 -9.975e-19     5.5799     67.855      1.399   1.404765    -0.0620      7.034  -115.7711 1.7665e+02    -0.3864     -0.725     -1.050    25.1829 0.0000e+00
     -0.739 3.9787e-18     5.5845     67.896      1.382   1.387675    -0.0706      7.012  -124.7731 1.8606e+02    -0.4690     -0.725     -1.051    25.1882 0.0000e+00
     -0.739 4.5125e-17     5.5884     67.910      1.384   1.389455    -0.0673      6.983  -142.4028 1.9092e+02    -0.5463     -0.724     -1.050    25.1933 0.0000e+00
     -0.739 4.9650e-16     5.5829     67.933      1.420   1.426280    -0.0883      6.958  -153.1515 1.9117e+02    -0.8770     -0.725     -1.051    25.1981 0.0000e+00
     -0.739 5.4616e-15     5.5841     67.976      1.447   1.453118    -0.1334      6.942  -161.1235 1.8980e+02    -1.5297     -0.724     -1.050    25.2032 0.0000e+00
     -0.739 6.0077e-14     5.5914     68.010      1.454   1.460743    -0.1633      6.931  -163.9376 1.8927e+02    -1.9138     -0.724     -1.050    25.2081 0.0000e+00
     -0.739 6.6085e-13     5.5879     68.050      1.448   1.455168    -0.1663      6.921  -156.1176 1.8994e+02    -1.9347     -0.725     -1.051    25.2130 0.0000e+00
     -0.738 7.2693e-12     5.5896     68.110      1.442   1.449019    -0.0208      6.917  -127.4873 1.9051e+02    -1.5422     -0.724     -1.050    25.2181 0.0000e+00
     -0.738 7.9963e-11     5.5947     68.155      1.442   1.449696     0.2565      6.922   -64.7903 1.9128e+02    -0.8583     -0.724     -1.050    25.2230 0.0000e+00
     -0.738 8.7959e-10     5.5958     68.182      1.456   1.463354     0.3981      6.929    -0.8447 1.9363e+02    -0.5316     -0.724     -1.050    25.2279 0.0000e+00
     -0.739 9.6755e-09     5.5971     68.216      1.480   1.487551     0.3851      6.929    20.5986 1.9817e+02    -0.4277     -0.725     -1.051    25.2327 0.0000e+00
     -0.739 1.0643e-07     5.6044     68.248      1.481   1.489054     0.1157      6.927    19.3023 2.0542e+02     0.4320     -0.725     -1.051    25.2373 0.0000e+00
     -0.738      0.000     5.6074     68.285      1.474   1.481529    -0.3959      6.923    24.9528 2.0553e+02     1.9380     -0.724     -1.050    25.2420 0.0000e+00
     -0.738      0.000     5.6071     68.335      1.515   1.523171    -0.6738      6.917    37.8118 2.0422e+02     2.7857     -0.724     -1.050    25.2465 0.0000e+00
     -0.739      0.000     5.6113     68.378      1.604   1.612727    -0.5636      6.914    50.5387 2.2673e+02     2.9609     -0.725     -1.051    25.2508 0.0000e+00
     -0.739      0.002     5.6123     68.410      1.669   1.678111     0.8862      6.916    60.6151 3.0147e+02     3.4767     -0.725     -1.051    25.2553 0.0000e+00
     -0.739      0.007     5.6147     68.463      1.797   1.807301     3.5135      6.919    69.4741 4.5265e+02     4.3760     -0.724     -1.050    25.2596 0.0000e+00
     -0.739      0.019     5.6192     68.552      3.659   3.681170     4.9353      6.925    80.0449 6.6363e+02     4.8837     -0.725     -1.051    25.2638 0.0000e+00
     -0.738      0.034     5.6227     68.635      9.775   9.836163     5.0673      6.943    96.0196 9.4752e+02     4.9363     -0.725     -1.052    25.2680 0.0000e+00
     -0.733      0.054     5.6236     68.685     19.425  19.549785     5.0599      6.988   127.5418 1.2906e+03     4.6363     -0.724     -1.050    25.2721 0.0000e+00
     -0.715      0.082     5.6264     68.719     27.448  27.627995     4.7795      7.068   169.8476 1.5571e+03     1.2908     -0.706     -1.024    25.2764 0.0000e+00
     -0.689      0.115     5.6350     68.740     30.379  30.583743     4.2659      7.160   192.8264 1.6306e+03    -4.7713     -0.674     -0.977    25.2855 0.0000e+00
     -0.659      0.147     5.6414     68.748     30.549  30.760579     3.9850      7.232   195.7853 1.5115e+03    -7.9924     -0.649     -0.941    25.2995 0.0000e+00
     -0.621      0.172     5.6427     68.757     30.504  30.717032     3.9054      7.269   194.7821 1.3137e+03    -7.6298     -0.619     -0.897    25.3114 0.0000e+00
     -0.565      0.190     5.6448     68.785     30.485  30.691164     3.2282      7.277   191.9685 1.1139e+03    -0.6937     -0.556     -0.806    25.3193 0.0000e+00
     -0.501      0.198     5.6460     68.844     30.513  30.701380     1.9725      7.281   186.8890 8.2554e+02    11.9592     -0.487     -0.707    25.3270 0.0000e+00
     -0.444      0.198     5.6445     68.938     30.550  30.713733     1.2748      7.288   179.9145 5.0036e+02    18.7599     -0.432     -0.626    25.3426 0.0000e+00
     -0.394      0.188     5.6437     69.094     30.574  30.713694     1.2172      7.286   175.6970 3.8664e+02    19.1916     -0.387     -0.561    25.3514 0.0000e+00
     -0.348      0.169     5.6467     69.310     30.579  30.700866     1.3261      7.273   174.7840 4.8788e+02    17.2472     -0.342     -0.495    25.3384 0.0000e+00
     -0.306      0.146     5.6556     69.541     30.574  30.685396     1.5185      7.259   175.7592 6.2570e+02    13.4914     -0.295     -0.428    25.3078 0.0000e+00
     -0.272      0.124     5.6664     69.767     30.549  30.653430     1.6118      7.250   178.5403 6.6056e+02    11.4584     -0.265     -0.384    25.2601 0.0000e+00
     -0.244      0.101     5.6838     69.998     30.470  30.567927     1.6138      7.246   179.7598 6.0092e+02    11.3186     -0.239     -0.347    25.2157 0.0000e+00
     -0.220      0.077     5.7067     70.258     30.390  30.475701     1.6171      7.241   181.2110 5.7377e+02    11.3227     -0.215     -0.310    25.1902 0.0000e+00
     -0.203      0.057     5.7273     70.544     30.355  30.425826     1.6267      7.239   186.7947 5.3261e+02    11.3362     -0.196     -0.284    25.1756 0.0000e+00
     -0.194      0.043     5.7469     70.629     30.351  30.408634     1.6310      7.240   191.6047 4.4705e+02    11.3454     -0.188     -0.273    25.1649 0.0000e+00
     -0.189      0.037     5.7658     69.989     30.344  30.394593     1.6268      7.240   193.4228 3.9805e+02    11.3665     -0.185     -0.269    25.1559 0.0000e+00
     -0.188      0.036     5.7884     68.304     30.338  30.382831     1.6346      7.235   194.5813 3.8005e+02    11.4545     -0.183     -0.266    25.1395 0.0000e+00
     -0.184      0.039     5.8182     65.769     30.355  30.393203     1.6663      7.226   195.3727 3.4970e+02    11.5551     -0.185     -0.268    25.1086 0.0000e+00
     -0.171      0.041     5.8492     62.804     30.367  30.393205     1.6940      7.216   195.5059 3.0515e+02    11.5577     -0.172     -0.249    25.0849 0.0000e+00
     -0.151      0.038     5.8097     59.766     30.370  30.382839     1.6951      7.207   192.0621 2.7555e+02    11.5202     -0.146     -0.212    25.0760 0.0000e+00
     -0.133      0.023     5.6610     56.830     30.391  30.394636     1.6883      7.200   185.6545 2.6927e+02    11.5122     -0.128     -0.187    25.0700 0.0000e+00
     -0.122     -0.004     5.4402     54.162     30.411  30.409039     1.7202      7.196   185.4876 2.7289e+02    11.4948     -0.117     -0.170    25.0599 0.0000e+00
     -0.121     -0.038     5.1851     51.985     30.438  30.430187     1.7808      7.196   192.2814 2.9771e+02    11.4469     -0.114     -0.166    25.0379 0.0000e+00
     -0.135     -0.068     4.9342     50.365     30.473  30.460155     1.8045      7.197   196.8147 4.2263e+02    11.3769     -0.125     -0.181    25.0122 0.0000e+00
     -0.168     -0.089     4.6895     49.199     30.472  30.454404     1.7906      7.196   197.7958 5.2969e+02    11.3315     -0.159     -0.231    24.9975 0.0000e+00
     -0.212     -0.098     4.4598     48.394     30.443  30.424034     1.7048      7.195   198.2070 4.7471e+02    11.2735     -0.213     -0.310    24.9893 0.0000e+00
     -0.249     -0.093     4.2788     47.882     30.429  30.409922     1.5576      7.195   198.6040 3.9705e+02    11.1881     -0.252     -0.365    24.9823 0.0000e+00
     -0.269     -0.076     4.1513     47.546     30.430  30.410560     1.4761      7.196   198.9822 4.2354e+02    11.1534     -0.266     -0.386    24.9732 0.0000e+00
     -0.280     -0.049     4.0575     47.224     30.451  30.431746     1.4604      7.197   199.3382 5.4070e+02    11.1278     -0.274     -0.397    24.9643 0.0000e+00
     -0.289     -0.022     3.9924     46.824     30.494  30.475902     1.4499      7.197   199.8099 5.4368e+02    11.1514     -0.286     -0.414    24.9625 0.0000e+00
     -0.293     -0.002     3.9532     46.373     30.518  30.500695     1.4492      7.193   199.8680 3.8967e+02    11.2670     -0.293     -0.425    24.9622 0.0000e+00
     -0.287      0.010     3.9315     45.956     30.493  30.477943     1.4597      7.189   199.6966 2.8440e+02    11.3303     -0.284     -0.412    24.9621 0.0000e+00
     -0.275      0.016     3.9077     45.623     30.467  30.454382     1.4608      7.186   200.1466 2.6645e+02    11.3015     -0.268     -0.389    24.9626 0.0000e+00
     -0.265      0.018     3.8734     45.377     30.477  30.469404     1.4708      7.184   200.6628 2.7927e+02    11.2954     -0.258     -0.375    24.9635 0.0000e+00
     -0.262      0.015     3.8324     45.190     30.472  30.469390     1.5058      7.181   200.7749 2.9592e+02    11.3584     -0.255     -0.369    24.9661 0.0000e+00
     -0.262      0.009     3.7960     44.988     30.450  30.454226     1.5174      7.177   200.8138 2.9926e+02    11.3804     -0.256     -0.371    24.9692 0.0000e+00
     -0.262      0.003     3.7693     44.720     30.465  30.476242     1.5111      7.173   200.8747 2.8825e+02    11.3223     -0.258     -0.374    24.9725 0.0000e+00
     -0.262     -0.001     3.7477     44.382     30.462  30.482027     1.5046      7.170   200.9961 2.7495e+02    11.2699     -0.257     -0.372    24.9796 0.0000e+00
     -0.262     -0.002     3.7355     43.983     30.434  30.460795     1.4808      7.168   201.1631 2.7485e+02    11.2591     -0.257     -0.372    24.9903 0.0000e+00
     -0.263     -0.002     3.7191     43.539     30.441  30.473100     1.4653      7.167   201.3455 3.0654e+02    11.2949     -0.258     -0.374    24.9993 0.0000e+00
     -0.264     -0.001     3.6962     43.078     30.468  30.504029     1.4587      7.166   201.5660 3.6487e+02    11.3272     -0.259     -0.375    25.0113 0.0000e+00
     -0.264      0.000     3.6669     42.648     30.477  30.517790     1.4505      7.166   201.6782 4.1183e+02    11.3087     -0.260     -0.377    25.0282 0.0000e+00
     -0.264      0.003     3.6322     42.263     30.465  30.512711     1.4492      7.170   201.3255 4.2902e+02    11.3102     -0.260     -0.378    25.0403 0.0000e+00
     -0.263      0.009     3.5955     41.931     30.452  30.506027     1.4434      7.178   198.4195 4.3146e+02    11.3449     -0.258     -0.375    25.0461 0.0000e+00
     -0.262      0.020     3.5543     41.711     30.439  30.500380     1.4387      7.186   193.7307 4.2679e+02    11.3519     -0.257     -0.372    25.0516 0.0000e+00
     -0.260      0.036     3.5184     41.692     30.437  30.507834     1.4420      7.191   193.8477 4.3726e+02    11.3264     -0.255     -0.370    25.0612 0.0000e+00
     -0.256      0.056     3.4862     41.883     30.454  30.532765     1.4924      7.193   198.2864 5.9059e+02    11.3446     -0.254     -0.367    25.0722 0.0000e+00
     -0.241      0.076     3.4565     42.257     30.462  30.548257     1.6061      7.193   200.4210 8.6103e+02    11.4706     -0.241     -0.351    25.0815 0.0000e+00
     -0.213      0.095     3.4337     42.847     30.475  30.568370     1.6853      7.192   199.5233 1.0270e+03    11.5848     -0.212     -0.307    25.0948 0.0000e+00
     -0.177      0.108     3.4306     43.583     30.489  30.585771     1.7086      7.189   198.6182 1.0064e+03    11.5980     -0.172     -0.249    25.1111 0.0000e+00
     -0.143      0.114     3.4492     44.294     30.472  30.568482     1.8206      7.185   199.3722 7.6827e+02    11.5617     -0.139     -0.202    25.1248 0.0000e+00
     -0.112      0.111     3.4749     44.900     30.462  30.549510     2.0242      7.180   200.5514 6.0292e+02    11.5560     -0.109     -0.158    25.1366 0.0000e+00
     -0.084      0.100     3.5249     45.344     30.475  30.546558     2.1404      7.172   201.0889 6.5024e+02    11.5979     -0.079     -0.116    25.1480 0.0000e+00
     -0.060      0.082     3.5933     45.559     30.481  30.532757     2.1602      7.162   201.3966 5.9379e+02    11.5893     -0.059     -0.085    25.1551 0.0000e+00
     -0.038      0.062     3.6519     45.580     30.478  30.509399     2.1716      7.153   201.4323 5.4278e+02    11.4865     -0.036     -0.053    25.1559 0.0000e+00
     -0.021      0.045     3.7040     45.511     30.446  30.454295     2.1785      7.148   198.4237 5.6615e+02    11.3802     -0.017     -0.023    25.1445 0.0000e+00
     -0.015      0.036     3.7463     45.426     30.391  30.373608     2.1685      7.149   192.3802 5.0140e+02    11.3630     -0.011     -0.016    25.1143 0.0000e+00
     -0.017      0.039     3.7648     45.355     30.400  30.357894     2.1591      7.156   188.7604 4.4376e+02    11.3806     -0.016     -0.024    25.0787 0.0000e+00
     -0.020      0.053     3.7648     45.390     30.451  30.391053     2.1736      7.161   188.2127 4.8074e+02    11.3883     -0.021     -0.030    25.0466 0.0000e+00
     -0.015      0.072     3.7592     45.642     30.468  30.394146     2.1933      7.163   188.0806 5.7723e+02    11.4217     -0.021     -0.031    25.0116 0.0000e+00
      0.009      0.089     3.7557     46.037     30.478  30.395269     2.1981      7.165   187.9381 6.8507e+02    11.4763     -0.001     -0.001    24.9648 0.0000e+00
      0.054      0.099     3.7509     46.400     30.493  30.404612     2.1981      7.166   187.8661 7.3689e+02    11.5369      0.053      0.078    24.9204 0.0000e+00
      0.098      0.101     3.7490     46.691     30.474  30.380323     2.2010      7.169   188.0700 7.5649e+02    11.5393      0.104      0.151    24.8927 0.0000e+00
      0.126      0.094     3.7748     46.915     30.460  30.355159     2.2167      7.169   188.5972 7.6413e+02    11.4368      0.128      0.186    24.8696 0.0000e+00
      0.141      0.078     3.8167     46.971     30.477  30.353914     2.2465      7.167   189.1639 7.0708e+02    11.3232      0.140      0.202    24.8565 0.0000e+00
      0.149      0.058     3.8468     46.759     30.511  30.365243     2.2699      7.163   189.5014 6.5929e+02    11.2918      0.145      0.210    24.8504 0.0000e+00
      0.159      0.039     3.8693     46.291     30.529  30.365322     2.2753      7.159   189.4937 6.4588e+02    11.3304      0.154      0.224    24.8420 0.0000e+00
      0.171      0.025     3.8934     45.672     30.531  30.354836     2.2028      7.156   189.2435 6.2908e+02    11.3801      0.170      0.247    24.8290 0.0000e+00
      0.181      0.015     3.9043     45.062     30.556  30.365221     2.0605      7.156   189.0567 6.0516e+02    11.3807      0.180      0.262    24.7954 0.0000e+00
      0.183      0.006     3.8889     44.551     30.570  30.364082     1.9775      7.156   189.1279 5.8376e+02    11.3387      0.182      0.264    24.7513 0.0000e+00
      0.179      0.000     3.8493     44.098     30.561  30.341032     1.9818      7.156   189.4169 6.0423e+02    11.3159      0.176      0.255    24.7223 0.0000e+00
      0.172     -0.003     3.7933     43.663     30.574  30.340088     2.0539      7.156   189.7971 6.4032e+02    11.3095      0.167      0.242    24.7056 0.0000e+00
      0.167      0.000     3.7407     43.241     30.600  30.352646     2.1584      7.157   190.2836 6.3148e+02    11.2957      0.162      0.235    24.6817 0.0000e+00
      0.168      0.011     3.7030     42.806     30.628  30.366062     2.2045      7.160   190.8258 6.0776e+02    11.2855      0.163      0.238    24.6549 0.0000e+00
      0.173      0.027     3.6685     42.402     30.658  30.375494     2.2038      7.164   191.3628 6.2872e+02    11.2880      0.169      0.246    24.6335 0.0000e+00
      0.179      0.046     3.6322     42.139     30.642  30.339869     2.2251      7.167   191.9581 6.5024e+02    11.3606      0.173      0.251    24.6103 0.0000e+00
      0.190      0.062     3.6011     42.069     30.629  30.315659     2.2617      7.171   192.4299 6.2011e+02    11.4803      0.181      0.262    24.5889 0.0000e+00
      0.212      0.074     3.5649     42.216     30.658  30.336322     2.2723      7.173   192.8514 5.6720e+02    11.5402      0.205      0.298    24.5720 0.0000e+00
      0.240      0.080     3.5281     42.529     30.665  30.336113     2.2614      7.175   193.2689 5.2256e+02    11.5379      0.236      0.342    24.5343 0.0000e+00
      0.266      0.081     3.5095     42.844     30.647  30.313129     2.2216      7.177   193.5199 4.9020e+02    11.4859      0.262      0.381    24.4923 0.0000e+00
      0.288      0.077     3.5026     43.018     30.648  30.311984     2.1580      7.178   193.8218 4.7490e+02    11.3905      0.284      0.413    24.4813 0.0000e+00
      0.306      0.068     3.5160     43.013     30.659  30.322272     2.1246      7.179   194.1660 4.6504e+02    11.3060      0.302      0.437    24.4706 0.0000e+00
      0.320      0.058     3.5500     42.849     30.648  30.310737     2.1090      7.181   194.4114 4.5229e+02    11.2840      0.314      0.457    24.4550 0.0000e+00
      0.332      0.049     3.5811     42.530     30.637  30.299297     2.0945      7.182   194.6378 4.5366e+02    11.2960      0.324      0.471    24.4482 0.0000e+00
      0.344      0.043     3.5967     42.085     30.649  30.310737     2.1407      7.182   194.8393 4.5875e+02    11.3143      0.338      0.489    24.4455 0.0000e+00
      0.354      0.040     3.5944     41.572     30.660  30.322272     2.2342      7.181   194.9547 4.5535e+02    11.3353      0.348      0.505    24.4450 0.0000e+00
      0.361      0.038     3.5819     41.049     30.650  30.311985     2.2759      7.178   195.0866 4.5459e+02    11.3098      0.354      0.513    24.4428 0.0000e+00
      0.370      0.038     3.5544     40.567     30.650  30.313137     2.2705      7.176   195.2293 4.5198e+02    11.2802      0.362      0.525    24.4417 0.0000e+00
      0.380      0.038     3.5150     40.151     30.673  30.336197     2.2687      7.176   195.2174 4.4492e+02    11.3524      0.373      0.541    24.4429 0.0000e+00
      0.390      0.041     3.4709     39.787     30.673  30.337237     2.2707      7.177   195.2864 4.4260e+02    11.5001      0.384      0.556    24.4425 0.0000e+00
      0.400      0.046     3.4252     39.446     30.662  30.325702     2.2703      7.178   195.5477 4.4069e+02    11.5626      0.391      0.567    24.4421 0.0000e+00
      0.410      0.049     3.3843     39.144     30.662  30.323519     2.2633      7.177   195.7099 4.3362e+02    11.5615      0.401      0.582    24.4445 0.0000e+00
      0.423      0.050     3.3497     38.909     30.651  30.310842     2.2702      7.177   195.7848 4.2281e+02    11.5893      0.414      0.600    24.4464 0.0000e+00
      0.440      0.048     3.3210     38.729     30.637  30.299204     2.3033      7.176   195.8508 4.0805e+02    11.5910      0.430      0.624    24.4470 0.0000e+00
      0.456      0.044     3.2919     38.602     30.644  30.309596     2.3308      7.176   195.8200 3.9798e+02    11.5823      0.449      0.652    24.4473 0.0000e+00
      0.469      0.037     3.2648     38.563     30.642  30.309709     2.3359      7.176   195.7556 3.9602e+02    11.5528      0.461      0.669    24.4419 0.0000e+00
      0.476      0.029     3.2475     38.673     30.633  30.300573     2.3569      7.177   195.7611 3.9426e+02    11.5417      0.468      0.678    24.4352 0.0000e+00
      0.480      0.020     3.2318     38.971     30.658  30.325920     2.4097      7.178   195.8010 3.8993e+02    11.6187      0.472      0.684    24.4413 0.0000e+00
      0.482      0.014     3.2197     39.431     30.695  30.362599     2.4502      7.179   195.8067 3.8756e+02    11.6638      0.472      0.685    24.4500 0.0000e+00
      0.483      0.009     3.2140     39.957     30.697  30.363696     2.4639      7.181   195.6583 3.8692e+02    11.6425      0.474      0.687    24.4529 0.0000e+00
      0.485      0.006     3.2217     40.450     30.673  30.339189     2.4673      7.183   195.4698 3.7997e+02    11.6004      0.476      0.690    24.4523 0.0000e+00
      0.487      0.007     3.2478     40.897     30.654  30.319867     2.4570      7.188   195.3341 3.7030e+02    11.5645      0.478      0.692    24.4513 0.0000e+00
      0.487      0.017     3.2883     41.283     30.590  30.256855     2.4478      7.196   195.2228 3.6290e+02    11.5851      0.478      0.693    24.4519 0.0000e+00
      0.487      0.038     3.3378     41.576     30.548  30.211241     2.4567      7.206   195.3279 3.5349e+02    11.6105      0.478      0.693    24.4520 0.0000e+00
      0.490      0.068     3.3768     41.888     30.629  30.275490     2.4637      7.212   195.7449 3.3767e+02    11.5976      0.479      0.695    24.4518 0.0000e+00
      0.500      0.101     3.4148     42.470     30.640  30.272945     2.4836      7.214   196.3072 3.0942e+02    11.6683      0.483      0.702    24.4504 0.0000e+00
      0.530      0.127     3.4500     43.423     30.546  30.180445     2.5306      7.214   196.7055 2.7012e+02    11.8507      0.506      0.734    24.4499 0.0000e+00
      0.586      0.142     3.4708     44.503     30.551  30.171365     2.5663      7.211   196.9465 2.3304e+02    11.9917      0.572      0.830    24.4527 0.0000e+00
      0.648      0.143     3.4900     45.443     30.580  30.163148     2.5819      7.208   196.9849 2.0945e+02    12.0415      0.646      0.937    24.4195 0.0000e+00
      0.692      0.128     3.5348     46.188     30.525  30.081036     2.6361      7.208   196.8256 1.9722e+02    12.0433      0.685      0.993    24.3739 0.0000e+00
      0.718      0.102     3.6238     46.718     30.529  30.066015     2.7309      7.210   196.9137 1.9032e+02    12.0131      0.707      1.026    24.4084 0.0000e+00
      0.733      0.073     3.7252     47.065     30.605  30.108292     2.7793      7.210   197.3615 1.8790e+02    11.9839      0.723      1.050    24.3983 0.0000e+00
      0.738      0.052     3.8082     47.286     30.617  30.085007     2.7884      7.209   197.8521 1.8744e+02    11.9969      0.725      1.052    24.2958 0.0000e+00
      0.740      0.043     3.8760     47.291     30.591  30.037995     2.7744      7.207   198.1988 1.8485e+02    12.0008      0.723      1.048    24.2573 0.0000e+00
      0.748      0.042     3.9203     47.006     30.615  30.046993     2.7181      7.205   198.3705 1.8033e+02    11.9972      0.730      1.058    24.2529 0.0000e+00
      0.763      0.045     3.9485     46.516     30.655  30.066991     2.6818      7.204   198.3789 1.7523e+02    12.0552      0.749      1.085    24.1871 0.0000e+00
      0.780      0.048     3.9790     45.948     30.637  30.026196     2.6934      7.203   198.3868 1.7019e+02    12.1217      0.766      1.111    24.1091 0.0000e+00
      0.795      0.048     3.9839     45.333     30.627  29.997454     2.7079      7.204   198.5518 1.6587e+02    12.0839      0.779      1.131    24.0880 0.0000e+00
      0.808      0.044     3.9573     44.656     30.682  30.036399     2.6997      7.206   198.8257 1.6238e+02    11.9402      0.793      1.150    24.0737 0.0000e+00
      0.818      0.039     3.9139     43.927     30.712  30.053312     2.6849      7.206   199.1166 1.6018e+02    11.8185      0.803      1.165    24.0356 0.0000e+00
      0.824      0.035     3.8684     43.156     30.682  30.011757     2.6882      7.207   199.4018 1.5874e+02    11.8070      0.808      1.173    23.9950 0.0000e+00
      0.830      0.031     3.8214     42.422     30.662  29.977683     2.6815      7.207   199.6065 1.5676e+02    11.8365      0.814      1.180    23.9629 0.0000e+00
      0.838      0.029     3.7629     41.801     30.658  29.958269     2.6449      7.208   199.7000 1.5466e+02    11.7992      0.822      1.192    23.9435 0.0000e+00
      0.846      0.028     3.7053     41.279     30.621  29.903789     2.6206      7.209   199.7565 1.5263e+02    11.7661      0.830      1.203    23.9227 0.0000e+00
      0.854      0.028     3.6380     40.858     30.622  29.889473     2.6208      7.211   199.8602 1.5042e+02    11.7774      0.838      1.215    23.9007 0.0000e+00
      0.861      0.028     3.5739     40.585     30.657  29.911937     2.6227      7.212   200.0075 1.4873e+02    11.7652      0.845      1.225    23.8812 0.0000e+00
      0.868      0.028     3.5255     40.465     30.612  29.858420     2.6346      7.213   200.2470 1.4737e+02    11.7204      0.851      1.234    23.8539 0.0000e+00
      0.875      0.027     3.4837     40.473     30.572  29.812910     2.6649      7.214   200.6055 1.4571e+02    11.6802      0.858      1.244    23.8210 0.0000e+00
      0.881      0.026     3.4473     40.604     30.568  29.805422     2.6800      7.213   201.0722 1.4407e+02    11.7225      0.864      1.253    23.7974 0.0000e+00
      0.888      0.023     3.4249     40.804     30.532  29.767878     2.6761      7.212   201.5008 1.4247e+02    11.7882      0.871      1.263    23.7797 0.0000e+00
      0.895      0.019     3.4184     41.008     30.503  29.739323     2.6939      7.211   201.4003 1.4082e+02    11.8253      0.878      1.273    23.7615 0.0000e+00
      0.901      0.014     3.4178     41.218     30.475  29.713727     2.7288      7.214   201.1477 1.3988e+02    11.8641      0.885      1.284    23.7497 0.0000e+00
      0.906      0.010     3.4320     41.476     30.473  29.711966     2.7394      7.218   201.4585 1.4003e+02    11.8477      0.889      1.290    23.7471 0.0000e+00
      0.906      0.010     3.4517     41.780     30.481  29.718030     2.7386      7.219   201.9740 1.4144e+02    11.7972      0.890      1.290    23.7420 0.0000e+00
      0.902      0.012     3.4683     42.056     30.423  29.660266     2.7771      7.219   202.3915 1.4306e+02    11.8010      0.885      1.282    23.7409 0.0000e+00
      0.901      0.016     3.4844     42.296     30.410  29.647453     2.8315      7.218   202.7195 1.4235e+02    11.8247      0.880      1.275    23.7462 0.0000e+00
      0.908      0.021     3.5053     42.582     30.451  29.689896     2.8549      7.218   202.8430 1.4001e+02    11.8110      0.889      1.289    23.7460 0.0000e+00
      0.919      0.026     3.5349     42.901     30.423  29.666313     2.8608      7.218   202.7657 1.3883e+02    11.8051      0.903      1.310    23.7431 0.0000e+00
      0.929      0.030     3.5597     43.134     30.370  29.615885     2.8686      7.218   202.6460 1.3840e+02    11.9248      0.912      1.323    23.7392 0.0000e+00
      0.937      0.032     3.5749     43.228     30.344  29.587306     2.8993      7.219   202.7722 1.3815e+02    12.1652      0.918      1.332    23.7389 0.0000e+00
      0.943      0.031     3.5990     43.212     30.335  29.574325     2.9329      7.221   203.0865 1.3789e+02    12.2864      0.924      1.340    23.7446 0.0000e+00
      0.950      0.030     3.6316     43.154     30.352  29.585709     2.9336      7.222   203.3490 1.3647e+02    12.2631      0.931      1.350    23.7522 0.0000e+00
      0.958      0.030     3.6517     43.110     30.370  29.598157     2.9322      7.222   203.6226 1.3470e+02    12.3611      0.939      1.362    23.7543 0.0000e+00
      0.967      0.029     3.6591     43.065     30.375  29.598042     2.9497      7.222   203.9006 1.3323e+02    12.6176      0.949      1.376    23.7500 0.0000e+00
      0.976      0.028     3.6562     43.000     30.367  29.584316     2.9622      7.223   204.0418 1.3182e+02    12.8028      0.958      1.389    23.7410 0.0000e+00
      0.983      0.025     3.6492     42.949     30.348  29.558971     2.9666      7.224   204.0392 1.3071e+02    12.8242      0.964      1.399    23.7319 0.0000e+00
      0.988      0.023     3.6472     42.928     30.341  29.545141     2.9693      7.226   204.1282 1.2975e+02    12.7734      0.970      1.406    23.7246 0.0000e+00
      0.993      0.022     3.6457     42.897     30.342  29.543883     2.9701      7.227   204.4291 1.2895e+02    12.8036      0.974      1.413    23.7151 0.0000e+00
      0.997      0.021     3.6385     42.840     30.341  29.543755     2.9679      7.226   204.7516 1.2830e+02    12.9507      0.978      1.418    23.7070 0.0000e+00
      1.002      0.021     3.6340     42.763     30.340  29.543588     2.9678      7.224   205.0176 1.2726e+02    13.0491      0.983      1.424    23.6937 0.0000e+00
      1.008      0.021     3.6360     42.674     30.337  29.541873     2.9849      7.224   205.4072 1.2596e+02    13.0359      0.989      1.434    23.6811 0.0000e+00
      1.015      0.022     3.6330     42.596     30.319  29.523013     3.0084      7.225   205.8489 1.2497e+02    12.9962      0.995      1.444    23.6771 0.0000e+00
      1.020      0.022     3.6284     42.558     30.307  29.505735     3.0276      7.226   206.1421 1.2437e+02    13.0134      1.001      1.452    23.6785 0.0000e+00
      1.025      0.022     3.6212     42.588     30.333  29.523130     3.0425      7.226   206.3708 1.2361e+02    13.0735      1.005      1.458    23.6827 0.0000e+00
      1.031      0.022     3.6127     42.694     30.363  29.543145     3.0468      7.226   206.6345 1.2257e+02    13.0732      1.010      1.465    23.6867 0.0000e+00
      1.037      0.022     3.6053     42.870     30.387  29.557549     3.0714      7.227   207.0080 1.2160e+02    13.0097      1.017      1.475    23.6857 0.0000e+00
      1.043      0.022     3.6016     43.083     30.412  29.570490     3.1235      7.227   207.2735 1.2031e+02    12.9556      1.022      1.482    23.6761 0.0000e+00
      1.049      0.022     3.6056     43.315     30.428  29.572812     3.1517      7.227   207.3490 1.1897e+02    12.9649      1.028      1.492    23.6592 0.0000e+00
      1.054      0.022     3.6149     43.600     30.455  29.585609     3.1544      7.228   207.4915 1.1793e+02    13.0195      1.035      1.501    23.6433 0.0000e+00
      1.059      0.021     3.6326     43.946     30.479  29.598412     3.1394      7.228   207.6191 1.1684e+02    13.0691      1.039      1.507    23.6303 0.0000e+00
      1.065      0.020     3.6528     44.269     30.489  29.600814     3.1040      7.230   207.6873 1.1568e+02    13.1207      1.044      1.514    23.6113 0.0000e+00
      1.070      0.018     3.6722     44.500     30.509  29.614647     3.0840      7.232   207.8856 1.1459e+02    13.1308      1.050      1.521    23.5893 0.0000e+00
      1.075      0.018     3.6970     44.688     30.538  29.638870     3.0894      7.232   208.2103 1.1367e+02    13.1234      1.055      1.530    23.5642 0.0000e+00
      1.079      0.018     3.7311     44.858     30.543  29.640119     3.1100      7.232   208.4290 1.1277e+02    13.1684      1.058      1.535    23.5468 0.0000e+00
      1.082      0.018     3.7630     44.972     30.538  29.629748     3.1429      7.233   208.5520 1.1165e+02    13.1958      1.061      1.538    23.5385 0.0000e+00
      1.087      0.018     3.7797     45.019     30.557  29.640246     3.1626      7.234   208.7505 1.1024e+02    13.1811      1.066      1.545    23.5267 0.0000e+00
      1.093      0.017     3.7948     44.954     30.566  29.640258     3.1644      7.234   208.8502 1.0886e+02    13.1964      1.072      1.555    23.5207 0.0000e+00
      1.098      0.017     3.8129     44.746     30.564  29.629888     3.1644      7.234   208.8113 1.0796e+02    13.2096      1.078      1.563    23.5188 0.0000e+00
      1.102      0.017     3.8214     44.469     30.585  29.641623     3.2046      7.237   208.8823 1.0725e+02    13.2046      1.081      1.568    23.5084 0.0000e+00
      1.105      0.017     3.8287     44.249     30.607  29.655351     3.2849      7.239   209.1068 1.0653e+02    13.2034      1.084      1.573    23.4931 0.0000e+00
      1.108      0.018     3.8265     44.229     30.625  29.669079     3.3271      7.241   209.3739 1.0569e+02    13.1615      1.086      1.576    23.4812 0.0000e+00
      1.112      0.019     3.8059     44.479     30.637  29.680824     3.3323      7.241   209.6165 1.0445e+02    13.1417      1.090      1.581    23.4680 0.0000e+00
      1.118      0.021     3.7806     44.928     30.626  29.670575     3.3067      7.240   209.8040 1.0300e+02    13.1017      1.096      1.590    23.4506 0.0000e+00
      1.124      0.021     3.7577     45.462     30.631  29.671938     3.2421      7.240   209.9198 1.0154e+02    12.9164      1.103      1.599    23.4370 0.0000e+00
      1.131      0.021     3.7530     45.959     30.666  29.697306     3.2005      7.242   209.9839 1.0016e+02    12.7457      1.109      1.609    23.4312 0.0000e+00
      1.137      0.021     3.7779     46.293     30.702  29.723723     3.2020      7.244   210.1491 9.9011e+01    12.7115      1.116      1.618    23.4352 0.0000e+00
      1.141      0.021     3.8195     46.438     30.722  29.737766     3.2112      7.244   210.4541 9.8125e+01    12.7423      1.119      1.624    23.4380 0.0000e+00
      1.146      0.021     3.8680     46.438     30.730  29.740300     3.2119      7.244   210.6608 9.7131e+01    12.7768      1.123      1.629    23.4308 0.0000e+00
      1.151      0.021     3.9172     46.327     30.751  29.754353     3.2101      7.244   210.8413 9.5787e+01    12.7522      1.128      1.636    23.4149 0.0000e+00
      1.157      0.020     3.9472     46.201     30.787  29.780885     3.2071      7.244   211.0019 9.4312e+01    12.7190      1.134      1.645    23.3983 0.0000e+00
      1.163      0.020     3.9571     46.226     30.822  29.807522     3.2005      7.243   211.0534 9.3059e+01    12.7168      1.141      1.656    23.3913 0.0000e+00
      1.168      0.020     3.9578     46.444     30.847  29.822832     3.2049      7.243   211.2059 9.2122e+01    12.7244      1.147      1.663    23.3854 0.0000e+00
      1.172      0.019     3.9472     46.717     30.874  29.839204     3.2178      7.242   211.3838 9.1293e+01    12.7773      1.150      1.667    23.3744 0.0000e+00
      1.176      0.018     3.9298     46.917     30.925  29.878680     3.2148      7.242   211.5701 9.0322e+01    12.7754      1.154      1.673    23.3609 0.0000e+00
      1.181      0.017     3.9311     47.069     30.979  29.919766     3.2030      7.242   211.8229 8.9232e+01    12.7014      1.159      1.680    23.3492 0.0000e+00
      1.186      0.016     3.9570     47.280     31.028  29.955603     3.1834      7.242   212.0315 8.8341e+01    12.7032      1.164      1.689    23.3358 0.0000e+00
      1.190      0.016     3.9863     47.577     31.078  29.994998     3.1435      7.242   212.2000 8.7696e+01    12.7632      1.168      1.693    23.3192 0.0000e+00
      1.194      0.015     4.0036     47.905     31.107  30.015724     3.1045      7.242   212.3110 8.7044e+01    12.7777      1.171      1.698    23.3022 0.0000e+00
      1.197      0.014     4.0121     48.140     31.112  30.016012     3.0859      7.243   212.3414 8.6348e+01    12.7422      1.174      1.703    23.2849 0.0000e+00
      1.200      0.013     4.0322     48.204     31.096  29.998476     3.1009      7.243   212.3093 8.5649e+01    12.7777      1.177      1.707    23.2665 0.0000e+00
      1.204      0.013     4.0597     48.172     31.091  29.993881     3.1453      7.243   212.1808 8.4909e+01    12.8982      1.182      1.714    23.2501 0.0000e+00
      1.208      0.013     4.0929     48.132     31.123  30.023841     3.1735      7.244   212.0784 8.4246e+01    12.9706      1.185      1.718    23.2385 0.0000e+00
      1.211      0.013     4.1184     48.075     31.145  30.043750     3.1661      7.244   212.1896 8.3690e+01    13.0039      1.188      1.723    23.2301 0.0000e+00
      1.214      0.014     4.1188     47.937     31.146  30.044427     3.1471      7.245   212.4072 8.3108e+01    13.0619      1.191      1.727    23.2307 0.0000e+00
      1.217      0.015     4.1128     47.710     31.134  30.032019     3.1437      7.246   212.6442 8.2353e+01    13.1250      1.193      1.730    23.2316 0.0000e+00
      1.221      0.015     4.1107     47.472     31.127  30.020509     3.1582      7.246   212.9044 8.1395e+01    13.1861      1.197      1.736    23.2280 0.0000e+00
      1.226      0.015     4.1085     47.282     31.145  30.032047     3.1653      7.247   213.0571 8.0473e+01    13.2540      1.202      1.744    23.2271 0.0000e+00
      1.230      0.015     4.0977     47.100     31.164  30.044727     3.1128      7.248   213.1141 7.9754e+01    13.1941      1.207      1.751    23.2276 0.0000e+00
      1.234      0.015     4.0746     46.884     31.171  30.047023     3.0142      7.249   213.1637 7.9069e+01    13.0428      1.210      1.755    23.2264 0.0000e+00
      1.238      0.016     4.0524     46.703     31.188  30.059806     2.9638      7.251   213.3132 7.8450e+01    12.9962      1.214      1.760    23.2180 0.0000e+00
      1.241      0.019     4.0389     46.616     31.202  30.072494     2.9691      7.251   213.6299 7.7868e+01    13.0067      1.217      1.765    23.2065 0.0000e+00
      1.245      0.022     4.0275     46.623     31.204  30.073648     2.9703      7.248   213.9821 7.7070e+01    13.1016      1.220      1.769    23.1981 0.0000e+00
      1.250      0.023     4.0051     46.665     31.205  30.073753     2.9450      7.245   214.1298 7.5977e+01    13.2215      1.225      1.776    23.1914 0.0000e+00
      1.258      0.023     3.9881     46.620     31.205  30.073773     2.9213      7.242   214.0392 7.4559e+01    13.2258      1.232      1.788    23.1842 0.0000e+00
      1.268      0.021     3.9822     46.485     31.207  30.073878     2.9175      7.242   213.9195 7.3317e+01    13.2227      1.244      1.804    23.1831 0.0000e+00
      1.275      0.020     3.9816     46.354     31.212  30.075025     2.9398      7.246   213.8000 7.2706e+01    13.2517      1.252      1.815    23.1845 0.0000e+00
      1.278      0.023     3.9934     46.245     31.231  30.087632     2.9829      7.252   213.7990 7.2552e+01    13.2697      1.254      1.818    23.1822 0.0000e+00
      1.278      0.029     3.9884     46.191     31.250  30.099512     2.9976      7.256   213.8222 7.2675e+01    13.2686      1.255      1.820    23.1816 0.0000e+00
      1.279      0.037     3.9718     46.236     31.246  30.091872     2.9846      7.257   213.9081 7.2305e+01    13.2389      1.252      1.816    23.1799 0.0000e+00
      1.287      0.045     3.9624     46.271     31.284  30.122039     2.9841      7.257   214.3212 6.9896e+01    13.2180      1.254      1.820    23.1742 0.0000e+00
      1.308      0.051     3.9534     46.167     31.389  30.210677     3.0324      7.255   214.5153 6.6170e+01    13.2551      1.281      1.858    23.1643 0.0000e+00
      1.333      0.053     3.9452     45.984     31.475  30.276067     3.1191      7.253   214.3619 6.3572e+01    13.3460      1.311      1.901    23.1526 0.0000e+00
      1.349      0.052     3.9545     45.870     31.495  30.278700     3.1596      7.251   214.4455 6.2157e+01    13.3940      1.324      1.920    23.1475 0.0000e+00
      1.359      0.046     3.9647     45.862     31.464  30.242485     3.1476      7.248   214.7516 6.1054e+01    13.3577      1.334      1.934    23.1426 0.0000e+00
      1.366      0.038     3.9532     45.845     31.434  30.218552     3.1319      7.246   214.9656 6.0061e+01    13.2831      1.340      1.943    23.1214 0.0000e+00
      1.371      0.033     3.9349     45.759     31.452  30.242903     3.1191      7.245   215.1410 5.8986e+01    13.1415      1.343      1.949    23.0885 0.0000e+00
      1.378      0.030     3.9247     45.711     31.495  30.283356     3.1100      7.243   215.4090 5.7927e+01    12.9775      1.352      1.961    23.0564 0.0000e+00
      1.387      0.029     3.9314     45.782     31.549  30.327298     3.0959      7.240   215.4528 5.6930e+01    12.9389      1.361      1.973    23.0441 0.0000e+00
      1.395      0.029     3.9317     45.887     31.633  30.393836     3.0823      7.238   215.4118 5.5763e+01    13.0174      1.367      1.982    23.0599 0.0000e+00
      1.404      0.030     3.9173     45.905     31.714  30.453898     3.0873      7.237   215.6027 5.4791e+01    13.0378      1.378      1.999    23.0796 0.0000e+00
      1.412      0.032     3.9096     45.795     31.761  30.482938     3.1053      7.237   215.6090 5.4488e+01    12.9808      1.388      2.013    23.0757 0.0000e+00
      1.416      0.034     3.9211     45.550     31.781  30.491362     3.1093      7.237   215.5741 5.4123e+01    12.9433      1.388      2.013    23.0600 0.0000e+00
      1.423      0.036     3.9364     45.197     31.791  30.492327     3.1280      7.236   215.7840 5.3026e+01    12.9603      1.393      2.019    23.0415 0.0000e+00
      1.435      0.036     3.9402     44.772     31.803  30.494600     3.1815      7.234   215.9092 5.1666e+01    13.0153      1.408      2.041    23.0075 0.0000e+00
      1.448      0.036     3.9341     44.270     31.836  30.518831     3.2145      7.233   215.8834 5.0456e+01    13.0271      1.420      2.061    22.9791 0.0000e+00
      1.460      0.035     3.9127     43.728     31.923  30.595106     3.2273      7.233   215.9879 4.9476e+01    13.0014      1.432      2.078    22.9651 0.0000e+00
      1.468      0.031     3.8815     43.218     32.068  30.719487     3.2278      7.233   216.2262 4.8966e+01    12.9774      1.442      2.092    22.9508 0.0000e+00
      1.473      0.026     3.8475     42.720     32.200  30.818199     3.2209      7.233   216.3567 4.8616e+01    12.9077      1.444      2.095    22.9353 0.0000e+00
      1.477      0.022     3.8045     42.149     32.252  30.837657     3.2364      7.233   216.3606 4.7970e+01    12.8412      1.447      2.099    22.9245 0.0000e+00
      1.483      0.020     3.7541     41.482     32.262  30.827914     3.2563      7.233   216.4453 4.7247e+01    12.8237      1.455      2.111    22.9184 0.0000e+00
      1.489      0.019     3.7127     40.771     32.268  30.827160     3.2615      7.231   216.6067 4.6741e+01    12.7976      1.461      2.119    22.9019 0.0000e+00
      1.493      0.019     3.6773     40.069     32.271  30.828532     3.2329      7.230   216.6770 4.6296e+01    12.7984      1.464      2.122    22.8529 0.0000e+00
      1.497      0.020     3.6330     39.392     32.290  30.844505     3.1760      7.229   216.6930 4.5776e+01    12.8684      1.467      2.128    22.7930 0.0000e+00
      1.502      0.020     3.5750     38.681     32.346  30.893498     3.1482      7.227   216.7143 4.5281e+01    12.9603      1.473      2.136    22.7632 0.0000e+00
      1.507      0.021     3.5125     37.843     32.443  30.977122     3.1546      7.225   216.7628 4.4716e+01    12.9869      1.477      2.143    22.7591 0.0000e+00
      1.512      0.022     3.4511     36.885     32.588  31.094837     3.1953      7.223   216.8495 4.4020e+01    12.8835      1.482      2.150    22.7610 0.0000e+00
      1.519      0.022     3.3941     35.880     32.773  31.239026     3.2662      7.223   216.9885 4.3328e+01    12.7346      1.490      2.161    22.7590 0.0000e+00
      1.526      0.022     3.3388     34.913     32.977  31.389123     3.3042      7.223   217.0661 4.2766e+01    12.6897      1.496      2.171    22.7522 0.0000e+00
      1.531      0.022     3.2655     34.056     33.155  31.514853     3.3128      7.222   217.0129 4.2349e+01    12.7505      1.502      2.178    22.7403 0.0000e+00
      1.535      0.022     3.1826     33.288     33.228  31.554603     3.3210      7.222   216.9478 4.1965e+01    12.8202      1.506      2.183    22.7106 0.0000e+00
      1.540      0.022     3.0965     32.548     33.175  31.489315     3.3202      7.221   216.8805 4.1484e+01    12.8842      1.510      2.189    22.6608 0.0000e+00
      1.546      0.022     3.0134     31.777     33.108  31.422814     3.3195      7.218   216.8884 4.0927e+01    12.9775      1.516      2.198    22.5896 0.0000e+00
      1.552      0.023     2.9451     30.829     33.131  31.447912     3.3208      7.216   217.0425 4.0350e+01    13.0256      1.522      2.208    22.5117 0.0000e+00
      1.558      0.023     2.8840     29.593     33.237  31.539187     3.3106      7.214   217.2818 3.9756e+01    12.9546      1.528      2.216    22.4686 0.0000e+00
      1.565      0.022     2.8205     28.127     33.375  31.638845     3.2885      7.211   217.6300 3.9236e+01    12.8360      1.535      2.226    22.4485 0.0000e+00
      1.571      0.020     2.7598     26.484     33.476  31.701852     3.2613      7.208   217.8976 3.8805e+01    12.7525      1.540      2.234    22.4424 0.0000e+00
      1.576      0.018     2.6827     24.695     33.527  31.730372     3.2403      7.207   217.9366 3.8386e+01    12.7306      1.545      2.241    22.4633 0.0000e+00
      1.580      0.016     2.5703     22.899     33.536  31.730066     3.2423      7.206   217.9292 3.8021e+01    12.7425      1.550      2.248    22.4574 0.0000e+00
      1.583      0.014     2.4454     21.299     33.500  31.698136     3.2855      7.204   217.8945 3.7724e+01    12.7600      1.553      2.252    22.3935 0.0000e+00
      1.586      0.013     2.3062     20.037     33.444  31.661291     3.3550      7.202   217.9466 3.7406e+01    12.7711      1.555      2.255    22.3346 0.0000e+00
      1.589      0.012     2.1467     19.076     33.354  31.601597     3.3910      7.201   218.1299 3.7046e+01    12.7402      1.557      2.258    22.3100 0.0000e+00
      1.592      0.012     1.9844     18.206     33.269  31.547001     3.3875      7.200   218.2175 3.6706e+01    12.7282      1.561      2.264    22.2966 0.0000e+00
      1.595      0.013     1.8400     17.259     33.277  31.571781     3.3880      7.199   218.2314 3.6446e+01    12.7622      1.565      2.270    22.2961 0.0000e+00
      1.597      0.015     1.7301     16.268     33.352  31.647646     3.3891      7.197   218.2119 3.6194e+01    12.7757      1.567      2.272    22.3214 0.0000e+00
      1.601      0.017     1.6536     15.336     33.420  31.703526     3.3761      7.196   218.1531 3.5787e+01    12.7547      1.569      2.276    22.3694 0.0000e+00
      1.606      0.018     1.5837     14.504     33.483  31.740220     3.3645      7.195   218.2089 3.5245e+01    12.7128      1.574      2.283    22.4121 0.0000e+00
      1.612      0.019     1.4980     13.827     33.549  31.774282     3.3484      7.194   218.3709 3.4742e+01    12.7139      1.581      2.293    22.4376 0.0000e+00
      1.617      0.022     1.4070     13.412     33.596  31.798334     3.3223      7.194   218.4767 3.4353e+01    12.7676      1.587      2.302    22.4477 0.0000e+00
      1.621      0.025     1.3272     13.363     33.654  31.840809     3.2985      7.193   218.6274 3.4036e+01    12.7477      1.591      2.307    22.4360 0.0000e+00
      1.626      0.027     1.2542     13.633     33.743  31.907431     3.2776      7.192   218.8170 3.3621e+01    12.6772      1.594      2.312    22.3961 0.0000e+00
      1.633      0.028     1.1932     13.966     33.847  31.969851     3.2694      7.192   218.7899 3.2980e+01    12.6669      1.601      2.323    22.3424 0.0000e+00
      1.643      0.029     1.1537     14.118     33.959  32.024881     3.2748      7.192   218.6434 3.2328e+01    12.6224      1.612      2.338    22.3122 0.0000e+00
      1.652      0.030     1.1492     14.013     34.062  32.065531     3.2840      7.192   218.5092 3.1848e+01    12.5154      1.621      2.353    22.3045 0.0000e+00
      1.660      0.030     1.1841     13.679     34.132  32.080874     3.2890      7.192   218.2854 3.1480e+01    12.4667      1.629      2.363    22.2845 0.0000e+00
      1.667      0.029     1.2225     13.131     34.177  32.083522     3.3101      7.192   218.0893 3.1153e+01    12.4778      1.635      2.371    22.2317 0.0000e+00
      1.673      0.028     1.2392     12.343     34.226  32.097484     3.3647      7.190   218.0308 3.0768e+01    12.5126      1.641      2.380    22.1499 0.0000e+00
      1.681      0.027     1.2302     11.284     34.281  32.122848     3.4081      7.188   218.0937 3.0252e+01    12.5460      1.648      2.390    22.0607 0.0000e+00
      1.689      0.025     1.2020      9.961     34.317  32.136569     3.4188      7.186   218.2480 2.9737e+01    12.5064      1.657      2.403    21.9846 0.0000e+00
      1.696      0.024     1.1574      8.511     34.332  32.136562     3.4114      7.185   218.3465 2.9365e+01    12.4434      1.665      2.415    21.9270 0.0000e+00
      1.701      0.022     1.0892      7.143     34.328  32.122741     3.4514      7.183   218.4252 2.9105e+01    12.3989      1.669      2.421    21.8824 0.0000e+00
      1.705      0.021     0.9990      5.959     34.312  32.096251     3.5529      7.181   218.6836 2.8797e+01    12.3439      1.672      2.424    21.8453 0.0000e+00
      1.710      0.020     0.8788      4.966     34.293  32.069845     3.6149      7.178   218.9749 2.8367e+01    12.3249      1.676      2.431    21.8153 0.0000e+00
      1.715      0.019     0.7429      4.135     34.282  32.057059     3.6183      7.174   219.0219 2.7932e+01    12.3067      1.682      2.440    21.7958 0.0000e+00
      1.721      0.018     0.6209      3.435     34.297  32.068452     3.5686      7.169   218.9947 2.7570e+01    12.2601      1.687      2.447    21.7848 0.0000e+00
      1.726      0.016     0.5173      2.876     34.322  32.080790     3.4800      7.166   219.0752 2.7286e+01    12.2396      1.693      2.456    21.7660 0.0000e+00
      1.730      0.015     0.4313      2.482     34.329  32.079430     3.4376      7.164   219.1358 2.7103e+01    12.2641      1.698      2.463    21.7476 0.0000e+00
      1.733      0.013     0.3597      2.231     34.296  32.051980     3.4472      7.162   219.1249 2.7010e+01    12.2825      1.701      2.466    21.7507 0.0000e+00
      1.735      0.012     0.2979      2.077     34.236  32.002504     3.4881      7.160   219.0293 2.6898e+01    12.2576      1.702      2.468    21.7516 0.0000e+00
      1.737      0.012     0.2467      1.990     34.224  31.988429     3.5576      7.158   218.8407 2.6699e+01    12.2362      1.703      2.469    21.7288 0.0000e+00
      1.740      0.013     0.2139      1.965     34.258  32.008589     3.5971      7.157   218.6516 2.6462e+01    12.2284      1.706      2.475    21.7093 0.0000e+00
      1.744      0.015     0.1930      2.005     34.260  31.992645     3.5991      7.156   218.6353 2.6199e+01    12.2318      1.710      2.480    21.7216 0.0000e+00
      1.748      0.018     0.1807      2.102     34.215  31.922434     3.5813      7.155   218.8153 2.5934e+01    12.1408      1.714      2.486    21.7406 0.0000e+00
      1.752      0.020     0.1729      2.222     34.197  31.857021     3.5400      7.154   218.8488 2.5649e+01    11.9129      1.719      2.491    21.7333 0.0000e+00
      1.757      0.020     0.1706      2.328     34.234  31.835663     3.5076      7.151   218.6963 2.5242e+01    11.7656      1.722      2.497    21.7138 0.0000e+00
      1.764      0.020     0.1745      2.413     34.295  31.854314     3.5138      7.147   218.6925 2.4790e+01    11.7607      1.729      2.508    21.6913 0.0000e+00
      1.771      0.019     0.1838      2.468     34.351  31.892278     3.6238      7.144   218.8035 2.4482e+01    11.5125      1.738      2.520    21.6586 0.0000e+00
      1.776      0.018     0.1969      2.483     34.374  31.914268     3.8058      7.142   218.9186 2.4312e+01    10.9844      1.742      2.527    21.5790 0.0000e+00
      1.779      0.016     0.2057      2.457     34.388  31.929995     3.8999      7.139   219.1388 2.4188e+01    10.6704      1.744      2.531    21.4776 0.0000e+00
      1.782      0.015     0.2142      2.365     34.423  31.955641     3.9039      7.135   219.4010 2.4076e+01    10.5856      1.747      2.534    21.4258 0.0000e+00
      1.785      0.013     0.2199      2.210     34.462  31.970752     3.8877      7.133   219.9377 2.3926e+01    10.5739      1.749      2.537    21.4076 0.0000e+00
      1.788      0.013     0.2203      2.040     34.507  31.985870     3.7535      7.131   220.7236 2.3722e+01    10.8364      1.753      2.543    21.4148 0.0000e+00
      1.793      0.013     0.2195      1.880     34.553  32.011589     3.5051      7.129   220.9015 2.3541e+01    11.2998      1.759      2.550    21.4267 0.0000e+00
      1.797      0.013     0.2117      1.760     34.578  32.028104     3.3562      7.127   220.2825 2.3433e+01    11.4969      1.762      2.555    21.4205 0.0000e+00
      1.799      0.013     0.1952      1.687     34.613  32.058736     3.3346      7.127   219.5191 2.3370e+01    11.4778      1.764      2.559    21.3835 0.0000e+00
      1.802      0.013     0.1808      1.630     34.689  32.128362     3.4269      7.128   219.1567 2.3312e+01    11.5466      1.767      2.564    21.3344 0.0000e+00
      1.804      0.014     0.1650      1.590     34.822  32.235955     3.6150      7.130   219.0840 2.3231e+01    11.6108      1.769      2.566    21.3143 0.0000e+00
      1.807      0.015     0.1539      1.588     35.051  32.408612     3.7196      7.132   219.0709 2.3096e+01    11.5712      1.772      2.570    21.3034 0.0000e+00
      1.812      0.018     0.1496      1.607     35.299  32.567481     3.7266      7.134   219.0846 2.2893e+01    11.4775      1.777      2.578    21.3040 0.0000e+00
      1.817      0.020     0.1441      1.632     35.399  32.571705     3.6828      7.134   218.9916 2.2637e+01    11.3324      1.782      2.585    21.3129 0.0000e+00
      1.823      0.022     0.1393      1.662     35.342  32.459569     3.5978      7.133   218.9785 2.2337e+01    11.1825      1.788      2.593    21.2933 0.0000e+00
      1.829      0.024     0.1402      1.682     35.308  32.416187     3.5571      7.129   219.0987 2.1985e+01    11.1350      1.794      2.601    21.2415 0.0000e+00
      1.835      0.025     0.1432      1.677     35.381  32.490961     3.5722      7.125   219.1537 2.1619e+01    11.0645      1.800      2.610    21.1419 0.0000e+00
      1.842      0.025     0.1448      1.642     35.431  32.539463     3.7311      7.121   219.1278 2.1282e+01    10.5704      1.807      2.621    20.9835 0.0000e+00
      1.849      0.026     0.1488      1.576     35.453  32.558823     4.0212      7.118   219.0437 2.0956e+01     9.7379      1.813      2.630    20.8836 0.0000e+00
      1.855      0.026     0.1514      1.483     35.638  32.725038     4.1842      7.116   218.9112 2.0641e+01     9.2656      1.819      2.639    20.8931 0.0000e+00
      1.861      0.026     0.1505      1.378     36.069  33.090922     4.2195      7.114   218.9022 2.0313e+01     9.1972      1.824      2.647    20.9191 0.0000e+00
      1.868      0.026     0.1476      1.287     36.590  33.495517     4.3574      7.113   219.0202 1.9938e+01     9.0135      1.831      2.656    20.9172 0.0000e+00
      1.876      0.026     0.1416      1.228     37.042  33.812667     4.6027      7.112   219.0480 1.9618e+01     8.6844      1.840      2.668    20.9079 0.0000e+00
      1.883      0.025     0.1328      1.194     37.287  33.945410     4.7468      7.110   218.9803 1.9362e+01     8.5308      1.847      2.678    20.9214 0.0000e+00
      1.889      0.024     0.1226      1.162     37.164  33.768860     4.7683      7.110   218.8043 1.9130e+01     8.5578      1.853      2.687    20.8964 0.0000e+00
      1.895      0.022     0.1141      1.133     36.841  33.453269     4.7548      7.109   218.5537 1.8970e+01     8.5662      1.859      2.696    20.7780 0.0000e+00
      1.900      0.020     0.1092      1.118     36.651  33.299824     4.6826      7.109   218.2741 1.8831e+01     8.6671      1.863      2.702    20.6328 0.0000e+00
      1.905      0.020     0.1078      1.093     36.695  33.371901     4.5777      7.108   218.0050 1.8681e+01     8.9572      1.868      2.709    20.5040 0.0000e+00
      1.909      0.020     0.1049      1.043     36.887  33.563942     4.5362      7.108   217.8806 1.8540e+01     9.1707      1.873      2.716    20.4039 0.0000e+00
      1.914      0.021     0.1013      0.991     37.066  33.719686     4.5467      7.108   217.8032 1.8364e+01     9.1988      1.877      2.722    20.3746 0.0000e+00
      1.919      0.021     0.1011      0.951     37.175  33.796666     4.5463      7.108   217.6712 1.8129e+01     9.2626      1.882      2.729    20.4174 0.0000e+00
      1.925      0.021     0.0997      0.904     37.345  33.924027     4.5394      7.108   217.4892 1.7884e+01     9.4643      1.888      2.739    20.4757 0.0000e+00
      1.932      0.021     0.0940      0.866     37.593  34.118267     4.5300      7.108   217.2373 1.7690e+01     9.6556      1.896      2.749    20.5043 0.0000e+00
      1.937      0.020     0.0879      0.854     37.848  34.306396     4.5321      7.107   217.0344 1.7538e+01     9.7312      1.901      2.756    20.4885 0.0000e+00
      1.942      0.018     0.0869      0.848     38.110  34.486645     4.5990      7.107   217.0145 1.7388e+01     9.5928      1.904      2.760    20.4514 0.0000e+00
      1.947      0.017     0.0811      0.850     38.437  34.712390     4.7058      7.106   217.1691 1.7253e+01     9.3139      1.909      2.768    20.4177 0.0000e+00
      1.950      0.016     0.0765      0.872     38.783  34.943307     4.7574      7.103   217.2701 1.7159e+01     9.1944      1.913      2.775    20.3791 0.0000e+00
      1.953      0.015     0.0775      0.888     38.932  34.995827     4.7579      7.100   217.1165 1.7035e+01     9.2077      1.915      2.777    20.3256 0.0000e+00
      1.958      0.013     0.0765      0.872     38.875  34.903447     4.7692      7.097   216.8608 1.6836e+01     9.1676      1.919      2.784    20.2454 0.0000e+00
      1.963      0.010     0.0760      0.843     38.780  34.840825     4.8025      7.096   216.6731 1.6710e+01     9.0503      1.926      2.793    20.1553 0.0000e+00
      1.965      0.008     0.0793      0.830     38.752  34.872799     4.8195      7.096   216.4812 1.6712e+01     8.9510      1.928      2.796    20.0503 0.0000e+00
      1.965      0.007     0.0828      0.818     38.884  35.036487     4.8085      7.096   216.3484 1.6741e+01     8.9241      1.927      2.795    19.9212 0.0000e+00
      1.965      0.007     0.0797      0.788     39.169  35.298209     4.7692      7.096   216.3573 1.6752e+01     8.8618      1.927      2.795    19.8500 0.0000e+00
      1.966      0.008     0.0759      0.766     39.510  35.564297     4.7020      7.094   216.3305 1.6717e+01     8.7773      1.927      2.794    19.8999 0.0000e+00
      1.968      0.009     0.0751      0.762     39.832  35.780674     4.6537      7.090   216.1967 1.6598e+01     8.7569      1.929      2.797    20.0001 0.0000e+00
      1.971      0.010     0.0758      0.762     40.105  35.948569     4.6353      7.088   215.9443 1.6418e+01     8.7178      1.932      2.803    20.0655 0.0000e+00
      1.976      0.011     0.0710      0.763     40.382  36.135728     4.6294      7.089   215.5158 1.6275e+01     8.6467      1.938      2.811    20.0761 0.0000e+00
      1.980      0.012     0.0687      0.754     40.796  36.458200     4.6405      7.089   214.3709 1.6244e+01     8.6488      1.942      2.817    20.0201 0.0000e+00
      1.981      0.012     0.0698      0.737     41.301  36.867051     4.6605      7.086   211.8245 1.6251e+01     8.7429      1.943      2.818    19.9092 0.0000e+00
      1.982      0.012     0.0692      0.727     41.663  37.147380     4.6637      7.084   208.7324 1.6184e+01     8.8282      1.944      2.820    19.8033 0.0000e+00
      1.985      0.011     0.0702      0.715     41.824  37.247572     4.6538      7.084   206.6682 1.6039e+01     8.8259      1.947      2.824    19.7314 0.0000e+00
      1.990      0.011     0.0695      0.695     41.874  37.253993     4.7153      7.082   205.6224 1.5885e+01     8.7828      1.952      2.831    19.6766 0.0000e+00
      1.994      0.011     0.0669      0.675     41.875  37.224963     4.8498      7.081   204.1754 1.5765e+01     8.7510      1.955      2.836    19.6298 0.0000e+00
      1.997      0.010     0.0666      0.658     41.815  37.150203     4.9313      7.080   201.5626 1.5700e+01     8.7497      1.957      2.839    19.5780 0.0000e+00
      1.999      0.009     0.0664      0.640     41.716  37.047628     4.9438      7.080   198.6388 1.5676e+01     8.7665      1.960      2.844    19.5227 0.0000e+00
      2.001      0.007     0.0635      0.625     41.671  36.999365     4.9838      7.080   196.4419 1.5652e+01     8.8519      1.962      2.846    19.4753 0.0000e+00
      2.002      0.006     0.0621      0.623     41.686  37.010557     5.0828      7.078   194.9612 1.5638e+01     9.0642      1.963      2.847    19.4397 0.0000e+00
      2.003      0.005     0.0606      0.613     41.736  37.056111     5.1587      7.076   193.9001 1.5629e+01     9.2500      1.964      2.849    19.4141 0.0000e+00
      2.004      0.005     0.0590      0.582     41.786  37.106254     5.1768      7.075   193.1621 1.5597e+01     9.3223      1.965      2.850    19.3964 0.0000e+00
      2.005      0.005     0.0566      0.565     41.772  37.109519     5.1940      7.075   192.3200 1.5546e+01     9.5631      1.967      2.852    19.3880 0.0000e+00
      2.006      0.005     0.0577      0.578     41.727  37.095604     5.2331      7.075   191.0314 1.5486e+01    10.0434      1.967      2.853    19.3856 0.0000e+00
      2.008      0.005     0.0579      0.603     41.732  37.128284     5.2664      7.075   189.7126 1.5430e+01    10.3464      1.969      2.856    19.3870 0.0000e+00
      2.009      0.006     0.0526      0.610     41.775  37.187612     5.2728      7.075   188.7649 1.5385e+01    10.3914      1.971      2.858    19.3907 0.0000e+00
      2.011      0.006     0.0507      0.584     41.832  37.242226     5.1939      7.074   187.9182 1.5344e+01     9.9730      1.972      2.859    19.4096 0.0000e+00
      2.012      0.006     0.0529      0.555     41.883  37.281290     5.0359      7.073   186.8746 1.5293e+01     9.0793      1.973      2.861    19.4438 0.0000e+00
      2.013      0.007     0.0558      0.558     41.878  37.279418     4.9354      7.073   185.6106 1.5218e+01     8.5361      1.974      2.863    19.4820 0.0000e+00
      2.016      0.007     0.0576      0.574     41.787  37.219596     4.9195      7.073   183.9926 1.5134e+01     8.4944      1.977      2.868    19.5143 0.0000e+00
      2.018      0.008     0.0542      0.584     41.579  37.065344     4.9185      7.072   182.1113 1.5069e+01     8.5413      1.979      2.870    19.5167 0.0000e+00
      2.020      0.008     0.0489      0.579     41.332  36.872976     4.8735      7.072   180.5876 1.5019e+01     8.6588      1.981      2.873    19.4960 0.0000e+00
      2.021      0.007     0.0512      0.559     41.227  36.796188     4.8005      7.071   179.5943 1.4969e+01     8.8562      1.982      2.875    19.4925 0.0000e+00
      2.024      0.007     0.0530      0.543     41.275  36.834491     4.7681      7.069   178.7050 1.4912e+01     8.9470      1.985      2.878    19.5269 0.0000e+00
      2.026      0.008     0.0539      0.544     41.436  36.955600     4.7655      7.069   177.7511 1.4839e+01     8.9373      1.987      2.881    19.5703 0.0000e+00
      2.027      0.008     0.0541      0.556     41.725  37.182415     4.7775      7.069   176.6645 1.4759e+01     8.9092      1.988      2.883    19.6052 0.0000e+00
      2.028      0.009     0.0507      0.558     42.035  37.420727     4.7960      7.069   175.3750 1.4674e+01     8.8119      1.989      2.885    19.6319 0.0000e+00
      2.031      0.009     0.0493      0.545     42.236  37.553973     4.8057      7.069   173.9471 1.4587e+01     8.7176      1.992      2.889    19.6251 0.0000e+00
      2.035      0.009     0.0492      0.551     42.327  37.588511     4.8117      7.068   172.5642 1.4497e+01     8.6919      1.996      2.894    19.5913 0.0000e+00
      2.037      0.009     0.0514      0.566     42.360  37.584587     4.8270      7.067   171.3886 1.4407e+01     8.6037      1.998      2.898    19.5526 0.0000e+00
      2.040      0.009     0.0526      0.563     42.360  37.569894     4.8571      7.067   170.4015 1.4347e+01     8.4359      2.000      2.901    19.5119 0.0000e+00
      2.042      0.008     0.0486      0.559     42.392  37.601091     4.8679      7.068   169.5776 1.4316e+01     8.3372      2.002      2.905    19.4547 0.0000e+00
      2.043      0.007     0.0500      0.557     42.503  37.708122     4.8580      7.068   168.9131 1.4290e+01     8.2978      2.004      2.907    19.3902 0.0000e+00
      2.045      0.007     0.0537      0.544     42.668  37.849341     4.7954      7.067   168.3034 1.4244e+01     8.3357      2.005      2.908    19.3494 0.0000e+00
      2.046      0.007     0.0514      0.529     42.919  38.040186     4.6855      7.066   167.4537 1.4164e+01     8.4537      2.007      2.910    19.3334 0.0000e+00
      2.049      0.008     0.0513      0.534     43.416  38.430113     4.6369      7.066   166.2966 1.4089e+01     8.4947      2.009      2.914    19.3401 0.0000e+00
      2.051      0.008     0.0520      0.546     44.418  39.266019     4.6324      7.066   165.1537 1.4034e+01     8.4561      2.011      2.917    19.3595 0.0000e+00
      2.052      0.009     0.0502      0.546     45.763  40.409476     4.6142      7.065   164.2177 1.3959e+01     8.4649      2.012      2.919    19.3633 0.0000e+00
      2.055      0.010     0.0477      0.540     47.298  41.727078     4.5910      7.065   163.4117 1.3867e+01     8.5334      2.014      2.922    19.3209 0.0000e+00
      2.058      0.010     0.0489      0.533     49.581  43.716402     4.5766      7.064   162.6361 1.3769e+01     8.5668      2.017      2.927    19.2514 0.0000e+00
      2.061      0.009     0.0513      0.530     52.168  46.002528     4.5815      7.063   161.8955 1.3668e+01     8.5608      2.022      2.932    19.1930 0.0000e+00
      2.063      0.009     0.0504      0.528     57.546  50.781007     4.5922      7.062   161.1676 1.3596e+01     8.5642      2.024      2.935    19.1464 0.0000e+00
      2.065      0.009     0.0502      0.516     67.002  59.160837     4.6893      7.062   160.4609 1.3568e+01     8.5738      2.025      2.937    19.1017 0.0000e+00
      2.067      0.008     0.0491      0.500     72.589  64.107313     4.8900      7.062   159.8894 1.3559e+01     8.6087      2.027      2.940    19.0705 0.0000e+00
      2.068      0.008     0.0488      0.492     71.010  62.726317     5.0215      7.060   159.4194 1.3556e+01     8.6777      2.028      2.942    19.0741 0.0000e+00
      2.071      0.008     0.0496      0.502     67.380  59.544343     5.0390      7.058   158.9945 1.3562e+01     8.7588      2.030      2.944    19.1142 0.0000e+00
      2.073      0.008     0.0475      0.518     68.495  60.554504     4.9098      7.057   158.6240 1.3563e+01     8.8043      2.033      2.949    19.1519 0.0000e+00
      2.075      0.007     0.0461      0.510     73.900  65.345388     4.6666      7.057   158.2088 1.3542e+01     8.7842      2.035      2.952    19.1520 0.0000e+00
      2.077      0.007     0.0446      0.490     78.491  69.403508     4.5291      7.056   157.6748 1.3512e+01     8.7209      2.037      2.954    19.1580 0.0000e+00
      2.079      0.007     0.0458      0.483     84.126  74.375470     4.5119      7.055   157.0710 1.3492e+01     8.6530      2.038      2.957    19.1823 0.0000e+00
      2.080      0.007     0.0493      0.488     83.363  73.684820     4.5082      7.054   156.4156 1.3470e+01     8.6467      2.040      2.959    19.2022 0.0000e+00
      2.081      0.007     0.0477      0.485     73.956  65.363573     4.4935      7.051   155.6865 1.3458e+01     8.7133      2.041      2.960    19.2115 0.0000e+00
      2.083      0.007     0.0446      0.478     70.120  61.990189     4.4760      7.049   155.0527 1.3458e+01     8.7757      2.043      2.964    19.2064 0.0000e+00
      2.085      0.008     0.0439      0.476     72.329  63.965935     4.4625      7.049   154.5167 1.3424e+01     8.7858      2.045      2.966    19.2043 0.0000e+00
      2.088      0.008     0.0457      0.469     75.346  66.647992     4.4049      7.049   153.8519 1.3342e+01     8.8691      2.048      2.970    19.1882 0.0000e+00
      2.090      0.009     0.0450      0.456     81.824  72.381233     4.3040      7.048   153.1240 1.3242e+01     9.1002      2.050      2.973    19.1756 0.0000e+00
      2.092      0.010     0.0435      0.451     91.805  81.197242     4.2505      7.047   152.4268 1.3161e+01     9.2571      2.051      2.976    19.1971 0.0000e+00
      2.094      0.011     0.0445      0.454    103.095  91.144563     4.2476      7.045   151.7025 1.3076e+01     9.2635      2.053      2.978    19.2181 0.0000e+00
      2.097      0.012     0.0434      0.461    114.358 101.047831     4.1607      7.044   150.9062 1.2951e+01     9.1772      2.056      2.982    19.2247 0.0000e+00
      2.101      0.012     0.0419      0.474    126.351 111.579132     3.9826      7.044   149.9399 1.2804e+01     8.9991      2.060      2.988    19.2284 0.0000e+00
      2.105      0.012     0.0413      0.485    135.968 119.964479     3.8758      7.044   148.9672 1.2657e+01     8.8516      2.065      2.994    19.2235 0.0000e+00
      2.108      0.011     0.0422      0.491    136.680 120.442380     3.8591      7.043   147.5762 1.2543e+01     8.7947      2.068      2.999    19.2042 0.0000e+00
      2.110      0.011     0.0421      0.502    133.789 117.744209     3.8977      7.042   145.2529 1.2477e+01     8.8240      2.070      3.002    19.1744 0.0000e+00
      2.112      0.011     0.0439      0.518    139.349 122.490155     3.9682      7.040   142.4728 1.2406e+01     8.8990      2.072      3.004    19.1583 0.0000e+00
      2.114      0.012     0.0454      0.529    156.049 136.932052     4.0040      7.040   140.0324 1.2315e+01     8.9494      2.073      3.006    19.1210 0.0000e+00
      2.117      0.013     0.0451      0.534    175.462 153.583542     4.0141      7.040   137.6867 1.2231e+01     8.9546      2.076      3.011    19.0506 0.0000e+00
      2.120      0.014     0.0462      0.544    189.297 165.274328     4.0160      7.039   134.8464 1.2127e+01     8.9279      2.079      3.016    18.9940 0.0000e+00
      2.125      0.014     0.0485      0.556    197.827 172.393077     4.0093      7.038   132.7928 1.1957e+01     8.8989      2.084      3.022    18.9564 0.0000e+00
      2.130      0.013     0.0494      0.556    203.983 177.551429     4.0086      7.037   131.6135 1.1755e+01     8.8780      2.089      3.029    18.9003 0.0000e+00
      2.134      0.012     0.0494      0.530    208.776 181.609039     4.0161      7.034   129.7939 1.1611e+01     8.8805      2.094      3.037    18.7704 0.0000e+00
      2.137      0.010     0.0507      0.500    212.447 184.732179     4.0491      7.031   126.7949 1.1542e+01     8.8266      2.096      3.040    18.6395 0.0000e+00
      2.138      0.008     0.0520      0.477    215.577 187.400287     4.1085      7.030   123.2299 1.1492e+01     8.7046      2.096      3.039    18.5577 0.0000e+00
      2.139      0.006     0.0539      0.452    218.723 190.103880     4.1511      7.030   121.1052 1.1413e+01     8.6352      2.097      3.042    18.5079 0.0000e+00
      2.141      0.004     0.0493      0.437    221.117 192.183498     4.1656      7.031   120.8941 1.1313e+01     8.6357      2.099      3.045    18.4873 0.0000e+00
      2.142      0.004     0.0463      0.434    222.453 193.375491     4.2504      7.032   121.2799 1.1239e+01     8.6091      2.101      3.047    18.4717 0.0000e+00
      2.142      0.003     0.0453      0.429    223.372 194.227621     4.4269      7.032   121.5544 1.1194e+01     8.5181      2.102      3.048    18.4589 0.0000e+00
      2.142      0.002     0.0417      0.414    224.122 194.945462     4.5278      7.031   121.0294 1.1148e+01     8.4581      2.101      3.047    18.4508 0.0000e+00
      2.143      0.000     0.0405      0.413    224.795 195.599992     4.5372      7.029   119.8359 1.1105e+01     8.4640      2.102      3.048    18.4505 0.0000e+00
      2.143     -0.001     0.0408      0.425    225.843 196.581183     4.6074      7.029   118.7400 1.1075e+01     8.6236      2.102      3.049    18.4579 0.0000e+00
      2.142     -0.001     0.0411      0.436    227.391 197.988562     4.7359      7.029   118.0179 1.1048e+01     8.8843      2.101      3.047    18.4710 0.0000e+00
      2.142     -0.001     0.0379      0.441    228.654 199.129607     4.8089      7.029   117.7289 1.1019e+01     8.9862      2.101      3.047    18.4862 0.0000e+00
      2.141     -0.001     0.0383      0.427    229.139 199.574742     4.8240      7.029   117.4839 1.1000e+01     9.0022      2.100      3.046    18.5019 0.0000e+00
      2.141     -0.001     0.0400      0.411    229.004 199.471281     4.8274      7.029   117.0348 1.1007e+01     9.1455      2.100      3.045    18.5179 0.0000e+00
      2.141     -0.001     0.0407      0.416    228.618 199.157194     4.8329      7.028   116.3423 1.1024e+01     9.3526      2.100      3.046    18.5317 0.0000e+00
      2.141     -0.001     0.0424      0.434    228.516 199.101279     4.8319      7.028   115.0468 1.1026e+01     9.4573      2.099      3.045    18.5412 0.0000e+00
      2.141     -0.001     0.0400      0.445    229.011 199.562360     4.8074      7.028   113.2445 1.1009e+01     9.4545      2.100      3.046    18.5452 0.0000e+00
      2.141     -0.001     0.0373      0.460    229.794 200.257310     4.6705      7.029   111.4153 1.0963e+01     9.3185      2.100      3.046    18.5466 0.0000e+00
      2.141     -0.001     0.0382      0.479    230.259 200.663675     4.3998      7.031   110.0523 1.0913e+01     9.1105      2.099      3.045    18.5512 0.0000e+00
      2.141     -0.001     0.0414      0.479    230.224 200.639994     4.2055      7.031   109.6699 1.0856e+01     9.0239      2.099      3.045    18.5597 0.0000e+00
      2.140     -0.001     0.0413      0.474    230.024 200.482441     4.1521      7.030   110.4054 1.0764e+01     8.9891      2.099      3.044    18.5676 0.0000e+00
      2.139     -0.001     0.0424      0.474    229.928 200.420898     4.1459      7.030   111.3734 1.0678e+01     8.9282      2.098      3.042    18.5699 0.0000e+00
      2.139     -0.000     0.0461      0.465    230.023 200.535202     4.2055      7.030   111.5658 1.0649e+01     8.8690      2.097      3.042    18.5682 0.0000e+00
      2.139      0.001     0.0448      0.456    230.331 200.841654     4.3067      7.030   111.9571 1.0673e+01     8.7860      2.097      3.042    18.5695 0.0000e+00
      2.139      0.003     0.0436      0.455    230.756 201.249392     4.3542      7.030   112.7487 1.0728e+01     8.7096      2.098      3.042    18.5743 0.0000e+00
      2.140      0.003     0.0451      0.449    231.142 201.629322     4.3547      7.030   112.6197 1.0807e+01     8.6975      2.097      3.042    18.5782 0.0000e+00
      2.141      0.002     0.0434      0.446    231.334 201.855231     4.2466      7.029   112.1178 1.0920e+01     8.8439      2.099      3.046    18.5849 0.0000e+00
      2.144     -0.002     0.0417      0.442    231.340 201.935072     4.0286      7.026   112.1011 1.1050e+01     9.0797      2.102      3.049    18.5946 0.0000e+00
      2.145     -0.008     0.0436      0.433    231.273 201.955438     3.9090      7.025   112.3319 1.1214e+01     9.1908      2.104      3.052    18.6017 0.0000e+00
      2.144     -0.013     0.0411      0.428    231.209 201.973722     3.8915      7.026   111.7251 1.1568e+01     9.2654      2.105      3.053    18.6099 0.0000e+00
      2.138     -0.017     0.0418      0.422    231.194 202.028369     3.8155      7.027   108.3777 1.2157e+01     9.9130      2.099      3.044    18.6228 0.0000e+00
      2.128     -0.020     0.0419      0.417    231.209 202.104779     3.6895      7.026   103.5214 1.2737e+01    11.0772      2.086      3.026    18.6398 0.0000e+00
      2.119     -0.021     0.0396      0.415    231.169 202.130471     3.6256      7.025   100.3290 1.3073e+01    11.7282      2.075      3.010    18.6579 0.0000e+00
      2.114     -0.020     0.0403      0.410    231.049 202.083353     3.6256      7.024    98.6890 1.3189e+01    11.8059      2.072      3.006    18.6739 0.0000e+00
      2.113     -0.020     0.0392      0.395    230.949 202.046626     3.6883      7.022    97.2004 1.3236e+01    12.1532      2.073      3.007    18.6881 0.0000e+00
      2.110     -0.020     0.0391      0.392    230.934 202.070072     3.7935      7.018    95.4938 1.3311e+01    12.8532      2.071      3.004    18.7015 0.0000e+00
      2.105     -0.024     0.0384      0.397    230.958 202.111159     3.8402      7.015    93.6277 1.3438e+01    13.2323      2.065      2.994    18.7148 0.0000e+00
      2.100     -0.033     0.0395      0.395    230.994 202.159829     3.8368      7.013    92.0173 1.3595e+01    13.1503      2.060      2.987    18.7278 0.0000e+00
      2.093     -0.047     0.0357      0.398    231.026 202.211019     3.7861      7.011    90.6500 1.3856e+01    12.2035      2.054      2.980    18.7395 0.0000e+00
      2.081     -0.065     0.0359      0.401    231.000 202.218658     3.6930      7.010    89.3126 1.4334e+01    10.4943      2.042      2.962    18.7476 0.0000e+00
      2.063     -0.085     0.0382      0.405    230.924 202.188308     3.6436      7.011    88.4090 1.4907e+01     9.5642      2.024      2.936    18.7508 0.0000e+00
      2.041     -0.099     0.0357      0.419    230.849 202.163778     3.6385      7.013    87.9836 1.5670e+01     9.4642      2.005      2.908    18.7534 0.0000e+00
      2.010     -0.102     0.0375      0.431    230.815 202.177856     3.6643      7.015    87.7832 1.6936e+01     9.2168      1.978      2.869    18.7586 0.0000e+00
      1.968     -0.094     0.0373      0.435    230.824 202.230710     3.7138      7.016    87.7072 1.8259e+01     8.7594      1.926      2.795    18.7655 0.0000e+00
      1.931     -0.079     0.0372      0.435    230.844 202.291410     3.7373      7.014    87.5802 1.8996e+01     8.5112      1.886      2.736    18.7734 0.0000e+00
      1.913     -0.069     0.0391      0.430    230.849 202.336429     3.7327      7.010    87.5388 1.9134e+01     8.5051      1.871      2.714    18.7822 0.0000e+00
      1.913     -0.067     0.0406      0.416    230.867 202.391481     3.6998      7.007    87.8088 1.8937e+01     8.4115      1.873      2.716    18.7917 0.0000e+00
      1.919     -0.077     0.0406      0.406    230.885 202.445626     3.6473      7.006    88.1769 1.8902e+01     8.3016      1.886      2.735    18.8018 0.0000e+00
      1.914     -0.095     0.0403      0.402    230.880 202.479676     3.6142      7.004    88.3766 1.9780e+01     8.2706      1.888      2.739    18.8112 0.0000e+00
      1.880     -0.119     0.0409      0.399    230.915 202.547486     3.6074      7.002    88.5024 2.1811e+01     8.2067      1.855      2.690    18.8200 0.0000e+00
      1.825     -0.139     0.0382      0.393    230.961 202.626214     3.6649      7.000    88.7521 2.4286e+01     8.2802      1.788      2.593    18.8284 0.0000e+00
      1.770     -0.148     0.0374      0.377    230.962 202.664390     3.7760      6.998    89.2446 2.6436e+01     8.5105      1.730      2.510    18.8369 0.0000e+00
      1.727     -0.140     0.0377      0.365    230.948 202.689446     3.8362      6.995    89.8968 2.8138e+01     8.6340      1.691      2.453    18.8450 0.0000e+00
      1.694     -0.120     0.0367      0.366    230.960 202.737416     3.8514      6.993    90.4428 2.9510e+01     8.6467      1.658      2.405    18.8530 0.0000e+00
      1.670     -0.095     0.0374      0.371    230.985 202.796884     3.9687      6.991    90.8568 3.0392e+01     8.6299      1.634      2.369    18.8614 0.0000e+00
      1.655     -0.076     0.0347      0.376    230.984 202.833097     4.1798      6.988    91.2874 3.1010e+01     8.6354      1.621      2.351    18.8696 0.0000e+00
      1.645     -0.067     0.0331      0.376    230.968 202.855642     4.2986      6.987    91.6919 3.1738e+01     8.6784      1.614      2.340    18.8774 0.0000e+00
      1.633     -0.067     0.0342      0.367    230.950 202.877712     4.3148      6.986    92.0477 3.2462e+01     8.7065      1.601      2.324    18.8854 0.0000e+00
      1.618     -0.073     0.0343      0.372    230.943 202.908173     4.2169      6.985    92.4053 3.3577e+01     8.7014      1.587      2.304    18.8938 0.0000e+00
      1.598     -0.082     0.0349      0.385    230.970 202.968253     4.0233      6.986    92.8325 3.5211e+01     8.6853      1.568      2.274    18.9019 0.0000e+00
      1.573     -0.091     0.0359      0.385    230.997 203.028761     3.9298      6.986    93.4265 3.6949e+01     8.7175      1.543      2.238    18.9098 0.0000e+00
      1.546     -0.099     0.0332      0.390    230.994 203.064396     3.9356      6.986    94.2541 3.8965e+01     8.7835      1.517      2.200    18.9179 0.0000e+00
      1.518     -0.105     0.0339      0.394    230.968 203.079485     3.9511      6.986    95.4396 4.1059e+01     8.8331      1.487      2.157    18.9259 0.0000e+00
      1.492     -0.107     0.0372      0.395    230.929 203.083378     3.9681      6.987    96.8332 4.3101e+01     8.8400      1.464      2.123    18.9337 0.0000e+00
      1.464     -0.106     0.0348      0.399    230.917 203.111522     3.9746      6.988    98.1117 4.5540e+01     8.8328      1.438      2.085    18.9417 0.0000e+00
      1.434     -0.104     0.0366      0.388    230.929 203.164080     3.9707      6.988    99.3692 4.8039e+01     8.8483      1.405      2.038    18.9499 0.0000e+00
      1.407     -0.103     0.0368      0.365    230.929 203.207414     3.9623      6.989   100.5939 5.0216e+01     8.8906      1.378      1.999    18.9581 0.0000e+00
      1.384     -0.101     0.0359      0.359    230.929 203.251905     3.9649      6.990   101.4767 5.2415e+01     8.9682      1.357      1.967    18.9663 0.0000e+00
      1.360     -0.097     0.0379      0.360    230.955 203.318456     3.9691      6.992   102.2989 5.4801e+01     9.0010      1.335      1.936    18.9746 0.0000e+00
      1.333     -0.091     0.0366      0.357    230.965 203.372756     3.9712      6.993   103.7387 5.7335e+01     8.9804      1.308      1.897    18.9835 0.0000e+00
      1.307     -0.084     0.0328      0.370    230.940 203.396997     4.0323      6.993   105.5487 5.9776e+01     8.9922      1.280      1.856    18.9933 0.0000e+00
      1.285     -0.078     0.0326      0.381    230.914 203.419796     4.1335      6.993   106.9756 6.1702e+01     9.0069      1.259      1.826    19.0029 0.0000e+00
      1.268     -0.074     0.0347      0.377    230.905 203.456670     4.1793      6.993   107.9128 6.3136e+01     8.9533      1.242      1.802    19.0122 0.0000e+00
      1.255     -0.072     0.0315      0.385    230.933 203.523213     4.1786      6.994   108.5352 6.4559e+01     8.8893      1.230      1.785    19.0220 0.0000e+00
      1.240     -0.072     0.0345      0.398    231.032 203.648978     4.1659      6.995   108.9947 6.6571e+01     8.9511      1.218      1.768    19.0323 0.0000e+00
      1.222     -0.076     0.0366      0.399    231.197 203.826442     4.1425      6.996   109.6822 6.9164e+01     9.0861      1.199      1.739    19.0424 0.0000e+00
      1.201     -0.082     0.0336      0.383    231.442 204.070483     4.1295      6.998   110.9109 7.1911e+01     9.1215      1.177      1.707    19.0519 0.0000e+00
      1.178     -0.088     0.0358      0.361    231.816 204.425742     4.1327      7.000   112.3214 7.4941e+01     9.1054      1.155      1.676    19.0611 0.0000e+00
      1.153     -0.092     0.0370      0.351    232.355 204.924851     4.1231      7.000   113.4870 7.8349e+01     9.1302      1.132      1.640    19.0695 0.0000e+00
      1.128     -0.095     0.0379      0.351    233.127 205.629246     4.0970      7.000   114.4208 8.1704e+01     9.1480      1.106      1.603    19.0766 0.0000e+00
      1.103     -0.097     0.0357      0.356    233.922 206.356295     4.0912      7.001   115.4387 8.5015e+01     9.1841      1.083      1.569    19.0822 0.0000e+00
      1.079     -0.098     0.0327      0.362    234.406 206.809439     4.0948      7.002   116.7592 8.8524e+01     9.2593      1.059      1.535    19.0877 0.0000e+00
      1.055     -0.098     0.0322      0.368    234.609 207.015581     4.0330      7.004   118.1701 9.2456e+01     9.3737      1.036      1.503    19.0931 0.0000e+00
      1.028     -0.098     0.0324      0.366    234.697 207.122154     3.9258      7.006   119.5054 9.7100e+01     9.5426      1.009      1.464    19.0978 0.0000e+00
      1.001     -0.097     0.0328      0.358    234.755 207.202762     3.8805      7.008   120.6873 1.0166e+02     9.6620      0.979      1.420    19.1031 0.0000e+00
      0.977     -0.095     0.0333      0.353    234.823 207.286805     3.8774      7.009   121.7048 1.0581e+02     9.6905      0.958      1.389    19.1090 0.0000e+00
      0.954     -0.091     0.0344      0.350    234.898 207.370947     3.8631      7.009   122.7739 1.1017e+02     9.8530      0.936      1.358    19.1145 0.0000e+00
      0.930     -0.086     0.0341      0.350    234.974 207.452732     3.8570      7.009   123.7196 1.1479e+02    10.1911      0.912      1.323    19.1208 0.0000e+00
      0.907     -0.081     0.0328      0.346    235.024 207.508280     3.8543      7.010   124.3624 1.1954e+02    10.3626      0.889      1.290    19.1276 0.0000e+00
      0.887     -0.078     0.0328      0.330    235.041 207.530982     3.8378      7.012   125.1251 1.2373e+02    10.3557      0.868      1.258    19.1327 0.0000e+00
      0.870     -0.077     0.0321      0.323    235.040 207.535385     3.7240      7.012   126.0596 1.2703e+02    10.3803      0.854      1.238    19.1362 0.0000e+00
      0.855     -0.078     0.0320      0.333    234.993 207.497571     3.5114      7.013   126.7990 1.3068e+02    10.3873      0.840      1.219    19.1394 0.0000e+00
      0.835     -0.080     0.0331      0.350    234.879 207.393546     3.3897      7.016   127.5263 1.3530e+02    10.3383      0.819      1.189    19.1420 0.0000e+00
      0.814     -0.084     0.0296      0.358    234.714 207.236888     3.3845      7.018   128.6580 1.4065e+02    10.3352      0.798      1.159    19.1433 0.0000e+00
      0.791     -0.086     0.0292      0.348    234.537 207.074277     3.4313      7.019   129.9855 1.4660e+02    10.4853      0.777      1.128    19.1444 0.0000e+00
      0.766     -0.087     0.0306      0.344    234.337 206.898272     3.5228      7.018   131.1018 1.5291e+02    10.6844      0.751      1.089    19.1459 0.0000e+00
      0.741     -0.086     0.0324      0.360    234.062 206.643598     3.5840      7.018   132.0878 1.5992e+02    10.7273      0.726      1.051    19.1455 0.0000e+00
      0.720     -0.084     0.0343      0.370    233.777 206.361108     3.5884      7.019   133.0460 1.6759e+02    10.7304      0.706      1.024    19.1414 0.0000e+00
      0.701     -0.079     0.0316      0.358    233.527 206.104534     3.4922      7.019   133.9974 1.7650e+02    11.1663      0.687      0.998    19.1397 0.0000e+00
      0.681     -0.074     0.0307      0.346    233.127 205.715530     3.3122      7.018   134.9863 1.8634e+02    11.9669      0.669      0.970    19.1425 0.0000e+00
      0.661     -0.072     0.0336      0.344    232.128 204.790981     3.2176      7.018   135.7965 1.9421e+02    12.4169      0.647      0.939    19.1405 0.0000e+00
      0.644     -0.074     0.0355      0.343    230.647 203.430151     3.2141      7.018   136.6527 1.9966e+02    12.4399      0.631      0.915    19.1316 0.0000e+00
      0.630     -0.079     0.0327      0.345    229.729 202.561321     3.2532      7.019   137.8525 2.0450e+02    12.3135      0.618      0.896    19.1235 0.0000e+00
      0.615     -0.085     0.0313      0.350    230.125 202.853685     3.3408      7.020   139.0322 2.1260e+02    12.1530      0.606      0.880    19.1177 0.0000e+00
      0.592     -0.092     0.0322      0.354    231.649 204.151745     3.3997      7.022   140.0762 2.2625e+02    12.1035      0.586      0.849    19.1079 0.0000e+00
      0.560     -0.098     0.0314      0.351    233.143 205.468154     3.4074      7.023   141.0970 2.3941e+02    12.0912      0.547      0.794    19.0955 0.0000e+00
      0.530     -0.102     0.0319      0.353    233.699 206.045949     3.4257      7.025   142.0815 2.5111e+02    12.0040      0.518      0.752    19.0825 0.0000e+00
      0.504     -0.102     0.0321      0.365    233.697 206.214271     3.4703      7.027   143.1178 2.6524e+02    11.9033      0.495      0.718    19.0694 0.0000e+00
      0.479     -0.098     0.0332      0.361    233.623 206.352516     3.4983      7.027   144.1630 2.7476e+02    11.8299      0.468      0.678    19.0578 0.0000e+00
      0.455     -0.095     0.0325      0.348    233.490 206.438781     3.4969      7.027   144.9962 2.7743e+02    11.8003      0.446      0.646    19.0523 0.0000e+00
      0.433     -0.094     0.0315      0.354    233.251 206.426253     3.4119      7.028   145.7928 2.8096e+02    12.0575      0.424      0.615    19.0721 0.0000e+00
      0.412     -0.094     0.0349      0.366    232.856 206.265260     3.2456      7.029   146.7391 2.8967e+02    12.5144      0.404      0.585    19.1140 0.0000e+00
      0.389     -0.092     0.0338      0.349    232.040 205.707478     3.1511      7.028   147.4901 3.0456e+02    12.7133      0.385      0.559    19.1593 0.0000e+00
      0.360     -0.091     0.0308      0.327    228.337 202.559952     3.1427      7.025   147.9033 3.2789e+02    12.6857      0.355      0.516    19.2029 0.0000e+00
      0.330     -0.090     0.0322      0.337    221.105 196.273965     3.1527      7.024   148.3797 3.4796e+02    12.5902      0.319      0.462    19.2454 0.0000e+00
      0.310     -0.090     0.0355      0.354    217.384 193.115650     3.1712      7.025   149.2062 3.5231e+02    12.4474      0.302      0.438    19.2878 0.0000e+00
      0.295     -0.094     0.0327      0.351    215.324 191.411208     3.1839      7.027   154.4549 3.5664e+02    12.3939      0.295      0.427    19.3243 0.0000e+00
      0.274     -0.106     0.0280      0.343    206.905 184.028341     3.1809      7.034   161.6806 3.6430e+02    12.4218      0.271      0.393    19.3513 0.0000e+00
      0.249     -0.126     0.0308      0.344    199.422 177.509365     3.0432      7.044   161.9753 3.6851e+02    12.2721      0.241      0.350    19.3786 0.0000e+00
      0.223     -0.149     0.0338      0.352    201.195 179.283437     2.7845      7.051   159.5674 3.8587e+02    11.9497      0.227      0.329    19.4146 0.0000e+00
      0.181     -0.176     0.0321      0.364    207.962 185.485512     2.6410      7.052   162.7666 4.4664e+02    11.8032      0.189      0.275    19.4468 0.0000e+00
      0.120     -0.210     0.0312      0.375    210.029 187.412337     2.6071      7.056   172.4351 5.9544e+02    11.7989      0.112      0.162    19.4642 0.0000e+00
      0.061     -0.248     0.0313      0.366    208.860 186.421789     2.4664      7.065   181.3093 8.3703e+02    11.6930      0.054      0.078    19.4926 0.0000e+00
      0.010     -0.277     0.0323      0.334    212.275 189.542457     2.2290      7.072   183.9387 1.1227e+03    11.5478      0.018      0.026    19.5517 0.0000e+00
     -0.061     -0.287     0.0332      0.325    217.515 194.285867     2.1100      7.073   184.0080 1.4612e+03    11.5462     -0.043     -0.062    19.6016 0.0000e+00
     -0.161     -0.277     0.0346      0.339    222.520 198.791403     2.1836      7.069   179.9952 1.7438e+03    12.1511     -0.156     -0.227    19.6136 0.0000e+00
     -0.263     -0.264     0.0355      0.339    227.106 202.917794     3.1271      7.065   177.0642 1.7096e+03    18.7597     -0.274     -0.397    19.6190 0.0000e+00
     -0.334     -0.261     0.0287      0.330    229.165 204.798279     4.8624      7.068   177.3922 1.5304e+03    30.8512     -0.338     -0.490    19.6420 0.0000e+00
     -0.371     -0.261     0.0286      0.323    229.724 205.289409     5.8189      7.071   168.9904 1.5310e+03    37.3895     -0.371     -0.539    19.6590 0.0000e+00
     -0.394     -0.256     0.0326      0.330    229.252 204.763608     5.9033      7.071   159.3665 1.5874e+03    37.4208     -0.377     -0.547    19.6641 0.0000e+00
     -0.447     -0.243     0.0306      0.330    228.078 203.620159     5.7659      7.070   157.0502 1.5539e+03    30.9216     -0.410     -0.595    19.6668 0.0000e+00
     -0.551     -0.228     0.0307      0.312    227.032 202.717579     5.4979      7.069   154.4931 1.4367e+03    18.8609     -0.539     -0.782    19.6816 0.0000e+00
     -0.658     -0.208     0.0283      0.305    225.755 201.714947     5.3439      7.065   151.1628 1.3081e+03    12.2462     -0.673     -0.976    19.6897 0.0000e+00
     -0.713     -0.173     0.0305      0.313    223.489 199.808984     5.2101      7.060   150.6837 1.2505e+03    11.3725     -0.716     -1.038    19.6529 0.0000e+00
     -0.725     -0.123     0.0315      0.331    220.249 196.933284     3.8713      7.059   151.8830 1.1713e+03     8.3997     -0.708     -1.028    19.6205 0.0000e+00
     -0.730     -0.068     0.0275      0.351    215.919 193.025297     1.4247      7.063   163.5995 9.8899e+02     3.0486     -0.714     -1.036    19.6301 0.0000e+00
     -0.736     -0.028     0.0276      0.355    207.637 185.599302     0.0989      7.071   194.0892 7.8668e+02     0.1328     -0.724     -1.050    19.6729 0.0000e+00
     -0.738     -0.010     0.0283      0.340    192.695 172.245515    -0.0234      7.076   225.3310 6.3981e+02    -0.1420     -0.723     -1.049    19.7089 0.0000e+00
     -0.738     -0.005     0.0301      0.336    174.561 156.012619    -0.0549      7.073   228.5889 5.4775e+02    -0.2057     -0.723     -1.049    19.7064 0.0000e+00
     -0.738     -0.002     0.0324      0.344    156.586 139.873857    -0.0657      7.064   208.1846 5.5463e+02    -0.2276     -0.723     -1.049    19.6914 0.0000e+00
     -0.738     -0.000     0.0339      0.334    138.107 123.322165    -0.0626      7.056   193.7217 7.5023e+02    -0.2025     -0.723     -1.049    19.6845 0.0000e+00
     -0.738 -4.425e-08     0.0301      0.347    122.824 109.749050    -0.0663      7.049   199.6425 1.1244e+03    -0.2098     -0.724     -1.050    19.6917 0.0000e+00
     -0.738 -4.867e-07     0.0296      0.450    114.753 102.730980    -0.0695      7.044   215.3295 1.5590e+03    -0.2464     -0.724     -1.049    19.6927 0.0000e+00
     -0.738 -4.867e-07     0.0331      0.907     99.931  89.638940    -0.0682      7.044   237.8138 1.8020e+03    -0.2695     -0.723     -1.049    19.6538 0.0000e+00
     -0.738 -4.425e-08     0.0303      2.549     64.807  58.212171    -0.0671      7.043   241.6003 1.9588e+03    -0.2837     -0.724     -1.049    19.6221 0.0000e+00
     -0.738 -4.023e-09     0.0276      6.163     30.693  27.596354    -0.0632      7.043   191.4199 2.2782e+03    -0.2822     -0.724     -1.050    19.6555 0.0000e+00
     -0.738 -3.657e-10     0.0383     11.637     17.751  15.971593    -0.0550      7.053   145.6016 2.2298e+03    -0.2170     -0.724     -1.050    19.7537 0.0000e+00
     -0.738 -3.324e-11     0.0455     18.314     17.281  15.554106    -0.0683      7.053   150.9366 1.6963e+03     0.0270     -0.724     -1.050    19.8737 0.0000e+00
     -0.738 -3.022e-12     0.1598     25.526     18.715  16.847533    -0.0983      7.039   161.0240 1.5153e+03     0.4133     -0.724     -1.049    19.9438 0.0000e+00
     -0.738 -2.748e-13     0.4965     32.666     19.418  17.483668    -0.1100      7.043   141.4336 1.8267e+03     0.6615     -0.724     -1.050    19.9721 0.0000e+00
     -0.739 -2.518e-14     1.0259     38.978     19.410  17.480615    -0.1177      7.063   173.6510 1.9473e+03     0.7050     -0.724     -1.050    19.9903 0.0000e+00
     -0.739 -4.541e-15     1.6412     41.812     19.297  17.380807    -0.1259      7.071   223.0110 1.8638e+03     0.7001     -0.724     -1.050    19.9988 0.0000e+00
     -0.738 -9.990e-29     2.3348 -9.990e-29 -9.990e-29 -9.990e-29 -9.990e-29 -9.990e-29 -9.990e-29 1.9537e+03 -9.990e-29     -0.724     -1.050    20.0066 0.0000e+00
     -0.738 -9.990e-29     2.9702 -9.990e-29 -9.990e-29 -9.990e-29 -9.990e-29 -9.990e-29 -9.990e-29 2.0593e+03 -9.990e-29     -0.724     -1.050    20.0147 0.0000e+00
     -0.738 -9.990e-29     3.6345 -9.990e-29 -9.990e-29 -9.990e-29 -9.990e-29 -9.990e-29 -9.990e-29 2.0443e+03 -9.990e-29     -0.724     -1.050    20.0269 0.0000e+00
     -0.738 -9.990e-29     4.0526 -9.990e-29 -9.990e-29 -9.990e-29 -9.990e-29 -9.990e-29 -9.990e-29 2.0200e+03 -9.990e-29     -0.724     -1.050    20.0354 0.0000e+00
