* Sea-Bird SBE19plus  Data File:
* FileName = C:\DATA\071618_fcr_0004.hex
* Software version 2.6.3.104
* Temperature SN = 7809
* Conductivity SN = 7809
* System UpLoad Time = Jul 16 2018 16:10:15
* <ApplicationData>
* <Seaterm232>
* <SoftwareVersion>2.6.3.104</SoftwareVersion>
* <BuildDate>30-Jun-2017</BuildDate>
* </Seaterm232>
* </ApplicationData>
* <InstrumentState>
* <HardwareData DeviceType='SBE19plus' SerialNumber='01907809'>
*
*    <Manufacturer>Sea-Bird Electronics, Inc.</Manufacturer>
*
*    <FirmwareVersion>3.1.8</FirmwareVersion>
*
*    <FirmwareDate>Mar  9 2016 16:22:29</FirmwareDate>
*
*    <CommandSetVersion>1.4</CommandSetVersion>
*
*    <PCBAssembly PCBSerialNum='120721' AssemblyNum='41054J'/>
*
*    <PCBAssembly PCBSerialNum='120715' AssemblyNum='41967A'/>
*
*    <PCBAssembly PCBSerialNum='116699' AssemblyNum='41606'/>
*
*    <PCBAssembly PCBSerialNum='120719' AssemblyNum='41059D'/>
*
*    <MfgDate>28-Apr-2017</MfgDate>
*
*    <InternalSensors>
*
*       <Sensor id='Main Temperature'>
*
*          <type>temperature0</type>
*
*          <SerialNumber>01907809</SerialNumber>
*
*       </Sensor>
*
*       <Sensor id='Main Conductivity'>
*
*          <type>conductivity-0</type>
*
*          <SerialNumber>01907809</SerialNumber>
*
*       </Sensor>
*
*       <Sensor id='Main Pressure'>
*
*          <type>strain-0</type>
*
*          <SerialNumber>10586018</SerialNumber>
*
*       </Sensor>
*
*    </InternalSensors>
*
*    <ExternalSensors>
*
*       <Sensor id='volt 0'>
*
*          <type>pH</type>
*
*          <SerialNumber>27-0363</SerialNumber>
*
*       </Sensor>
*
*       <Sensor id='volt 1'>
*
*          <type>ORP</type>
*
*          <SerialNumber>27-0363</SerialNumber>
*
*       </Sensor>
*
*       <Sensor id='volt 2'>
*
*          <type>OXY</type>
*
*          <SerialNumber>43-0434</SerialNumber>
*
*       </Sensor>
*
*       <Sensor id='volt 3'>
*
*          <type>PAR</type>
*
*          <SerialNumber>1122</SerialNumber>
*
*       </Sensor>
*
*       <Sensor id='volt 4'>
*
*          <type>ECO AFL/FL</type>
*
*          <SerialNumber>FLNTURT-2496</SerialNumber>
*
*       </Sensor>
*
*       <Sensor id='volt 5'>
*
*          <type>ECO-NTU</type>
*
*          <SerialNumber>FLNTURT-2496</SerialNumber>
*
*       </Sensor>
*
*       <Sensor id='serial'>
*
*          <type>not assigned</type>
*
*          <SerialNumber>not assigned</SerialNumber>
*
*       </Sensor>
*
*    </ExternalSensors>
*
* </HardwareData>
* <StatusData DeviceType='SBE19plus' SerialNumber='01907809'>
*
*    <DateTime>2018-07-16T20:08:52</DateTime>
*
*    <LoggingState>not logging</LoggingState>
*
*    <EventSummary numEvents='0'/>
*
*    <Power>
*
*       <vMain>12.6</vMain>
*
*       <vLith>8.8</vLith>
*
*       <iMain>63.3</iMain>
*
*       <iPump>41.7</iPump>
*
*       <iExt01>13.9</iExt01>
*
*       <iExt2345>42.6</iExt2345>
*
*    </Power>
*
*    <MemorySummary>
*
*       <Bytes>61801</Bytes>
*
*       <Samples>2687</Samples>
*
*       <SamplesFree>2858101</SamplesFree>
*
*       <SampleLength>23</SampleLength>
*
*       <Profiles>4</Profiles>
*
*    </MemorySummary>
*
* </StatusData>
* <ConfigurationData DeviceType='SBE19plus' SerialNumber='01907809'>
*
*    <ProfileMode>
*
*       <ScansToAverage>1</ScansToAverage>
*
*       <MinimumCondFreq>5</MinimumCondFreq>
*
*       <PumpDelay>45</PumpDelay>
*
*       <AutoRun>no</AutoRun>
*
*       <IgnoreSwitch>no</IgnoreSwitch>
*
*    </ProfileMode>
*
*    <Battery>
*
*       <Type>alkaline</Type>
*
*       <CutOff>7.5</CutOff>
*
*    </Battery>
*
*    <DataChannels>
*
*       <ExtVolt0>yes</ExtVolt0>
*
*       <ExtVolt1>yes</ExtVolt1>
*
*       <ExtVolt2>yes</ExtVolt2>
*
*       <ExtVolt3>yes</ExtVolt3>
*
*       <ExtVolt4>yes</ExtVolt4>
*
*       <ExtVolt5>yes</ExtVolt5>
*
*       <SBE38>no</SBE38>
*
*       <WETLABS>no</WETLABS>
*
*       <OPTODE>no</OPTODE>
*
*       <SBE63>no</SBE63>
*
*       <SeaFET>no</SeaFET>
*
*       <GTD>no</GTD>
*
*    </DataChannels>
*
*    <EchoCharacters>yes</EchoCharacters>
*
*    <OutputExecutedTag>yes</OutputExecutedTag>
*
*    <OutputFormat>raw HEX</OutputFormat>
*
* </ConfigurationData>
* <CalibrationCoefficients DeviceType='SBE19plus' SerialNumber='01907809'>
*
*    <Calibration format='TEMP1' id='Main Temperature'>
*
*       <SerialNum>01907809</SerialNum>
*
*       <CalDate>09-Mar-18</CalDate>
*
*       <TA0>1.210932e-03</TA0>
*
*       <TA1>2.843566e-04</TA1>
*
*       <TA2>-1.945074e-06</TA2>
*
*       <TA3>2.128067e-07</TA3>
*
*       <TOFFSET>0.000000e+00</TOFFSET>
*
*    </Calibration>
*
*    <Calibration format='WBCOND0' id='Main Conductivity'>
*
*       <SerialNum>01907809</SerialNum>
*
*       <CalDate>09-Mar-18</CalDate>
*
*       <G>-1.006721e+00</G>
*
*       <H>1.269065e-01</H>
*
*       <I>-1.405844e-04</I>
*
*       <J>2.478371e-05</J>
*
*       <CPCOR>-9.570000e-08</CPCOR>
*
*       <CTCOR>3.250000e-06</CTCOR>
*
*       <CSLOPE>1.000000e+00</CSLOPE>
*
*    </Calibration>
*
*    <Calibration format='STRAIN0' id='Main Pressure'>
*
*       <SerialNum>10586018</SerialNum>
*
*       <CalDate>07-Mar-18</CalDate>
*
*       <PA0>-4.081764e-02</PA0>
*
*       <PA1>4.851884e-04</PA1>
*
*       <PA2>-3.511682e-12</PA2>
*
*       <PTCA0>5.252134e+05</PTCA0>
*
*       <PTCA1>1.795324e+00</PTCA1>
*
*       <PTCA2>-2.843535e-01</PTCA2>
*
*       <PTCB0>2.516687e+01</PTCB0>
*
*       <PTCB1>3.750000e-04</PTCB1>
*
*       <PTCB2>0.000000e+00</PTCB2>
*
*       <PTEMPA0>-5.378069e+01</PTEMPA0>
*
*       <PTEMPA1>5.366207e+01</PTEMPA1>
*
*       <PTEMPA2>4.872143e-02</PTEMPA2>
*
*       <POFFSET>5.000000e-01</POFFSET>
*
*       <PRANGE>1.600000e+02</PRANGE>
*
*    </Calibration>
*
*    <Calibration format='VOLT0' id='Volt 0'>
*
*       <OFFSET>-4.920000e-02</OFFSET>
*
*       <SLOPE>1.248122e+00</SLOPE>
*
*    </Calibration>
*
*    <Calibration format='VOLT0' id='Volt 1'>
*
*       <OFFSET>-4.784000e-02</OFFSET>
*
*       <SLOPE>1.248871e+00</SLOPE>
*
*    </Calibration>
*
*    <Calibration format='VOLT0' id='Volt 2'>
*
*       <OFFSET>-4.864632e-02</OFFSET>
*
*       <SLOPE>1.248714e+00</SLOPE>
*
*    </Calibration>
*
*    <Calibration format='VOLT0' id='Volt 3'>
*
*       <OFFSET>-4.743790e-02</OFFSET>
*
*       <SLOPE>1.248571e+00</SLOPE>
*
*    </Calibration>
*
*    <Calibration format='VOLT0' id='Volt 4'>
*
*       <OFFSET>-4.671263e-02</OFFSET>
*
*       <SLOPE>1.248951e+00</SLOPE>
*
*    </Calibration>
*
*    <Calibration format='VOLT0' id='Volt 5'>
*
*       <OFFSET>-4.871053e-02</OFFSET>
*
*       <SLOPE>1.249136e+00</SLOPE>
*
*    </Calibration>
*
*    <Calibration format='FREQ0' id='external frequency channel'>
*
*       <EXTFREQSF>1.000014e+00</EXTFREQSF>
*
*    </Calibration>
*
* </CalibrationCoefficients>
* <EventCounters DeviceType='SBE19plus' SerialNumber='01907809'>
*
*    <EventSummary numEvents='0'/>
*
* </EventCounters></InstrumentState>
* <Headers>
*
* cast   4 16 Jul 2018 16:17:48 samples 1743 to 2687, avg = 1, stop = mag switch
*
# nquan = 17
# nvalues = 829                         
# units = specified
# name 0 = depFM: Depth [fresh water, m]
# name 1 = tv290C: Temperature [ITS-90, deg C]
# name 2 = sbeox0Mg/L: Oxygen, SBE 43 [mg/l]
# name 3 = sbeox0PS: Oxygen, SBE 43 [% saturation]
# name 4 = c0uS/cm: Conductivity [uS/cm]
# name 5 = specc: Specific Conductance [uS/cm]
# name 6 = ph: pH
# name 7 = orp: Oxidation Reduction Potential [mV]
# name 8 = flECO-AFL: Fluorescence, WET Labs ECO-AFL/FL [mg/m^3]
# name 9 = turbWETntu0: Turbidity, WET Labs ECO [NTU]
# name 10 = sal00: Salinity, Practical [PSU]
# name 11 = dz/dtM: Descent Rate [m/s]
# name 12 = prdM: Pressure, Strain Gauge [db]
# name 13 = prdE: Pressure, Strain Gauge [psi]
# name 14 = scan: Scan Count
# name 15 = par/sat/log: PAR/Logarithmic, Satlantic
# name 16 = flag:  0.000e+00
# span 0 =     -0.540,      7.260       
# span 1 =    11.3117,    28.3246       
# span 2 =     1.4589,    15.2529       
# span 3 =     13.727,    180.821       
# span 4 =   0.864885,  38.746715       
# span 5 =      0.837,     48.224       
# span 6 =      6.197,      8.912       
# span 7 =  -386.7995,   314.3925       
# span 8 =    -2.1431,   258.1299       
# span 9 =    -4.6689,    38.3139       
# span 10 =     0.0126,     0.0252      
# span 11 =     -0.167,      0.211      
# span 12 =     -0.529,      7.118      
# span 13 =     -0.767,     10.325      
# span 14 =          1,        829      
# span 15 = 3.2319e-01, 3.0056e+03      
# span 16 = 0.0000e+00, 0.0000e+00      
# interval = seconds: 0.25
# start_time = Jul 16 2018 16:17:48 [Instrument's time stamp, header]
# bad_flag = -9.990e-29
# <Sensors count="9" >
#   <sensor Channel="1" >
#     <!-- Count, Temperature -->
#     <TemperatureSensor SensorID="58" >
#       <SerialNumber>7809</SerialNumber>
#       <CalibrationDate>09-Mar-18</CalibrationDate>
#       <A0>1.21093245e-003</A0>
#       <A1>2.84356597e-004</A1>
#       <A2>-1.94507398e-006</A2>
#       <A3>2.12806664e-007</A3>
#       <Slope>1.00000000</Slope>
#       <Offset>0.0000</Offset>
#     </TemperatureSensor>
#   </sensor>
#   <sensor Channel="2" >
#     <!-- Frequency 0, Conductivity -->
#     <ConductivitySensor SensorID="3" >
#       <SerialNumber>7809</SerialNumber>
#       <CalibrationDate>09-Mar-18</CalibrationDate>
#       <UseG_J>1</UseG_J>
#       <!-- Cell const and series R are applicable only for wide range sensors. -->
#       <SeriesR>0.0000</SeriesR>
#       <CellConst>2000.0000</CellConst>
#       <ConductivityType>0</ConductivityType>
#       <Coefficients equation="0" >
#         <A>0.00000000e+000</A>
#         <B>0.00000000e+000</B>
#         <C>0.00000000e+000</C>
#         <D>0.00000000e+000</D>
#         <M>0.0</M>
#         <CPcor>-9.57000000e-008</CPcor>
#       </Coefficients>
#       <Coefficients equation="1" >
#         <G>-1.00672082e+000</G>
#         <H>1.26906489e-001</H>
#         <I>-1.40584351e-004</I>
#         <J>2.47837121e-005</J>
#         <CPcor>-9.57000000e-008</CPcor>
#         <CTcor>3.2500e-006</CTcor>
#         <!-- WBOTC not applicable unless ConductivityType = 1. -->
#         <WBOTC>0.00000000e+000</WBOTC>
#       </Coefficients>
#       <Slope>1.00000000</Slope>
#       <Offset>0.00000</Offset>
#     </ConductivitySensor>
#   </sensor>
#   <sensor Channel="3" >
#     <!-- Count, Pressure, Strain Gauge -->
#     <PressureSensor SensorID="46" >
#       <SerialNumber>7809</SerialNumber>
#       <CalibrationDate>07-Mar-18</CalibrationDate>
#       <PA0>-4.08176359e-002</PA0>
#       <PA1>4.85188419e-004</PA1>
#       <PA2>-3.51168169e-012</PA2>
#       <PTEMPA0>-5.37806900e+001</PTEMPA0>
#       <PTEMPA1>5.36620721e+001</PTEMPA1>
#       <PTEMPA2>4.87214332e-002</PTEMPA2>
#       <PTCA0>5.25213435e+005</PTCA0>
#       <PTCA1>1.79532409e+000</PTCA1>
#       <PTCA2>-2.84353509e-001</PTCA2>
#       <PTCB0>2.51668750e+001</PTCB0>
#       <PTCB1>3.75000000e-004</PTCB1>
#       <PTCB2>0.00000000e+000</PTCB2>
#       <Offset>0.000000</Offset>
#     </PressureSensor>
#   </sensor>
#   <sensor Channel="4" >
#     <!-- A/D voltage 0, pH -->
#     <pH_Sensor SensorID="43" >
#       <SerialNumber>0363</SerialNumber>
#       <CalibrationDate>16-Mar-18</CalibrationDate>
#       <Slope>4.6194</Slope>
#       <Offset>2.5947</Offset>
#     </pH_Sensor>
#   </sensor>
#   <sensor Channel="5" >
#     <!-- A/D voltage 1, Oxidation Reduction Potential -->
#     <OxidationReductionPotentialSensor SensorID="41" >
#       <SerialNumber>0363</SerialNumber>
#       <CalibrationDate>16-Mar-18</CalibrationDate>
#       <B>2.499480</B>
#       <M>-0.496195</M>
#       <Offset>0.0</Offset>
#     </OxidationReductionPotentialSensor>
#   </sensor>
#   <sensor Channel="6" >
#     <!-- A/D voltage 2, Oxygen, SBE 43 -->
#     <OxygenSensor SensorID="38" >
#       <SerialNumber>0434</SerialNumber>
#       <CalibrationDate>13-Mar-18</CalibrationDate>
#       <Use2007Equation>1</Use2007Equation>
#       <CalibrationCoefficients equation="0" >
#         <!-- Coefficients for Owens-Millard equation. -->
#         <Boc>0.0000</Boc>
#         <Soc>0.0000e+000</Soc>
#         <offset>0.0000</offset>
#         <Pcor>0.00e+000</Pcor>
#         <Tcor>0.0000</Tcor>
#         <Tau>0.0</Tau>
#       </CalibrationCoefficients>
#       <CalibrationCoefficients equation="1" >
#         <!-- Coefficients for Sea-Bird equation - SBE calibration in 2007 and later. -->
#         <Soc>4.5718e-001</Soc>
#         <offset>-0.6113</offset>
#         <A>-4.0649e-003</A>
#         <B> 2.0945e-004</B>
#         <C>-3.3182e-006</C>
#         <D0> 2.5826e+000</D0>
#         <D1> 1.92634e-004</D1>
#         <D2>-4.64803e-002</D2>
#         <E> 3.6000e-002</E>
#         <Tau20> 1.2200</Tau20>
#         <H1>-3.3000e-002</H1>
#         <H2> 5.0000e+003</H2>
#         <H3> 1.4500e+003</H3>
#       </CalibrationCoefficients>
#     </OxygenSensor>
#   </sensor>
#   <sensor Channel="7" >
#     <!-- A/D voltage 3, PAR/Logarithmic, Satlantic -->
#     <PARLog_SatlanticSensor SensorID="76" >
#       <SerialNumber>1122</SerialNumber>
#       <CalibrationDate>22-Jun-2017</CalibrationDate>
#       <a0>9.6090e-001</a0>
#       <a1>8.0780e-001</a1>
#       <Im>1.3589e+000</Im>
#       <Multiplier>1.0000e+000</Multiplier>
#     </PARLog_SatlanticSensor>
#   </sensor>
#   <sensor Channel="8" >
#     <!-- A/D voltage 4, Fluorometer, WET Labs ECO-AFL/FL -->
#     <FluoroWetlabECO_AFL_FL_Sensor SensorID="20" >
#       <SerialNumber>FLNTURT-2496</SerialNumber>
#       <CalibrationDate>25-Jan-2017</CalibrationDate>
#       <ScaleFactor>5.30000000e+001</ScaleFactor>
#       <!-- Dark output -->
#       <Vblank>0.0560</Vblank>
#     </FluoroWetlabECO_AFL_FL_Sensor>
#   </sensor>
#   <sensor Channel="9" >
#     <!-- A/D voltage 5, Turbidity Meter, WET Labs, ECO-NTU -->
#     <TurbidityMeter SensorID="67" >
#       <SerialNumber>FLNTURT-2496</SerialNumber>
#       <CalibrationDate>25-Jan-2017</CalibrationDate>
#       <ScaleFactor>176.000000</ScaleFactor>
#       <!-- Dark output -->
#       <DarkVoltage>0.072000</DarkVoltage>
#     </TurbidityMeter>
#   </sensor>
# </Sensors>
# datcnv_date = Jul 16 2018 16:18:51, 7.26.7.114 [datcnv_vars = 16]
# datcnv_in = C:\DATA\071618_fcr45.hex C:\DATA\SBE19plusV2_7809.xmlcon
# datcnv_skipover = 0
# datcnv_ox_hysteresis_correction = yes
# datcnv_ox_tau_correction = yes
# filter_date = Jul 16 2018 16:19:08, 7.26.7.114
# filter_in = C:\DATA\071618_fcr45.cnv
# filter_low_pass_tc_A = 0.030
# filter_low_pass_tc_B = 0.150
# filter_low_pass_A_vars = tv290C c0uS/cm par/sat/log
# filter_low_pass_B_vars = prdM prdE
# alignctd_date = Jul 16 2018 16:19:23, 7.26.7.114
# alignctd_in = C:\DATA\071618_fcr45.cnv
# alignctd_adv = tv290C 0.500, sbeox0Mg/L 3.000, sbeox0PS 3.000                                                                                                                                                                      
# file_type = ascii
*END*
     -0.538    27.1070     8.0432    101.164   0.864885      0.837      6.813   275.7024    -0.1819     0.4337     0.0126 -2.105e-16     -0.528     -0.766          1 4.4692e+02 0.0000e+00
     -0.538    27.1076     8.0422    101.153   0.943377      0.890      6.811    85.3562    -0.1698     0.3128     0.0126 -2.105e-16     -0.528     -0.766          2 4.9712e+02 0.0000e+00
     -0.539    27.1083     8.0454    101.194   1.519190      1.453      6.654  -349.7372    -0.1819     0.3934     0.0126     -0.000     -0.528     -0.766          3 3.8814e+02 0.0000e+00
     -0.539    27.1097     8.0410    101.141   2.309632      2.229      6.740  -386.7995     0.6632    -4.2930     0.0127     -0.000     -0.528     -0.766          4 7.3218e+02 0.0000e+00
     -0.539    27.1113     8.0406    101.136   2.505958      2.416      6.784  -379.9095     0.6470    -4.3332     0.0127     -0.000     -0.528     -0.766          5 2.0511e+03 0.0000e+00
     -0.539    27.1124     8.0424    101.160   2.340760      2.229      6.806  -370.5587     0.6632    -4.4004     0.0127     -0.001     -0.528     -0.766          6 2.4741e+03 0.0000e+00
     -0.539    27.1138     8.0443    101.185   2.130305      2.068      6.818  -365.0316     0.6430    -4.3198     0.0126     -0.001     -0.528     -0.766          7 2.4465e+03 0.0000e+00
     -0.539    27.1153     8.0472    101.223   2.146085      2.015      6.822  -359.6937     0.6834    -4.4004     0.0126     -0.000     -0.528     -0.766          8 2.5742e+03 0.0000e+00
     -0.539    27.1169     8.0467    101.218   2.528384      2.470      6.823  -356.3244    -2.1310     5.1603     0.0127     -0.000     -0.529     -0.767          9 2.5013e+03 0.0000e+00
     -0.539    27.1184     8.0475    101.228   2.720453      2.577      6.822  -352.6901    -2.1391     5.1603     0.0127     -0.000     -0.529     -0.767         10 2.6058e+03 0.0000e+00
     -0.539    27.1196     8.0439    101.185   2.676886      2.603      6.822  -349.6615    -2.1188     5.2946     0.0127     -0.000     -0.529     -0.767         11 2.5310e+03 0.0000e+00
     -0.540    27.1207     8.0456    101.206   2.434557      2.309      6.824  -347.2765    -2.1431     5.2006     0.0127     -0.000     -0.529     -0.767         12 2.6512e+03 0.0000e+00
     -0.539    27.1216     8.0429    101.185   2.192979      2.121      6.826  -356.3623   258.1056     1.7362     0.0127     -0.000     -0.529     -0.767         13 2.2773e+03 0.0000e+00
     -0.540    27.1222     8.0356    101.197   2.059658      1.961      6.827  -354.1287   258.1056     1.6019     0.0126     -0.000     -0.529     -0.767         14 9.7233e+02 0.0000e+00
     -0.540    27.1228     8.0288    101.185   1.919481      1.854      6.828  -351.6301   258.1056     1.6422     0.0126     -0.000     -0.529     -0.767         15 6.8510e+02 0.0000e+00
     -0.539    27.1233     8.0251    101.202   1.893698      1.800      6.830  -348.9422   258.0975     1.6690     0.0126     -0.000     -0.529     -0.767         16 8.0244e+02 0.0000e+00
     -0.540    27.1239     7.9870    101.200   1.766058      1.720      6.826  -346.7087     0.9503     5.6034     0.0126     -0.000     -0.529     -0.767         17 7.3421e+02 0.0000e+00
     -0.539    27.1245     7.9368    101.200   1.723032      1.613      6.827  -344.8158     0.9503     5.6303     0.0126     -0.000     -0.529     -0.767         18 7.7080e+02 0.0000e+00
     -0.540    27.1254     7.9034    101.206   2.124894      2.068      6.824  -343.8315     0.9503     5.6034     0.0126     -0.000     -0.529     -0.767         19 7.6198e+02 0.0000e+00
     -0.539    27.1256     7.8781    101.142   2.479884      2.362      6.825  -342.3172     0.9705     5.6303     0.0127      0.000     -0.529     -0.767         20 7.3591e+02 0.0000e+00
     -0.540    27.1265     7.8728    101.170   2.554412      2.469      6.822  -341.1436    -0.8410    -4.6152     0.0127     -0.000     -0.529     -0.767         21 8.0903e+02 0.0000e+00
     -0.539    27.1258     7.8832    101.283   2.328231      2.228      6.819  -340.0836    -0.8289    -4.5884     0.0127     -0.000     -0.529     -0.767         22 6.8924e+02 0.0000e+00
     -0.539    27.1347     7.8979    101.422   2.228405      2.121      6.821  -339.6672    -0.8370    -4.6689     0.0127     -0.000     -0.529     -0.767         23 1.0886e+03 0.0000e+00
     -0.539    27.1923     7.9218    101.670   2.056861      2.014      6.820  -337.9258    -0.8410    -4.6421     0.0126     -0.000     -0.529     -0.767         24 2.5606e+03 0.0000e+00
     -0.540    27.2276     7.9588    102.076   2.097590      1.933      6.819  -335.5408   258.1097     3.6429     0.0126     -0.000     -0.529     -0.767         25 2.7028e+03 0.0000e+00
     -0.539    27.2743     8.0022    102.575   1.644773      1.717      6.822  -335.2379   258.1137     3.7504     0.0126     -0.000     -0.528     -0.765         26 2.5739e+03 0.0000e+00
     -0.538    27.5311     8.0853    103.600   2.057831      1.716      6.824  -336.8279   258.1299     3.6295     0.0126      0.000     -0.517     -0.749         27 2.6023e+03 0.0000e+00
     -0.502    27.8814     8.2189    105.273   7.002519      6.813      6.830  -198.3461   258.1299     3.8041     0.0138      0.010     -0.481     -0.697         28 3.0056e+03 0.0000e+00
     -0.429    28.1254     8.2830    106.064  21.971435     20.383      7.358    57.3796   258.1178     3.7504     0.0186      0.036     -0.425     -0.615         29 2.8221e+03 0.0000e+00
     -0.372    28.2697     8.3450    106.842  37.241248     36.122      7.891   118.7462    -0.1819     3.2535     0.0248      0.070     -0.366     -0.530         30 1.5637e+03 0.0000e+00
     -0.316    28.3246     8.3567    106.983  38.746715     35.905      8.209   125.9770    -0.1536     3.3475     0.0248      0.108     -0.311     -0.451         31 1.6318e+03 0.0000e+00
     -0.262    28.3140     8.3002    106.253  37.679533     35.702      8.379   134.1542    -0.1860     3.2938     0.0248      0.145     -0.260     -0.377         32 1.1821e+03 0.0000e+00
     -0.218    28.2862     8.1910    104.849  38.183666     35.587      8.484   138.2427    -0.1658     3.2938     0.0247      0.176     -0.213     -0.309         33 8.3116e+02 0.0000e+00
     -0.170    28.2537     8.0380    102.884  37.763367     35.542      8.515   136.2742     0.3437    38.2467     0.0247      0.198     -0.164     -0.239         34 9.8421e+02 0.0000e+00
     -0.113    28.2154     7.8523    100.501  37.935641     35.508      8.506   100.4612     0.3276    38.2467     0.0247      0.211     -0.114     -0.165         35 8.0130e+02 0.0000e+00
     -0.064    28.1834     7.6563     97.982  37.732002     35.478      8.513   100.4991     0.3599    38.3005     0.0247      0.209     -0.070     -0.101         36 8.7229e+02 0.0000e+00
     -0.038    28.1609     7.4687     95.576  37.779523     35.451      8.520   133.6241     0.3478    38.3139     0.0246      0.195     -0.040     -0.058         37 7.7589e+02 0.0000e+00
     -0.021    28.1407     7.3131     93.598  37.757878     35.525      8.530   107.1241     1.0756     0.6217     0.0247      0.179     -0.018     -0.026         38 8.9709e+02 0.0000e+00
      0.007    28.1248     7.1990     92.159  37.758956     35.487      8.534   106.1398     1.0878     0.6619     0.0246      0.162      0.006      0.010         39 1.8736e+03 0.0000e+00
      0.037    28.1160     7.1190     91.160  37.718874     35.501      8.542   106.9348     1.0878     0.5814     0.0246      0.147      0.030      0.044         40 1.8134e+03 0.0000e+00
      0.049    28.1111     7.0791     90.670  37.689128     35.459      8.547   107.8812     1.0999     0.6351     0.0246      0.129      0.043      0.063         41 8.3785e+02 0.0000e+00
      0.046    28.1076     7.0919     90.850  37.618019     35.412      8.556   109.0927     1.2900     0.8097     0.0246      0.104      0.044      0.064         42 1.0313e+03 0.0000e+00
      0.040    28.1042     7.1192     91.213  37.629410     35.415      8.561   109.9634     1.2778     0.7828     0.0246      0.077      0.041      0.058         43 1.1488e+03 0.0000e+00
      0.037    28.1010     7.1455     91.563  37.615635     35.418      8.567   111.7805     1.2900     0.7962     0.0246      0.053      0.037      0.053         44 6.0396e+02 0.0000e+00
      0.034    28.0971     7.1787     92.002  37.546182     35.341      8.570   113.0298     1.2657     0.7962     0.0246      0.035      0.036      0.051         45 7.7182e+02 0.0000e+00
      0.037    28.0909     7.2040     92.337  37.537881     35.343      8.575   114.3170     1.3142     0.8097     0.0246      0.020      0.037      0.053         46 1.2656e+03 0.0000e+00
      0.040    28.0884     7.2200     92.554  37.625967     35.424      8.575   115.3770     1.2697     0.7828     0.0246      0.006      0.040      0.057         47 8.8473e+02 0.0000e+00
      0.043    28.0964     7.1976     92.285  37.673845     35.481      8.579   117.0427     1.2697     0.7962     0.0246     -0.002      0.042      0.060         48 6.1689e+02 0.0000e+00
      0.042    28.1098     7.1430     91.599  37.745244     35.536      8.583   118.4812     1.2819     0.8365     0.0247     -0.002      0.042      0.060         49 5.7138e+02 0.0000e+00
      0.042    28.1247     7.0717     90.692  37.774399     35.583      8.582   119.2763     1.2657     0.8097     0.0247      0.001      0.042      0.060         50 5.1190e+02 0.0000e+00
      0.042    28.1386     6.9898     89.645  37.756202     35.521      8.583   120.0334     1.3061     0.8902     0.0247      0.003      0.042      0.060         51 5.5288e+02 0.0000e+00
      0.042    28.1483     6.9661     89.345  37.767884     35.564      8.584   120.6770     1.2900     0.6888     0.0247      0.004      0.041      0.060         52 5.3625e+02 0.0000e+00
      0.041    28.1562     7.0231     90.084  37.700533     35.449      8.588   122.0777     1.2616     0.7291     0.0246      0.003      0.041      0.059         53 5.6119e+02 0.0000e+00
      0.041    28.1644     7.1208     91.349  37.662047     35.443      8.588   122.9105     1.3142     0.7559     0.0246      0.001      0.041      0.059         54 5.5578e+02 0.0000e+00
      0.041    28.1723     7.2344     92.822  37.637811     35.385      8.590   123.9327     1.2940     0.8097     0.0246     -0.000      0.040      0.058         55 5.5336e+02 0.0000e+00
      0.039    28.1790     7.3753     94.644  37.671370     35.432      8.590   124.8791     1.2940     0.7559     0.0246     -0.001      0.040      0.057         56 5.2287e+02 0.0000e+00
      0.040    28.1871     7.5378     96.736  37.738921     35.479      8.591   126.2041     1.2900     0.7694     0.0246     -0.001      0.041      0.058         57 5.2588e+02 0.0000e+00
      0.042    28.1975     7.7174     99.042  37.731704     35.475      8.590   127.0748     1.2819     0.7559     0.0246     -0.001      0.042      0.059         58 5.4469e+02 0.0000e+00
      0.043    28.2060     7.9146    101.583  37.739669     35.470      8.593   127.9834     1.3506     0.8768     0.0246     -0.000      0.043      0.061         59 5.3544e+02 0.0000e+00
      0.044    28.2106     8.0463    103.287  37.788326     35.515      8.594   128.3998     1.3749     0.8499     0.0247      0.001      0.045      0.064         60 5.2708e+02 0.0000e+00
      0.049    28.2130     8.0912    103.872  37.789788     35.509      8.596   129.2327     1.3708     0.8902     0.0247      0.003      0.048      0.069         61 5.2323e+02 0.0000e+00
      0.053    28.2159     8.0894    103.849  37.737845     35.454      8.595   129.8006     1.3385     0.8634     0.0246      0.006      0.051      0.074         62 5.3461e+02 0.0000e+00
      0.053    28.2210     8.0395    103.205  37.734322     35.452      8.600   163.9478     1.3668     0.8902     0.0246      0.007      0.052      0.076         63 5.1012e+02 0.0000e+00
      0.053    28.2281     7.9589    102.172  37.794169     35.503      8.597   136.2742     1.3668     0.8365     0.0247      0.008      0.052      0.075         64 5.5423e+02 0.0000e+00
      0.052    28.2370     7.8436    100.685  37.782008     35.500      8.597   135.4792     1.3587     0.8499     0.0247      0.007      0.052      0.075         65 4.8571e+02 0.0000e+00
      0.054    28.2461     7.7449     99.415  37.749455     35.442      8.598   135.1006     1.3830     0.9305     0.0246      0.006      0.054      0.079         66 6.0265e+02 0.0000e+00
      0.058    28.2501     7.6674     98.418  37.775357     35.489      8.598   135.1006     1.3627     0.7694     0.0247      0.006      0.062      0.090         67 8.1161e+02 0.0000e+00
      0.078    28.2511     7.5993     97.530  37.809090     35.483      8.596   134.3056     1.3506     0.7694     0.0247      0.010      0.079      0.115         68 6.5651e+02 0.0000e+00
      0.106    28.2569     7.5269     96.577  37.826113     35.532      8.588   133.8892     1.3547     0.8231     0.0247      0.020      0.104      0.151         69 7.2565e+02 0.0000e+00
      0.134    28.2640     7.4255     95.259  37.754170     35.427      8.581   134.3056     1.3749     0.7559     0.0246      0.035      0.133      0.194         70 5.9098e+02 0.0000e+00
      0.168    28.2686     7.3215     93.912  37.779978     35.476      8.574   135.1763     1.3547     0.8097     0.0247      0.054      0.165      0.239         71 7.9229e+02 0.0000e+00
      0.202    28.2684     7.2111     92.478  37.793994     35.471      8.569   136.0470     1.3668     0.6888     0.0247      0.075      0.195      0.283         72 1.2717e+03 0.0000e+00
      0.227    28.2669     7.1286     91.394  37.677403     35.363      8.564   136.9934     1.3668     0.8097     0.0246      0.093      0.217      0.314         73 6.8281e+02 0.0000e+00
      0.233    28.2676     7.0745     90.676  37.628466     35.310      8.564   136.8799     1.3668     0.8097     0.0246      0.100      0.224      0.324         74 6.4253e+02 0.0000e+00
      0.224    28.2646     7.0479     90.319  37.617611     35.312      8.569   137.3720     1.3506     0.8499     0.0246      0.094      0.219      0.317         75 1.0674e+03 0.0000e+00
      0.213    28.2621     7.0490     90.323  37.631591     35.311      8.579   137.9777     1.2495     0.6619     0.0246      0.075      0.211      0.306         76 1.3288e+03 0.0000e+00
      0.209    28.2609     7.0742     90.633  37.729711     35.418      8.585   138.0156     1.2819     0.6619     0.0246      0.052      0.206      0.299         77 1.4917e+03 0.0000e+00
      0.208    28.2524     7.1308     91.342  37.792108     35.472      8.590   138.7349     1.2778     0.5545     0.0247      0.029      0.204      0.296         78 7.0063e+02 0.0000e+00
      0.207    28.2391     7.1958     92.160  37.791224     35.473      8.589   139.7192     1.2697     0.6485     0.0247      0.008      0.203      0.294         79 4.7364e+02 0.0000e+00
      0.204    28.2285     7.2477     92.813  37.790132     35.478      8.588   140.1735     1.3749     0.7425     0.0247     -0.007      0.199      0.289         80 6.3461e+02 0.0000e+00
      0.197    28.2208     7.2611     92.970  37.793471     35.488      8.589   140.4763     1.3749     0.6888     0.0247     -0.016      0.192      0.279         81 6.0182e+02 0.0000e+00
      0.187    28.2099     7.2417     92.703  37.787077     35.494      8.592   140.8549     1.3587     0.7694     0.0247     -0.019      0.185      0.268         82 7.5268e+02 0.0000e+00
      0.183    28.1943     7.2157     92.352  37.738773     35.447      8.595   141.5363     1.3587     0.8499     0.0246     -0.018      0.180      0.261         83 1.3234e+03 0.0000e+00
      0.180    28.1790     7.1805     91.890  37.734946     35.454      8.594   142.1042     1.4355     0.8499     0.0246     -0.017      0.176      0.256         84 1.6210e+03 0.0000e+00
      0.176    28.1685     7.1226     91.134  37.732525     35.465      8.597   142.5963     1.4234     0.7962     0.0246     -0.019      0.174      0.252         85 1.6727e+03 0.0000e+00
      0.175    28.1620     7.0518     90.222  37.682473     35.422      8.599   143.3535     1.4194     0.7559     0.0246     -0.019      0.172      0.250         86 1.6997e+03 0.0000e+00
      0.176    28.1545     6.9827     89.330  37.678600     35.430      8.595   144.5270     1.4436     0.8365     0.0246     -0.017      0.172      0.250         87 6.4157e+02 0.0000e+00
      0.175    28.1444     6.9684     89.137  37.678029     35.434      8.595   145.0570     1.3789     0.8634     0.0246     -0.014      0.172      0.250         88 4.8526e+02 0.0000e+00
      0.175    28.1355     6.9994     89.529  37.683188     35.439      8.595   145.2842     1.3506     0.8231     0.0246     -0.009      0.172      0.251         89 8.0221e+02 0.0000e+00
      0.180    28.1278     7.0404     90.051  37.731505     35.498      8.597   145.7006     1.3587     0.8365     0.0246     -0.004      0.175      0.255         90 6.5686e+02 0.0000e+00
      0.182    28.1192     7.0744     90.485  37.736545     35.504      8.594   146.2306     1.3668     0.8768     0.0246     -0.000      0.179      0.261         91 1.0753e+03 0.0000e+00
      0.186    28.1077     7.0920     90.706  37.676919     35.456      8.597   146.3820     1.3304     0.8097     0.0246      0.003      0.186      0.271         92 9.7889e+02 0.0000e+00
      0.203    28.0969     7.0893     90.669  37.627750     35.410      8.596   147.1392     1.3547     0.8634     0.0246      0.010      0.199      0.289         93 5.5789e+02 0.0000e+00
      0.221    28.0888     7.0502     90.167  37.619779     35.417      8.594   147.4042     1.3587     0.8231     0.0246      0.019      0.210      0.305         94 5.4202e+02 0.0000e+00
      0.219    28.0807     6.9771     89.228  37.538544     35.346      8.592   148.3885     1.3587     0.8365     0.0246      0.025      0.208      0.302         95 5.3355e+02 0.0000e+00
      0.197    28.0760     6.8810     87.997  37.491566     35.298      8.594   179.4314     1.3627     0.7694     0.0246      0.021      0.191      0.278         96 5.3296e+02 0.0000e+00
      0.170    28.0713     6.7821     86.730  37.529943     35.357      8.600   160.4649     1.3749     0.8365     0.0246      0.009      0.171      0.248         97 5.2220e+02 0.0000e+00
      0.158    28.0654     6.6717     85.315  37.490788     35.307      8.604   153.5749     1.3749     0.7559     0.0246     -0.005      0.159      0.231         98 5.0089e+02 0.0000e+00
      0.159    28.0620     6.5797     84.134  37.480977     35.310      8.603   152.9692     1.3627     0.8902     0.0246     -0.017      0.157      0.228         99 4.8549e+02 0.0000e+00
      0.163    28.0605     6.4996     83.107  37.482837     35.314      8.599   153.3099     1.3466     0.7828     0.0246     -0.026      0.161      0.233        100 4.8232e+02 0.0000e+00
      0.168    28.0598     6.4262     82.165  37.488477     35.316      8.594   153.8021     1.2900     0.5948     0.0246     -0.031      0.167      0.242        101 4.6184e+02 0.0000e+00
      0.179    28.0576     6.3781     81.547  37.473960     35.317      8.589   154.1428     1.3102     0.5545     0.0246     -0.026      0.175      0.254        102 4.9744e+02 0.0000e+00
      0.188    28.0556     6.3155     80.745  37.500904     35.318      8.585   154.1428     1.2900     0.5948     0.0246     -0.011      0.181      0.263        103 4.6959e+02 0.0000e+00
      0.186    28.0546     6.2656     80.107  37.514267     35.372      8.586   153.8399     1.3223     0.5142     0.0246      0.004      0.180      0.262        104 5.9352e+02 0.0000e+00
      0.176    28.0528     6.2244     79.569  37.398011     35.215      8.589   154.2942     1.2980     0.7694     0.0245      0.012      0.175      0.253        105 1.2076e+03 0.0000e+00
      0.172    28.0510     6.1876     79.082  37.408302     35.268      8.593   154.3321     1.2980     0.7694     0.0245      0.011      0.170      0.246        106 1.8049e+03 0.0000e+00
      0.169    28.0498     6.1534     78.637  37.442140     35.270      8.597   154.3699     1.3142     0.7962     0.0245      0.006      0.166      0.242        107 1.5438e+03 0.0000e+00
      0.167    28.0475     6.1260     78.283  37.415220     35.271      8.600   154.7106     1.2697     0.7559     0.0245     -0.000      0.166      0.241        108 1.5669e+03 0.0000e+00
      0.172    28.0445     6.1006     77.952  37.441804     35.272      8.603   154.9378     1.2172     0.8097     0.0245     -0.005      0.169      0.245        109 1.4207e+03 0.0000e+00
      0.177    28.0422     6.0795     77.678  37.468378     35.326      8.603   155.5814     1.2253     0.8634     0.0246     -0.007      0.173      0.251        110 7.9686e+02 0.0000e+00
      0.179    28.0400     6.0724     77.588  37.382150     35.223      8.605   156.2628     1.2374     0.7828     0.0245     -0.005      0.176      0.256        111 1.4100e+03 0.0000e+00
      0.185    28.0379     6.0695     77.550  37.371154     35.224      8.605   156.1871     1.2293     0.8365     0.0245      0.001      0.181      0.263        112 1.6258e+03 0.0000e+00
      0.192    28.0375     6.0697     77.555  37.363424     35.225      8.606   156.8685     1.2131     0.7828     0.0245      0.008      0.186      0.270        113 1.5989e+03 0.0000e+00
      0.194    28.0367     6.0636     77.476  37.332452     35.174      8.604   157.0578     1.2819     0.7694     0.0245      0.013      0.186      0.269        114 1.7438e+03 0.0000e+00
      0.183    28.0287     6.0417     77.178  37.409698     35.280      8.599   157.1714     1.2819     0.7425     0.0245      0.012      0.179      0.259        115 1.4845e+03 0.0000e+00
      0.170    28.0175     6.0177     76.851  37.385932     35.228      8.600   157.9285     1.2980     0.7559     0.0245      0.006      0.169      0.245        116 6.4307e+02 0.0000e+00
      0.165    28.0114     6.0031     76.646  37.362031     35.233      8.603   168.0742     1.3304     0.7559     0.0245     -0.002      0.163      0.236        117 7.9044e+02 0.0000e+00
      0.163    28.0084     5.9764     76.296  37.320807     35.188      8.604   159.2914     1.2212     0.7425     0.0245     -0.009      0.160      0.233        118 1.4538e+03 0.0000e+00
      0.164    28.0037     5.9761     76.295  37.318598     35.192      8.609   186.7000     1.2333     0.8231     0.0245     -0.013      0.158      0.230        119 7.0284e+02 0.0000e+00
      0.157    28.0008     5.9762     76.292  37.364782     35.246      8.608   162.4335     1.2374     0.7828     0.0245     -0.018      0.154      0.223        120 4.8951e+02 0.0000e+00
      0.151    28.0013     5.9814     76.360  37.322653     35.197      8.610   161.7899     1.2455     0.8231     0.0245     -0.021      0.150      0.217        121 6.0932e+02 0.0000e+00
      0.151    28.0010     6.0376     77.085  37.311710     35.199      8.609   161.3735     1.3223     0.7425     0.0245     -0.019      0.148      0.215        122 5.8217e+02 0.0000e+00
      0.152    28.0027     6.1731     78.821  37.259763     35.146      8.604   161.5249     1.2738     0.7291     0.0245     -0.014      0.147      0.214        123 7.3280e+02 0.0000e+00
      0.148    28.0013     6.3588     81.196  37.209340     35.093      8.597   161.7521     1.3142     0.8097     0.0245     -0.011      0.145      0.210        124 7.4970e+02 0.0000e+00
      0.143    27.9886     6.5455     83.589  37.255822     35.145      8.598   162.0549     1.2819     0.7694     0.0245     -0.010      0.140      0.204        125 8.0658e+02 0.0000e+00
      0.138    27.9738     6.7074     85.662  37.320557     35.198      8.596   162.2442     1.1606     0.7291     0.0245     -0.012      0.137      0.199        126 2.0481e+03 0.0000e+00
      0.139    27.9596     6.8304     87.235  37.366059     35.260      8.598   162.4335     1.1929     0.7559     0.0245     -0.011      0.136      0.196        127 2.2915e+03 0.0000e+00
      0.137    27.9527     6.9437     88.685  37.377161     35.270      8.599   162.8878     1.1565     0.7694     0.0245     -0.010      0.131      0.190        128 8.9723e+02 0.0000e+00
      0.123    27.9543     7.0479     90.019  37.425386     35.332      8.595   163.7207     1.1565     0.8097     0.0245     -0.012      0.114      0.166        129 5.6211e+02 0.0000e+00
      0.089    27.9522     7.1081     90.797  37.484010     35.390      8.591   164.2885     1.1808     0.8365     0.0246     -0.024      0.083      0.120        130 8.5034e+02 0.0000e+00
      0.040    27.9526     7.1106     90.841  37.422850     35.335      8.592   164.1750     1.1848     0.7694     0.0245     -0.044      0.044      0.063        131 2.1775e+03 0.0000e+00
      0.006    27.9582     7.0599     90.204  37.323538     35.231      8.590   164.5157     1.1727     0.7559     0.0245     -0.065      0.016      0.022        132 2.1324e+03 0.0000e+00
      0.001    27.9624     6.9904     89.308  37.310999     35.231      8.589   165.0078     1.1525     0.8097     0.0245     -0.079      0.007      0.009        133 7.9153e+02 0.0000e+00
      0.010    27.9657     6.9043     88.195  37.319813     35.227      8.585   165.1214     1.2374     0.8365     0.0245     -0.083      0.013      0.020        134 5.5320e+02 0.0000e+00
      0.030    27.9713     6.8137     87.041  37.312568     35.224      8.585   165.3107     1.2374     0.8634     0.0245     -0.075      0.027      0.040        135 7.0607e+02 0.0000e+00
      0.041    27.9753     6.7506     86.238  37.320014     35.222      8.586   165.1214     1.2455     0.8231     0.0245     -0.056      0.039      0.058        136 3.8952e+02 0.0000e+00
      0.049    27.9766     6.7070     85.683  37.310545     35.218      8.588   165.3107     1.2212     0.8097     0.0245     -0.030      0.054      0.079        137 8.4640e+02 0.0000e+00
      0.076    27.9780     6.6734     85.259  37.324349     35.216      8.588   165.8407     1.2212     0.8231     0.0245      0.005      0.078      0.114        138 1.5162e+03 0.0000e+00
      0.115    27.9804     6.6385     84.812  37.362154     35.268      8.579   167.0521     1.1565     0.8768     0.0245      0.042      0.109      0.159        139 1.1698e+03 0.0000e+00
      0.143    27.9859     6.6044     84.364  37.322819     35.214      8.576   166.9385     1.1727     0.8365     0.0245      0.068      0.136      0.197        140 1.5379e+03 0.0000e+00
      0.157    27.9937     6.5679     83.887  37.254660     35.160      8.581   166.9764     1.1484     0.7559     0.0245      0.081      0.152      0.221        141 8.2164e+02 0.0000e+00
      0.165    27.9997     6.5234     83.321  37.269013     35.156      8.584   166.9007     1.1767     0.7559     0.0245      0.083      0.160      0.231        142 4.1505e+02 0.0000e+00
      0.165    27.9951     6.5179     83.256  37.304954     35.204      8.589   166.4464     1.2414     0.7291     0.0245      0.078      0.160      0.231        143 6.4164e+02 0.0000e+00
      0.157    27.9878     6.4990     83.015  37.269249     35.147      8.593   166.8628     1.2495     0.8768     0.0245      0.067      0.156      0.226        144 4.6675e+02 0.0000e+00
      0.156    27.9892     6.4895     82.883  37.254126     35.150      8.600   166.9007     1.2212     0.8365     0.0245      0.052      0.158      0.230        145 5.4233e+02 0.0000e+00
      0.172    27.9911     6.4604     82.496  37.264458     35.155      8.601   167.5821     1.1929     0.6754     0.0245      0.035      0.169      0.245        146 5.2163e+02 0.0000e+00
      0.187    27.9922     6.4432     82.269  37.256394     35.154      8.601   167.8471     1.2900     0.8902     0.0245      0.024      0.181      0.261        147 5.3384e+02 0.0000e+00
      0.193    27.9963     6.4345     82.150  37.264160     35.153      8.602   168.3014     1.3021     0.9171     0.0245      0.019      0.186      0.269        148 8.2044e+02 0.0000e+00
      0.189    27.9955     6.4239     82.007  37.254792     35.152      8.603   168.7557     1.3142     0.7425     0.0245      0.017      0.183      0.266        149 1.5183e+03 0.0000e+00
      0.180    27.9866     6.4010     81.711  37.208733     35.096      8.601   169.0964     1.2980     0.8634     0.0245      0.015      0.178      0.259        150 1.7367e+03 0.0000e+00
      0.177    27.9798     6.3737     81.357  37.262159     35.149      8.603   169.1721     1.3102     0.7962     0.0245      0.013      0.175      0.255        151 1.7346e+03 0.0000e+00
      0.180    27.9810     6.3731     81.347  37.247625     35.156      8.598   169.2478     1.2819     0.9036     0.0245      0.011      0.178      0.259        152 1.8522e+03 0.0000e+00
      0.188    27.9846     6.4490     82.318  37.226823     35.107      8.601   169.1721     1.3263     0.8634     0.0245      0.008      0.187      0.271        153 1.4491e+03 0.0000e+00
      0.205    27.9846     6.5942     84.184  37.288049     35.212      8.602   169.5885     1.2900     0.8231     0.0245      0.007      0.196      0.284        154 6.1106e+02 0.0000e+00
      0.204    27.9776     6.7351     86.002  37.230750     35.104      8.597   169.7778     1.3466     0.7828     0.0245      0.007      0.194      0.282        155 4.9426e+02 0.0000e+00
      0.185    27.9675     6.8443     87.400  37.238809     35.157      8.602   169.7400     1.3708     0.8365     0.0245      0.005      0.180      0.262        156 5.8828e+02 0.0000e+00
      0.165    27.9616     6.9603     88.876  37.218699     35.108      8.606   170.0428     1.3506     0.8365     0.0245     -0.000      0.163      0.237        157 6.1374e+02 0.0000e+00
      0.151    27.9567     7.0704     90.280  37.196459     35.116      8.605   170.4593     1.3506     0.8365     0.0245     -0.008      0.145      0.211        158 7.6093e+02 0.0000e+00
      0.129    27.9516     7.1595     91.421  37.207172     35.119      8.608   170.6864     1.3749     0.7828     0.0245     -0.023      0.119      0.172        159 6.2437e+02 0.0000e+00
      0.083    27.9486     7.1987     91.929  37.205373     35.123      8.606   171.1028     1.3749     0.8097     0.0245     -0.047      0.077      0.112        160 6.5727e+02 0.0000e+00
      0.026    27.9451     7.2144     92.131  37.198700     35.126      8.610   171.2921     1.3304     0.8499     0.0245     -0.079      0.025      0.037        161 7.0903e+02 0.0000e+00
     -0.033    27.9430     7.2220     92.225  37.156157     35.075      8.607   172.0493     1.3668     0.7559     0.0244     -0.113     -0.026     -0.038        162 9.3161e+02 0.0000e+00
     -0.075    27.9451     7.2276     92.290  37.198998     35.130      8.596   172.5793     1.3587     0.7962     0.0245     -0.138     -0.060     -0.088        163 1.9735e+03 0.0000e+00
     -0.076    27.9539     7.2468     92.528  37.264025     35.185      8.595   172.6550     1.2172     0.4337     0.0245     -0.146     -0.067     -0.098        164 2.4062e+03 0.0000e+00
     -0.056    27.9655     7.2660     92.767  37.253191     35.183      8.592   173.2985     1.2455     0.5142     0.0245     -0.136     -0.058     -0.085        165 2.3014e+03 0.0000e+00
     -0.049    27.9685     7.2663     92.762  37.212480     35.125      8.589   173.0714     1.2374     0.6082     0.0245     -0.116     -0.049     -0.071        166 2.2329e+03 0.0000e+00
     -0.044    27.9652     7.2846     92.984  37.196047     35.117      8.592   173.2228     1.2172     0.6351     0.0245     -0.085     -0.040     -0.059        167 1.3025e+03 0.0000e+00
     -0.031    27.9641     7.2659     92.742  37.214316     35.115      8.589   173.1471     1.1606     0.7291     0.0245     -0.044     -0.030     -0.044        168 1.1564e+03 0.0000e+00
     -0.020    27.9661     7.2505     92.546  37.189742     35.117      8.593   173.8664     1.1727     0.7962     0.0245     -0.006     -0.016     -0.024        169 1.6732e+03 0.0000e+00
     -0.001    27.9704     7.2313     92.299  37.167312     35.065      8.592   174.3586     1.1525     0.7559     0.0244      0.026      0.008      0.011        170 2.5761e+03 0.0000e+00
      0.043    27.9714     7.2861     92.945  37.242231     35.169      8.580   175.9864     1.1565     0.7828     0.0245      0.051      0.050      0.073        171 2.6130e+03 0.0000e+00
      0.114    27.9694     7.5518     96.217  37.274465     35.166      8.572   176.5921     1.2616     0.7425     0.0245      0.077      0.108      0.156        172 8.3091e+02 0.0000e+00
      0.171    27.9661     8.0168    102.029  37.364475     35.271      8.567   176.9707     1.2293     0.7828     0.0245      0.105      0.163      0.235        173 5.0035e+02 0.0000e+00
      0.214    27.9613     8.5351    108.609  37.367494     35.272      8.566   176.8950     1.2293     0.7425     0.0245      0.134      0.204      0.295        174 6.9990e+02 0.0000e+00
      0.240    27.9579     9.0265    114.916  37.270708     35.169      8.570   176.5543     1.2131     0.7559     0.0245      0.155      0.230      0.332        175 5.5395e+02 0.0000e+00
      0.249    27.9519     9.4005    119.763  37.247646     35.172      8.579   175.9864     1.3627     0.8365     0.0245      0.161      0.241      0.349        176 6.6665e+02 0.0000e+00
      0.249    27.9454     9.6728    123.336  37.218239     35.122      8.584   175.9107     1.3587     0.7962     0.0245      0.152      0.244      0.354        177 6.0989e+02 0.0000e+00
      0.251    27.9427     9.8212    125.322  37.247989     35.178      8.589   175.7214     1.3708     0.6888     0.0245      0.128      0.245      0.356        178 7.4122e+02 0.0000e+00
      0.251    27.9438     9.8504    125.741  37.269945     35.183      8.595   176.0621     1.3708     0.8097     0.0245      0.094      0.244      0.354        179 6.6220e+02 0.0000e+00
      0.242    27.9411     9.7839    124.948  37.250236     35.185      8.599   175.5700     1.3587     0.8902     0.0245      0.055      0.243      0.352        180 9.2715e+02 0.0000e+00
      0.252    27.9089     9.6640    123.449  37.331837     35.237      8.602   176.5543     1.2172     0.8499     0.0245      0.028      0.249      0.361        181 1.1309e+03 0.0000e+00
      0.268    27.8405     9.5369    121.864  37.524316     35.449      8.598   176.9707     1.2455     0.8365     0.0246      0.016      0.259      0.376        182 7.5108e+02 0.0000e+00
      0.274    27.7803     9.4343    120.570  37.544587     35.471      8.597   179.0150     1.2455     0.7828     0.0246      0.013      0.260      0.378        183 1.0376e+03 0.0000e+00
      0.258    27.7703     9.3629    119.647  37.484589     35.464      8.594   181.6271     1.2374     0.8634     0.0246      0.010      0.237      0.344        184 1.2509e+03 0.0000e+00
      0.191    27.7974     9.3069    118.924  37.539692     35.559      8.594   178.4850     1.1565     0.6888     0.0246     -0.009      0.182      0.265        185 1.4006e+03 0.0000e+00
      0.109    27.8367     9.2879    118.683  37.624340     35.644      8.598   178.2578     1.2050     0.7828     0.0246     -0.045      0.113      0.165        186 2.0900e+03 0.0000e+00
      0.048    27.8853     9.2896    118.708  37.675855     35.679      8.601   178.6364     1.1767     0.8231     0.0246     -0.088      0.057      0.083        187 2.3273e+03 0.0000e+00
      0.018    27.9254     9.3044    118.913  37.742514     35.705      8.604   192.9843     1.1889     0.6888     0.0247     -0.124      0.024      0.034        188 2.2703e+03 0.0000e+00
      0.005    27.9488     9.3205    119.145  37.778648     35.725      8.603   194.6500     1.2374     0.3800     0.0247     -0.153      0.004      0.006        189 2.2805e+03 0.0000e+00
     -0.014    27.9715     9.3264    119.238  37.749505     35.644      8.602   188.5550     1.2293     0.3800     0.0247     -0.167     -0.009     -0.013        190 2.3293e+03 0.0000e+00
     -0.017    27.9887     9.3205    119.167  37.778761     35.683      8.602   191.6593     1.2374     0.4740     0.0247     -0.160     -0.016     -0.023        191 2.2928e+03 0.0000e+00
     -0.019    28.0048     9.3272    119.255  37.801547     35.666      8.601   182.4600     1.2131     0.4068     0.0247     -0.132     -0.020     -0.029        192 2.2236e+03 0.0000e+00
     -0.025    28.0138     9.3357    119.361  37.839781     35.709      8.603   184.2393     0.9745     0.6082     0.0247     -0.092     -0.024     -0.034        193 2.2773e+03 0.0000e+00
     -0.027    28.0085     9.3196    119.142  37.849813     35.697      8.604   196.8079     0.9786     0.5814     0.0247     -0.056     -0.027     -0.039        194 2.3429e+03 0.0000e+00
     -0.029    28.0050     9.3011    118.892  37.789054     35.638      8.605   200.1015     0.9745     0.6217     0.0247     -0.033     -0.029     -0.042        195 2.3396e+03 0.0000e+00
     -0.034    28.0055     9.2717    118.505  37.796749     35.642      8.607   197.7165     0.9826     0.5814     0.0247     -0.023     -0.032     -0.047        196 2.3328e+03 0.0000e+00
     -0.036    28.0078     9.2376    118.046  37.840238     35.697      8.610   199.5336     1.0029     0.7425     0.0247     -0.017     -0.033     -0.048        197 2.3444e+03 0.0000e+00
     -0.031    28.0153     9.2185    117.779  37.853576     35.696      8.613   201.9943     1.0473     0.7291     0.0247     -0.010     -0.030     -0.043        198 2.2971e+03 0.0000e+00
     -0.024    28.0275     9.2178    117.759  37.839469     35.695      8.616   197.3000     1.0433     0.7694     0.0247     -0.006     -0.025     -0.036        199 2.2837e+03 0.0000e+00
     -0.021    28.0356     9.2122    117.660  37.798470     35.637      8.618   198.0193     1.0554     0.8097     0.0247     -0.001     -0.022     -0.031        200 2.2248e+03 0.0000e+00
     -0.022    28.0379     9.2233    117.762  37.845276     35.682      8.619   198.2086     1.0676     0.7291     0.0247      0.003     -0.022     -0.031        201 1.6125e+03 0.0000e+00
     -0.023    28.0387     9.2409    117.936  37.840539     35.676      8.622   203.5844     1.1646     0.8634     0.0247      0.005     -0.023     -0.033        202 9.9234e+02 0.0000e+00
     -0.024    28.0371     9.2488    117.997  37.804361     35.622      8.623   207.0294     1.1686     0.8365     0.0247      0.006     -0.024     -0.035        203 1.5129e+03 0.0000e+00
     -0.024    28.0315     9.2655    118.189  37.890296     35.727      8.624   208.0515     1.1767     0.8231     0.0247      0.006     -0.024     -0.035        204 2.2009e+03 0.0000e+00
     -0.024    28.0253     9.2693    118.228  37.852237     35.675      8.626   209.3008     1.1848     0.8365     0.0247      0.004     -0.024     -0.034        205 2.2376e+03 0.0000e+00
     -0.023    28.0198     9.2634    118.152  37.792404     35.626      8.628   210.1337     1.1606     0.7828     0.0247      0.001     -0.023     -0.033        206 1.9533e+03 0.0000e+00
     -0.022    28.0088     9.2586    118.075  37.786795     35.631      8.629   210.6258     1.1767     0.7962     0.0247     -0.000     -0.022     -0.032        207 1.2681e+03 0.0000e+00
     -0.022    27.9979     9.2490    117.923  37.799899     35.634      8.630   211.2315     1.1727     0.8902     0.0247     -0.001     -0.022     -0.032        208 9.4925e+02 0.0000e+00
     -0.023    27.9914     9.2320    117.692  37.835421     35.694      8.633   211.8372     1.1444     0.8365     0.0247      0.000     -0.022     -0.032        209 1.4781e+03 0.0000e+00
     -0.022    27.9792     9.2175    117.502  37.801915     35.649      8.635   212.6701     1.1727     0.8365     0.0247      0.001     -0.022     -0.031        210 2.0409e+03 0.0000e+00
     -0.022    27.9598     9.2198    117.555  37.722959     35.600      8.634   211.9129     1.1767     0.8365     0.0247      0.001     -0.021     -0.031        211 2.2089e+03 0.0000e+00
     -0.021    27.9361     9.2381    117.841  37.696400     35.556      8.636   212.5944     1.1686     0.8365     0.0246      0.001     -0.021     -0.030        212 2.2188e+03 0.0000e+00
     -0.021    27.9171     9.2552    118.094  37.716332     35.622      8.635   213.2380     1.1727     0.8634     0.0247      0.001     -0.021     -0.030        213 2.2184e+03 0.0000e+00
     -0.021    27.9070     9.2570    118.133  37.698163     35.585      8.637   213.9951     1.1242     0.8097     0.0246      0.001     -0.021     -0.030        214 2.2197e+03 0.0000e+00
     -0.021    27.9022     9.2681    118.293  37.719020     35.651      8.637   214.1465     1.1201     0.8097     0.0247      0.001     -0.020     -0.029        215 2.2153e+03 0.0000e+00
     -0.020    27.9012     9.2858    118.506  37.749705     35.657      8.636   214.4872     1.0878     0.6351     0.0247      0.001     -0.020     -0.029        216 2.2076e+03 0.0000e+00
     -0.021    27.8937     9.3007    118.653  37.719304     35.661      8.638   214.4872     1.1242     0.8097     0.0247      0.001     -0.020     -0.029        217 2.2001e+03 0.0000e+00
     -0.021    27.8806     9.3028    118.645  37.697536     35.608      8.638   214.6387     1.0271     0.8768     0.0246      0.001     -0.020     -0.029        218 2.1905e+03 0.0000e+00
     -0.020    27.8727     9.2987    118.592  37.717475     35.666      8.638   214.9415     1.0392     0.7559     0.0247      0.001     -0.020     -0.028        219 2.1786e+03 0.0000e+00
     -0.020    27.8708     9.2887    118.442  37.694495     35.623      8.637   214.9415     1.0392     0.8097     0.0246      0.001     -0.020     -0.028        220 2.1640e+03 0.0000e+00
     -0.020    27.8827     9.2849    118.359  37.666820     35.627      8.641   214.9037     1.0231     0.7828     0.0246      0.000     -0.020     -0.029        221 2.1465e+03 0.0000e+00
     -0.021    27.9070     9.2772    118.282  37.692599     35.629      8.641   214.8658     1.0312     0.7157     0.0246      0.000     -0.020     -0.029        222 2.1301e+03 0.0000e+00
     -0.020    27.9234     9.2735    118.283  37.781056     35.727      8.639   215.5472     1.0514     0.8634     0.0247      0.000     -0.020     -0.029        223 2.1181e+03 0.0000e+00
     -0.021    27.9319     9.2817    118.423  37.734694     35.657      8.636   215.5094     1.0312     0.7962     0.0247     -0.000     -0.021     -0.030        224 2.1119e+03 0.0000e+00
     -0.022    27.9398     9.2933    118.585  37.690964     35.593      8.635   215.3958     1.0595     0.7962     0.0246     -0.001     -0.022     -0.031        225 2.1085e+03 0.0000e+00
     -0.022    27.9343     9.2994    118.656  37.776146     35.694      8.637   215.4715     1.0271     0.7828     0.0247     -0.001     -0.022     -0.032        226 2.0986e+03 0.0000e+00
     -0.022    27.9136     9.3026    118.654  37.688001     35.582      8.639   216.4937     1.0999     0.8902     0.0246     -0.001     -0.021     -0.031        227 2.0727e+03 0.0000e+00
     -0.021    27.8982     9.3053    118.619  37.622694     35.533      8.639   216.5694     1.1080     0.8634     0.0246     -0.001     -0.021     -0.031        228 2.0261e+03 0.0000e+00
     -0.022    27.8965     9.2993    118.482  37.679462     35.600      8.640   216.0015     1.1080     0.7157     0.0246     -0.001     -0.022     -0.032        229 1.9722e+03 0.0000e+00
     -0.024    27.8859     9.2900    118.322  37.676685     35.611      8.641   216.1151     1.1161     0.7962     0.0246     -0.001     -0.023     -0.034        230 1.9269e+03 0.0000e+00
     -0.024    27.8706     9.2881    118.251  37.685477     35.611      8.643   216.1908     1.0433     0.7828     0.0246     -0.002     -0.023     -0.034        231 1.9002e+03 0.0000e+00
     -0.022    27.8799     9.2776    118.071  37.727844     35.671      8.643   216.0015     1.0231     0.8634     0.0247     -0.001     -0.022     -0.033        232 1.8900e+03 0.0000e+00
     -0.022    27.9030     9.2627    117.852  37.742605     35.683      8.644   216.7208     1.0352     0.7425     0.0247     -0.001     -0.022     -0.032        233 1.8647e+03 0.0000e+00
     -0.023    27.9195     9.2585    117.822  37.785753     35.728      8.645   216.4937     1.0352     0.7694     0.0247     -0.001     -0.022     -0.032        234 1.7994e+03 0.0000e+00
     -0.023    27.9264     9.2522    117.778  37.792787     35.713      8.643   216.7208     1.1120     0.6888     0.0247     -0.001     -0.022     -0.032        235 1.7320e+03 0.0000e+00
     -0.023    27.9225     9.2534    117.808  37.733843     35.649      8.646   216.7208     1.1120     0.8365     0.0247     -0.000     -0.022     -0.031        236 1.6895e+03 0.0000e+00
     -0.021    27.9025     9.2710    118.043  37.740457     35.644      8.643   217.4022     1.1201     0.8097     0.0247      0.001     -0.021     -0.031        237 1.6409e+03 0.0000e+00
     -0.022    27.8694     9.2790    118.132  37.725231     35.647      8.645   216.9858     1.1242     0.7962     0.0247      0.001     -0.021     -0.031        238 1.6124e+03 0.0000e+00
     -0.021    27.8413     9.2953    118.294  37.693473     35.607      8.646   216.6451     1.1403     0.7828     0.0246      0.001     -0.021     -0.031        239 1.6301e+03 0.0000e+00
     -0.022    27.8208     9.3093    118.436  37.661347     35.630      8.646   217.5537     1.1727     0.7559     0.0246      0.001     -0.021     -0.031        240 1.6416e+03 0.0000e+00
     -0.023    27.7992     9.3213    118.533  37.646584     35.596      8.646   217.9701     1.1646     0.8097     0.0246      0.000     -0.022     -0.032        241 1.6614e+03 0.0000e+00
     -0.023    27.7763     9.3218    118.491  37.652540     35.662      8.646   217.5915     1.1484     0.7828     0.0246      0.000     -0.022     -0.032        242 1.7268e+03 0.0000e+00
     -0.022    27.7632     9.3165    118.428  37.564967     35.545      8.651   217.2508     1.2374     0.7828     0.0246      0.000     -0.022     -0.031        243 1.8009e+03 0.0000e+00
     -0.021    27.7737     9.3204    118.474  37.607276     35.640      8.649   216.9101     1.2333     0.7694     0.0246     -0.000     -0.022     -0.031        244 1.8498e+03 0.0000e+00
     -0.022    27.7909     9.3291    118.577  37.629556     35.649      8.652   217.0994     1.2172     0.7828     0.0246     -0.000     -0.022     -0.032        245 1.8861e+03 0.0000e+00
     -0.023    27.7984     9.3306    118.597  37.626226     35.641      8.650   217.6672     1.2293     0.8231     0.0246     -0.000     -0.023     -0.033        246 1.9233e+03 0.0000e+00
     -0.023    27.8035     9.3136    118.391  37.670738     35.683      8.651   218.6894     1.2374     0.7828     0.0246     -0.001     -0.023     -0.033        247 1.9536e+03 0.0000e+00
     -0.023    27.7966     9.2981    118.195  37.633476     35.625      8.655   217.8187     1.2616     0.7828     0.0246     -0.000     -0.023     -0.033        248 1.9841e+03 0.0000e+00
     -0.023    27.7762     9.2681    117.780  37.613273     35.622      8.651   219.2573     1.2455     0.6888     0.0246     -0.000     -0.023     -0.033        249 2.0022e+03 0.0000e+00
     -0.023    27.7580     9.2427    117.433  37.547576     35.546      8.652   219.0680     1.2293     0.8097     0.0246     -0.000     -0.023     -0.033        250 2.0021e+03 0.0000e+00
     -0.023    27.7317     9.2348    117.343  37.537276     35.561      8.651   218.9544     1.2495     0.7962     0.0246     -0.001     -0.022     -0.032        251 2.0037e+03 0.0000e+00
     -0.021    27.7099     9.2292    117.262  37.537119     35.572      8.653   219.2573     1.2657     0.5545     0.0246     -0.000     -0.021     -0.031        252 2.0089e+03 0.0000e+00
     -0.021    27.7104     9.2328    117.298  37.577442     35.617      8.651   219.2573     1.2253     0.5679     0.0246      0.001     -0.021     -0.031        253 2.0127e+03 0.0000e+00
     -0.022    27.7096     9.2373    117.370  37.605748     35.685      8.648   219.2573     1.2293     0.5948     0.0246      0.001     -0.022     -0.032        254 2.0161e+03 0.0000e+00
     -0.023    27.7058     9.2521    117.567  37.561223     35.604      8.650   220.6201     1.2010     0.6217     0.0246      0.001     -0.022     -0.032        255 2.0204e+03 0.0000e+00
     -0.022    27.7066     9.2644    117.707  37.603195     35.685      8.652   220.8094     1.3061     0.8634     0.0246      0.001     -0.021     -0.031        256 2.0171e+03 0.0000e+00
     -0.022    27.7109     9.2756    117.838  37.553516     35.608      8.650   219.3330     1.3142     0.7425     0.0246      0.000     -0.021     -0.031        257 2.0170e+03 0.0000e+00
     -0.022    27.7111     9.2762    117.842  37.534067     35.607      8.653   219.4087     1.2980     0.7425     0.0246      0.000     -0.022     -0.031        258 2.0206e+03 0.0000e+00
     -0.023    27.6956     9.2746    117.823  37.568077     35.631      8.654   219.7873     1.2697     0.7559     0.0246     -0.000     -0.022     -0.032        259 2.0182e+03 0.0000e+00
     -0.023    27.6847     9.2840    117.941  37.540850     35.604      8.653   219.5223     1.2778     0.8231     0.0246     -0.001     -0.022     -0.032        260 2.0176e+03 0.0000e+00
     -0.022    27.6877     9.2978    118.117  37.538291     35.615      8.651   219.5601     1.3061     0.8499     0.0246     -0.000     -0.022     -0.032        261 2.0158e+03 0.0000e+00
     -0.022    27.6844     9.3049    118.197  37.482286     35.570      8.653   219.7494     1.2697     0.7559     0.0246     -0.000     -0.022     -0.032        262 2.0185e+03 0.0000e+00
     -0.022    27.6800     9.3003    118.136  37.491911     35.567      8.649   219.8251     1.2697     0.7291     0.0246     -0.000     -0.022     -0.032        263 2.0244e+03 0.0000e+00
     -0.023    27.6867     9.2935    118.064  37.555976     35.649      8.652   219.9765     1.2333     0.7828     0.0246     -0.000     -0.023     -0.033        264 2.0258e+03 0.0000e+00
     -0.023    27.6904     9.2832    117.956  37.491541     35.572      8.651   221.6801     1.2455     0.8097     0.0246     -0.001     -0.023     -0.033        265 2.0234e+03 0.0000e+00
     -0.023    27.6834     9.2703    117.806  37.483118     35.568      8.653   221.2258     1.2293     0.8097     0.0246     -0.000     -0.022     -0.032        266 2.0185e+03 0.0000e+00
     -0.022    27.6772     9.2604    117.674  37.536796     35.618      8.650   220.8851     1.2374     0.8365     0.0246     -0.000     -0.021     -0.031        267 2.0179e+03 0.0000e+00
     -0.022    27.6762     9.2517    117.539  37.543380     35.623      8.652   220.8094     1.2091     0.7291     0.0246      0.000     -0.021     -0.031        268 2.0215e+03 0.0000e+00
     -0.022    27.6759     9.2494    117.467  37.534247     35.627      8.652   220.5823     1.3102     0.7828     0.0246      0.000     -0.021     -0.031        269 2.0211e+03 0.0000e+00
     -0.022    27.6763     9.2486    117.433  37.548164     35.628      8.653   221.7180     1.3102     0.8499     0.0246      0.001     -0.021     -0.031        270 2.0165e+03 0.0000e+00
     -0.022    27.6759     9.2371    117.328  37.526062     35.628      8.651   220.5065     1.2900     0.8365     0.0246      0.001     -0.021     -0.031        271 2.0149e+03 0.0000e+00
     -0.022    27.6714     9.2285    117.238  37.502432     35.575      8.652   220.3173     1.2900     0.7022     0.0246      0.001     -0.021     -0.031        272 2.0141e+03 0.0000e+00
     -0.021    27.6700     9.2341    117.272  37.518249     35.628      8.655   220.3173     1.1484     0.7425     0.0246      0.001     -0.021     -0.030        273 2.0186e+03 0.0000e+00
     -0.021    27.6770     9.2449    117.388  37.506380     35.578      8.651   220.6580     1.1808     0.7828     0.0246      0.001     -0.021     -0.030        274 2.0216e+03 0.0000e+00
     -0.022    27.6877     9.2697    117.719  37.517205     35.632      8.650   220.3551     1.1606     0.8097     0.0246      0.000     -0.022     -0.031        275 2.0164e+03 0.0000e+00
     -0.023    27.6940     9.2936    118.024  37.504776     35.575      8.654   221.2258     1.1848     0.7828     0.0246     -0.000     -0.023     -0.033        276 2.0171e+03 0.0000e+00
     -0.024    27.6912     9.3186    118.303  37.521844     35.620      8.655   221.3394     1.1484     0.8097     0.0246     -0.001     -0.023     -0.034        277 2.0147e+03 0.0000e+00
     -0.024    27.6797     9.3366    118.474  37.555281     35.616      8.655   221.8315     1.1646     0.7157     0.0246     -0.001     -0.023     -0.034        278 2.0073e+03 0.0000e+00
     -0.023    27.6589     9.3439    118.547  37.522483     35.618      8.656   222.3615     1.1808     0.8634     0.0246     -0.001     -0.022     -0.033        279 2.0087e+03 0.0000e+00
     -0.022    27.6495     9.3522    118.659  37.503341     35.573      8.655   222.2101     1.1686     0.8365     0.0246     -0.001     -0.022     -0.031        280 2.0041e+03 0.0000e+00
     -0.020    27.6670     9.3556    118.713  37.519789     35.639      8.656   215.2065     1.1282     0.7425     0.0246     -0.000     -0.022     -0.031        281 2.0031e+03 0.0000e+00
     -0.024    27.6758     9.3468    118.625  37.502022     35.594      8.655   216.9858     1.1080     0.8365     0.0246     -0.000     -0.023     -0.034        282 1.9932e+03 0.0000e+00
     -0.025    27.6588     9.3450    118.628  37.525453     35.634      8.652   214.6387     1.1120     0.7559     0.0246     -0.000     -0.023     -0.034        283 1.9700e+03 0.0000e+00
     -0.022    27.6493     9.3402    118.560  37.490626     35.575      8.643   211.1179     1.0999     0.7962     0.0246      0.000     -0.023     -0.033        284 2.0269e+03 0.0000e+00
     -0.025    27.6561     9.3402    118.530  37.486041     35.587      8.635   212.6701     1.0999     0.8231     0.0246     -0.000     -0.024     -0.034        285 2.0191e+03 0.0000e+00
     -0.026    27.6567     9.3427    118.555  37.531162     35.647      8.636   211.2694     1.1120     0.8097     0.0246     -0.001     -0.024     -0.034        286 1.9736e+03 0.0000e+00
     -0.022    27.6382     9.3400    118.507  37.493798     35.588      8.635   206.7265     1.1080     0.7425     0.0246     -0.001     -0.018     -0.027        287 2.0016e+03 0.0000e+00
     -0.008    27.6126     9.3329    118.410  37.473219     35.588      8.639   209.2629     1.1080     0.7962     0.0246      0.003     -0.006     -0.010        288 1.9999e+03 0.0000e+00
      0.010    27.6024     9.3095    118.214  37.438133     35.547      8.632   209.6794     1.1080     0.7157     0.0245      0.011      0.009      0.012        289 1.9843e+03 0.0000e+00
      0.023    27.6052     9.2896    118.065  37.418829     35.565      8.627   208.6572     1.0959     0.8097     0.0245      0.021      0.021      0.030        290 2.0043e+03 0.0000e+00
      0.029    27.6107     9.2992    118.175  37.497252     35.625      8.627   211.6479     1.0918     0.8231     0.0246      0.029      0.029      0.043        291 1.9641e+03 0.0000e+00
      0.038    27.6223     9.2981    118.131  37.518505     35.676      8.624   210.6258     1.0878     0.8097     0.0246      0.035      0.038      0.056        292 1.8333e+03 0.0000e+00
      0.049    27.6337     9.2970    118.145  37.451702     35.566      8.622   206.2722     1.1161     0.7828     0.0245      0.041      0.049      0.072        293 1.7765e+03 0.0000e+00
      0.065    27.6302     9.2991    118.155  37.461743     35.611      8.619   210.7772     1.0433     0.7559     0.0246      0.045      0.064      0.093        294 1.6976e+03 0.0000e+00
      0.081    27.6170     9.2960    118.084  37.446682     35.550      8.615   211.6479     1.0554     0.7828     0.0245      0.047      0.079      0.115        295 1.6683e+03 0.0000e+00
      0.095    27.6135     9.2937    118.032  37.470440     35.606      8.617   208.8465     1.0352     0.7694     0.0246      0.048      0.094      0.137        296 1.4860e+03 0.0000e+00
      0.111    27.6063     9.2984    118.078  37.491500     35.615      8.620   204.7958     1.0109     0.7559     0.0246      0.049      0.111      0.160        297 1.1539e+03 0.0000e+00
      0.132    27.6055     9.3109    118.227  37.420480     35.564      8.621   202.9408     1.0999     0.7694     0.0245      0.054      0.130      0.189        298 1.1046e+03 0.0000e+00
      0.154    27.6514     9.3184    118.316  37.440185     35.569      8.617   205.4015     1.1282     0.8365     0.0245      0.061      0.151      0.220        299 1.0749e+03 0.0000e+00
      0.177    27.6999     9.3318    118.462  37.526299     35.677      8.614   209.1872     1.0999     0.6888     0.0246      0.068      0.173      0.251        300 8.5973e+02 0.0000e+00
      0.199    27.6947     9.3428    118.546  37.550590     35.645      8.608   211.3829     1.0837     0.7291     0.0246      0.073      0.194      0.281        301 9.3208e+02 0.0000e+00
      0.217    27.6826     9.3576    118.680  37.528580     35.611      8.610   204.6822     1.1727     0.7828     0.0246      0.076      0.213      0.309        302 1.0490e+03 0.0000e+00
      0.236    27.6923     9.3646    118.730  37.553673     35.615      8.610   207.4836     1.1686     0.8097     0.0246      0.079      0.232      0.336        303 9.6529e+02 0.0000e+00
      0.257    27.6872     9.3610    118.657  37.608339     35.704      8.608   216.6830     1.1848     0.8231     0.0246      0.081      0.250      0.363        304 1.0129e+03 0.0000e+00
      0.271    27.6714     9.3438    118.418  37.549533     35.616      8.611   215.1308     1.1606     0.7694     0.0246      0.080      0.265      0.385        305 9.8013e+02 0.0000e+00
      0.284    27.6606     9.3201    118.100  37.478555     35.568      8.609   210.8908     1.2091     0.7559     0.0246      0.075      0.278      0.404        306 1.0099e+03 0.0000e+00
      0.297    27.6535     9.3047    117.889  37.548369     35.631      8.612   213.2380     1.2455     0.8097     0.0246      0.070      0.291      0.423        307 1.0415e+03 0.0000e+00
      0.313    27.6493     9.2888    117.674  37.551638     35.665      8.614   210.3987     1.2576     0.8097     0.0246      0.066      0.306      0.445        308 9.4735e+02 0.0000e+00
      0.329    27.6461     9.2909    117.687  37.504154     35.590      8.618   210.9665     1.2293     0.8231     0.0246      0.062      0.322      0.469        309 9.2202e+02 0.0000e+00
      0.346    27.6344     9.2951    117.731  37.518484     35.646      8.622   204.9094     1.2212     0.7694     0.0246      0.061      0.341      0.494        310 9.3139e+02 0.0000e+00
      0.368    27.6087     9.3062    117.866  37.504148     35.595      8.622   208.5815     1.2333     0.7694     0.0246      0.061      0.361      0.523        311 8.5379e+02 0.0000e+00
      0.389    27.5830     9.3085    117.888  37.462679     35.603      8.621   205.5908     1.2293     0.8365     0.0246      0.064      0.380      0.550        312 7.8600e+02 0.0000e+00
      0.404    27.5646     9.3173    117.988  37.451457     35.568      8.621   205.2122     1.2455     0.8499     0.0245      0.067      0.396      0.574        313 8.0505e+02 0.0000e+00
      0.420    27.5515     9.3261    118.086  37.458804     35.638      8.622   204.3036     1.2657     0.7694     0.0246      0.069      0.411      0.596        314 7.7174e+02 0.0000e+00
      0.435    27.5415     9.3275    118.090  37.394228     35.544      8.622   207.0672     1.3506     0.7022     0.0245      0.070      0.425      0.617        315 7.8691e+02 0.0000e+00
      0.447    27.5333     9.3173    117.949  37.413190     35.606      8.621   210.5879     1.3668     0.8499     0.0246      0.068      0.438      0.635        316 8.2168e+02 0.0000e+00
      0.458    27.5260     9.2829    117.503  37.435212     35.613      8.624   210.2094     1.3708     0.8097     0.0246      0.064      0.449      0.652        317 7.7054e+02 0.0000e+00
      0.470    27.5194     9.2382    116.924  37.426148     35.619      8.624   207.4079     1.3749     0.7022     0.0246      0.060      0.461      0.668        318 7.4181e+02 0.0000e+00
      0.482    27.5131     9.1741    116.097  37.424476     35.623      8.625   208.1272     1.4113     0.8097     0.0246      0.055      0.474      0.686        319 7.7034e+02 0.0000e+00
      0.496    27.5085     9.1149    115.331  37.377977     35.575      8.627   212.5187     1.4396     0.8097     0.0245      0.052      0.487      0.706        320 8.0040e+02 0.0000e+00
      0.510    27.5058     9.0574    114.593  37.365379     35.579      8.627   207.1051     1.4274     0.8365     0.0245      0.051      0.503      0.730        321 8.0415e+02 0.0000e+00
      0.533    27.5024     9.0124    114.014  37.380837     35.582      8.625   204.5308     1.4194     0.8097     0.0245      0.053      0.526      0.763        322 8.1098e+02 0.0000e+00
      0.566    27.4970     9.0176    114.061  37.358741     35.584      8.619   208.6572     1.3466     0.7962     0.0245      0.060      0.556      0.806        323 7.8036e+02 0.0000e+00
      0.600    27.4906     9.0710    114.716  37.333559     35.533      8.608   211.3829     1.3587     0.8231     0.0245      0.071      0.584      0.848        324 7.4850e+02 0.0000e+00
      0.620    27.4841     9.1449    115.633  37.352859     35.590      8.601   211.7237     1.3627     0.7291     0.0245      0.081      0.606      0.879        325 7.2877e+02 0.0000e+00
      0.635    27.4783     9.2017    116.323  37.275405     35.488      8.605   211.9508     1.3668     0.8097     0.0245      0.088      0.622      0.902        326 6.9201e+02 0.0000e+00
      0.647    27.4733     9.2262    116.602  37.251990     35.492      8.605   210.9287     1.4274     0.7559     0.0245      0.089      0.636      0.922        327 6.7060e+02 0.0000e+00
      0.664    27.4670     9.2095    116.366  37.204042     35.443      8.606   211.7994     1.4274     0.7962     0.0245      0.088      0.651      0.944        328 6.7871e+02 0.0000e+00
      0.679    27.4592     9.1628    115.744  37.157121     35.393      8.604   213.3515     1.4436     0.7694     0.0244      0.083      0.666      0.966        329 7.0271e+02 0.0000e+00
      0.696    27.4515     9.0996    114.910  37.251066     35.504      8.603   212.4429     1.4194     0.7694     0.0245      0.075      0.683      0.990        330 6.8794e+02 0.0000e+00
      0.715    27.4462     9.0154    113.817  37.265091     35.509      8.598   212.5565     1.5245     0.6754     0.0245      0.067      0.702      1.017        331 6.9778e+02 0.0000e+00
      0.735    27.4414     8.9305    112.720  37.258309     35.514      8.595   211.2315     1.4881     0.8768     0.0245      0.064      0.723      1.049        332 6.9666e+02 0.0000e+00
      0.764    27.4320     8.8360    111.508  37.259510     35.518      8.578   212.3672     1.4881     0.8365     0.0245      0.068      0.748      1.085        333 7.0371e+02 0.0000e+00
      0.789    27.4223     8.7809    110.805  37.204280     35.468      8.564   210.3229     1.4679     0.8097     0.0245      0.075      0.771      1.119        334 7.0922e+02 0.0000e+00
      0.804    27.4136     8.7757    110.722  37.149086     35.421      8.556   210.4365     1.4719     0.8097     0.0244      0.079      0.789      1.144        335 7.0079e+02 0.0000e+00
      0.821    27.4001     8.8108    111.139  37.150244     35.428      8.547   212.1779     1.5043     0.8499     0.0244      0.081      0.805      1.167        336 7.2121e+02 0.0000e+00
      0.836    27.3854     8.8970    112.196  37.143526     35.433      8.547   211.6858     1.5124     0.8365     0.0244      0.081      0.821      1.190        337 6.9125e+02 0.0000e+00
      0.853    27.3728     9.0071    113.555  37.068474     35.363      8.548   212.1401     1.4881     0.7694     0.0244      0.079      0.836      1.213        338 6.7644e+02 0.0000e+00
      0.869    27.3578     9.1232    114.988  37.006373     35.319      8.545   214.1087     1.4921     0.7828     0.0244      0.075      0.851      1.234        339 6.9737e+02 0.0000e+00
      0.882    27.3406     9.2204    116.181  36.953880     35.274      8.540   216.7208     1.5447     0.7828     0.0244      0.070      0.865      1.254        340 6.8534e+02 0.0000e+00
      0.894    27.3258     9.3035    117.190  36.926192     35.258      8.534   213.5030     1.5528     0.7962     0.0244      0.063      0.878      1.273        341 6.6924e+02 0.0000e+00
      0.909    27.3132     9.3625    117.889  36.951860     35.296      8.527   212.4429     1.5528     0.7291     0.0244      0.059      0.892      1.293        342 6.6206e+02 0.0000e+00
      0.924    27.3042     9.3983    118.293  36.951605     35.306      8.523   213.8058     1.5447     0.7291     0.0244      0.058      0.906      1.314        343 6.5704e+02 0.0000e+00
      0.938    27.2993     9.3915    118.157  37.015495     35.368      8.520   212.8594     1.7428     0.8231     0.0244      0.057      0.920      1.335        344 6.5399e+02 0.0000e+00
      0.953    27.2908     9.3145    117.141  37.139292     35.508      8.517   210.4744     1.7752     0.8902     0.0244      0.056      0.938      1.360        345 6.4284e+02 0.0000e+00
      0.976    27.2775     9.1480    115.000  37.153462     35.511      8.515   212.5944     1.7388     0.8097     0.0245      0.058      0.959      1.391        346 6.2277e+02 0.0000e+00
      1.005    27.2630     8.9625    112.633  37.086844     35.463      8.502   214.9794     1.7388     0.6082     0.0244      0.063      0.984      1.427        347 6.0579e+02 0.0000e+00
      1.029    27.2483     8.8270    110.905  37.014583     35.392      8.486   216.9858     1.8803     0.8634     0.0244      0.071      1.006      1.460        348 5.9593e+02 0.0000e+00
      1.045    27.2334     8.7828    110.309  37.006118     35.402      8.478   218.1594     1.8925     0.7828     0.0244      0.076      1.025      1.486        349 5.8319e+02 0.0000e+00
      1.060    27.2176     8.8100    110.612  37.067727     35.465      8.473   216.1908     1.9086     0.8365     0.0244      0.079      1.040      1.508        350 5.6693e+02 0.0000e+00
      1.075    27.1994     8.8953    111.640  37.056558     35.475      8.475   218.6137     1.8682     0.7559     0.0244      0.079      1.054      1.528        351 5.6414e+02 0.0000e+00
      1.088    27.1789     9.0116    113.034  37.020026     35.432      8.478   218.5380     1.8965     0.7694     0.0244      0.077      1.067      1.547        352 5.5217e+02 0.0000e+00
      1.102    27.1568     9.1526    114.709  37.024220     35.472      8.481   218.5380     1.9288     0.8365     0.0244      0.072      1.080      1.566        353 5.2508e+02 0.0000e+00
      1.114    27.1332     9.3091    116.583  37.021688     35.459      8.489   217.6294     1.9612     0.8499     0.0244      0.065      1.092      1.583        354 5.3037e+02 0.0000e+00
      1.124    27.1100     9.4583    118.376  37.052848     35.527      8.492   219.3330     1.9572     0.8634     0.0244      0.057      1.102      1.598        355 5.3935e+02 0.0000e+00
      1.134    27.0872     9.5868    119.918  37.015114     35.490      8.497   219.4465     1.9450     0.7694     0.0244      0.052      1.112      1.613        356 5.3882e+02 0.0000e+00
      1.146    27.0703     9.6961    121.231  36.950020     35.452      8.507   218.5001     2.0866     1.0111     0.0244      0.049      1.125      1.631        357 5.3708e+02 0.0000e+00
      1.161    27.0566     9.7595    121.980  37.044889     35.548      8.509   218.6137     2.0299     1.0111     0.0244      0.048      1.140      1.654        358 5.2578e+02 0.0000e+00
      1.182    27.0371     9.8157    122.647  37.045361     35.587      8.510   218.0458     2.0866     1.0782     0.0244      0.049      1.158      1.679        359 5.1340e+02 0.0000e+00
      1.197    27.0168     9.8885    123.521  36.919782     35.434      8.509   217.1372     2.0866     1.0379     0.0244      0.052      1.173      1.702        360 5.0541e+02 0.0000e+00
      1.211    26.9960    10.0296    125.247  36.934241     35.502      8.505   218.1594     2.2645     0.7828     0.0244      0.054      1.188      1.723        361 5.0435e+02 0.0000e+00
      1.226    26.9630    10.2602    128.100  36.908739     35.462      8.499   218.0458     2.2604     0.7962     0.0244      0.057      1.203      1.745        362 4.9393e+02 0.0000e+00
      1.243    26.9185    10.5552    131.771  36.832893     35.422      8.486   217.4022     2.2766     0.8634     0.0243      0.060      1.219      1.768        363 4.7979e+02 0.0000e+00
      1.260    26.8765    10.8072    134.893  36.880344     35.471      8.465   218.6137     2.2685     0.8097     0.0244      0.063      1.236      1.792        364 4.7261e+02 0.0000e+00
      1.276    26.8408    10.9499    136.632  36.938680     35.583      8.452   216.8344     2.2604     0.7828     0.0244      0.063      1.251      1.815        365 4.6103e+02 0.0000e+00
      1.292    26.8099    10.9804    136.991  36.908614     35.558      8.448   219.2951     2.2645     0.8097     0.0244      0.063      1.265      1.835        366 4.4641e+02 0.0000e+00
      1.303    26.7850    10.9173    136.242  36.947443     35.636      8.450   217.8187     2.2847     0.7828     0.0244      0.061      1.277      1.852        367 4.4393e+02 0.0000e+00
      1.312    26.7654    10.7950    134.724  37.068334     35.765      8.449   219.3708     2.3090     0.8231     0.0244      0.059      1.286      1.866        368 4.4221e+02 0.0000e+00
      1.321    26.7489    10.6357    132.752  37.143758     35.864      8.452   218.5380     2.4869     0.8097     0.0245      0.055      1.295      1.879        369 4.3703e+02 0.0000e+00
      1.330    26.7330    10.4830    130.788  37.209509     35.931      8.450   219.2194     2.4869     0.7291     0.0245      0.051      1.304      1.892        370 4.3424e+02 0.0000e+00
      1.338    26.7169    10.3851    129.441  37.253457     35.997      8.452   218.4623     2.4667     0.8902     0.0245      0.046      1.313      1.904        371 4.3109e+02 0.0000e+00
      1.346    26.7056    10.3628    128.981  37.267034     36.008      8.455   218.1973     2.4788     0.8902     0.0245      0.041      1.321      1.915        372 4.2660e+02 0.0000e+00
      1.355    26.6998    10.4597    129.980  37.192621     35.965      8.458   219.8251     2.6001     0.8231     0.0245      0.037      1.329      1.927        373 4.1681e+02 0.0000e+00
      1.365    26.6909    10.6465    132.136  37.079132     35.838      8.464   218.1594     2.6203     0.7694     0.0244      0.035      1.339      1.942        374 4.0575e+02 0.0000e+00
      1.376    26.6725    10.8747    134.855  37.082018     35.868      8.465   219.9008     2.5799     0.8097     0.0244      0.035      1.348      1.956        375 3.9541e+02 0.0000e+00
      1.383    26.6663    11.1625    138.334  37.070394     35.848      8.461   221.4530     2.5799     0.7828     0.0244      0.035      1.356      1.967        376 3.9280e+02 0.0000e+00
      1.389    26.6779    11.4670    142.032  37.063943     35.860      8.463   219.8251     2.5920     0.7559     0.0244      0.034      1.363      1.978        377 3.9081e+02 0.0000e+00
      1.399    26.6851    11.7449    145.409  37.060394     35.866      8.468   218.7651     2.7295     1.0648     0.0244      0.034      1.375      1.995        378 3.8619e+02 0.0000e+00
      1.418    26.6882    12.0050    148.549  37.074814     35.855      8.466   219.8630     2.7012     0.9976     0.0244      0.037      1.393      2.021        379 3.8050e+02 0.0000e+00
      1.445    26.6656    12.2044    150.915  37.194293     35.988      8.469   219.3330     2.7457     0.9842     0.0245      0.044      1.418      2.056        380 3.6677e+02 0.0000e+00
      1.474    26.6110    12.3851    153.051  37.208299     35.983      8.492   215.2065     2.7416     1.0111     0.0245      0.053      1.443      2.094        381 3.5637e+02 0.0000e+00
      1.498    26.5336    12.5459    154.942  37.205684     36.001      8.501   214.9415     3.0004     1.1051     0.0245      0.064      1.467      2.129        382 3.4930e+02 0.0000e+00
      1.518    26.4454    12.6663    156.330  37.375520     36.200      8.509   214.6008     3.0004     1.0245     0.0246      0.074      1.486      2.155        383 3.4236e+02 0.0000e+00
      1.529    26.3762    12.7583    157.370  37.412211     36.310      8.517   214.0708     2.9721     0.9574     0.0246      0.080      1.499      2.174        384 3.3517e+02 0.0000e+00
      1.539    26.3296    12.8391    158.260  37.219382     36.155      8.528   213.7680     2.9923     0.9708     0.0245      0.081      1.509      2.189        385 3.3197e+02 0.0000e+00
      1.550    26.2936    12.9365    159.317  37.200292     36.204      8.543   213.3515     2.9842     1.0514     0.0245      0.077      1.519      2.203        386 3.2981e+02 0.0000e+00
      1.559    26.2643    13.0388    160.385  37.258041     36.291      8.550   213.0487     2.9802     0.9976     0.0245      0.068      1.528      2.216        387 3.2440e+02 0.0000e+00
      1.566    26.2397    13.1086    161.019  37.147538     36.207      8.563   213.0865     2.9964     0.9574     0.0245      0.056      1.537      2.228        388 3.2159e+02 0.0000e+00
      1.575    26.2093    13.1607    161.434  36.952252     36.037      8.580   213.3137     3.0085     0.9305     0.0244      0.047      1.546      2.242        389 3.1814e+02 0.0000e+00
      1.589    26.1725    13.2204    161.955  36.848574     35.945      8.587   212.8972     3.8981     0.9574     0.0244      0.041      1.558      2.260        390 3.1288e+02 0.0000e+00
      1.602    26.1373    13.3245    163.023  36.979982     36.103      8.596   212.9729     3.8941     1.0514     0.0244      0.039      1.570      2.278        391 3.0987e+02 0.0000e+00
      1.613    26.1030    13.4234    164.012  37.055669     36.211      8.606   213.2001     3.8738     1.0379     0.0245      0.040      1.581      2.294        392 3.0745e+02 0.0000e+00
      1.623    26.0681    13.5147    164.926  36.962018     36.127      8.619   212.3294     3.8981     1.0782     0.0244      0.041      1.591      2.309        393 3.0336e+02 0.0000e+00
      1.634    26.0347    13.6101    165.886  36.888930     36.096      8.631   212.2915     4.7998     1.2125     0.0244      0.042      1.601      2.324        394 3.0120e+02 0.0000e+00
      1.643    25.9973    13.7121    166.960  36.790729     36.012      8.643   211.9887     4.8403     1.2393     0.0243      0.043      1.613      2.340        395 2.9771e+02 0.0000e+00
      1.660    25.9476    13.8186    168.222  36.846969     36.090      8.650   212.4808     4.8645     1.2662     0.0244      0.045      1.631      2.365        396 2.9137e+02 0.0000e+00
      1.687    25.8819    13.9239    169.499  36.848618     36.143      8.665   212.7837     4.8281     1.2125     0.0244      0.050      1.654      2.398        397 2.8604e+02 0.0000e+00
      1.712    25.8059    14.0231    170.610  36.610742     35.904      8.675   213.0487     4.8403     1.1856     0.0243      0.056      1.677      2.432        398 2.8326e+02 0.0000e+00
      1.730    25.7294    14.0686    171.053  36.401546     35.786      8.687   212.7837     5.1031     1.1856     0.0242      0.063      1.695      2.459        399 2.8053e+02 0.0000e+00
      1.745    25.6583    14.0849    171.107  36.278538     35.675      8.709   212.7458     5.0829     1.2393     0.0241      0.069      1.710      2.481        400 2.7657e+02 0.0000e+00
      1.758    25.5879    14.0870    170.872  36.230003     35.729      8.730   212.6701     5.0910     1.2259     0.0241      0.072      1.724      2.500        401 2.7384e+02 0.0000e+00
      1.772    25.5153    14.0916    170.596  36.076423     35.586      8.750   212.2915     5.0869     1.1856     0.0241      0.073      1.737      2.520        402 2.7189e+02 0.0000e+00
      1.786    25.4479    14.1126    170.445  35.906190     35.497      8.771   211.2315     5.2689     1.4408     0.0240      0.071      1.751      2.540        403 2.6950e+02 0.0000e+00
      1.800    25.3807    14.1594    170.636  35.789407     35.410      8.787   210.9665     5.2689     1.4139     0.0240      0.066      1.764      2.558        404 2.6788e+02 0.0000e+00
      1.811    25.3270    14.2450    171.347  35.628631     35.319      8.797   211.0801     5.2649     1.5348     0.0239      0.059      1.773      2.572        405 2.6749e+02 0.0000e+00
      1.814    25.3146    14.3671    172.501  35.602122     35.310      8.803   210.6637     5.2770     1.4139     0.0239      0.051      1.777      2.577        406 2.6733e+02 0.0000e+00
      1.811    25.3118    14.5220    174.076  35.703797     35.488      8.812   209.6037     5.5156     1.3736     0.0239      0.043      1.780      2.582        407 2.6599e+02 0.0000e+00
      1.821    25.2820    14.6805    175.713  35.709726     35.468      8.830   209.1494     5.5075     1.4676     0.0239      0.038      1.790      2.595        408 2.6527e+02 0.0000e+00
      1.841    25.2470    14.8200    177.096  35.565095     35.358      8.838   209.5279     5.5236     1.4139     0.0239      0.036      1.806      2.619        409 2.6412e+02 0.0000e+00
      1.859    25.1999    14.9350    178.188  35.379614     35.157      8.844   209.7172     5.5236     1.5079     0.0238      0.037      1.823      2.644        410 2.5925e+02 0.0000e+00
      1.875    25.1186    15.0146    178.941  35.347416     35.182      8.851   209.9065     6.4941     1.4139     0.0238      0.039      1.839      2.669        411 2.5402e+02 0.0000e+00
      1.893    25.0114    15.0822    179.619  35.160323     35.019      8.857   209.8308     6.4658     1.4408     0.0237      0.045      1.859      2.697        412 2.4913e+02 0.0000e+00
      1.920    24.8844    15.1313    180.068  34.841389     34.743      8.857   210.2472     6.4658     1.3871     0.0236      0.055      1.882      2.731        413 2.4471e+02 0.0000e+00
      1.947    24.7654    15.1737    180.362  34.706368     34.704      8.861   210.8908     6.4699     1.4408     0.0235      0.068      1.907      2.765        414 2.4208e+02 0.0000e+00
      1.965    24.6640    15.2053    180.525  34.586988     34.654      8.866   210.2472     6.2717     1.4810     0.0235      0.077      1.927      2.795        415 2.3743e+02 0.0000e+00
      1.985    24.5660    15.2276    180.643  34.456199     34.624      8.873   210.4744     6.3162     1.4676     0.0234      0.082      1.946      2.821        416 2.3361e+02 0.0000e+00
      2.001    24.4778    15.2529    180.820  34.365033     34.582      8.879   210.3987     6.2677     1.3468     0.0234      0.082      1.961      2.845        417 2.3230e+02 0.0000e+00
      2.014    24.3970    15.2413    180.821  34.285310     34.594      8.885   210.2851     6.2677     1.3333     0.0234      0.080      1.975      2.865        418 2.2875e+02 0.0000e+00
      2.028    24.3100    15.2210    180.574  34.229245     34.571      8.892   209.9822     6.2596     1.4676     0.0233      0.077      1.990      2.886        419 2.2442e+02 0.0000e+00
      2.046    24.2258    15.2241    180.116  34.167943     34.599      8.897   210.1715     6.6640     1.4945     0.0233      0.072      2.004      2.906        420 2.2181e+02 0.0000e+00
      2.056    24.1667    15.2087    179.301  34.005771     34.462      8.898   210.0201     6.6599     1.4676     0.0233      0.065      2.014      2.921        421 2.2226e+02 0.0000e+00
      2.058    24.1278    15.1434    178.128  33.986273     34.521      8.894   210.2472     6.6397     1.4676     0.0233      0.057      2.020      2.929        422 2.2221e+02 0.0000e+00
      2.064    24.0876    15.0901    177.259  34.043966     34.620      8.896   210.1337     6.6599     1.4139     0.0233      0.050      2.026      2.938        423 2.1937e+02 0.0000e+00
      2.075    24.0244    15.0609    176.569  33.934001     34.533      8.903   209.8308     7.0966     1.6556     0.0232      0.044      2.035      2.951        424 2.1645e+02 0.0000e+00
      2.086    23.9643    15.0527    175.850  33.826590     34.447      8.904   209.8308     7.1007     1.6959     0.0232      0.040      2.045      2.965        425 2.1437e+02 0.0000e+00
      2.093    23.9164    15.0019    174.724  33.792138     34.463      8.906   209.7929     7.1047     1.6959     0.0232      0.037      2.053      2.977        426 2.1269e+02 0.0000e+00
      2.099    23.8866    14.9691    173.997  33.739660     34.450      8.907   209.9822     7.1007     1.6825     0.0232      0.033      2.061      2.989        427 2.0967e+02 0.0000e+00
      2.111    23.9220    14.9455    173.420  33.684339     34.423      8.911   209.6794     7.2260     1.7093     0.0231      0.031      2.072      3.005        428 2.0656e+02 0.0000e+00
      2.127    23.9187    14.9269    172.823  33.683076     34.449      8.912   209.5279     7.2139     1.6690     0.0231      0.035      2.087      3.028        429 2.0237e+02 0.0000e+00
      2.149    23.7743    14.8729    171.767  33.681932     34.420      8.910   209.9065     7.2301     1.6959     0.0231      0.041      2.107      3.057        430 1.9585e+02 0.0000e+00
      2.172    23.5898    14.8009    170.491  33.567140     34.307      8.906   210.0201     7.1977     1.5750     0.0231      0.049      2.128      3.088        431 1.9097e+02 0.0000e+00
      2.191    23.4674    14.6927    168.761  33.440433     34.267      8.899   210.8529     6.9753     1.6690     0.0230      0.056      2.146      3.114        432 1.8807e+02 0.0000e+00
      2.203    23.3959    14.5644    166.760  33.394850     34.371      8.894   210.2851     6.9551     1.6288     0.0230      0.062      2.161      3.135        433 1.8559e+02 0.0000e+00
      2.218    23.2873    14.4089    164.488  33.357048     34.398      8.887   210.7394     6.9794     1.7093     0.0230      0.066      2.176      3.156        434 1.8102e+02 0.0000e+00
      2.236    23.1062    14.2634    162.376  33.339260     34.450      8.875   211.1558     6.9713     1.6825     0.0230      0.070      2.191      3.178        435 1.7717e+02 0.0000e+00
      2.247    22.9439    14.1342    160.451  33.209447     34.379      8.863   211.0801     7.4201     1.4810     0.0229      0.068      2.202      3.193        436 1.7729e+02 0.0000e+00
      2.251    22.8400    14.0046    158.554  33.222107     34.513      8.856   210.8151     7.4120     1.4676     0.0229      0.062      2.209      3.203        437 1.7508e+02 0.0000e+00
      2.260    22.7467    13.8644    156.588  33.234617     34.687      8.849   211.2694     7.4039     1.4542     0.0230      0.054      2.219      3.218        438 1.7101e+02 0.0000e+00
      2.276    22.6322    13.6900    154.315  33.075332     34.529      8.841   211.0801     7.4201     1.5348     0.0229      0.049      2.233      3.238        439 1.6758e+02 0.0000e+00
      2.293    22.5008    13.4491    151.376  33.064533     34.654      8.834   211.6101     7.4322     1.4945     0.0229      0.048      2.249      3.261        440 1.6284e+02 0.0000e+00
      2.309    22.3646    13.1533    147.828  33.010867     34.620      8.820   212.0265     7.2422     1.3871     0.0228      0.049      2.264      3.283        441 1.5939e+02 0.0000e+00
      2.323    22.2148    12.8006    143.829  32.964244     34.716      8.814   212.3672     7.2381     1.4408     0.0229      0.050      2.280      3.307        442 1.5550e+02 0.0000e+00
      2.345    22.0516    12.4211    139.607  32.944688     34.757      8.796   212.6701     7.2301     1.3871     0.0228      0.053      2.300      3.336        443 1.4926e+02 0.0000e+00
      2.369    21.8965    12.0348    135.251  32.975960     34.926      8.771   213.3515     7.2503     1.5213     0.0229      0.061      2.321      3.367        444 1.4524e+02 0.0000e+00
      2.387    21.7525    11.7217    131.597  33.044013     35.107      8.745   213.8058     7.5657     1.4408     0.0229      0.068      2.341      3.396        445 1.4197e+02 0.0000e+00
      2.407    21.6065    11.4854    128.803  33.037995     35.223      8.710   214.7901     7.5293     1.4139     0.0229      0.072      2.360      3.423        446 1.3850e+02 0.0000e+00
      2.425    21.4688    11.3061    126.681  33.042826     35.332      8.667   215.6987     7.5455     1.3736     0.0229      0.075      2.377      3.448        447 1.3598e+02 0.0000e+00
      2.439    21.3434    11.1794    125.224  33.038067     35.442      8.630   215.9258     7.5455     1.4408     0.0229      0.075      2.392      3.469        448 1.3405e+02 0.0000e+00
      2.451    21.2450    11.0890    124.169  33.103293     35.608      8.595   216.4180     7.7881     1.5213     0.0229      0.073      2.404      3.486        449 1.3286e+02 0.0000e+00
      2.463    21.1651    11.0024    123.092  33.139642     35.764      8.567   216.9480     7.8043     1.3736     0.0229      0.069      2.415      3.504        450 1.3153e+02 0.0000e+00
      2.476    21.0952    10.9578    122.304  33.111503     35.781      8.533   217.6294     7.8002     1.4676     0.0229      0.063      2.427      3.521        451 1.3006e+02 0.0000e+00
      2.487    21.0781    10.9073    121.409  33.138358     35.901      8.503   217.5537     7.8043     1.4945     0.0229      0.057      2.438      3.536        452 1.2913e+02 0.0000e+00
      2.495    21.0959    10.8022    120.061  33.106261     35.899      8.480   217.9701     8.0145     1.4408     0.0229      0.052      2.446      3.548        453 1.2853e+02 0.0000e+00
      2.502    21.0870    10.6635    118.309  33.092167     35.909      8.458   218.1215     7.9700     1.4139     0.0229      0.046      2.454      3.559        454 1.2762e+02 0.0000e+00
      2.511    21.0381    10.4673    115.693  33.155907     35.957      8.437   218.8787     7.9781     1.4945     0.0229      0.042      2.462      3.571        455 1.2676e+02 0.0000e+00
      2.519    20.9793    10.2479    112.832  33.145554     35.961      8.416   218.8408     7.9862     1.4139     0.0229      0.039      2.470      3.584        456 1.2535e+02 0.0000e+00
      2.529    20.9381     9.9791    109.540  33.164366     36.003      8.400   218.9165     8.7666     1.1722     0.0229      0.037      2.479      3.596        457 1.2404e+02 0.0000e+00
      2.537    20.9194     9.6620    105.775  33.191824     36.107      8.384   219.1058     8.7666     1.3602     0.0230      0.035      2.488      3.608        458 1.2349e+02 0.0000e+00
      2.544    20.9041     9.3034    101.627  33.170715     36.081      8.373   219.1815     8.7424     1.2662     0.0230      0.033      2.496      3.620        459 1.2175e+02 0.0000e+00
      2.556    20.8564     8.9508     97.603  33.190653     36.154      8.353   220.1658     8.7262     1.2125     0.0230      0.033      2.506      3.635        460 1.2034e+02 0.0000e+00
      2.566    20.7384     8.5735     93.325  33.285642     36.229      8.333   222.2858     8.7383     1.1856     0.0230      0.035      2.515      3.649        461 1.1946e+02 0.0000e+00
      2.574    20.6013     8.2461     89.638  33.349062     36.386      8.313   223.0808     9.1912     1.2528     0.0231      0.035      2.525      3.663        462 1.1743e+02 0.0000e+00
      2.587    20.5248     7.9575     86.469  33.378648     36.451      8.292   224.6330     9.1912     1.2393     0.0230      0.037      2.537      3.680        463 1.1555e+02 0.0000e+00
      2.600    20.4308     7.7073     83.822  33.426801     36.685      8.271   225.6173     9.1629     1.2662     0.0231      0.039      2.551      3.700        464 1.1342e+02 0.0000e+00
      2.616    20.2441     7.5306     81.955  33.437464     36.684      8.245   225.5794     9.1710     1.2259     0.0231      0.042      2.566      3.722        465 1.1132e+02 0.0000e+00
      2.633    20.0485     7.4280     80.954  33.543352     36.941      8.222   225.8444     9.1427     1.2662     0.0232      0.046      2.582      3.745        466 1.0896e+02 0.0000e+00
      2.650    19.8959     7.3985     80.541  33.591628     37.098      8.203   225.7687     9.1831     1.2125     0.0232      0.051      2.599      3.769        467 1.0681e+02 0.0000e+00
      2.666    19.7614     7.4452     80.791  33.674014     37.382      8.188   226.1851     9.1953     1.2259     0.0232      0.055      2.614      3.791        468 1.0524e+02 0.0000e+00
      2.679    19.6525     7.5470     81.625  33.737463     37.571      8.177   226.1851     9.1629     1.1856     0.0232      0.058      2.627      3.809        469 1.0397e+02 0.0000e+00
      2.689    19.5619     7.6652     82.660  33.749986     37.684      8.162   226.9423     9.4258     1.2662     0.0233      0.059      2.637      3.825        470 1.0288e+02 0.0000e+00
      2.701    19.4775     7.7720     83.573  33.806770     37.871      8.150   228.0023     9.4177     1.2796     0.0233      0.057      2.648      3.841        471 1.0162e+02 0.0000e+00
      2.713    19.4061     7.8549     84.208  33.755813     37.852      8.129   228.1537     9.4379     1.1722     0.0233      0.055      2.660      3.858        472 1.0087e+02 0.0000e+00
      2.724    19.3935     7.8777     84.183  33.724476     37.926      8.106   228.9866     9.4177     1.3468     0.0233      0.052      2.672      3.875        473 9.9675e+01 0.0000e+00
      2.736    19.4265     7.8525     83.713  33.638219     37.859      8.086   229.9330    12.2361     1.4542     0.0232      0.049      2.682      3.891        474 9.8885e+01 0.0000e+00
      2.745    19.4711     7.7820     82.831  33.566633     37.811      8.068   230.8794    12.2644     1.4676     0.0232      0.046      2.691      3.903        475 9.8763e+01 0.0000e+00
      2.751    19.5297     7.6569     81.377  33.635639     37.838      8.048   231.6366    12.2482     1.4945     0.0232      0.043      2.698      3.913        476 9.8478e+01 0.0000e+00
      2.758    19.4803     7.5107     79.724  33.611642     37.810      8.029   232.0909    12.2725     1.4542     0.0232      0.040      2.706      3.925        477 9.7808e+01 0.0000e+00
      2.769    19.3195     7.3458     77.884  33.537166     37.624      8.009   232.6587    17.2179     1.5616     0.0232      0.039      2.716      3.940        478 9.6752e+01 0.0000e+00
      2.783    19.1564     7.1877     76.077  33.550378     37.734      7.987   233.3023    17.2057     1.6422     0.0232      0.038      2.731      3.961        479 9.5513e+01 0.0000e+00
      2.803    19.0095     7.0729     74.714  33.476602     37.744      7.965   234.7787    17.2098     1.6153     0.0231      0.040      2.750      3.988        480 9.3560e+01 0.0000e+00
      2.827    18.8693     6.9730     73.550  33.451108     37.885      7.945   235.3466    17.2340     1.7362     0.0231      0.046      2.772      4.019        481 9.1678e+01 0.0000e+00
      2.847    18.7178     6.9012     72.706  33.463556     38.010      7.923   235.7252    17.2098     1.6288     0.0232      0.054      2.792      4.049        482 9.0314e+01 0.0000e+00
      2.867    18.5626     6.8418     71.995  33.461181     38.132      7.902   236.4066    13.9910     1.3871     0.0232      0.062      2.811      4.077        483 8.9089e+01 0.0000e+00
      2.885    18.4447     6.8083     71.595  33.513442     38.328      7.880   236.4444    14.0315     1.4408     0.0232      0.070      2.829      4.104        484 8.7962e+01 0.0000e+00
      2.904    18.3661     6.7488     70.970  33.487553     38.434      7.861   237.0502    13.9829     1.4273     0.0232      0.075      2.847      4.129        485 8.6873e+01 0.0000e+00
      2.920    18.2934     6.7120     70.529  33.463812     38.506      7.838   237.4666    14.0193     1.5750     0.0232      0.077      2.862      4.151        486 8.6300e+01 0.0000e+00
      2.930    18.2318     6.6787     70.112  33.454076     38.574      7.822   238.0345    12.3857     1.3871     0.0232      0.074      2.873      4.167        487 8.5988e+01 0.0000e+00
      2.939    18.1752     6.6308     69.594  33.410743     38.575      7.804   237.8073    12.3736     1.3199     0.0232      0.068      2.882      4.180        488 8.5669e+01 0.0000e+00
      2.947    18.0913     6.5733     69.052  33.399151     38.630      7.791   238.2616    12.3897     1.5482     0.0232      0.060      2.890      4.192        489 8.5467e+01 0.0000e+00
      2.954    17.9961     6.5274     68.467  33.409221     38.680      7.775   238.1102    12.3776     1.4945     0.0232      0.053      2.897      4.202        490 8.5036e+01 0.0000e+00
      2.962    17.9233     6.4677     67.605  33.427896     38.788      7.761   238.6780     8.4351     1.2528     0.0232      0.045      2.904      4.213        491 8.4576e+01 0.0000e+00
      2.969    17.8663     6.4324     66.977  33.405603     38.843      7.746   238.6780     8.4310     1.2125     0.0232      0.039      2.912      4.224        492 8.4082e+01 0.0000e+00
      2.979    17.8077     6.3997     66.409  33.407349     38.907      7.734   238.7159     8.4391     1.2259     0.0232      0.034      2.921      4.237        493 8.3683e+01 0.0000e+00
      2.988    17.7785     6.3468     65.660  33.455413     39.025      7.722   239.0187     8.4310     1.2931     0.0232      0.032      2.931      4.251        494 8.2945e+01 0.0000e+00
      3.001    17.7734     6.2724     64.747  33.464438     39.078      7.707   239.0187     8.4432     1.0111     0.0232      0.033      2.943      4.269        495 8.1973e+01 0.0000e+00
      3.015    17.7411     6.1684     63.561  33.455452     39.107      7.695   239.2459     8.4310     0.9976     0.0232      0.036      2.958      4.289        496 8.0754e+01 0.0000e+00
      3.032    17.6904     6.0209     61.958  33.496266     39.139      7.682   240.5709     8.4108     0.9036     0.0232      0.040      2.973      4.312        497 7.9222e+01 0.0000e+00
      3.049    17.6871     5.8811     60.479  33.502620     39.206      7.669   241.2523     8.4027     0.9842     0.0232      0.046      2.988      4.333        498 7.8715e+01 0.0000e+00
      3.057    17.7201     5.7503     59.061  33.477213     39.183      7.652   241.4416     8.8192     1.1051     0.0232      0.049      2.999      4.349        499 7.8178e+01 0.0000e+00
      3.070    17.6535     5.6198     57.617  33.498245     39.259      7.639   241.4795     8.7869     1.0379     0.0232      0.052      3.012      4.368        500 7.6827e+01 0.0000e+00
      3.087    17.4832     5.5113     56.443  33.476448     39.153      7.625   241.8202     8.7869     0.9574     0.0232      0.054      3.027      4.391        501 7.5459e+01 0.0000e+00
      3.105    17.3001     5.4186     55.481  33.504338     39.285      7.609   242.0473     8.7990     0.9439     0.0232      0.056      3.045      4.416        502 7.4254e+01 0.0000e+00
      3.123    17.1325     5.3461     54.740  33.493224     39.408      7.591   242.9180     8.7990     0.8902     0.0232      0.058      3.063      4.442        503 7.2886e+01 0.0000e+00
      3.143    16.9892     5.3037     54.262  33.520005     39.615      7.579   243.2966     9.0133     1.0514     0.0233      0.061      3.080      4.467        504 7.2062e+01 0.0000e+00
      3.156    16.8817     5.2794     53.951  33.619369     39.903      7.563   243.5238     8.9850     1.0648     0.0233      0.062      3.094      4.487        505 7.1781e+01 0.0000e+00
      3.165    16.7972     5.2564     53.662  33.577232     39.975      7.549   243.7130     8.9607     0.9842     0.0233      0.062      3.104      4.502        506 7.1109e+01 0.0000e+00
      3.176    16.7346     5.2558     53.580  33.513198     40.009      7.536   243.8645     8.9729     1.0379     0.0233      0.061      3.113      4.515        507 7.0934e+01 0.0000e+00
      3.181    16.7007     5.2413     53.328  33.580488     40.157      7.522   244.2809     7.8730     0.9976     0.0233      0.057      3.122      4.527        508 7.0536e+01 0.0000e+00
      3.191    16.6419     5.2066     52.856  33.552840     40.218      7.510   244.6973     7.8528     1.0379     0.0233      0.051      3.132      4.542        509 6.9303e+01 0.0000e+00
      3.209    16.5580     5.1455     52.109  33.488322     40.115      7.498   244.7352     7.8528     1.0245     0.0233      0.047      3.144      4.560        510 6.8856e+01 0.0000e+00
      3.216    16.5051     5.0467     50.989  33.542180     40.306      7.486   245.0759     7.8649     0.9842     0.0233      0.043      3.150      4.570        511 6.9210e+01 0.0000e+00
      3.213    16.4958     4.9212     49.626  33.545154     40.322      7.474   244.9623     7.6102     1.0648     0.0233      0.037      3.150      4.570        512 6.9678e+01 0.0000e+00
      3.209    16.4945     4.7752     48.074  33.543966     40.440      7.463   245.3409     7.6061     0.9842     0.0233      0.030      3.150      4.569        513 6.9505e+01 0.0000e+00
      3.215    16.4576     4.6289     46.533  33.543681     40.382      7.452   245.6059     7.6061     0.9842     0.0233      0.025      3.155      4.576        514 6.8660e+01 0.0000e+00
      3.227    16.4034     4.4723     44.899  33.604825     40.516      7.439   245.4166     7.5940     1.0245     0.0234      0.023      3.164      4.589        515 6.8341e+01 0.0000e+00
      3.235    16.3542     4.3527     43.642  33.586501     40.486      7.426   245.5680     7.3999     0.8097     0.0233      0.022      3.175      4.605        516 6.7905e+01 0.0000e+00
      3.250    16.2870     4.2538     42.618  33.685124     40.674      7.415   245.7573     7.4120     0.7828     0.0234      0.022      3.191      4.628        517 6.6454e+01 0.0000e+00
      3.277    16.1951     4.1837     41.892  33.867639     40.958      7.403   246.4009     7.4282     0.8097     0.0235      0.029      3.215      4.662        518 6.5013e+01 0.0000e+00
      3.305    16.0886     4.1361     41.385  33.893196     41.025      7.388   246.7038     7.4322     0.8097     0.0235      0.043      3.240      4.699        519 6.4100e+01 0.0000e+00
      3.328    15.9746     4.1084     41.071  33.920254     41.185      7.372   247.7259     7.6668     1.0111     0.0235      0.058      3.264      4.734        520 6.2789e+01 0.0000e+00
      3.353    15.8655     4.0802     40.768  33.922975     41.258      7.358   248.0666     7.6668     1.0111     0.0235      0.073      3.286      4.765        521 6.1902e+01 0.0000e+00
      3.369    15.7746     4.0614     40.548  33.919516     41.406      7.344   248.1802     7.6749     0.9976     0.0236      0.081      3.302      4.789        522 6.1543e+01 0.0000e+00
      3.380    15.6970     4.0486     40.401  33.835643     41.381      7.331   248.8995     7.6829     1.0245     0.0235      0.083      3.315      4.808        523 6.0842e+01 0.0000e+00
      3.393    15.6293     4.0281     40.166  33.819810     41.473      7.320   248.9373     7.6385     1.0379     0.0235      0.082      3.326      4.824        524 6.0458e+01 0.0000e+00
      3.401    15.5656     4.0044     39.858  33.820639     41.552      7.304   248.6345     6.5912     1.0111     0.0235      0.075      3.336      4.838        525 6.0251e+01 0.0000e+00
      3.412    15.5072     3.9638     39.387  33.834650     41.621      7.292   248.7102     6.5993     1.0111     0.0235      0.064      3.346      4.852        526 5.9682e+01 0.0000e+00
      3.422    15.4693     3.9277     38.943  33.891376     41.789      7.283   248.9752     6.5912     0.9842     0.0236      0.055      3.355      4.866        527 5.9205e+01 0.0000e+00
      3.429    15.4448     3.8841     38.428  33.839042     41.748      7.269   249.2402     6.5993     1.0514     0.0235      0.047      3.363      4.878        528 5.9042e+01 0.0000e+00
      3.437    15.4090     3.8328     37.841  33.870147     41.854      7.259   249.3159     6.3930     0.8097     0.0236      0.041      3.371      4.889        529 5.8602e+01 0.0000e+00
      3.447    15.3699     3.7754     37.197  33.941654     41.950      7.249   249.9973     6.4011     0.7559     0.0236      0.038      3.381      4.903        530 5.8034e+01 0.0000e+00
      3.457    15.3421     3.7080     36.450  33.928004     41.985      7.241   250.3759     6.3971     0.8365     0.0236      0.036      3.391      4.918        531 5.7517e+01 0.0000e+00
      3.471    15.3071     3.6262     35.562  33.946461     42.029      7.229   250.6031     6.4254     0.8902     0.0236      0.037      3.403      4.936        532 5.6978e+01 0.0000e+00
      3.482    15.2853     3.5489     34.724  34.007670     42.158      7.220   251.0952     6.0938     0.8365     0.0236      0.038      3.415      4.953        533 5.6274e+01 0.0000e+00
      3.494    15.2463     3.4638     33.818  34.000128     42.163      7.212   250.4895     6.0776     0.7559     0.0236      0.040      3.426      4.970        534 5.5753e+01 0.0000e+00
      3.506    15.1670     3.3582     32.726  34.044831     42.254      7.202   250.8302     6.0736     0.7828     0.0237      0.042      3.439      4.989        535 5.5206e+01 0.0000e+00
      3.521    15.0853     3.2648     31.766  34.100333     42.362      7.192   251.3981     6.0695     0.8499     0.0237      0.045      3.453      5.009        536 5.4440e+01 0.0000e+00
      3.538    14.9873     3.1618     30.719  34.109016     42.450      7.186   251.5873     6.2151     1.1051     0.0237      0.049      3.469      5.033        537 5.3799e+01 0.0000e+00
      3.555    14.8855     3.0430     29.518  34.182342     42.637      7.176   252.7609     6.1949     1.0648     0.0238      0.052      3.487      5.058        538 5.2825e+01 0.0000e+00
      3.576    14.7906     2.9443     28.500  34.216716     42.780      7.164   252.7231     6.2030     1.0514     0.0238      0.057      3.507      5.087        539 5.2028e+01 0.0000e+00
      3.597    14.6919     2.8566     27.586  34.303536     42.992      7.150   253.4045     6.2151     1.0245     0.0238      0.062      3.527      5.117        540 5.1171e+01 0.0000e+00
      3.618    14.5888     2.7593     26.608  34.459883     43.307      7.138   253.5181     5.6571     0.7022     0.0239      0.067      3.547      5.146        541 5.0289e+01 0.0000e+00
      3.638    14.4812     2.6807     25.850  34.526360     43.484      7.125   253.7452     5.6369     0.8634     0.0240      0.072      3.566      5.173        542 4.9721e+01 0.0000e+00
      3.654    14.3754     2.5933     25.023  34.636053     43.739      7.112   254.0102     5.6369     0.7559     0.0240      0.075      3.584      5.198        543 4.8932e+01 0.0000e+00
      3.673    14.2763     2.5021     24.133  34.768279     44.035      7.098   254.6538     5.6166     0.8231     0.0241      0.076      3.601      5.223        544 4.8346e+01 0.0000e+00
      3.688    14.1908     2.4290     23.387  34.836375     44.225      7.086   254.5781     5.6369     0.7291     0.0242      0.075      3.616      5.244        545 4.7918e+01 0.0000e+00
      3.699    14.1191     2.3541     22.611  34.936908     44.478      7.075   255.2595     4.7877     1.0648     0.0242      0.072      3.628      5.262        546 4.7397e+01 0.0000e+00
      3.713    14.0527     2.2819     21.867  34.999108     44.647      7.066   255.5624     4.7917     0.9842     0.0243      0.067      3.642      5.282        547 4.6851e+01 0.0000e+00
      3.730    13.9796     2.2189     21.235  35.055588     44.800      7.054   255.9031     4.7917     0.9036     0.0243      0.063      3.660      5.308        548 4.6061e+01 0.0000e+00
      3.754    13.8832     2.1382     20.441  35.252210     45.127      7.041   256.6981     4.7837     0.9842     0.0244      0.063      3.683      5.341        549 4.5019e+01 0.0000e+00
      3.782    13.7781     2.0562     19.631  35.466246     45.497      7.023   257.4174     4.4642     0.7828     0.0246      0.066      3.707      5.376        550 4.4230e+01 0.0000e+00
      3.802    13.7129     1.9621     18.715  35.530720     45.682      7.008   258.0988     4.4763     0.8365     0.0246      0.071      3.727      5.405        551 4.3762e+01 0.0000e+00
      3.817    13.7126     1.8441     17.564  35.527922     45.808      6.993   258.7045     4.4763     0.7559     0.0246      0.074      3.743      5.428        552 4.3268e+01 0.0000e+00
      3.831    13.7382     1.7387     16.524  35.588411     45.957      6.979   258.6667     4.4683     0.8768     0.0247      0.076      3.756      5.447        553 4.2926e+01 0.0000e+00
      3.841    13.7200     1.6538     15.685  35.633426     46.030      6.968   258.6667     4.3712     0.9439     0.0247      0.075      3.766      5.462        554 4.2625e+01 0.0000e+00
      3.849    13.6417     1.5665     14.825  35.649860     45.996      6.956   258.8181     4.4157     0.9842     0.0247      0.070      3.776      5.477        555 4.2251e+01 0.0000e+00
      3.860    13.5317     1.5176     14.331  35.745908     46.163      6.942   258.8938     4.3833     1.0379     0.0247      0.062      3.787      5.492        556 4.1798e+01 0.0000e+00
      3.874    13.4294     1.4838     13.985  36.018112     46.582      6.933   259.2345     4.4036     0.9976     0.0249      0.054      3.799      5.510        557 4.1252e+01 0.0000e+00
      3.886    13.3671     1.4589     13.727  36.349221     47.188      6.921   259.6509     4.0235     0.9976     0.0251      0.048      3.811      5.527        558 4.0867e+01 0.0000e+00
      3.898    13.3192     1.4725     13.838  36.312664     47.241      6.911   259.8024     4.0032     1.0379     0.0251      0.046      3.823      5.545        559 4.0473e+01 0.0000e+00
      3.911    13.2629     1.5468     14.518  36.122973     47.063      6.899   260.0295     4.0235     1.0648     0.0250      0.045      3.837      5.565        560 3.9870e+01 0.0000e+00
      3.928    13.2168     1.6802     15.754  36.170086     47.193      6.886   260.1052     4.0396     0.9439     0.0250      0.047      3.853      5.588        561 3.9269e+01 0.0000e+00
      3.947    13.1520     1.8874     17.697  36.194738     47.302      6.874   260.2945     3.6231     1.1453     0.0251      0.051      3.870      5.614        562 3.8593e+01 0.0000e+00
      3.966    13.0575     2.1562     20.224  36.270277     47.429      6.861   261.6195     3.6353     1.2931     0.0251      0.056      3.889      5.640        563 3.7953e+01 0.0000e+00
      3.982    12.9632     2.4826     23.279  36.461686     47.803      6.852   261.6952     3.6070     1.2393     0.0252      0.060      3.905      5.664        564 3.7472e+01 0.0000e+00
      3.997    12.8657     2.8431     26.646  36.431130     47.850      6.836   261.8467     3.6312     1.2125     0.0252      0.062      3.921      5.687        565 3.6878e+01 0.0000e+00
      4.015    12.7714     3.2278     30.244  36.189708     47.673      6.826   262.4524     3.6312     1.2259     0.0251      0.065      3.937      5.711        566 3.6252e+01 0.0000e+00
      4.033    12.6858     3.5611     33.391  35.872383     47.354      6.812   262.9445     3.2349     1.4139     0.0249      0.067      3.954      5.736        567 3.5693e+01 0.0000e+00
      4.050    12.6110     3.8378     35.987  35.639701     47.176      6.799   263.2095     3.2511     1.4676     0.0248      0.068      3.970      5.759        568 3.5205e+01 0.0000e+00
      4.064    12.5556     4.0780     38.160  35.530226     47.134      6.788   262.9067     3.2269     1.4408     0.0248      0.067      3.985      5.780        569 3.4650e+01 0.0000e+00
      4.078    12.4995     4.2768     39.917  35.415484     47.081      6.778   263.0960     3.2552     1.4408     0.0247      0.065      3.999      5.800        570 3.4112e+01 0.0000e+00
      4.092    12.4555     4.4435     41.410  35.248676     46.925      6.763   264.2695     2.9155     1.7496     0.0246      0.063      4.012      5.819        571 3.3636e+01 0.0000e+00
      4.104    12.4565     4.6121     42.951  35.174333     46.885      6.754   264.6102     2.9074     1.5616     0.0246      0.061      4.024      5.837        572 3.3109e+01 0.0000e+00
      4.117    12.4686     4.7955     44.628  35.241100     47.053      6.744   265.1402     2.9115     1.6959     0.0246      0.058      4.036      5.854        573 3.2710e+01 0.0000e+00
      4.127    12.4576     4.9999     46.565  35.254578     47.051      6.731   265.0645     2.9276     1.6556     0.0246      0.055      4.047      5.869        574 3.2366e+01 0.0000e+00
      4.135    12.4335     5.2334     48.870  35.246539     47.034      6.720   265.5945     2.6688     1.8302     0.0246      0.051      4.056      5.883        575 3.1946e+01 0.0000e+00
      4.145    12.4251     5.4734     51.208  35.102812     46.863      6.711   266.0867     2.6607     1.9107     0.0245      0.047      4.066      5.897        576 3.1500e+01 0.0000e+00
      4.157    12.4553     5.7090     53.463  35.077549     46.817      6.700   266.4274     2.6527     1.8705     0.0245      0.045      4.079      5.915        577 3.1004e+01 0.0000e+00
      4.174    12.4553     5.9473     55.642  35.159354     47.017      6.689   267.0331     2.6688     1.8167     0.0246      0.045      4.094      5.938        578 3.0437e+01 0.0000e+00
      4.193    12.3660     6.1162     57.081  34.971351     46.641      6.682   267.3360     2.8629     2.3941     0.0244      0.047      4.112      5.963        579 2.9820e+01 0.0000e+00
      4.212    12.2524     6.2120     57.901  34.748005     46.415      6.670   267.4874     2.8589     2.3941     0.0243      0.051      4.131      5.990        580 2.9215e+01 0.0000e+00
      4.230    12.1855     6.2414     58.126  34.666205     46.342      6.663   267.7524     2.8589     2.3941     0.0243      0.056      4.147      6.015        581 2.8775e+01 0.0000e+00
      4.244    12.1533     6.2130     57.819  34.746951     46.671      6.656   268.8124     2.8427     2.2867     0.0244      0.060      4.162      6.036        582 2.8279e+01 0.0000e+00
      4.260    12.1238     6.1803     57.413  34.647565     46.568      6.648   269.1910     2.7295     2.8776     0.0243      0.064      4.176      6.056        583 2.7755e+01 0.0000e+00
      4.270    12.1595     6.1557     57.120  34.552661     46.493      6.642   270.0995     2.7376     2.8238     0.0243      0.064      4.187      6.072        584 2.7457e+01 0.0000e+00
      4.279    12.2714     6.1257     56.843  34.687129     46.720      6.635   270.9324     2.7376     2.8238     0.0243      0.061      4.197      6.087        585 2.7081e+01 0.0000e+00
      4.290    12.3583     6.1425     56.965  34.628516     46.603      6.628   271.0838     2.7295     2.7164     0.0243      0.057      4.207      6.102        586 2.6641e+01 0.0000e+00
      4.301    12.3986     6.1920     57.318  34.536614     46.306      6.623   271.3867     2.4707     3.9384     0.0242      0.052      4.217      6.116        587 2.6293e+01 0.0000e+00
      4.309    12.3549     6.2458     57.739  34.623512     46.352      6.617   271.9545     2.4667     3.8712     0.0243      0.047      4.226      6.129        588 2.6014e+01 0.0000e+00
      4.317    12.2530     6.3002     58.187  34.579648     46.225      6.611   272.2195     2.4586     3.8712     0.0242      0.043      4.234      6.141        589 2.5755e+01 0.0000e+00
      4.326    12.1902     6.3579     58.657  34.442900     46.090      6.606   272.7874     2.4586     3.9518     0.0242      0.039      4.242      6.154        590 2.5428e+01 0.0000e+00
      4.336    12.1577     6.4165     59.157  34.467480     46.262      6.599   272.2574     2.4667     3.8712     0.0242      0.037      4.252      6.168        591 2.5063e+01 0.0000e+00
      4.347    12.1191     6.4748     59.687  34.460125     46.332      6.594   272.4845     2.6971     4.8380     0.0242      0.037      4.263      6.183        592 2.4730e+01 0.0000e+00
      4.357    12.0470     6.5407     60.321  34.363112     46.229      6.586   272.4467     2.6810     4.8380     0.0241      0.037      4.273      6.197        593 2.4391e+01 0.0000e+00
      4.367    11.9958     6.6055     60.925  34.350970     46.269      6.582   273.3174     2.6607     4.7038     0.0241      0.037      4.283      6.211        594 2.4062e+01 0.0000e+00
      4.377    11.9958     6.6933     61.711  34.415943     46.441      6.577   273.5824     2.6648     4.7575     0.0242      0.038      4.293      6.226        595 2.3762e+01 0.0000e+00
      4.388    11.9674     6.7845     62.534  34.430571     46.541      6.571   273.7338     2.6648     5.5900     0.0242      0.039      4.304      6.243        596 2.3382e+01 0.0000e+00
      4.402    11.8907     6.8487     63.115  34.362444     46.428      6.568   273.9231     2.6769     5.6571     0.0242      0.041      4.318      6.263        597 2.2930e+01 0.0000e+00
      4.419    11.8304     6.8920     63.490  34.293135     46.385      6.563   275.2103     2.6891     5.5497     0.0241      0.044      4.334      6.286        598 2.2456e+01 0.0000e+00
      4.438    11.7889     6.9279     63.814  34.309242     46.486      6.557   275.9296     2.6446     5.5631     0.0241      0.048      4.352      6.312        599 2.1982e+01 0.0000e+00
      4.458    11.7433     6.9417     63.935  34.342428     46.636      6.549   276.6867     2.6446     6.0868     0.0242      0.053      4.372      6.340        600 2.1436e+01 0.0000e+00
      4.479    11.7123     6.9469     63.962  34.311177     46.612      6.546   277.0653     2.6607     6.0734     0.0241      0.060      4.391      6.369        601 2.0948e+01 0.0000e+00
      4.497    11.7079     6.9641     64.099  34.318499     46.710      6.539   277.7846     2.6769     6.0734     0.0242      0.066      4.409      6.395        602 2.0590e+01 0.0000e+00
      4.511    11.7251     6.9755     64.169  34.362993     46.786      6.535   278.0117     2.6405     5.9928     0.0242      0.069      4.424      6.417        603 2.0183e+01 0.0000e+00
      4.526    11.7302     6.9896     64.256  34.404104     46.869      6.529   278.1631     2.3898     6.2480     0.0242      0.070      4.438      6.437        604 1.9744e+01 0.0000e+00
      4.540    11.7137     7.0096     64.399  34.474940     46.921      6.521   278.8446     2.4181     6.3420     0.0243      0.069      4.452      6.457        605 1.9273e+01 0.0000e+00
      4.553    11.7015     7.0258     64.520  34.452778     46.915      6.519   279.3367     2.3979     6.3688     0.0243      0.066      4.465      6.476        606 1.8873e+01 0.0000e+00
      4.565    11.6925     7.0526     64.744  34.490997     46.937      6.511   279.0339     2.4060     6.1943     0.0243      0.062      4.477      6.493        607 1.8620e+01 0.0000e+00
      4.577    11.6781     7.0761     64.943  34.634985     47.219      6.508   279.5260     2.5475     6.0331     0.0244      0.057      4.488      6.510        608 1.8279e+01 0.0000e+00
      4.589    11.6726     7.1058     65.206  34.599829     47.115      6.505   279.6396     2.5071     6.0868     0.0243      0.053      4.501      6.528        609 1.7855e+01 0.0000e+00
      4.603    11.6678     7.1312     65.430  34.623727     47.212      6.502   279.9424     2.5192     5.9928     0.0244      0.051      4.514      6.547        610 1.7499e+01 0.0000e+00
      4.616    11.6544     7.1630     65.713  34.634907     47.217      6.499   280.3210     2.5475     6.0600     0.0244      0.051      4.527      6.566        611 1.7209e+01 0.0000e+00
      4.629    11.6388     7.1892     65.947  34.645234     47.224      6.495   280.6996     2.5314     6.0734     0.0244      0.050      4.541      6.586        612 1.6865e+01 0.0000e+00
      4.646    11.6161     7.2141     66.172  34.699850     47.356      6.493   280.8889     2.9964     6.0063     0.0244      0.051      4.557      6.609        613 1.6425e+01 0.0000e+00
      4.666    11.5867     7.2308     66.335  34.715232     47.337      6.489   280.8889     2.9762     6.0197     0.0244      0.054      4.576      6.636        614 1.5963e+01 0.0000e+00
      4.686    11.5595     7.2246     66.317  34.744730     47.482      6.488   281.0781     2.9802     6.0868     0.0245      0.058      4.595      6.664        615 1.5568e+01 0.0000e+00
      4.704    11.5404     7.2209     66.318  34.722466     47.405      6.484   280.7753     2.9964     6.0600     0.0244      0.062      4.613      6.690        616 1.5269e+01 0.0000e+00
      4.720    11.5253     7.2247     66.343  34.802268     47.632      6.479   281.0781     2.5233     5.9928     0.0245      0.066      4.628      6.713        617 1.4993e+01 0.0000e+00
      4.735    11.5143     7.2202     66.269  34.853036     47.656      6.476   281.5703     2.5394     6.0734     0.0245      0.067      4.643      6.734        618 1.4749e+01 0.0000e+00
      4.749    11.5077     7.2110     66.151  34.807586     47.676      6.471   281.4946     2.4990     6.0197     0.0245      0.068      4.657      6.753        619 1.4504e+01 0.0000e+00
      4.761    11.5013     7.1976     66.007  34.799521     47.614      6.466   282.2896     2.5273     6.1137     0.0245      0.066      4.668      6.770        620 1.4288e+01 0.0000e+00
      4.770    11.4960     7.1972     65.988  34.863078     47.776      6.463   282.4789     2.5192     6.3017     0.0245      0.061      4.678      6.785        621 1.4137e+01 0.0000e+00
      4.779    11.4919     7.1909     65.921  34.847125     47.707      6.461   282.8196     2.5314     6.3688     0.0245      0.055      4.687      6.797        622 1.3957e+01 0.0000e+00
      4.788    11.4894     7.1887     65.895  34.819378     47.715      6.457   283.1982     2.5192     6.2211     0.0245      0.050      4.696      6.810        623 1.3807e+01 0.0000e+00
      4.798    11.4965     7.1794     65.805  34.838297     47.720      6.454   283.6524     2.5475     6.2614     0.0245      0.045      4.706      6.825        624 1.3625e+01 0.0000e+00
      4.810    11.5217     7.1778     65.788  34.823582     47.723      6.449   283.8039     2.2847     6.6105     0.0245      0.042      4.718      6.842        625 1.3374e+01 0.0000e+00
      4.825    11.5439     7.1742     65.756  34.778375     47.638      6.447   283.7282     2.2766     6.6642     0.0245      0.042      4.731      6.862        626 1.3159e+01 0.0000e+00
      4.839    11.5382     7.1777     65.795  34.775922     47.605      6.443   283.7282     2.2564     6.6642     0.0245      0.042      4.745      6.881        627 1.2973e+01 0.0000e+00
      4.852    11.5162     7.1659     65.718  34.826626     47.651      6.443   283.8417     2.3090     6.5971     0.0245      0.045      4.758      6.901        628 1.2754e+01 0.0000e+00
      4.865    11.4950     7.1531     65.617  34.774582     47.583      6.438   284.4474     2.1108     7.1074     0.0245      0.047      4.772      6.921        629 1.2472e+01 0.0000e+00
      4.883    11.4803     7.1534     65.621  34.781375     47.611      6.436   284.7503     2.1310     7.0536     0.0245      0.051      4.788      6.945        630 1.2178e+01 0.0000e+00
      4.901    11.4705     7.1484     65.562  34.818180     47.716      6.433   284.9017     2.1229     7.1208     0.0245      0.055      4.806      6.970        631 1.1891e+01 0.0000e+00
      4.919    11.4640     7.1431     65.497  34.788105     47.658      6.430   285.6967     2.1351     7.0268     0.0245      0.059      4.823      6.995        632 1.1593e+01 0.0000e+00
      4.935    11.4607     7.1334     65.412  34.759495     47.671      6.425   285.9996     2.1391     7.0939     0.0245      0.061      4.838      7.018        633 1.1300e+01 0.0000e+00
      4.948    11.4571     7.1390     65.455  34.705500     47.565      6.420   285.9996     2.1957     7.3356     0.0244      0.062      4.853      7.039        634 1.1018e+01 0.0000e+00
      4.964    11.4560     7.1304     65.361  34.766331     47.684      6.419   286.4160     2.2200     7.3088     0.0245      0.063      4.868      7.060        635 1.0761e+01 0.0000e+00
      4.980    11.4560     7.1346     65.389  34.772767     47.689      6.414   287.3246     2.2079     7.2819     0.0245      0.064      4.883      7.082        636 1.0507e+01 0.0000e+00
      4.995    11.4622     7.1406     65.442  34.727149     47.614      6.410   287.6653     2.1957     7.3088     0.0244      0.063      4.897      7.102        637 1.0279e+01 0.0000e+00
      5.006    11.4812     7.1413     65.452  34.763789     47.690      6.405   287.8546     2.1472     7.3625     0.0245      0.061      4.909      7.120        638 1.0170e+01 0.0000e+00
      5.016    11.4926     7.1441     65.477  34.786486     47.683      6.403   288.1575     2.1674     7.3625     0.0245      0.057      4.920      7.136        639 9.9545e+00 0.0000e+00
      5.029    11.4930     7.1566     65.591  34.758214     47.656      6.401   288.6496     2.1432     7.2685     0.0245      0.054      4.932      7.154        640 9.6664e+00 0.0000e+00
      5.043    11.4845     7.1559     65.594  34.709992     47.528      6.398   289.2932     2.1149     7.2953     0.0244      0.053      4.946      7.174        641 9.4701e+00 0.0000e+00
      5.059    11.4749     7.1568     65.621  34.757519     47.642      6.392   289.7096     2.0623     7.4833     0.0245      0.052      4.961      7.196        642 9.2667e+00 0.0000e+00
      5.074    11.4756     7.1561     65.639  34.788042     47.652      6.391   290.0503     2.0785     7.4968     0.0245      0.052      4.977      7.219        643 9.0117e+00 0.0000e+00
      5.091    11.4711     7.1560     65.645  34.760985     47.666      6.386   289.8989     2.0825     7.5773     0.0245      0.053      4.995      7.244        644 8.6723e+00 0.0000e+00
      5.114    11.4605     7.1553     65.624  34.791194     47.664      6.385   290.6560     2.0785     7.4833     0.0245      0.057      5.016      7.274        645 8.3125e+00 0.0000e+00
      5.139    11.4535     7.1554     65.610  34.869080     47.824      6.380   290.6560     2.0946     7.9802     0.0245      0.064      5.037      7.306        646 8.0212e+00 0.0000e+00
      5.158    11.4523     7.1498     65.557  34.901322     47.837      6.377   290.8075     2.0785     8.0205     0.0245      0.070      5.057      7.334        647 7.8049e+00 0.0000e+00
      5.173    11.4544     7.1401     65.470  34.929020     47.924      6.373   290.5425     2.0987     8.0205     0.0246      0.073      5.072      7.356        648 7.6311e+00 0.0000e+00
      5.185    11.4544     7.1470     65.531  34.953246     47.925      6.369   290.7317     2.1027     7.9399     0.0246      0.073      5.084      7.374        649 7.5252e+00 0.0000e+00
      5.195    11.4545     7.1454     65.514  34.871176     47.846      6.367   291.1103     1.6862     7.9130     0.0245      0.071      5.094      7.389        650 7.4052e+00 0.0000e+00
      5.205    11.4600     7.1385     65.438  34.853208     47.769      6.369   291.1482     1.6781     7.9533     0.0245      0.066      5.104      7.403        651 7.2715e+00 0.0000e+00
      5.214    11.4728     7.1430     65.458  34.916290     47.923      6.366   291.4132     1.6862     7.9533     0.0246      0.059      5.114      7.418        652 7.1662e+00 0.0000e+00
      5.225    11.4886     7.1327     65.348  34.911301     47.838      6.364   291.6782     1.7064     7.9130     0.0245      0.052      5.125      7.433        653 6.9929e+00 0.0000e+00
      5.238    11.4929     7.1375     65.384  34.918728     47.898      6.362   291.4510     1.6862     7.9802     0.0246      0.046      5.137      7.451        654 6.8482e+00 0.0000e+00
      5.251    11.4837     7.1274     65.290  34.907042     47.800      6.360   292.0189     1.6862     8.3427     0.0245      0.044      5.148      7.467        655 6.7279e+00 0.0000e+00
      5.261    11.4744     7.1310     65.318  34.925840     47.871      6.363   291.7917     1.7024     8.4501     0.0246      0.043      5.158      7.481        656 6.6356e+00 0.0000e+00
      5.267    11.4726     7.1234     65.243  34.895334     47.807      6.358   291.7160     1.7186     8.4233     0.0245      0.042      5.165      7.492        657 6.5641e+00 0.0000e+00
      5.274    11.4739     7.1194     65.203  34.826378     47.743      6.356   292.0567     1.7064     8.4233     0.0245      0.041      5.174      7.504        658 6.4729e+00 0.0000e+00
      5.285    11.4725     7.1168     65.179  34.893026     47.822      6.354   292.5110     1.6094     8.3024     0.0245      0.040      5.185      7.520        659 6.2943e+00 0.0000e+00
      5.301    11.4705     7.1095     65.111  34.931023     47.896      6.352   292.5868     1.6377     8.3830     0.0246      0.040      5.200      7.542        660 6.0198e+00 0.0000e+00
      5.322    11.4625     7.0944     64.971  34.897722     47.822      6.349   293.0032     1.6296     8.4233     0.0245      0.043      5.220      7.571        661 5.7985e+00 0.0000e+00
      5.348    11.4489     7.0890     64.919  34.875154     47.824      6.350   293.3060     1.6094     8.3964     0.0245      0.049      5.243      7.605        662 5.5835e+00 0.0000e+00
      5.370    11.4381     7.0824     64.858  34.840480     47.758      6.346   293.3439     1.4962     8.3562     0.0245      0.057      5.265      7.636        663 5.4109e+00 0.0000e+00
      5.388    11.4331     7.0803     64.838  34.822246     47.776      6.343   293.6089     1.4962     8.3159     0.0245      0.065      5.283      7.663        664 5.2808e+00 0.0000e+00
      5.404    11.4313     7.0767     64.804  34.779220     47.714      6.338   293.7982     1.4800     8.3024     0.0245      0.072      5.299      7.686        665 5.1687e+00 0.0000e+00
      5.419    11.4286     7.0791     64.825  34.686425     47.605      6.336   294.4039     1.4800     8.3830     0.0244      0.076      5.313      7.707        666 5.0533e+00 0.0000e+00
      5.432    11.4247     7.0829     64.860  34.700468     47.607      6.335   294.2903     1.3547     8.3562     0.0244      0.075      5.327      7.727        667 4.9607e+00 0.0000e+00
      5.447    11.4225     7.0869     64.896  34.761745     47.726      6.334   294.3660     1.3425     8.2890     0.0245      0.071      5.341      7.747        668 4.8692e+00 0.0000e+00
      5.460    11.4221     7.1024     65.037  34.699141     47.616      6.333   294.5175     1.3587     8.4233     0.0244      0.066      5.354      7.766        669 4.7302e+00 0.0000e+00
      5.472    11.4214     7.1008     65.022  34.689405     47.619      6.331   294.6310     1.3870     8.4099     0.0244      0.060      5.366      7.783        670 4.6601e+00 0.0000e+00
      5.484    11.4204     7.0998     65.013  34.714548     47.658      6.331   294.4796     1.3789     8.5173     0.0244      0.055      5.379      7.802        671 4.5668e+00 0.0000e+00
      5.498    11.4190     7.1038     65.049  34.697510     47.621      6.330   294.6310     1.3951     8.5844     0.0244      0.053      5.392      7.822        672 4.4635e+00 0.0000e+00
      5.514    11.4180     7.1155     65.157  34.680951     47.622      6.330   295.0096     1.3587     8.5576     0.0244      0.053      5.407      7.843        673 4.3970e+00 0.0000e+00
      5.530    11.4175     7.1140     65.143  34.705499     47.624      6.326   295.1610     1.3668     8.5844     0.0244      0.053      5.423      7.865        674 4.2772e+00 0.0000e+00
      5.545    11.4170     7.1129     65.133  34.755936     47.740      6.326   294.9339     1.3587     8.5307     0.0245      0.055      5.438      7.888        675 4.1688e+00 0.0000e+00
      5.561    11.4166     7.1130     65.134  34.796132     47.741      6.323   294.9718     1.3668     8.8261     0.0245      0.056      5.456      7.913        676 4.0364e+00 0.0000e+00
      5.584    11.4164     7.1106     65.114  34.803764     47.818      6.323   295.1989     1.3708     8.8664     0.0245      0.060      5.476      7.943        677 3.9129e+00 0.0000e+00
      5.607    11.4161     7.1052     65.073  34.716778     47.627      6.319   295.6153     1.3668     8.8127     0.0244      0.065      5.496      7.972        678 3.8188e+00 0.0000e+00
      5.623    11.4157     7.0946     64.977  34.756095     47.742      6.316   295.8046     1.3789     8.7053     0.0245      0.069      5.513      7.995        679 3.7393e+00 0.0000e+00
      5.635    11.4156     7.0826     64.865  34.784493     47.742      6.313   295.6910     1.3506     8.4501     0.0245      0.070      5.526      8.014        680 3.6768e+00 0.0000e+00
      5.646    11.4154     7.0781     64.821  34.770411     47.743      6.315   295.9939     1.3587     8.3696     0.0245      0.068      5.538      8.032        681 3.5925e+00 0.0000e+00
      5.661    11.4152     7.0700     64.745  34.773620     47.743      6.314   296.1453     1.3789     8.3159     0.0245      0.066      5.552      8.052        682 3.5093e+00 0.0000e+00
      5.676    11.4155     7.0627     64.676  34.721184     47.667      6.310   296.2210     1.3506     8.4233     0.0244      0.064      5.564      8.070        683 3.4469e+00 0.0000e+00
      5.684    11.4156     7.0645     64.690  34.687378     47.629      6.307   296.2210     1.3223     8.5710     0.0244      0.059      5.574      8.084        684 3.4373e+00 0.0000e+00
      5.691    11.4156     7.0662     64.704  34.637746     47.551      6.308   296.2968     1.3061     8.5307     0.0244      0.052      5.581      8.094        685 3.4064e+00 0.0000e+00
      5.698    11.4153     7.0821     64.854  34.634661     47.551      6.305   296.7132     1.2980     8.5844     0.0244      0.046      5.587      8.103        686 3.3649e+00 0.0000e+00
      5.701    11.4171     7.0906     64.935  34.691217     47.628      6.303   296.2589     1.2900     8.5307     0.0244      0.040      5.591      8.110        687 3.3472e+00 0.0000e+00
      5.706    11.4219     7.0959     64.985  34.774968     47.743      6.303   296.8268     1.3183     8.7590     0.0245      0.035      5.595      8.115        688 3.3161e+00 0.0000e+00
      5.709    11.4233     7.1137     65.145  34.767695     47.742      6.303   296.9782     1.3142     8.8396     0.0245      0.029      5.600      8.121        689 3.2794e+00 0.0000e+00
      5.716    11.4213     7.1301     65.292  34.700267     47.619      6.303   297.1296     1.3061     8.7993     0.0244      0.024      5.605      8.130        690 3.2747e+00 0.0000e+00
      5.722    11.4199     7.1364     65.347  34.769907     47.733      6.302   296.9403     1.3061     8.7858     0.0245      0.021      5.612      8.140        691 3.2538e+00 0.0000e+00
      5.730    11.4184     7.1379     65.360  34.770004     47.736      6.300   297.7353     1.2980     8.5576     0.0245      0.021      5.621      8.153        692 3.1727e+00 0.0000e+00
      5.743    11.4170     7.1485     65.458  34.700149     47.622      6.300   297.7353     1.2859     8.6247     0.0244      0.023      5.632      8.169        693 3.1020e+00 0.0000e+00
      5.756    11.4156     7.1460     65.436  34.767867     47.739      6.301   297.9246     1.3102     8.6247     0.0245      0.027      5.645      8.187        694 3.0280e+00 0.0000e+00
      5.768    11.4150     7.1449     65.425  34.774702     47.741      6.298   297.9246     1.3061     8.5979     0.0245      0.033      5.657      8.205        695 2.9723e+00 0.0000e+00
      5.781    11.4174     7.1409     65.385  34.691643     47.628      6.298   298.0382     1.2536     8.5576     0.0244      0.038      5.670      8.224        696 2.9300e+00 0.0000e+00
      5.796    11.4202     7.1297     65.279  34.693286     47.629      6.298   298.4546     1.4153     8.8127     0.0244      0.043      5.684      8.244        697 2.8489e+00 0.0000e+00
      5.811    11.4207     7.1131     65.127  34.772658     47.741      6.298   298.6061     1.4274     8.8127     0.0245      0.048      5.699      8.265        698 2.7885e+00 0.0000e+00
      5.827    11.4186     7.1055     65.057  34.770813     47.737      6.298   298.9089     1.4315     8.8261     0.0245      0.052      5.714      8.288        699 2.7335e+00 0.0000e+00
      5.843    11.4162     7.0883     64.897  34.725239     47.660      6.295   298.9468     1.4355     8.8530     0.0244      0.055      5.729      8.310        700 2.6848e+00 0.0000e+00
      5.857    11.4147     7.0773     64.796  34.681085     47.624      6.292   298.7953     1.4234     8.6247     0.0244      0.056      5.743      8.330        701 2.6297e+00 0.0000e+00
      5.871    11.4142     7.0696     64.725  34.707132     47.627      6.292   299.0982     1.4274     8.5576     0.0244      0.057      5.757      8.350        702 2.5648e+00 0.0000e+00
      5.885    11.4148     7.0639     64.674  34.752141     47.744      6.290   299.1739     1.4355     8.5844     0.0245      0.058      5.771      8.370        703 2.5038e+00 0.0000e+00
      5.898    11.4155     7.0559     64.602  34.714047     47.630      6.291   299.4011     1.4436     8.6516     0.0244      0.058      5.784      8.390        704 2.4217e+00 0.0000e+00
      5.913    11.4146     7.0557     64.601  34.754539     47.744      6.289   299.8175     1.3627     8.5307     0.0245      0.057      5.798      8.409        705 2.3897e+00 0.0000e+00
      5.926    11.4123     7.0575     64.616  34.731406     47.667      6.286   299.5525     1.3466     8.5576     0.0244      0.056      5.810      8.427        706 2.3652e+00 0.0000e+00
      5.936    11.4105     7.0623     64.656  34.683521     47.629      6.284   299.5146     1.3830     8.6113     0.0244      0.054      5.820      8.441        707 2.3078e+00 0.0000e+00
      5.942    11.4102     7.0583     64.618  34.695502     47.632      6.286   299.7418     1.3587     8.6247     0.0244      0.051      5.829      8.453        708 2.2838e+00 0.0000e+00
      5.952    11.4099     7.0634     64.662  34.686840     47.635      6.282   300.0446     1.3627     8.6650     0.0244      0.047      5.838      8.466        709 2.2450e+00 0.0000e+00
      5.964    11.4084     7.0697     64.718  34.694301     47.635      6.282   300.3096     1.3668     8.5576     0.0244      0.045      5.848      8.482        710 2.1969e+00 0.0000e+00
      5.974    11.4076     7.0731     64.749  34.686215     47.635      6.283   300.3096     1.3789     8.5844     0.0244      0.042      5.859      8.497        711 2.1912e+00 0.0000e+00
      5.985    11.4079     7.0750     64.765  34.726560     47.676      6.279   300.3853     1.3587     8.5844     0.0244      0.041      5.869      8.512        712 2.1522e+00 0.0000e+00
      5.994    11.4088     7.0809     64.817  34.762725     47.754      6.280   300.6503     1.3627     8.5307     0.0245      0.039      5.879      8.527        713 2.0879e+00 0.0000e+00
      6.005    11.4097     7.0861     64.864  34.700525     47.638      6.278   300.5368     1.3627     8.5844     0.0244      0.039      5.890      8.542        714 2.0698e+00 0.0000e+00
      6.018    11.4099     7.0941     64.937  34.685337     47.637      6.278   300.9153     1.3425     8.5441     0.0244      0.041      5.903      8.562        715 2.0293e+00 0.0000e+00
      6.036    11.4089     7.0881     64.880  34.692654     47.636      6.278   300.8775     1.3749     8.5576     0.0244      0.044      5.918      8.584        716 1.9537e+00 0.0000e+00
      6.050    11.4067     7.0879     64.876  34.691420     47.635      6.277   300.9911     1.3708     8.6516     0.0244      0.047      5.932      8.604        717 1.9000e+00 0.0000e+00
      6.062    11.4051     7.0847     64.845  34.716529     47.675      6.276   301.2939     1.2536     8.6113     0.0244      0.049      5.945      8.623        718 1.8595e+00 0.0000e+00
      6.077    11.4039     7.0837     64.835  34.691062     47.640      6.274   301.2561     1.2212     8.5307     0.0244      0.051      5.958      8.642        719 1.8293e+00 0.0000e+00
      6.089    11.4026     7.0795     64.797  34.693455     47.642      6.275   301.3318     1.2374     8.4904     0.0244      0.053      5.971      8.660        720 1.7897e+00 0.0000e+00
      6.100    11.4019     7.0769     64.774  34.683896     47.643      6.272   301.2939     1.2616     8.5979     0.0244      0.053      5.982      8.676        721 1.7530e+00 0.0000e+00
      6.110    11.4013     7.0809     64.810  34.702961     47.645      6.272   301.5211     1.3506     8.5576     0.0244      0.052      5.992      8.691        722 1.7503e+00 0.0000e+00
      6.121    11.4004     7.0777     64.780  34.758703     47.761      6.273   301.3696     1.3466     8.5844     0.0245      0.050      6.003      8.706        723 1.7364e+00 0.0000e+00
      6.132    11.3999     7.0812     64.812  34.703500     47.647      6.270   301.4075     1.3587     8.5576     0.0244      0.047      6.014      8.722        724 1.6941e+00 0.0000e+00
      6.146    11.3992     7.0826     64.825  34.682687     47.648      6.270   301.8618     1.3466     8.5441     0.0244      0.046      6.026      8.740        725 1.6664e+00 0.0000e+00
      6.157    11.3979     7.0766     64.770  34.695630     47.649      6.266   301.5589     1.2455     8.6247     0.0244      0.045      6.038      8.758        726 1.6619e+00 0.0000e+00
      6.168    11.3965     7.0847     64.845  34.687394     47.649      6.267   302.1268     1.2333     8.5307     0.0244      0.045      6.049      8.773        727 1.6191e+00 0.0000e+00
      6.179    11.3953     7.0814     64.814  34.692938     47.651      6.267   302.0889     1.2253     8.5710     0.0244      0.045      6.059      8.788        728 1.5663e+00 0.0000e+00
      6.189    11.3949     7.0850     64.852  34.718388     47.691      6.265   302.3539     1.2253     8.5441     0.0244      0.045      6.070      8.804        729 1.5314e+00 0.0000e+00
      6.201    11.3951     7.0814     64.826  34.685380     47.655      6.263   302.0132     1.2131     8.6113     0.0244      0.045      6.081      8.819        730 1.5107e+00 0.0000e+00
      6.211    11.3955     7.0881     64.890  34.704358     47.655      6.264   302.3539     1.2697     8.5844     0.0244      0.044      6.091      8.834        731 1.4856e+00 0.0000e+00
      6.222    11.3956     7.0923     64.925  34.754085     47.770      6.264   302.1646     1.2091     8.5441     0.0245      0.044      6.101      8.848        732 1.4659e+00 0.0000e+00
      6.229    11.3951     7.0929     64.928  34.653153     47.577      6.263   302.2782     1.2212     8.5576     0.0244      0.042      6.109      8.861        733 1.4703e+00 0.0000e+00
      6.238    11.3948     7.0933     64.928  34.622363     47.577      6.261   302.8082     1.1808     8.5979     0.0244      0.040      6.118      8.873        734 1.4305e+00 0.0000e+00
      6.250    11.3947     7.0805     64.808  34.673773     47.616      6.260   302.9975     1.1606     8.5844     0.0244      0.039      6.128      8.888        735 1.4003e+00 0.0000e+00
      6.259    11.3952     7.0713     64.720  34.678148     47.655      6.261   302.8082     1.1808     8.5844     0.0244      0.039      6.138      8.902        736 1.3708e+00 0.0000e+00
      6.269    11.3954     7.0621     64.635  34.646575     47.579      6.259   303.1489     1.1606     8.6247     0.0244      0.038      6.148      8.916        737 1.3614e+00 0.0000e+00
      6.279    11.3953     7.0454     64.480  34.683406     47.655      6.261   303.1489     1.1606     8.5844     0.0244      0.038      6.158      8.931        738 1.3477e+00 0.0000e+00
      6.290    11.3983     7.0400     64.429  34.691628     47.654      6.259   303.3761     1.1323     8.5844     0.0244      0.038      6.168      8.946        739 1.3247e+00 0.0000e+00
      6.301    11.4032     7.0284     64.321  34.695659     47.655      6.258   303.4896     1.1161     8.6516     0.0244      0.039      6.179      8.962        740 1.3289e+00 0.0000e+00
      6.311    11.4044     7.0303     64.338  34.708048     47.689      6.256   303.4139     1.1242     8.6247     0.0244      0.040      6.190      8.978        741 1.3015e+00 0.0000e+00
      6.324    11.4023     7.0325     64.359  34.646552     47.567      6.259   304.0575     1.0878     8.5576     0.0244      0.041      6.203      8.996        742 1.2501e+00 0.0000e+00
      6.341    11.4003     7.0361     64.391  34.623899     47.566      6.257   304.2089     1.2253     8.6247     0.0244      0.043      6.219      9.018        743 1.2005e+00 0.0000e+00
      6.357    11.3982     7.0431     64.454  34.647267     47.569      6.257   304.2089     1.2455     8.5576     0.0244      0.047      6.234      9.041        744 1.1892e+00 0.0000e+00
      6.372    11.3960     7.0390     64.416  34.676788     47.648      6.255   304.1711     1.2455     8.6247     0.0244      0.051      6.248      9.062        745 1.1745e+00 0.0000e+00
      6.384    11.3941     7.0495     64.512  34.646475     47.574      6.257   304.4739     1.2293     8.5576     0.0244      0.053      6.261      9.080        746 1.1519e+00 0.0000e+00
      6.396    11.3928     7.0527     64.543  34.596018     47.538      6.253   304.6632     1.4598     8.6516     0.0244      0.054      6.272      9.097        747 1.1213e+00 0.0000e+00
      6.407    11.3917     7.0525     64.542  34.591295     47.503      6.255   304.8146     1.4881     8.6516     0.0244      0.054      6.283      9.113        748 1.1160e+00 0.0000e+00
      6.418    11.3907     7.0436     64.463  34.622696     47.581      6.255   304.9282     1.4719     8.5979     0.0244      0.053      6.294      9.128        749 1.1000e+00 0.0000e+00
      6.428    11.3901     7.0504     64.524  34.586598     47.506      6.247   304.8904     1.5002     8.5979     0.0244      0.050      6.304      9.143        750 1.0882e+00 0.0000e+00
      6.440    11.3898     7.0399     64.426  34.576905     47.507      6.251   304.8904     1.5487     8.6113     0.0244      0.047      6.314      9.158        751 1.0869e+00 0.0000e+00
      6.449    11.3898     7.0396     64.423  34.605103     47.546      6.250   305.2689     1.5609     8.5710     0.0244      0.044      6.323      9.172        752 1.0444e+00 0.0000e+00
      6.457    11.3894     7.0459     64.478  34.581164     47.508      6.251   305.2689     1.5407     8.5576     0.0244      0.042      6.333      9.186        753 9.9643e-01 0.0000e+00
      6.470    11.3888     7.0465     64.482  34.577039     47.508      6.251   305.1554     1.5407     8.6247     0.0244      0.041      6.344      9.202        754 9.9040e-01 0.0000e+00
      6.481    11.3882     7.0493     64.506  34.580580     47.509      6.249   305.4961     1.6498     8.6247     0.0244      0.041      6.355      9.217        755 9.9563e-01 0.0000e+00
      6.491    11.3883     7.0591     64.596  34.576757     47.509      6.247   305.4961     1.6822     8.5441     0.0244      0.041      6.365      9.232        756 9.7842e-01 0.0000e+00
      6.502    11.3888     7.0579     64.584  34.581796     47.510      6.248   305.6475     1.6701     8.6381     0.0244      0.041      6.376      9.248        757 9.9708e-01 0.0000e+00
      6.513    11.3902     7.0652     64.649  34.603967     47.548      6.246   305.7989     1.7064     8.5844     0.0244      0.041      6.387      9.264        758 9.3782e-01 0.0000e+00
      6.525    11.3915     7.0656     64.651  34.578824     47.509      6.245   305.9882     1.4962     8.6247     0.0244      0.042      6.399      9.281        759 8.9555e-01 0.0000e+00
      6.538    11.3907     7.0569     64.570  34.524113     47.431      6.246   306.3289     1.4800     8.6113     0.0243      0.044      6.413      9.301        760 9.2633e-01 0.0000e+00
      6.555    11.3898     7.0551     64.552  34.523764     47.429      6.245   306.3289     1.4921     8.4904     0.0243      0.046      6.429      9.324        761 8.9464e-01 0.0000e+00
      6.573    11.3888     7.0474     64.480  34.579258     47.507      6.245   306.1775     1.4921     8.5844     0.0244      0.049      6.444      9.347        762 8.5837e-01 0.0000e+00
      6.586    11.3877     7.0385     64.398  34.573683     47.508      6.242   306.0639     1.5164     8.5844     0.0244      0.052      6.458      9.367        763 8.3079e-01 0.0000e+00
      6.599    11.3866     7.0376     64.388  34.560360     47.471      6.243   306.7075     1.5366     8.5979     0.0243      0.055      6.472      9.386        764 8.0227e-01 0.0000e+00
      6.612    11.3856     7.0337     64.355  34.566182     47.511      6.241   307.0482     1.5487     8.5576     0.0244      0.056      6.484      9.405        765 8.2082e-01 0.0000e+00
      6.624    11.3851     7.0331     64.355  34.536781     47.435      6.240   307.2375     1.5245     8.5039     0.0243      0.056      6.496      9.423        766 7.8887e-01 0.0000e+00
      6.638    11.3846     7.0254     64.287  34.567291     47.514      6.242   307.5782     1.5487     8.6247     0.0244      0.055      6.509      9.442        767 7.4262e-01 0.0000e+00
      6.653    11.3840     7.0221     64.256  34.528213     47.437      6.240   307.5404     1.6296     8.3562     0.0243      0.054      6.523      9.462        768 7.7146e-01 0.0000e+00
      6.666    11.3830     7.0138     64.181  34.526100     47.438      6.237   307.5404     1.6256     8.2756     0.0243      0.053      6.537      9.481        769 7.5621e-01 0.0000e+00
      6.678    11.3819     7.0040     64.096  34.540266     47.477      6.237   307.4268     1.6256     8.3159     0.0243      0.052      6.550      9.499        770 7.1142e-01 0.0000e+00
      6.692    11.3808     6.9929     64.002  34.480926     47.363      6.235   307.5404     1.6013     8.3024     0.0243      0.052      6.562      9.517        771 6.9640e-01 0.0000e+00
      6.704    11.3801     6.9831     63.914  34.451660     47.365      6.237   307.7675     1.4517     8.3159     0.0243      0.052      6.575      9.536        772 6.9813e-01 0.0000e+00
      6.718    11.3793     6.9740     63.826  34.428402     47.289      6.235   307.8432     1.3991     8.3293     0.0243      0.052      6.588      9.555        773 7.0507e-01 0.0000e+00
      6.732    11.3783     6.9726     63.806  34.450556     47.367      6.231   308.0325     1.4274     8.3964     0.0243      0.052      6.601      9.574        774 6.7530e-01 0.0000e+00
      6.743    11.3798     6.9752     63.822  34.424089     47.291      6.231   308.5247     1.4517     8.4233     0.0243      0.052      6.611      9.589        775 6.5883e-01 0.0000e+00
      6.750    11.3834     6.9761     63.826  34.431682     47.331      6.230   308.2975     1.3668     8.3964     0.0243      0.049      6.619      9.600        776 6.7986e-01 0.0000e+00
      6.757    11.3850     6.9867     63.924  34.411449     47.291      6.230   308.2597     1.3991     8.3293     0.0243      0.046      6.628      9.612        777 6.5179e-01 0.0000e+00
      6.767    11.3848     6.9908     63.962  34.360296     47.209      6.227   308.4489     1.3668     8.4367     0.0242      0.044      6.638      9.627        778 6.5217e-01 0.0000e+00
      6.780    11.3853     7.0015     64.054  34.406368     47.284      6.231   308.7897     1.3587     8.3562     0.0243      0.042      6.650      9.644        779 6.6287e-01 0.0000e+00
      6.794    11.3885     7.0078     64.106  34.413427     47.284      6.228   308.7518     1.6660     8.4233     0.0243      0.041      6.663      9.663        780 6.3514e-01 0.0000e+00
      6.807    11.3932     7.0142     64.162  34.410826     47.283      6.226   308.6004     1.6660     8.3964     0.0243      0.042      6.676      9.682        781 6.0934e-01 0.0000e+00
      6.820    11.3946     7.0136     64.154  34.439262     47.318      6.226   308.7897     1.7105     8.4367     0.0243      0.043      6.689      9.702        782 5.8387e-01 0.0000e+00
      6.836    11.3918     7.0141     64.159  34.467009     47.350      6.226   309.0547     1.6620     8.3562     0.0243      0.046      6.703      9.723        783 5.8365e-01 0.0000e+00
      6.851    11.3866     7.0108     64.130  34.405950     47.272      6.227   309.1304     1.6862     8.3293     0.0243      0.051      6.717      9.743        784 5.7304e-01 0.0000e+00
      6.864    11.3815     7.0142     64.157  34.366962     47.198      6.226   309.0925     1.3142     8.3696     0.0242      0.053      6.731      9.762        785 5.6986e-01 0.0000e+00
      6.876    11.3786     7.0130     64.139  34.396902     47.282      6.225   309.1682     1.2980     8.3830     0.0243      0.054      6.743      9.780        786 5.7407e-01 0.0000e+00
      6.888    11.3794     7.0116     64.115  34.398350     47.250      6.223   309.4711     1.2859     8.4233     0.0242      0.054      6.755      9.798        787 5.4247e-01 0.0000e+00
      6.901    11.3798     7.0132     64.124  34.454135     47.369      6.223   309.7739     1.2819     8.3024     0.0243      0.053      6.768      9.816        788 5.2395e-01 0.0000e+00
      6.914    11.3759     7.0076     64.070  34.475768     47.368      6.222   309.8118     1.3668     8.3696     0.0243      0.052      6.780      9.833        789 5.0054e-01 0.0000e+00
      6.924    11.3719     7.0081     64.071  34.460401     47.367      6.221   309.6604     1.3668     8.3427     0.0243      0.051      6.790      9.848        790 4.9343e-01 0.0000e+00
      6.935    11.3700     6.9923     63.922  34.473259     47.373      6.221   309.8118     1.3506     8.3562     0.0243      0.048      6.801      9.864        791 5.0563e-01 0.0000e+00
      6.948    11.3684     6.9933     63.930  34.459767     47.378      6.222   309.8118     1.3627     8.4233     0.0243      0.047      6.813      9.881        792 4.7109e-01 0.0000e+00
      6.959    11.3686     6.9714     63.727  34.447536     47.342      6.220   309.8497     1.3668     8.3830     0.0243      0.046      6.823      9.896        793 4.7795e-01 0.0000e+00
      6.967    11.3692     6.9547     63.570  34.458825     47.382      6.219   310.3039     1.3627     8.4501     0.0243      0.045      6.832      9.910        794 4.8475e-01 0.0000e+00
      6.976    11.3668     6.9449     63.478  34.416063     47.305      6.218   310.1525     1.3749     8.3696     0.0243      0.043      6.841      9.923        795 4.6007e-01 0.0000e+00
      6.985    11.3615     6.9229     63.276  34.411781     47.304      6.217   310.3797     1.3749     8.3562     0.0243      0.041      6.851      9.937        796 4.7086e-01 0.0000e+00
      6.999    11.3545     6.9066     63.125  34.464153     47.385      6.217   310.3039     1.3425     8.2756     0.0243      0.041      6.863      9.955        797 4.7126e-01 0.0000e+00
      7.013    11.3504     6.8787     62.868  34.469517     47.391      6.215   310.0768     1.3587     8.3024     0.0243      0.042      6.876      9.973        798 4.5935e-01 0.0000e+00
      7.022    11.3489     6.8281     62.405  34.494080     47.439      6.218   310.2282     1.3627     8.3964     0.0243      0.042      6.887      9.988        799 4.6873e-01 0.0000e+00
      7.032    11.3458     6.7731     61.900  34.463245     47.406      6.215   310.1904     1.3587     8.3562     0.0243      0.042      6.896     10.002        800 4.5276e-01 0.0000e+00
      7.042    11.3431     6.7178     61.390  34.418919     47.331      6.217   310.3039     1.1565     8.1279     0.0243      0.042      6.906     10.017        801 4.4310e-01 0.0000e+00
      7.053    11.3422     6.6478     60.746  34.460271     47.412      6.214   310.0768     1.1606     8.0339     0.0243      0.043      6.917     10.033        802 4.4207e-01 0.0000e+00
      7.066    11.3401     6.5753     60.079  34.471101     47.416      6.216   310.6447     1.1686     8.2622     0.0243      0.043      6.929     10.050        803 4.3371e-01 0.0000e+00
      7.080    11.3375     6.5315     59.676  34.464759     47.416      6.216   310.5311     1.1484     8.1279     0.0243      0.044      6.943     10.070        804 4.3539e-01 0.0000e+00
      7.093    11.3356     6.5035     59.419  34.497822     47.458      6.214   310.7582     1.1565     8.1144     0.0243      0.045      6.955     10.087        805 4.3635e-01 0.0000e+00
      7.103    11.3344     6.5007     59.392  34.518927     47.500      6.215   310.5689     1.0352     8.2219     0.0243      0.045      6.965     10.102        806 4.2358e-01 0.0000e+00
      7.112    11.3334     6.5214     59.578  34.527467     47.502      6.212   310.6825     1.0069     8.1682     0.0243      0.046      6.974     10.115        807 4.1816e-01 0.0000e+00
      7.120    11.3327     6.5489     59.827  34.576167     47.580      6.212   310.9475     1.0352     8.2084     0.0244      0.045      6.982     10.127        808 4.3541e-01 0.0000e+00
      7.129    11.3318     6.5831     60.138  34.576952     47.582      6.213   310.7961     1.0312     8.1547     0.0244      0.043      6.992     10.141        809 3.8724e-01 0.0000e+00
      7.141    11.3299     6.6207     60.481  34.585806     47.583      6.212   310.9475     1.0756     7.9265     0.0244      0.042      7.004     10.158        810 3.7860e-01 0.0000e+00
      7.155    11.3271     6.6421     60.678  34.594807     47.623      6.212   311.0611     1.0959     7.8727     0.0244      0.041      7.017     10.176        811 3.9365e-01 0.0000e+00
      7.167    11.3235     6.6479     60.735  34.536093     47.510      6.209   310.6068     1.1120     7.9802     0.0243      0.041      7.029     10.194        812 3.7434e-01 0.0000e+00
      7.179    11.3201     6.6421     60.691  34.569901     47.590      6.211   311.0232     1.0959     7.9265     0.0244      0.042      7.039     10.209        813 3.7974e-01 0.0000e+00
      7.186    11.3186     6.6292     60.589  34.582394     47.595      6.208   311.1368     1.0918     8.1547     0.0244      0.043      7.047     10.220        814 3.7458e-01 0.0000e+00
      7.192    11.3182     6.6080     60.407  34.579866     47.599      6.207   310.8339     1.0918     8.0742     0.0244      0.042      7.053     10.229        815 3.6727e-01 0.0000e+00
      7.198    11.3167     6.5762     60.130  34.602707     47.640      6.210   310.8718     1.0959     8.1816     0.0244      0.040      7.059     10.238        816 3.7534e-01 0.0000e+00
      7.204    11.3145     6.5367     59.784  34.642942     47.679      6.210   312.0075     1.1080     8.1279     0.0244      0.037      7.065     10.246        817 3.7170e-01 0.0000e+00
      7.210    11.3127 -9.990e-29 -9.990e-29  34.678083     47.758      6.206   312.6132     0.8654     8.0205     0.0244      0.032      7.071     10.255        818 3.6099e-01 0.0000e+00
      7.216    11.3119 -9.990e-29 -9.990e-29  34.707263     47.761      6.208   312.8025     0.8654     8.0070     0.0244      0.028      7.077     10.264        819 3.6422e-01 0.0000e+00
      7.222    11.3117 -9.990e-29 -9.990e-29  34.754917     47.878      6.207   312.6890     0.8371     7.8593     0.0245      0.025      7.083     10.272        820 3.5396e-01 0.0000e+00
      7.229    11.3125 -9.990e-29 -9.990e-29  34.707752     47.764      6.204   312.5754     0.8532     7.8996     0.0244      0.024      7.089     10.281        821 3.3797e-01 0.0000e+00
      7.234    11.3154 -9.990e-29 -9.990e-29  34.765959     47.880      6.205   313.1432     0.9018     7.9130     0.0245      0.024      7.094     10.290        822 3.4466e-01 0.0000e+00
      7.239    11.3219 -9.990e-29 -9.990e-29  34.830768     47.956      6.204   313.5597     0.9260     7.9667     0.0245      0.024      7.099     10.297        823 3.6294e-01 0.0000e+00
      7.245    11.3333 -9.990e-29 -9.990e-29  34.834703     47.952      6.202   314.3925     0.8815     7.9399     0.0245      0.023      7.104     10.305        824 3.2364e-01 0.0000e+00
      7.250    11.3418 -9.990e-29 -9.990e-29  34.939008     48.097      6.203   312.7268     0.8977     7.9265     0.0246      0.023      7.109     10.312        825 3.2319e-01 0.0000e+00
      7.253    11.3522 -9.990e-29 -9.990e-29  34.997540     48.159      6.202   311.9697     0.8815     7.9802     0.0246      0.022      7.113     10.317        826 3.4509e-01 0.0000e+00
      7.257    11.3608 -9.990e-29 -9.990e-29  35.058439     48.224      6.202   311.9697     0.7279     7.9802     0.0247      0.020      7.116     10.321        827 3.2800e-01 0.0000e+00
      7.259 -9.990e-29 -9.990e-29 -9.990e-29  35.041165     48.212      6.201   312.0075     0.7158     7.9802     0.0247      0.018      7.118     10.324        828 3.3853e-01 0.0000e+00
      7.260 -9.990e-29 -9.990e-29 -9.990e-29  34.959717     48.044      6.197   311.5911     0.7441     7.8996     0.0246      0.016      7.118     10.325        829 3.4318e-01 0.0000e+00
