* Sea-Bird SBE19plus  Data File:
* FileName = C:\R\Reservoirs\Data\DataNotYetUploadedToEDI\Raw_CTD\RawDownloads\071822_bvr40_S7809_0001.hex
* Software version 2.8.0.119
* Temperature SN = 7809
* Conductivity SN = 7809
* System UpLoad Time = Jul 18 2022 15:43:28
* <ApplicationData>
* <Seaterm232>
* <SoftwareVersion>2.8.0.119</SoftwareVersion>
* <BuildDate>07-Nov-2018</BuildDate>
* </Seaterm232>
* </ApplicationData>
* <InstrumentState>
* <HardwareData DeviceType='SBE19plus' SerialNumber='01907809'>
*
*    <Manufacturer>Sea-Bird Electronics, Inc.</Manufacturer>
*
*    <FirmwareVersion>3.1.8</FirmwareVersion>
*
*    <FirmwareDate>Mar  9 2016 16:22:29</FirmwareDate>
*
*    <CommandSetVersion>1.4</CommandSetVersion>
*
*    <PCBAssembly PCBSerialNum='120721' AssemblyNum='41054J'/>
*
*    <PCBAssembly PCBSerialNum='120715' AssemblyNum='41967A'/>
*
*    <PCBAssembly PCBSerialNum='116699' AssemblyNum='41606'/>
*
*    <PCBAssembly PCBSerialNum='120719' AssemblyNum='41059D'/>
*
*    <MfgDate>28-Apr-2017</MfgDate>
*
*    <InternalSensors>
*
*       <Sensor id='Main Temperature'>
*
*          <type>temperature0</type>
*
*          <SerialNumber>01907809</SerialNumber>
*
*       </Sensor>
*
*       <Sensor id='Main Conductivity'>
*
*          <type>conductivity-0</type>
*
*          <SerialNumber>01907809</SerialNumber>
*
*       </Sensor>
*
*       <Sensor id='Main Pressure'>
*
*          <type>strain-0</type>
*
*          <SerialNumber>10586018</SerialNumber>
*
*       </Sensor>
*
*    </InternalSensors>
*
*    <ExternalSensors>
*
*       <Sensor id='volt 0'>
*
*          <type>pH</type>
*
*          <SerialNumber>27-0363</SerialNumber>
*
*       </Sensor>
*
*       <Sensor id='volt 1'>
*
*          <type>ORP</type>
*
*          <SerialNumber>27-0363</SerialNumber>
*
*       </Sensor>
*
*       <Sensor id='volt 2'>
*
*          <type>OXY</type>
*
*          <SerialNumber>43-0434</SerialNumber>
*
*       </Sensor>
*
*       <Sensor id='volt 3'>
*
*          <type>PAR</type>
*
*          <SerialNumber>1122</SerialNumber>
*
*       </Sensor>
*
*       <Sensor id='volt 4'>
*
*          <type>ECO AFL/FL</type>
*
*          <SerialNumber>FLNTURT-2496</SerialNumber>
*
*       </Sensor>
*
*       <Sensor id='volt 5'>
*
*          <type>ECO-NTU</type>
*
*          <SerialNumber>FLNTURT-2496</SerialNumber>
*
*       </Sensor>
*
*       <Sensor id='serial'>
*
*          <type>not assigned</type>
*
*          <SerialNumber>not assigned</SerialNumber>
*
*       </Sensor>
*
*    </ExternalSensors>
*
* </HardwareData>
* <StatusData DeviceType='SBE19plus' SerialNumber='01907809'>
*
*    <DateTime>2022-07-18T12:43:02</DateTime>
*
*    <LoggingState>not logging</LoggingState>
*
*    <EventSummary numEvents='0'/>
*
*    <Power>
*
*       <vMain>12.4</vMain>
*
*       <vLith>8.6</vLith>
*
*       <iMain>63.1</iMain>
*
*       <iPump>43.7</iPump>
*
*       <iExt01>20.6</iExt01>
*
*       <iExt2345>38.5</iExt2345>
*
*    </Power>
*
*    <MemorySummary>
*
*       <Bytes>84226</Bytes>
*
*       <Samples>3662</Samples>
*
*       <SamplesFree>2857126</SamplesFree>
*
*       <SampleLength>23</SampleLength>
*
*       <Profiles>3</Profiles>
*
*    </MemorySummary>
*
* </StatusData>
* <ConfigurationData DeviceType='SBE19plus' SerialNumber='01907809'>
*
*    <ProfileMode>
*
*       <ScansToAverage>1</ScansToAverage>
*
*       <MinimumCondFreq>5</MinimumCondFreq>
*
*       <PumpDelay>40</PumpDelay>
*
*       <AutoRun>no</AutoRun>
*
*       <IgnoreSwitch>no</IgnoreSwitch>
*
*    </ProfileMode>
*
*    <Battery>
*
*       <Type>alkaline</Type>
*
*       <CutOff>7.5</CutOff>
*
*    </Battery>
*
*    <DataChannels>
*
*       <ExtVolt0>yes</ExtVolt0>
*
*       <ExtVolt1>yes</ExtVolt1>
*
*       <ExtVolt2>yes</ExtVolt2>
*
*       <ExtVolt3>yes</ExtVolt3>
*
*       <ExtVolt4>yes</ExtVolt4>
*
*       <ExtVolt5>yes</ExtVolt5>
*
*       <SBE38>no</SBE38>
*
*       <WETLABS>no</WETLABS>
*
*       <OPTODE>no</OPTODE>
*
*       <SBE63>no</SBE63>
*
*       <SeaFET>no</SeaFET>
*
*       <GTD>no</GTD>
*
*    </DataChannels>
*
*    <EchoCharacters>yes</EchoCharacters>
*
*    <OutputExecutedTag>yes</OutputExecutedTag>
*
*    <OutputFormat>raw HEX</OutputFormat>
*
* </ConfigurationData>
* <CalibrationCoefficients DeviceType='SBE19plus' SerialNumber='01907809'>
*
*    <Calibration format='TEMP1' id='Main Temperature'>
*
*       <SerialNum>01907809</SerialNum>
*
*       <CalDate>25-Sep-21</CalDate>
*
*       <TA0>1.232513e-03</TA0>
*
*       <TA1>2.763223e-04</TA1>
*
*       <TA2>-9.501887e-07</TA2>
*
*       <TA3>1.718014e-07</TA3>
*
*       <TOFFSET>0.000000e+00</TOFFSET>
*
*    </Calibration>
*
*    <Calibration format='WBCOND0' id='Main Conductivity'>
*
*       <SerialNum>01907809</SerialNum>
*
*       <CalDate>25-Sep-21</CalDate>
*
*       <G>-1.004440e+00</G>
*
*       <H>1.264604e-01</H>
*
*       <I>-7.854363e-05</I>
*
*       <J>2.210938e-05</J>
*
*       <CPCOR>-9.570000e-08</CPCOR>
*
*       <CTCOR>3.250000e-06</CTCOR>
*
*       <CSLOPE>1.000000e+00</CSLOPE>
*
*    </Calibration>
*
*    <Calibration format='STRAIN0' id='Main Pressure'>
*
*       <SerialNum>10586018</SerialNum>
*
*       <CalDate>10-Sep-21</CalDate>
*
*       <PA0>4.789196e-02</PA0>
*
*       <PA1>4.853655e-04</PA1>
*
*       <PA2>-3.689276e-12</PA2>
*
*       <PTCA0>5.254946e+05</PTCA0>
*
*       <PTCA1>1.325193e+01</PTCA1>
*
*       <PTCA2>-3.889275e-01</PTCA2>
*
*       <PTCB0>2.516687e+01</PTCB0>
*
*       <PTCB1>3.750000e-04</PTCB1>
*
*       <PTCB2>0.000000e+00</PTCB2>
*
*       <PTEMPA0>-5.401644e+01</PTEMPA0>
*
*       <PTEMPA1>5.390655e+01</PTEMPA1>
*
*       <PTEMPA2>-2.194112e-02</PTEMPA2>
*
*       <POFFSET>-1.280000e-01</POFFSET>
*
*       <PRANGE>1.600000e+02</PRANGE>
*
*    </Calibration>
*
*    <Calibration format='VOLT0' id='Volt 0'>
*
*       <OFFSET>-4.920000e-02</OFFSET>
*
*       <SLOPE>1.248122e+00</SLOPE>
*
*    </Calibration>
*
*    <Calibration format='VOLT0' id='Volt 1'>
*
*       <OFFSET>-4.784000e-02</OFFSET>
*
*       <SLOPE>1.248871e+00</SLOPE>
*
*    </Calibration>
*
*    <Calibration format='VOLT0' id='Volt 2'>
*
*       <OFFSET>-4.864632e-02</OFFSET>
*
*       <SLOPE>1.248714e+00</SLOPE>
*
*    </Calibration>
*
*    <Calibration format='VOLT0' id='Volt 3'>
*
*       <OFFSET>-4.743790e-02</OFFSET>
*
*       <SLOPE>1.248571e+00</SLOPE>
*
*    </Calibration>
*
*    <Calibration format='VOLT0' id='Volt 4'>
*
*       <OFFSET>-4.671263e-02</OFFSET>
*
*       <SLOPE>1.248951e+00</SLOPE>
*
*    </Calibration>
*
*    <Calibration format='VOLT0' id='Volt 5'>
*
*       <OFFSET>-4.871053e-02</OFFSET>
*
*       <SLOPE>1.249136e+00</SLOPE>
*
*    </Calibration>
*
*    <Calibration format='FREQ0' id='external frequency channel'>
*
*       <EXTFREQSF>1.000014e+00</EXTFREQSF>
*
*    </Calibration>
*
* </CalibrationCoefficients>
* <EventCounters DeviceType='SBE19plus' SerialNumber='01907809'>
*
*    <EventSummary numEvents='0'/>
*
* </EventCounters></InstrumentState>
* <Headers>
*
* cast   1 18 Jul 2022 07:43:25 samples 1 to 486, avg = 1, stop = mag switch
*
# nquan = 15
# nvalues = 486                         
# units = specified
# name 0 = depFM: Depth [fresh water, m]
# name 1 = dz/dtM: Descent Rate [m/s]
# name 2 = sbeox0Mg/L: Oxygen, SBE 43 [mg/l]
# name 3 = sbeox0PS: Oxygen, SBE 43 [% saturation]
# name 4 = specc: Specific Conductance [uS/cm]
# name 5 = c0uS/cm: Conductivity [uS/cm]
# name 6 = flECO-AFL: Fluorescence, WET Labs ECO-AFL/FL [mg/m^3]
# name 7 = ph: pH
# name 8 = orp: Oxidation Reduction Potential [mV]
# name 9 = par/sat/log: PAR/Logarithmic, Satlantic
# name 10 = turbWETntu0: Turbidity, WET Labs ECO [NTU]
# name 11 = prdM: Pressure, Strain Gauge [db]
# name 12 = prdE: Pressure, Strain Gauge [psi]
# name 13 = tv290C: Temperature [ITS-90, deg C]
# name 14 = flag:  0.000e+00
# span 0 =     -0.752,      2.326       
# span 1 =     -0.421,      0.209       
# span 2 =     0.0566,     7.2730       
# span 3 =      0.620,     92.359       
# span 4 =     25.439,    281.191       
# span 5 =  27.609049, 243.434742       
# span 6 =    -0.9126,     7.2749       
# span 7 =      6.915,      7.777       
# span 8 =    39.6654,   137.4377       
# span 9 = 4.2183e+01, 1.9875e+03       
# span 10 =     4.4019,   931.7929      
# span 11 =     -0.739,      2.284      
# span 12 =     -1.072,      3.313      
# span 13 =    18.0045,    30.9000      
# span 14 = 0.0000e+00, 0.0000e+00      
# interval = seconds: 0.25
# start_time = Jul 18 2022 07:43:25 [Instrument's time stamp, header]
# bad_flag = -9.990e-29
# <Sensors count="9" >
#   <sensor Channel="1" >
#     <!-- Count, Temperature -->
#     <TemperatureSensor SensorID="58" >
#       <SerialNumber>7809</SerialNumber>
#       <CalibrationDate>25-Sep-21</CalibrationDate>
#       <A0>1.23251324e-003</A0>
#       <A1>2.76322262e-004</A1>
#       <A2>-9.50188734e-007</A2>
#       <A3>1.71801404e-007</A3>
#       <Slope>1.00000000</Slope>
#       <Offset>0.0000</Offset>
#     </TemperatureSensor>
#   </sensor>
#   <sensor Channel="2" >
#     <!-- Frequency 0, Conductivity -->
#     <ConductivitySensor SensorID="3" >
#       <SerialNumber>7809</SerialNumber>
#       <CalibrationDate>25-Sep-21</CalibrationDate>
#       <UseG_J>1</UseG_J>
#       <!-- Cell const and series R are applicable only for wide range sensors. -->
#       <SeriesR>0.0000</SeriesR>
#       <CellConst>2000.0000</CellConst>
#       <ConductivityType>0</ConductivityType>
#       <Coefficients equation="0" >
#         <A>0.00000000e+000</A>
#         <B>0.00000000e+000</B>
#         <C>0.00000000e+000</C>
#         <D>0.00000000e+000</D>
#         <M>0.0</M>
#         <CPcor>-9.57000000e-008</CPcor>
#       </Coefficients>
#       <Coefficients equation="1" >
#         <G>-1.00443970e+000</G>
#         <H>1.26460406e-001</H>
#         <I>-7.85436262e-005</I>
#         <J>2.21093811e-005</J>
#         <CPcor>-9.57000000e-008</CPcor>
#         <CTcor>3.2500e-006</CTcor>
#         <!-- WBOTC not applicable unless ConductivityType = 1. -->
#         <WBOTC>0.00000000e+000</WBOTC>
#       </Coefficients>
#       <Slope>1.00000000</Slope>
#       <Offset>0.00000</Offset>
#     </ConductivitySensor>
#   </sensor>
#   <sensor Channel="3" >
#     <!-- Count, Pressure, Strain Gauge -->
#     <PressureSensor SensorID="46" >
#       <SerialNumber>7809</SerialNumber>
#       <CalibrationDate>10-Sep-21</CalibrationDate>
#       <PA0>4.78919585e-002</PA0>
#       <PA1>4.85365526e-004</PA1>
#       <PA2>-3.68927597e-012</PA2>
#       <PTEMPA0>-5.40164371e+001</PTEMPA0>
#       <PTEMPA1>5.39065456e+001</PTEMPA1>
#       <PTEMPA2>-2.19411190e-002</PTEMPA2>
#       <PTCA0>5.25494622e+005</PTCA0>
#       <PTCA1>1.32519328e+001</PTCA1>
#       <PTCA2>-3.88927502e-001</PTCA2>
#       <PTCB0>2.51668750e+001</PTCB0>
#       <PTCB1>3.75000000e-004</PTCB1>
#       <PTCB2>0.00000000e+000</PTCB2>
#       <Offset>0.000000</Offset>
#     </PressureSensor>
#   </sensor>
#   <sensor Channel="4" >
#     <!-- A/D voltage 0, Oxygen, SBE 43 -->
#     <OxygenSensor SensorID="38" >
#       <SerialNumber>0434</SerialNumber>
#       <CalibrationDate>25-Sep-21</CalibrationDate>
#       <Use2007Equation>1</Use2007Equation>
#       <CalibrationCoefficients equation="0" >
#         <!-- Coefficients for Owens-Millard equation. -->
#         <Boc>0.0000</Boc>
#         <Soc>0.0000e+000</Soc>
#         <offset>0.0000</offset>
#         <Pcor>0.00e+000</Pcor>
#         <Tcor>0.0000</Tcor>
#         <Tau>0.0</Tau>
#       </CalibrationCoefficients>
#       <CalibrationCoefficients equation="1" >
#         <!-- Coefficients for Sea-Bird equation - SBE calibration in 2007 and later. -->
#         <Soc>4.7287e-001</Soc>
#         <offset>-0.5046</offset>
#         <A>-3.6094e-003</A>
#         <B> 1.1544e-004</B>
#         <C>-1.3802e-006</C>
#         <D0> 2.5826e+000</D0>
#         <D1> 1.92634e-004</D1>
#         <D2>-4.64803e-002</D2>
#         <E> 3.6000e-002</E>
#         <Tau20> 0.7700</Tau20>
#         <H1>-3.3000e-002</H1>
#         <H2> 5.0000e+003</H2>
#         <H3> 1.4500e+003</H3>
#       </CalibrationCoefficients>
#     </OxygenSensor>
#   </sensor>
#   <sensor Channel="5" >
#     <!-- A/D voltage 1, PAR/Logarithmic, Satlantic -->
#     <PARLog_SatlanticSensor SensorID="76" >
#       <SerialNumber>1122</SerialNumber>
#       <CalibrationDate>08-Sep-2021</CalibrationDate>
#       <a0>9.6751e-001</a0>
#       <a1>8.0992e-001</a1>
#       <Im>1.3589e+000</Im>
#       <Multiplier>1.0000e+000</Multiplier>
#     </PARLog_SatlanticSensor>
#   </sensor>
#   <sensor Channel="6" >
#     <!-- A/D voltage 2, pH -->
#     <pH_Sensor SensorID="43" >
#       <SerialNumber>0363</SerialNumber>
#       <CalibrationDate>16-Sep-21</CalibrationDate>
#       <Slope>4.5144</Slope>
#       <Offset>2.4957</Offset>
#     </pH_Sensor>
#   </sensor>
#   <sensor Channel="7" >
#     <!-- A/D voltage 3, Oxidation Reduction Potential -->
#     <OxidationReductionPotentialSensor SensorID="41" >
#       <SerialNumber>0363</SerialNumber>
#       <CalibrationDate>16-Sep-21</CalibrationDate>
#       <B>2.499480</B>
#       <M>-0.496195</M>
#       <Offset>0.0</Offset>
#     </OxidationReductionPotentialSensor>
#   </sensor>
#   <sensor Channel="8" >
#     <!-- A/D voltage 4, Fluorometer, WET Labs ECO-AFL/FL -->
#     <FluoroWetlabECO_AFL_FL_Sensor SensorID="20" >
#       <SerialNumber>FLNTURT-2496</SerialNumber>
#       <CalibrationDate>02-Sep-2021</CalibrationDate>
#       <ScaleFactor>4.80000000e+001</ScaleFactor>
#       <!-- Dark output -->
#       <Vblank>0.0550</Vblank>
#     </FluoroWetlabECO_AFL_FL_Sensor>
#   </sensor>
#   <sensor Channel="9" >
#     <!-- A/D voltage 5, Turbidity Meter, WET Labs, ECO-NTU -->
#     <TurbidityMeter SensorID="67" >
#       <SerialNumber>FLNTURT-2496</SerialNumber>
#       <CalibrationDate>02-Sep-2021</CalibrationDate>
#       <ScaleFactor>197.000000</ScaleFactor>
#       <!-- Dark output -->
#       <DarkVoltage>0.070000</DarkVoltage>
#     </TurbidityMeter>
#   </sensor>
# </Sensors>
# datcnv_date = Jul 18 2022 15:47:21, 7.26.7.129 [datcnv_vars = 14]
# datcnv_in = C:\R\Reservoirs\Data\DataNotYetUploadedToEDI\Raw_CTD\RawDownloads\071822_bvr40_S7809001.hex C:\R\Reservoirs\Data\DataNotYetUploadedToEDI\Raw_CTD\RawDownloads\SBE19plusV2_7809_Old_CTD.xmlcon
# datcnv_skipover = 0
# datcnv_ox_hysteresis_correction = yes
# datcnv_ox_tau_correction = yes
# filter_date = Jul 18 2022 15:47:42, 7.26.7.129
# filter_in = C:\R\Reservoirs\Data\DataNotYetUploadedToEDI\Raw_CTD\RawDownloads\071822_bvr40_S7809001.cnv
# filter_low_pass_tc_A = 0.030
# filter_low_pass_tc_B = 0.150
# filter_low_pass_A_vars = sbeox0Mg/L prdM prdE tv290C
# filter_low_pass_B_vars = depFM dz/dtM sbeox0PS specc c0uS/cm flECO-AFL ph orp par/sat/log turbWETntu0
# alignctd_date = Jul 18 2022 15:48:02, 7.26.7.129
# alignctd_in = C:\R\Reservoirs\Data\DataNotYetUploadedToEDI\Raw_CTD\RawDownloads\071822_bvr40_S7809001.cnv
# alignctd_adv = dz/dtM 1.000, sbeox0PS 1.000, specc 1.000, c0uS/cm 1.000, flECO-AFL 1.000, ph 1.000, orp 1.000, turbWETntu0 1.000                                                                                                   
# file_type = ascii
*END*
     -0.749      0.072     6.6442     89.302     25.439  27.609049     5.6789      7.525   137.4377 6.3753e+02   931.6970     -0.739     -1.072    30.8824 0.0000e+00
     -0.734      0.109     6.6419     89.333     29.733  32.021949     5.6444      7.645   107.5783 7.5764e+02   931.7929     -0.729     -1.058    30.9000 0.0000e+00
     -0.698      0.147     6.6580     89.357     30.486  32.596275     3.9676      7.732    93.8070 7.3576e+02   698.0280     -0.689     -1.000    30.7565 0.0000e+00
     -0.647      0.181     6.7401     89.424     30.728  32.650841     0.8934      7.769    84.9324 7.2892e+02   266.0894     -0.638     -0.924    30.0619 0.0000e+00
     -0.588      0.204     6.8301     89.593     30.905  32.681376    -0.7706      7.762    81.4984 9.2914e+02    30.4261     -0.577     -0.837    29.3106 0.0000e+00
     -0.525      0.209     6.8915     89.854     31.029  32.711628    -0.9126      7.737    80.2490 1.2684e+03     8.9868     -0.516     -0.747    28.8299 0.0000e+00
     -0.463      0.198     6.9386     90.154     31.130  32.762859    -0.8893      7.723    71.2023 1.5199e+03     6.9378     -0.454     -0.657    28.4392 0.0000e+00
     -0.407      0.178     6.9838     90.469     31.244  32.856915    -0.3732      7.731    52.3039 1.6397e+03     6.3689     -0.393     -0.570    28.0941 0.0000e+00
     -0.364      0.157     7.0305     90.814     31.351  32.961207     0.5834      7.755    43.1876 1.7365e+03     5.7635     -0.350     -0.507    27.8310 0.0000e+00
     -0.337      0.138     7.0713     91.180     31.398  33.009420     1.1056      7.776    49.7712 1.8251e+03     5.4600     -0.327     -0.475    27.6817 0.0000e+00
     -0.316      0.122     7.1067     91.531     31.379  32.996051     1.1550      7.777    56.1904 1.8931e+03     5.3973     -0.313     -0.454    27.5994 0.0000e+00
     -0.290      0.109     7.1342     91.842     31.349  32.989770     1.1725      7.753    52.1419 1.9417e+03     5.2441     -0.287     -0.416    27.5650 0.0000e+00
     -0.256      0.099     7.1631     92.092     31.315  32.996910     1.2253      7.723    47.1104 1.9769e+03     5.0423     -0.251     -0.364    27.5564 0.0000e+00
     -0.222      0.092     7.1928     92.249     31.241  32.955660     1.2776      7.708    46.8072 1.9875e+03     4.9389     -0.214     -0.310    27.5603 0.0000e+00
     -0.198      0.088     7.2216     92.324     31.148  32.871483     1.2891      7.712    47.5282 1.8713e+03     4.9164     -0.188     -0.274    27.5576 0.0000e+00
     -0.184      0.086     7.2418     92.359     31.093  32.803367     1.2809      7.719    49.2027 1.8071e+03     4.9060     -0.179     -0.261    27.5920 0.0000e+00
     -0.174      0.089     7.2507     92.138     31.083  32.766057     1.2704      7.715    50.7928 1.8050e+03     4.8821     -0.173     -0.251    27.6849 0.0000e+00
     -0.158      0.097     7.2552     91.017     31.083  32.737332     1.2692      7.705    52.2991 1.5602e+03     4.9011     -0.160     -0.232    27.7535 0.0000e+00
     -0.130      0.112     7.2537     88.390     31.079  32.709602     1.2744      7.696    54.1660 1.3475e+03     4.9300     -0.130     -0.190    27.7740 0.0000e+00
     -0.092      0.133     7.2637     84.499     31.080  32.684344     1.3167      7.679    55.2103 1.2166e+03     4.8560     -0.089     -0.129    27.7532 0.0000e+00
     -0.055      0.153     7.2730     80.242     31.119  32.685491     1.3977      7.640    56.1496 1.1136e+03     4.7587     -0.052     -0.077    27.6993 0.0000e+00
     -0.016      0.165     7.2165     76.248     31.204  32.723414     1.4392      7.589    58.0379 1.1597e+03     4.7432     -0.021     -0.031    27.6516 0.0000e+00
      0.031      0.164     7.0066     72.844     31.295  32.762388     1.4436      7.542    59.6293 1.0786e+03     4.7371      0.028      0.041    27.6177 0.0000e+00
      0.084      0.150     6.6667     70.234     31.358  32.776229     1.4836      7.506    60.1619 8.5836e+02     4.6513      0.086      0.125    27.5815 0.0000e+00
      0.132      0.126     6.3259     68.373     31.384  32.763880     1.5567      7.483    59.7459 6.8075e+02     4.5594      0.134      0.194    27.5187 0.0000e+00
      0.167      0.096     6.0125     67.122     31.385  32.739815     1.6042      7.473    59.4178 5.3539e+02     4.5827      0.172      0.249    27.4306 0.0000e+00
      0.184      0.064     5.7441     66.362     31.401  32.738830     1.6247      7.466    60.3246 4.2703e+02     4.6592      0.187      0.271    27.3355 0.0000e+00
      0.186      0.035     5.5506     65.887     31.426  32.751950     1.6210      7.452    62.1060 3.9153e+02     4.6652      0.184      0.266    27.2466 0.0000e+00
      0.181      0.014     5.4136     65.467     31.453  32.771625     1.5181      7.427    64.0066 3.9239e+02     4.6210      0.176      0.255    27.1837 0.0000e+00
      0.177      0.003     5.3190     64.992     31.474  32.786497     1.3465      7.402    65.7535 4.0358e+02     4.6026      0.170      0.247    27.1480 0.0000e+00
      0.177     -0.001     5.2672     64.494     31.442  32.741561     1.2601      7.384    66.8798 4.9250e+02     4.6480      0.173      0.250    27.1220 0.0000e+00
      0.181     -0.001     5.2402     64.119     31.385  32.672096     1.2642      7.370    67.2129 6.6990e+02     4.7255      0.178      0.258    27.1004 0.0000e+00
      0.182      0.000     5.2092     63.881     31.361  32.643984     1.3051      7.358    67.3725 7.6138e+02     4.7542      0.180      0.261    27.0895 0.0000e+00
      0.181      0.000     5.1728     63.576     31.370  32.655249     1.3549      7.346    67.8625 7.4812e+02     4.7223      0.178      0.258    27.0821 0.0000e+00
      0.179     -0.001     5.1284     63.070     31.393  32.681509     1.3665      7.336    68.3198 7.3094e+02     4.6811      0.175      0.254    27.0608 0.0000e+00
      0.177     -0.001     5.0985     62.369     31.415  32.707893     1.3701      7.328    68.4281 6.6348e+02     4.6662      0.173      0.251    27.0377 0.0000e+00
      0.177     -0.001     5.0898     61.523     31.424  32.720665     1.4243      7.323    68.4832 6.2962e+02     4.6777      0.173      0.251    27.0356 0.0000e+00
      0.179      0.000     5.0680     60.617     31.410  32.709138     1.5052      7.320    68.7274 6.5074e+02     4.6832      0.175      0.255    27.0425 0.0000e+00
      0.180      0.001     5.0263     59.799     31.395  32.695326     1.5417      7.316    69.3162 7.0492e+02     4.6653      0.177      0.257    27.0443 0.0000e+00
      0.180      0.001     4.9691     59.293     31.379  32.680466     1.5403      7.308    70.1819 7.5228e+02     4.6323      0.177      0.256    27.0493 0.0000e+00
      0.180      0.000     4.8983     59.216     31.352  32.656270     1.4888      7.296    71.0209 6.4653e+02     4.6262      0.175      0.254    27.0590 0.0000e+00
      0.180      0.000     4.8227     59.430     31.344  32.656373     1.3845      7.284    71.5450 5.6712e+02     4.6247      0.176      0.255    27.0643 0.0000e+00
      0.179      0.000     4.7497     59.738     31.359  32.681730     1.3205      7.274    71.8727 6.3007e+02     4.6144      0.176      0.255    27.0653 0.0000e+00
      0.179      0.001     4.7037     60.033     31.375  32.709270     1.3139      7.266    72.2297 6.7470e+02     4.6729      0.175      0.254    27.0655 0.0000e+00
      0.180      0.002     4.7044     60.363     31.391  32.735779     1.3378      7.260    72.5053 8.6897e+02     4.7166      0.176      0.255    27.0695 0.0000e+00
      0.181      0.002     4.7257     60.923     31.393  32.748667     1.3764      7.254    72.7108 1.0996e+03     4.6985      0.177      0.257    27.0843 0.0000e+00
      0.182      0.002     4.7518     61.792     31.373  32.738302     1.3886      7.249    72.8212 9.2919e+02     4.6936      0.179      0.259    27.1027 0.0000e+00
      0.182      0.002     4.7740     62.783     31.362  32.737281     1.3775      7.246    72.8073 6.5813e+02     4.6566      0.179      0.259    27.1195 0.0000e+00
      0.182      0.001     4.7899     63.658     31.352  32.736336     1.3762      7.246    72.9732 5.6552e+02     4.5931      0.178      0.259    27.1357 0.0000e+00
      0.182      0.001     4.8297     64.287     31.335  32.726895     1.4141      7.246    73.4501 5.3654e+02     4.5751      0.178      0.259    27.1524 0.0000e+00
      0.182      0.001     4.9047     64.647     31.352  32.749940     1.4774      7.245    74.1856 6.7606e+02     4.6436      0.178      0.259    27.1697 0.0000e+00
      0.183      0.001     4.9900     64.766     31.361  32.761371     1.5007      7.244    74.9834 8.4590e+02     4.7034      0.179      0.260    27.1864 0.0000e+00
      0.183      0.001     5.0605     64.653     31.338  32.738318     1.4877      7.244    75.3525 8.3679e+02     4.6497      0.179      0.260    27.2032 0.0000e+00
      0.183      0.000     5.1102     64.338     31.327  32.724807     1.4617      7.243    75.2935 7.6883e+02     4.6437      0.179      0.260    27.2167 0.0000e+00
      0.183 3.4146e-09     5.1359     63.889     31.328  32.724816     1.4200      7.242    75.3882 6.4464e+02     4.7002      0.179      0.260    27.2240 0.0000e+00
      0.183 3.7561e-08     5.1459     63.378     31.342  32.738422     1.3907      7.242    75.8083 5.6253e+02     4.6829      0.180      0.261    27.2281 0.0000e+00
      0.183 4.1317e-07     5.1361     62.895     31.364  32.762514     1.3823      7.241    76.1576 6.0003e+02     4.6389      0.179      0.260    27.2293 0.0000e+00
      0.183      0.000     5.1085     62.499     31.362  32.762513     1.3933      7.241    76.2559 5.8896e+02     4.6127      0.179      0.259    27.2258 0.0000e+00
      0.183      0.000     5.0725     62.223     31.337  32.738410     1.4247      7.241    76.3075 5.5719e+02     4.6389      0.179      0.261    27.2220 0.0000e+00
      0.184      0.001     5.0282     62.074     31.322  32.724691     1.4455      7.241    76.5235 6.3978e+02     4.6834      0.181      0.262    27.2205 0.0000e+00
      0.184      0.001     4.9888     62.013     31.321  32.723445     1.4366      7.242    77.1478 6.9868e+02     4.6384      0.180      0.261    27.2216 0.0000e+00
      0.184      0.002     4.9560     61.959     31.321  32.723331     1.4254      7.244    78.0904 5.6950e+02     4.5721      0.180      0.261    27.2263 0.0000e+00
      0.184      0.002     4.9331     61.802     31.320  32.723321     1.4346      7.246    78.8007 4.4035e+02     4.5997      0.180      0.261    27.2304 0.0000e+00
      0.185      0.001     4.9228     61.473     31.318  32.723321     1.4477      7.246    79.0253 4.2858e+02     4.6648      0.182      0.264    27.2317 0.0000e+00
      0.186      0.001     4.9194     60.958     31.316  32.723341     1.4507      7.246    78.9127 5.1945e+02     4.6762      0.183      0.265    27.2314 0.0000e+00
      0.186      0.001     4.9195     60.299     31.316  32.723559     1.4460      7.247    78.7295 6.0110e+02     4.6343      0.182      0.265    27.2314 0.0000e+00
      0.186      0.002     4.9086     59.609     31.319  32.725960     1.4490      7.247    78.7890 5.7793e+02     4.6373      0.182      0.265    27.2335 0.0000e+00
      0.186      0.002     4.8818     58.955     31.344  32.752368     1.4616      7.247    79.1165 5.9292e+02     4.7118      0.181      0.263    27.2370 0.0000e+00
      0.186      0.002     4.8415     58.404     31.378  32.789256     1.4654      7.246    79.3330 6.4639e+02     4.7489      0.182      0.264    27.2403 0.0000e+00
      0.187      0.001     4.7828     58.019     31.378  32.791577     1.4532      7.245    79.3426 6.3840e+02     4.7108      0.183      0.265    27.2422 0.0000e+00
      0.188      0.001     4.7281     57.743     31.365  32.780434     1.4308      7.243    79.4902 5.5002e+02     4.5925      0.185      0.269    27.2408 0.0000e+00
      0.189      0.000     4.6753     57.511     31.365  32.781328     1.4280      7.241    79.9130 4.7614e+02     4.4800      0.186      0.270    27.2381 0.0000e+00
      0.188     -0.002     4.6264     57.310     31.384  32.802384     1.4438      7.241    80.3251 4.8265e+02     4.4779      0.185      0.268    27.2401 0.0000e+00
      0.187     -0.005     4.6000     57.104     31.423  32.844818     1.4478      7.242    80.2570 4.6307e+02     4.4989      0.183      0.266    27.2465 0.0000e+00
      0.186     -0.007     4.5791     56.851     31.425  32.850596     1.4423      7.245    79.7777 4.0991e+02     4.4947      0.182      0.264    27.2510 0.0000e+00
      0.184     -0.007     4.5603     56.548     31.383  32.808849     1.4360      7.246    79.6059 4.0780e+02     4.4960      0.180      0.262    27.2515 0.0000e+00
      0.181     -0.006     4.5455     56.216     31.358  32.783864     1.4381      7.245    79.9864 5.8248e+02     4.5144      0.177      0.257    27.2518 0.0000e+00
      0.178     -0.004     4.5305     55.871     31.375  32.802119     1.4511      7.243    80.3353 8.2210e+02     4.5463      0.174      0.252    27.2560 0.0000e+00
      0.177     -0.002     4.5098     55.514     31.409  32.839366     1.4523      7.243    80.3835 7.8465e+02     4.5739      0.172      0.250    27.2621 0.0000e+00
      0.178      0.000     4.4846     55.101     31.419  32.853819     1.4361      7.244    80.5690 5.7354e+02     4.6086      0.175      0.253    27.2658 0.0000e+00
      0.180      0.003     4.4582     54.623     31.413  32.850064     1.4292      7.246    81.0281 4.6192e+02     4.6596      0.177      0.256    27.2660 0.0000e+00
      0.180      0.005     4.4299     54.144     31.417  32.857370     1.4360      7.247    81.5468 4.7166e+02     4.7120      0.177      0.257    27.2655 0.0000e+00
      0.181      0.006     4.4034     53.652     31.432  32.878757     1.4599      7.247    81.9373 5.0835e+02     4.6951      0.176      0.256    27.2698 0.0000e+00
      0.183      0.005     4.3715     53.083     31.462  32.918460     1.5018      7.247    82.0488 5.1235e+02     4.6266      0.179      0.260    27.2775 0.0000e+00
      0.187      0.003     4.3289     52.442     31.489  32.957028     1.5340      7.248    82.1207 5.4084e+02     4.6352      0.184      0.266    27.2821 0.0000e+00
      0.188      0.001     4.2917     51.757     31.488  32.964691     1.5495      7.249    82.2912 5.6128e+02     4.6962      0.186      0.270    27.2843 0.0000e+00
      0.188      0.001     4.2558     51.070     31.463  32.947724     1.5310      7.252    82.4748 5.2898e+02     4.7156      0.185      0.268    27.2914 0.0000e+00
      0.185      0.001     4.2079     50.448     31.452  32.942094     1.4777      7.253    82.7064 6.8363e+02     4.6977      0.181      0.264    27.3070 0.0000e+00
      0.184      0.002     4.1553     49.895     31.467  32.960039     1.4372      7.251    82.8546 9.3976e+02     4.6855      0.179      0.259    27.3249 0.0000e+00
      0.184      0.003     4.0992     49.378     31.479  32.974497     1.4324      7.244    82.8891 8.4364e+02     4.7051      0.179      0.260    27.3396 0.0000e+00
      0.186      0.004     4.0408     48.894     31.491  32.990097     1.4369      7.239    82.9519 5.7881e+02     4.6952      0.183      0.264    27.3535 0.0000e+00
      0.190      0.005     3.9907     48.430     31.516  33.021864     1.4497      7.238    83.0123 6.0436e+02     4.6003      0.187      0.271    27.3647 0.0000e+00
      0.192      0.005     3.9492     47.987     31.529  33.041584     1.4788      7.240    83.2753 7.7316e+02     4.4800      0.191      0.276    27.3676 0.0000e+00
      0.192      0.004     3.9068     47.592     31.521  33.038335     1.4895      7.243    83.8942 8.5702e+02     4.4019      0.190      0.275    27.3676 0.0000e+00
      0.191      0.003     3.8693     47.214     31.524  33.045993     1.4955      7.245    84.3865 8.6804e+02     4.4079      0.187      0.272    27.3726 0.0000e+00
      0.191      0.002     3.8323     46.842     31.542  33.070792     1.5266      7.246    84.5815 7.1824e+02     4.4842      0.187      0.271    27.3826 0.0000e+00
      0.193      0.001     3.7941     46.504     31.550  33.084574     1.5493      7.247    84.7891 5.5254e+02     4.5720      0.189      0.274    27.3929 0.0000e+00
      0.195      0.000     3.7646     46.190     31.545  33.085835     1.5448      7.248    85.0902 5.2204e+02     4.6152      0.192      0.278    27.4006 0.0000e+00
      0.196      0.000     3.7348     45.877     31.539  33.086052     1.5397      7.249    85.2970 6.1233e+02     4.6310      0.193      0.279    27.4081 0.0000e+00
      0.195     -0.001     3.7028     45.587     31.535  33.087204     1.5454      7.252    85.3097 7.2532e+02     4.6955      0.191      0.277    27.4174 0.0000e+00
      0.192     -0.002     3.6759     45.315     31.545  33.099773     1.5560      7.256    85.3306 8.2664e+02     4.7453      0.188      0.273    27.4259 0.0000e+00
      0.191     -0.002     3.6527     45.060     31.556  33.111228     1.5591      7.261    85.6348 1.0567e+03     4.6864      0.186      0.270    27.4347 0.0000e+00
      0.191     -0.005     3.6249     44.925     31.545  33.098900     1.5491      7.262    86.5792 1.1311e+03     4.6329      0.187      0.272    27.4461 0.0000e+00
      0.192     -0.013     3.6017     45.086     31.512  33.077508     1.5439      7.261    88.0596 8.6314e+02     4.7137      0.189      0.274    27.4574 0.0000e+00
      0.192     -0.031     3.5822     45.771     31.425  33.042801     1.5537      7.264    89.4236 7.1933e+02     4.8430      0.189      0.274    27.4582 0.0000e+00
      0.189     -0.064     3.5571     47.036     31.295  32.996362     1.5587      7.273    89.8212 8.1614e+02     4.8983      0.188      0.273    27.4598 0.0000e+00
      0.179     -0.108     3.5432     48.736     31.189  32.959981     1.5463      7.288    90.1137 8.2183e+02     4.8704      0.181      0.262    27.4572 0.0000e+00
      0.155     -0.151     3.5481     50.854     31.113  32.920042     1.5038      7.305    99.8439 9.4131e+02     4.8477      0.161      0.232    27.4469 0.0000e+00
      0.106     -0.179     3.5928     53.432     31.071  32.893930     1.4367      7.316   113.9433 1.1932e+03     4.8963      0.114      0.166    27.5388 0.0000e+00
      0.031     -0.186     3.6901     56.233     31.070  32.897895     1.4009      7.318   112.0849 1.2123e+03     4.9458      0.033      0.049    27.7283 0.0000e+00
     -0.050     -0.174     3.8131     58.714     31.089  32.904594     1.3962      7.312   109.9829 1.3225e+03     4.9343     -0.060     -0.087    27.8594 0.0000e+00
     -0.105     -0.150     3.9720     60.393     31.122  32.911507     1.3876      7.298   122.6853 1.4881e+03     4.8937     -0.118     -0.173    27.9049 0.0000e+00
     -0.124     -0.118     4.1783     61.192     31.156  32.918031     1.3722      7.287   130.9306 1.2170e+03     4.8306     -0.129     -0.187    27.9316 0.0000e+00
     -0.124     -0.084     4.4137     61.250     31.177  32.920030     1.3509      7.281   130.6062 1.0807e+03     4.7515     -0.118     -0.172    27.9477 0.0000e+00
     -0.129     -0.057     4.6281     60.748     31.202  32.935642     1.3303      7.283   129.5175 1.2915e+03     4.6889     -0.119     -0.172    27.9225 0.0000e+00
     -0.149     -0.042     4.7621     59.873     31.251  32.979976     1.3152      7.292   128.6082 1.0852e+03     4.6541     -0.146     -0.211    27.8689 0.0000e+00
     -0.170     -0.037     4.8252     58.782     31.286  33.012255     1.3087      7.301   128.3883 5.9233e+02     4.6381     -0.172     -0.250    27.8150 0.0000e+00
     -0.180     -0.032     4.8278     57.618     31.285  33.008902     1.3185      7.304   128.4938 4.0668e+02     4.6333     -0.179     -0.259    27.7830 0.0000e+00
     -0.183     -0.022     4.7833     56.499     31.278  33.002839     1.3332      7.300   128.4206 4.3214e+02     4.6643     -0.180     -0.261    27.7705 0.0000e+00
     -0.185     -0.010     4.7125     55.492     31.275  33.002348     1.3285      7.295   127.9338 3.8501e+02     4.7049     -0.183     -0.265    27.7594 0.0000e+00
     -0.185     -0.002     4.6225     54.596     31.272  33.002972     1.3206      7.291   127.3413 2.9524e+02     4.7824     -0.182     -0.264    27.7506 0.0000e+00
     -0.182      0.002     4.5286     53.762     31.275  33.010396     1.3290      7.288   126.9340 2.5745e+02     4.9180     -0.179     -0.258    27.7474 0.0000e+00
     -0.180      0.003     4.4379     52.980     31.288  33.028715     1.3388      7.287   126.0207 2.4975e+02     4.9782     -0.176     -0.256    27.7494 0.0000e+00
     -0.180      0.002     4.3587     52.275     31.289  33.034260     1.3392      7.288   121.6324 2.4962e+02     4.9637     -0.175     -0.255    27.7547 0.0000e+00
     -0.180      0.002     4.2899     51.648     31.265  33.014049     1.3422      7.296   117.7558 2.5222e+02     4.9472     -0.176     -0.255    27.7612 0.0000e+00
     -0.181      0.003     4.2241     51.084     31.224  32.974554     1.3582      7.308   121.1371 2.5324e+02     4.9161     -0.177     -0.257    27.7681 0.0000e+00
     -0.181      0.005     4.1609     50.629     31.189  32.937148     1.3750      7.315   125.6908 2.5418e+02     4.8956     -0.178     -0.257    27.7750 0.0000e+00
     -0.180      0.005     4.1046     50.369     31.197  32.942184     1.3875      7.307   126.9546 2.5975e+02     4.9039     -0.178     -0.257    27.7834 0.0000e+00
     -0.177     -0.003     4.0563     50.325     31.227  32.972041     1.3754      7.292   126.7811 3.0422e+02     4.8464     -0.175     -0.252    27.7905 0.0000e+00
     -0.172     -0.023     4.0103     50.600     31.216  32.981136     1.3362      7.282   126.0021 4.5885e+02     4.7122     -0.169     -0.245    27.7983 0.0000e+00
     -0.169     -0.052     3.9705     51.522     31.174  32.988779     1.3217      7.279   126.2257 7.7790e+02     4.6809     -0.162     -0.236    27.7969 0.0000e+00
     -0.176     -0.083     3.9511     53.286     31.132  33.001138     1.3332      7.275   127.4195 9.5446e+02     4.7414     -0.162     -0.235    27.7917 0.0000e+00
     -0.206     -0.115     3.9487     55.641     31.099  33.003852     1.3258      7.269   128.6491 7.0051e+02     4.7267     -0.192     -0.278    27.7767 0.0000e+00
     -0.256     -0.142     3.9563     58.081     31.094  33.021658     1.3070      7.262   129.2191 4.0376e+02     4.7087     -0.253     -0.367    27.7926 0.0000e+00
     -0.306     -0.155     4.0120     60.063     31.083  33.026266     1.3136      7.261   128.7189 4.7633e+02     4.7969     -0.304     -0.441    27.9045 0.0000e+00
     -0.349     -0.147     4.1526     61.200     31.042  32.996191     1.3312      7.268   128.0220 8.2828e+02     4.9049     -0.341     -0.495    28.0103 0.0000e+00
     -0.393     -0.118     4.3477     61.428     31.013  32.975045     1.3362      7.278   127.9344 1.0918e+03     4.9558     -0.386     -0.560    28.0623 0.0000e+00
     -0.433     -0.078     4.5509     60.903     30.994  32.960805     1.3171      7.287   128.1749 1.1439e+03     4.9337     -0.433     -0.628    28.0960 0.0000e+00
     -0.452     -0.040     4.7171     59.854     30.982  32.950826     1.2823      7.292   128.5211 1.1712e+03     4.9110     -0.455     -0.659    28.1190 0.0000e+00
     -0.444     -0.010     4.8032     58.539     31.009  32.981201     1.2652      7.295   128.5071 1.2269e+03     4.9202     -0.441     -0.638    28.1446 0.0000e+00
     -0.423      0.012     4.8149     57.174     31.036  33.011066     1.2679      7.298   127.7481 1.2643e+03     4.9088     -0.413     -0.597    28.1601 0.0000e+00
     -0.406      0.024     4.7673     55.888     31.020  32.994918     1.2905      7.301   126.7435 1.2757e+03     4.8410     -0.393     -0.570    28.1665 0.0000e+00
     -0.401      0.025     4.6771     54.751     31.003  32.976153     1.3136      7.305   126.0829 1.2748e+03     4.7153     -0.391     -0.567    28.1713 0.0000e+00
     -0.404      0.020     4.5681     53.794     31.005  32.974386     1.3144      7.309   125.6111 1.2740e+03     4.6532     -0.396     -0.575    28.1748 0.0000e+00
     -0.406      0.015     4.4588     53.039     31.009  32.973545     1.3164      7.312   124.6530 1.2820e+03     4.7052     -0.400     -0.580    28.1755 0.0000e+00
     -0.403      0.016     4.3561     52.513     31.008  32.965975     1.3216      7.316   123.1016 1.3039e+03     4.7975     -0.398     -0.577    28.1763 0.0000e+00
     -0.395      0.026     4.2670     52.241     31.001  32.946252     1.3024      7.326   121.8241 1.3235e+03     4.8803     -0.386     -0.561    28.1771 0.0000e+00
     -0.387      0.041     4.1923     52.286     31.001  32.925256     1.2754      7.341   121.0815 1.3290e+03     4.9209     -0.378     -0.548    28.1715 0.0000e+00
     -0.381      0.060     4.1325     52.636     31.009  32.902289     1.2695      7.358   115.1548 1.3409e+03     4.9473     -0.375     -0.545    28.1602 0.0000e+00
     -0.369      0.080     4.0933     53.159     31.007  32.858708     1.2485      7.374   104.0249 1.3697e+03     5.0286     -0.366     -0.531    28.1526 0.0000e+00
     -0.346      0.100     4.0694     53.718     31.033  32.842058     1.1877      7.382   104.2126 1.2597e+03     5.1179     -0.343     -0.497    28.1388 0.0000e+00
     -0.313      0.115     4.0752     54.185     31.116  32.891111     1.1417      7.378   116.4783 8.7521e+02     5.1379     -0.308     -0.447    28.1028 0.0000e+00
     -0.273      0.122     4.1119     54.421     31.191  32.944534     1.1420      7.368   123.0964 4.9343e+02     5.1006     -0.268     -0.389    28.0497 0.0000e+00
     -0.232      0.118     4.1609     54.367     31.249  32.980745     1.1742      7.357   117.8103 3.6682e+02     5.0429     -0.226     -0.327    27.9836 0.0000e+00
     -0.197      0.105     4.2137     54.071     31.301  33.011893     1.2065      7.348   111.2429 3.4181e+02     4.9868     -0.187     -0.271    27.9023 0.0000e+00
     -0.173      0.085     4.2601     53.585     31.297  33.004098     1.2081      7.340   108.7368 2.9796e+02     4.9339     -0.165     -0.240    27.8355 0.0000e+00
     -0.158      0.064     4.2834     52.981     31.158  32.886483     1.1942      7.332   101.7048 3.8234e+02     4.8819     -0.153     -0.223    27.8039 0.0000e+00
     -0.147      0.044     4.2787     52.826     30.923  32.667684     1.1881      7.327    95.0506 5.8573e+02     4.8705     -0.143     -0.209    27.7683 0.0000e+00
     -0.140      0.029     4.2583     54.474     30.804  32.514281     1.2082      7.325    93.9298 6.4064e+02     4.9323     -0.136     -0.198    27.7170 0.0000e+00
     -0.137      0.020     4.2211     58.590     30.861  32.489861     1.2467      7.325    93.5737 5.0891e+02     4.9800     -0.133     -0.193    27.6956 0.0000e+00
     -0.135      0.015     4.1629     63.997     30.950  32.499078     1.2613      7.324    93.2406 4.1533e+02     4.9340     -0.132     -0.192    27.7595 0.0000e+00
     -0.133      0.012     4.0922     69.104     31.000  32.498790     1.2524      7.323    93.0857 6.3153e+02     4.8897     -0.131     -0.190    27.8599 0.0000e+00
     -0.130      0.010     4.1899     73.195     31.013  32.486298     1.2476      7.321    93.0781 1.1219e+03     4.9226     -0.127     -0.185    27.8127 0.0000e+00
     -0.126      0.008     4.5819     76.248     31.010  32.474788     1.2615      7.321    93.4924 1.4094e+03     4.9557     -0.123     -0.178    27.6228 0.0000e+00
     -0.122      0.006     5.0721     78.339     31.023  32.486420     1.2875      7.321   100.5030 1.2585e+03     4.9487     -0.119     -0.174    27.4756 0.0000e+00
     -0.121      0.004     5.4994     79.430     31.038  32.500138     1.2958      7.323   107.2050 9.9899e+02     4.9065     -0.118     -0.171    27.3969 0.0000e+00
     -0.122      0.002     5.8229     79.552     31.051  32.513856     1.3031      7.327   100.7899 9.8066e+02     4.8205     -0.120     -0.173    27.3562 0.0000e+00
     -0.123      0.001     6.0614     79.014     31.059  32.525477     1.3339      7.331    93.4914 1.1371e+03     4.7292     -0.121     -0.175    27.3516 0.0000e+00
     -0.123      0.001     6.2304     78.323     31.044  32.513853     1.3517      7.331    92.6944 1.2295e+03     4.6910     -0.121     -0.175    27.3539 0.0000e+00
     -0.123      0.002     6.3172     77.792     31.026  32.500126     1.3441      7.331    92.7893 1.1847e+03     4.7010     -0.121     -0.175    27.3489 0.0000e+00
     -0.122      0.003     6.3201     77.481     31.009  32.486303     1.3413      7.332    93.6914 1.0553e+03     4.7473     -0.120     -0.173    27.3460 0.0000e+00
     -0.120      0.003     6.2571     77.359     30.992  32.473518     1.3600      7.334   101.7959 9.3135e+02     4.8752     -0.118     -0.171    27.3529 0.0000e+00
     -0.119      0.003     6.1938     77.336     30.987  32.472356     1.3783      7.337   110.1614 8.9328e+02     4.9831     -0.117     -0.170    27.3627 0.0000e+00
     -0.119      0.002     6.1511     77.328     30.985  32.472258     1.3708      7.340   105.0126 1.0542e+03     4.9588     -0.117     -0.169    27.3694 0.0000e+00
     -0.118      0.001     6.1259     77.257     30.987  32.472343     1.3444      7.344   105.0175 1.2927e+03     4.8887     -0.116     -0.168    27.3750 0.0000e+00
     -0.118      0.001     6.1190     77.085     30.994  32.473383     1.3183      7.348   118.4804 1.3728e+03     4.8531     -0.115     -0.167    27.3833 0.0000e+00
     -0.119      0.001     6.1182     76.896     31.009  32.484815     1.3124      7.351   126.3431 1.3140e+03     4.8695     -0.116     -0.168    27.3915 0.0000e+00
     -0.119      0.000     6.1188     76.771     31.012  32.483767     1.3232      7.352   126.7796 1.1949e+03     4.9165     -0.118     -0.171    27.3976 0.0000e+00
     -0.119     -0.001     6.1168     76.696     30.997  32.460706     1.3235      7.353   126.5110 1.1249e+03     4.9432     -0.116     -0.169    27.3934 0.0000e+00
     -0.117     -0.004     6.1002     76.673     31.007  32.459564     1.3164      7.358   126.2789 1.1083e+03     4.9536     -0.114     -0.166    27.3799 0.0000e+00
     -0.116     -0.005     6.0829     76.685     31.028  32.469949     1.3127      7.370   126.1248 1.0581e+03     4.9734     -0.114     -0.165    27.3710 0.0000e+00
     -0.119     -0.005     6.0761     76.677     31.025  32.459453     1.3116      7.385   126.1093 8.2598e+02     4.9777     -0.115     -0.168    27.3676 0.0000e+00
     -0.124     -0.004     6.0700     76.675     31.031  32.459444     1.3194      7.396   126.2634 4.6004e+02     4.9707     -0.121     -0.175    27.3588 0.0000e+00
     -0.129     -0.001     6.0704     76.695     31.046  32.469827     1.3240      7.400   126.4401 3.0646e+02     4.9577     -0.128     -0.185    27.3342 0.0000e+00
     -0.130      0.003     6.0778     76.718     31.036  32.458187     1.3181      7.397   125.7508 6.2171e+02     4.9228     -0.131     -0.189    27.3112 0.0000e+00
     -0.125      0.005     6.0754     76.766     31.022  32.445498     1.3144      7.391   119.3920 1.0741e+03     4.9247     -0.124     -0.179    27.3052 0.0000e+00
     -0.118      0.007     6.0749     76.813     31.019  32.443210     1.3201      7.385   107.8050 1.0397e+03     4.9808     -0.113     -0.165    27.2959 0.0000e+00
     -0.115      0.007     6.0812     76.811     31.011  32.430532     1.3122      7.378   100.2578 6.9057e+02     4.9175     -0.111     -0.161    27.2831 0.0000e+00
     -0.115      0.006     6.0797     76.772     31.006  32.418998     1.2778      7.368    97.7443 4.4128e+02     4.7396     -0.112     -0.163    27.2828 0.0000e+00
     -0.117      0.006     6.0845     76.717     31.024  32.430535     1.2620      7.362    96.2570 3.9423e+02     4.6751     -0.115     -0.168    27.2887 0.0000e+00
     -0.117      0.009     6.0905     76.659     31.043  32.443215     1.2792      7.363    95.6115 5.9065e+02     4.7184     -0.116     -0.168    27.2920 0.0000e+00
     -0.114      0.014     6.0891     76.589     31.051  32.445502     1.3282      7.368    95.5324 9.4627e+02     4.7846     -0.111     -0.162    27.2853 0.0000e+00
     -0.111      0.020     6.0878     76.491     31.069  32.458182     1.3961      7.368    95.5589 1.1771e+03     4.8264     -0.109     -0.158    27.2709 0.0000e+00
     -0.105      0.024     6.0837     76.376     31.085  32.469720     1.4266      7.361    95.8458 1.2013e+03     4.8138     -0.105     -0.153    27.2589 0.0000e+00
     -0.094      0.024     6.0809     76.276     31.079  32.458205     1.4302      7.352    96.0753 1.2083e+03     4.8368     -0.092     -0.134    27.2484 0.0000e+00
     -0.082      0.019     6.0771     76.186     31.068  32.445743     1.4224      7.347    95.4093 1.4819e+03     4.8668     -0.078     -0.113    27.2381 0.0000e+00
     -0.075      0.012     6.0702     76.117     31.063  32.445836     1.3906      7.349    94.4178 1.7300e+03     4.7657     -0.072     -0.104    27.2290 0.0000e+00
     -0.074      0.006     6.0603     76.119     31.069  32.459345     1.3625      7.358    93.9818 1.6034e+03     4.6396     -0.071     -0.104    27.2200 0.0000e+00
     -0.079      0.004     6.0539     76.188     31.084  32.482283     1.3575      7.373    94.1810 1.4885e+03     4.6406     -0.076     -0.110    27.2107 0.0000e+00
     -0.084      0.008     6.0478     76.277     31.067  32.469592     1.3714      7.391    94.7625 1.2772e+03     4.6750     -0.084     -0.121    27.2078 0.0000e+00
     -0.088      0.019     6.0377     76.362     31.037  32.432705     1.3892      7.406    95.2476 9.0017e+02     4.7472     -0.089     -0.128    27.2182 0.0000e+00
     -0.083      0.037     6.0379     76.448     31.038  32.416673     1.3887      7.418    95.8304 6.6847e+02     4.9335     -0.085     -0.123    27.2302 0.0000e+00
     -0.070      0.061     6.0431     76.453     31.053  32.402527     1.3747      7.427    96.6462 6.2564e+02     5.0831     -0.070     -0.101    27.2439 0.0000e+00
     -0.051      0.087     6.0502     76.268     31.081  32.388416     1.3775      7.426    97.1954 6.1938e+02     5.1221     -0.050     -0.072    27.2569 0.0000e+00
     -0.027      0.108     6.0561     75.909     31.121  32.372792     1.4306      7.414    97.4811 6.0322e+02     5.0629     -0.030     -0.044    27.2481 0.0000e+00
      0.007      0.119     6.0684     75.433     31.145  32.340317     1.5173      7.399    97.6918 6.1564e+02     4.9469      0.002      0.003    27.2186 0.0000e+00
      0.050      0.118     6.0796     74.853     31.160  32.312675     1.5606      7.387    97.8498 7.8514e+02     4.8819      0.050      0.073    27.1757 0.0000e+00
      0.091      0.106     6.0693     74.184     31.161  32.292099     1.5546      7.382    97.9292 1.0210e+03     4.8918      0.093      0.136    27.1056 0.0000e+00
      0.121      0.085     6.0503     73.530     31.155  32.281702     1.5781      7.380    97.9629 1.1182e+03     4.8953      0.124      0.179    27.0054 0.0000e+00
      0.139      0.060     6.0232     73.050     31.183  32.313752     1.6373      7.380    97.9992 1.1483e+03     4.7877      0.140      0.202    26.9041 0.0000e+00
      0.144      0.036     5.9853     72.795     31.226  32.362629     1.6706      7.380    98.1102 1.0032e+03     4.6506      0.144      0.209    26.8293 0.0000e+00
      0.143      0.019     5.9323     72.733     31.223  32.365485     1.6731      7.380    98.4440 9.0837e+02     4.6031      0.141      0.205    26.7991 0.0000e+00
      0.139      0.012     5.8733     72.827     31.199  32.348299     1.6422      7.377    98.9380 9.0955e+02     4.6235      0.135      0.196    26.7991 0.0000e+00
      0.137      0.012     5.8335     72.987     31.190  32.345036     1.5886      7.373    99.3503 7.2474e+02     4.6583      0.133      0.193    26.8065 0.0000e+00
      0.141      0.015     5.8148     73.127     31.170  32.326047     1.5569      7.372    99.3003 6.0656e+02     4.6481      0.137      0.198    26.8117 0.0000e+00
      0.151      0.018     5.8085     73.286     31.150  32.308900     1.5511      7.372    99.0216 6.5921e+02     4.6029      0.148      0.214    26.8203 0.0000e+00
      0.162      0.018     5.8170     73.509     31.161  32.327918     1.5844      7.375    99.0775 8.2357e+02     4.5897      0.160      0.234    26.8380 0.0000e+00
      0.167      0.012     5.8335     73.707     31.191  32.365799     1.6513      7.375    99.5460 9.7156e+02     4.6257      0.165      0.240    26.8477 0.0000e+00
      0.168     -0.007     5.8418     73.776     31.204  32.386542     1.6940      7.374   100.2122 8.1575e+02     4.6957      0.164      0.238    26.8448 0.0000e+00
      0.169     -0.042     5.8515     73.761     31.189  32.388529     1.6937      7.373   100.9382 5.6175e+02     4.7195      0.165      0.240    26.8500 0.0000e+00
      0.169     -0.087     5.8712     73.810     31.154  32.389848     1.6723      7.376   108.1509 4.9030e+02     4.6739      0.170      0.247    26.8667 0.0000e+00
      0.153     -0.130     5.8902     73.998     31.124  32.402555     1.6099      7.383   122.1173 6.5170e+02     4.6917      0.161      0.235    26.8796 0.0000e+00
      0.107     -0.165     5.8941     74.332     31.103  32.415439     1.5138      7.389   129.9048 9.0343e+02     4.7641      0.116      0.168    26.8811 0.0000e+00
      0.036     -0.191     5.8841     74.773     31.086  32.418894     1.4593      7.390   125.5621 9.5760e+02     4.7622      0.035      0.051    26.9013 0.0000e+00
     -0.037     -0.211     5.8795     75.238     31.101  32.444357     1.4338      7.393   121.3192 1.0898e+03     4.7037     -0.045     -0.065    26.9740 0.0000e+00
     -0.093     -0.223     5.8857     75.680     31.112  32.469724     1.3301      7.403   128.7658 1.3014e+03     4.6716     -0.097     -0.140    27.0548 0.0000e+00
     -0.133     -0.222     5.9072     76.088     31.085  32.472034     1.1708      7.415   136.0115 1.2231e+03     4.6816     -0.130     -0.189    27.1087 0.0000e+00
     -0.178     -0.205     5.9419     76.414     31.051  32.472332     1.0976      7.421   135.6208 1.2137e+03     4.6536     -0.167     -0.242    27.1457 0.0000e+00
     -0.240     -0.175     5.9792     76.617     31.031  32.473385     1.1021      7.422   133.8513 1.3877e+03     4.6060     -0.228     -0.331    27.1521 0.0000e+00
     -0.312     -0.134     6.0126     76.699     31.037  32.484799     1.1013      7.424   132.4260 1.4637e+03     4.6867     -0.315     -0.457    27.1615 0.0000e+00
     -0.362     -0.084     6.0403     76.686     31.035  32.483542     1.0958      7.431   130.9485 1.4559e+03     4.8437     -0.371     -0.538    27.2217 0.0000e+00
     -0.372     -0.027     6.0603     76.639     31.006  32.458190     1.1013      7.437   124.6770 1.3736e+03     4.9327     -0.375     -0.543    27.2947 0.0000e+00
     -0.351      0.033     6.0712     76.613     30.983  32.431878     1.1019      7.438   118.9775 1.1306e+03     4.9432     -0.348     -0.505    27.3314 0.0000e+00
     -0.317      0.082     6.0786     76.603     30.996  32.419003     1.0867      7.436   123.4671 8.3636e+02     4.9024     -0.309     -0.449    27.3259 0.0000e+00
     -0.282      0.107     6.0756     76.574     31.049  32.429271     1.0753      7.432   128.7133 7.7900e+02     4.8836     -0.276     -0.400    27.3212 0.0000e+00
     -0.248      0.107     6.0679     76.455     31.091  32.429165     1.0813      7.427   129.1512 1.0459e+03     4.9210     -0.245     -0.355    27.3381 0.0000e+00
     -0.215      0.087     6.0659     76.177     31.105  32.417641     1.1007      7.420   129.1065 1.3936e+03     4.9447     -0.209     -0.304    27.3477 0.0000e+00
     -0.189      0.056     6.0701     75.776     31.106  32.416696     1.1192      7.411   128.8603 1.5417e+03     4.8627     -0.181     -0.261    27.3033 0.0000e+00
     -0.175      0.019     6.0800     75.386     31.097  32.417741     1.1287      7.405   128.2393 1.5396e+03     4.6811     -0.167     -0.242    27.2133 0.0000e+00
     -0.177     -0.017     6.0820     75.156     31.099  32.430296     1.1407      7.405   127.5350 1.5275e+03     4.5927     -0.168     -0.245    27.1346 0.0000e+00
     -0.192     -0.045     6.0639     75.161     31.099  32.441716     1.1569      7.412   126.9696 1.5157e+03     4.6491     -0.185     -0.268    27.0892 0.0000e+00
     -0.218     -0.057     6.0269     75.326     31.079  32.429035     1.1569      7.420   122.5225 1.5163e+03     4.6800     -0.211     -0.307    27.0922 0.0000e+00
     -0.248     -0.051     5.9888     75.506     31.053  32.403781     1.1413      7.424   113.6013 1.5308e+03     4.6581     -0.246     -0.356    27.1181 0.0000e+00
     -0.271     -0.028     5.9661     75.654     31.046  32.389969     1.1347      7.423   107.7244 1.5329e+03     4.6577     -0.272     -0.395    27.1342 0.0000e+00
     -0.278      0.007     5.9665     75.767     31.056  32.388817     1.1440      7.418   106.0139 1.5269e+03     4.6753     -0.278     -0.403    27.1511 0.0000e+00
     -0.269      0.046     5.9841     75.782     31.074  32.389834     1.1531      7.412   105.0519 1.5366e+03     4.7003     -0.269     -0.391    27.1721 0.0000e+00
     -0.244      0.081     5.9987     75.656     31.098  32.402243     1.1699      7.407   104.4385 1.5385e+03     4.7546     -0.243     -0.352    27.1714 0.0000e+00
     -0.210      0.108     6.0105     75.465     31.103  32.412040     1.1978      7.402   104.0178 1.4003e+03     4.8195     -0.206     -0.298    27.1596 0.0000e+00
     -0.174      0.125     6.0237     75.339     31.065  32.381493     1.2074      7.400   103.6646 1.0890e+03     4.8703     -0.170     -0.247    27.1460 0.0000e+00
     -0.139      0.132     6.0312     75.317     31.041  32.349914     1.2109      7.399   103.3519 7.9560e+02     4.9246     -0.136     -0.197    27.1086 0.0000e+00
     -0.105      0.133     6.0217     75.340     31.062  32.347203     1.2572      7.398   103.1620 7.1143e+02     4.9639     -0.103     -0.150    27.0772 0.0000e+00
     -0.071      0.128     5.9997     75.331     31.093  32.348677     1.3339      7.395   103.0897 9.1142e+02     4.9352     -0.070     -0.102    27.0938 0.0000e+00
     -0.037      0.120     5.9853     75.247     31.130  32.367674     1.3730      7.391   102.9938 1.2660e+03     4.8853     -0.035     -0.051    27.1256 0.0000e+00
     -0.005      0.110     5.9873     75.085     31.143  32.386676     1.3729      7.386   102.6906 1.2751e+03     4.9070     -0.004     -0.006    27.1142 0.0000e+00
      0.024      0.101     5.9966     74.901     31.125  32.388245     1.3824      7.381   102.2639 8.5655e+02     4.9578      0.025      0.037    27.0687 0.0000e+00
      0.047      0.095     6.0029     74.749     31.114  32.386675     1.3963      7.381   102.3087 6.0074e+02     4.9535      0.049      0.071    27.0068 0.0000e+00
      0.065      0.094     6.0025     74.655     31.107  32.367710     1.3905      7.380   102.8879 5.6553e+02     4.8887      0.065      0.094    26.9624 0.0000e+00
      0.081      0.094     5.9844     74.631     31.114  32.349111     1.3872      7.375   103.5017 5.2744e+02     4.8580      0.077      0.112    26.9811 0.0000e+00
      0.103      0.093     5.9633     74.608     31.143  32.351959     1.3987      7.370   103.8799 5.0832e+02     4.8563      0.095      0.139    27.0301 0.0000e+00
      0.136      0.093     5.9486     74.468     31.158  32.338696     1.4038      7.367   103.9325 5.0524e+02     4.7991      0.134      0.195    27.0516 0.0000e+00
      0.169      0.094     5.9417     74.195     31.172  32.315506     1.3988      7.368   103.9657 5.2206e+02     4.7467      0.171      0.248    27.0325 0.0000e+00
      0.191      0.097     5.9480     73.838     31.217  32.325116     1.3886      7.373   104.2815 5.9400e+02     4.7009      0.188      0.273    26.9754 0.0000e+00
      0.207      0.101     5.9558     73.348     31.247  32.328031     1.3804      7.377   104.6532 6.1273e+02     4.6553      0.202      0.293    26.9307 0.0000e+00
      0.226      0.103     5.9485     72.713     31.229  32.287303     1.4246      7.380   104.8465 5.0413e+02     4.7076      0.218      0.317    26.9022 0.0000e+00
      0.252      0.103     5.9300     72.059     31.239  32.276442     1.5241      7.381   104.8117 4.6552e+02     4.8554      0.243      0.353    26.8267 0.0000e+00
      0.288      0.100     5.9127     71.494     31.302  32.323474     1.5756      7.381   104.5762 4.9336e+02     4.9394      0.282      0.409    26.7597 0.0000e+00
      0.325      0.092     5.8789     71.027     31.335  32.348736     1.5649      7.381   104.4088 5.1821e+02     4.8695      0.324      0.469    26.7204 0.0000e+00
      0.351      0.082     5.8257     70.644     31.315  32.328266     1.5776      7.381   104.4220 6.1907e+02     4.7618      0.350      0.508    26.6858 0.0000e+00
      0.365      0.070     5.7737     70.373     31.317  32.329576     1.6118      7.379   104.5640 6.7057e+02     4.6961      0.360      0.523    26.6554 0.0000e+00
      0.372      0.058     5.7323     70.212     31.357  32.364580     1.6204      7.374   104.7485 5.9467e+02     4.6564      0.365      0.529    26.6164 0.0000e+00
      0.380      0.050     5.6980     70.086     31.375  32.371088     1.6243      7.371   104.7613 5.1504e+02     4.6569      0.371      0.538    26.6051 0.0000e+00
      0.393      0.049     5.6640     69.879     31.364  32.344846     1.6500      7.373   104.8905 5.9441e+02     4.7017      0.384      0.557    26.6130 0.0000e+00
      0.408      0.055     5.6425     69.548     31.390  32.364270     1.6821      7.378   105.3642 7.3841e+02     4.7548      0.402      0.582    26.6129 0.0000e+00
      0.422      0.065     5.6328     69.217     31.441  32.415730     1.6960      7.380   105.5842 7.2510e+02     4.7528      0.417      0.603    26.6040 0.0000e+00
      0.434      0.073     5.6282     69.028     31.423  32.396441     1.6855      7.380   105.4855 6.4324e+02     4.6778      0.424      0.615    26.5833 0.0000e+00
      0.452      0.079     5.6182     68.969     31.413  32.384641     1.6634      7.381   105.7190 5.7212e+02     4.6330      0.437      0.634    26.5518 0.0000e+00
      0.480      0.083     5.5870     68.936     31.493  32.463252     1.6439      7.380   106.1715 5.1527e+02     4.6890      0.473      0.685    26.5392 0.0000e+00
      0.508      0.085     5.5545     68.900     31.561  32.522729     1.6327      7.376   106.3105 4.5742e+02     4.7403      0.501      0.728    26.5485 0.0000e+00
      0.529      0.084     5.5405     68.858     31.583  32.533156     1.6202      7.376   106.1945 3.8791e+02     4.7064      0.516      0.749    26.5408 0.0000e+00
      0.551      0.079     5.5411     68.717     31.647  32.589307     1.6172      7.379   106.2314 3.5676e+02     4.6550      0.540      0.784    26.5384 0.0000e+00
      0.571      0.073     5.5385     68.441     31.759  32.694423     1.6467      7.383   106.4985 3.9427e+02     4.6657      0.562      0.816    26.5420 0.0000e+00
      0.586      0.068     5.5358     68.086     31.868  32.789697     1.6860      7.386   106.6720 4.4823e+02     4.6989      0.575      0.834    26.5173 0.0000e+00
      0.600      0.064     5.5402     67.615     32.018  32.917019     1.7011      7.388   106.6937 4.2874e+02     4.6808      0.588      0.852    26.4924 0.0000e+00
      0.616      0.060     5.5312     66.917     32.231  33.092609     1.6956      7.388   106.7605 3.9533e+02     4.6523      0.603      0.874    26.4832 0.0000e+00
      0.632      0.058     5.5058     65.929     32.398  33.200837     1.7112      7.387   106.8776 3.9653e+02     4.6612      0.621      0.901    26.4714 0.0000e+00
      0.647      0.058     5.4818     64.518     32.470  33.211071     1.7569      7.386   106.9912 3.9073e+02     4.6856      0.636      0.922    26.4420 0.0000e+00
      0.660      0.058     5.4523     62.471     32.514  33.216243     1.7902      7.385   107.1871 3.6665e+02     4.6738      0.646      0.937    26.4062 0.0000e+00
      0.674      0.058     5.4020     59.836     32.581  33.263315     1.7968      7.383   107.3538 3.5208e+02     4.6212      0.660      0.958    26.3483 0.0000e+00
      0.689      0.058     5.3357     57.019     32.674  33.336368     1.7785      7.381   107.3716 3.4672e+02     4.5962      0.676      0.980    26.2337 0.0000e+00
      0.704      0.062     5.2431     54.496     32.764  33.402062     1.7442      7.380   107.4890 3.4750e+02     4.6451      0.690      1.001    26.1175 0.0000e+00
      0.719      0.067     5.0818     52.475     32.817  33.423551     1.7327      7.379   107.7397 3.5213e+02     4.6999      0.706      1.024    26.0630 0.0000e+00
      0.734      0.071     4.8555     50.815     32.840  33.405927     1.7466      7.377   107.9081 3.2495e+02     4.6778      0.720      1.044    26.0437 0.0000e+00
      0.753      0.074     4.6148     49.312     32.864  33.379122     1.7457      7.373   108.0622 3.1299e+02     4.6518      0.736      1.067    26.0105 0.0000e+00
      0.777      0.075     4.4056     47.823     32.895  33.352987     1.7309      7.370   108.3989 3.3273e+02     4.6931      0.763      1.105    25.9712 0.0000e+00
      0.799      0.075     4.2529     46.156     32.943  33.343459     1.7254      7.370   108.8816 3.2104e+02     4.7333      0.786      1.140    25.9220 0.0000e+00
      0.818      0.076     4.1298     44.226     32.980  33.327230     1.7290      7.368   109.3388 3.0271e+02     4.7275      0.803      1.165    25.8599 0.0000e+00
      0.835      0.076     4.0140     42.172     32.987  33.283489     1.7577      7.364   109.7101 3.0678e+02     4.7595      0.819      1.188    25.7839 0.0000e+00
      0.851      0.076     3.9076     40.182     33.007  33.258328     1.8065      7.359   110.0157 3.0470e+02     4.8461      0.833      1.208    25.6889 0.0000e+00
      0.869      0.077     3.7819     38.428     33.060  33.276558     1.8370      7.354   110.1945 2.8922e+02     4.9212      0.852      1.234    25.5989 0.0000e+00
      0.892      0.078     3.6224     37.015     33.119  33.313635     1.8517      7.349   110.3236 2.7289e+02     4.9843      0.875      1.269    25.5175 0.0000e+00
      0.916      0.079     3.4544     35.936     33.149  33.326173     1.8668      7.344   110.4583 2.5976e+02     4.9940      0.899      1.304    25.4434 0.0000e+00
      0.936      0.077     3.2904     35.190     33.146  33.301329     1.8693      7.340   110.4463 2.6428e+02     4.9360      0.919      1.333    25.3696 0.0000e+00
      0.954      0.072     3.1457     34.764     33.135  33.266825     1.8498      7.335   110.3501 2.7632e+02     4.8979      0.934      1.355    25.3112 0.0000e+00
      0.973      0.066     3.0333     34.539     33.109  33.225970     1.8390      7.331   110.3279 2.6399e+02     4.9098      0.954      1.383    25.2844 0.0000e+00
      0.991      0.059     2.9455     34.387     33.075  33.187750     1.8472      7.327   110.3499 2.4666e+02     4.9419      0.975      1.413    25.2650 0.0000e+00
      1.005      0.054     2.8846     34.242     33.073  33.185107     1.8577      7.324   110.3580 2.4435e+02     4.9799      0.986      1.430    25.2309 0.0000e+00
      1.015      0.049     2.8568     34.072     33.085  33.194014     1.8730      7.321   110.4265 2.3968e+02     5.0274      0.995      1.442    25.1860 0.0000e+00
      1.026      0.047     2.8439     33.890     33.070  33.168635     1.8910      7.316   110.6614 2.3008e+02     5.1060      1.005      1.458    25.1640 0.0000e+00
      1.036      0.050     2.8320     33.734     33.057  33.131846     1.9085      7.312   110.9612 2.3003e+02     5.1788      1.016      1.476    25.1660 0.0000e+00
      1.046      0.055     2.8217     33.581     33.089  33.129572     1.9268      7.308   111.2124 2.3211e+02     5.1219      1.024      1.486    25.1635 0.0000e+00
      1.058      0.063     2.8075     33.357     33.136  33.141092     1.9456      7.304   111.4611 2.2258e+02     4.9994      1.036      1.502    25.1631 0.0000e+00
      1.076      0.069     2.7908     32.967     33.168  33.144276     1.9616      7.300   111.6455 2.1119e+02     4.9954      1.055      1.530    25.1528 0.0000e+00
      1.098      0.074     2.7807     32.325     33.210  33.168027     1.9621      7.295   111.6357 2.1317e+02     5.0395      1.076      1.560    25.1123 0.0000e+00
      1.122      0.076     2.7739     31.501     33.224  33.174630     1.9435      7.290   111.5997 2.1867e+02     5.0885      1.101      1.597    25.0559 0.0000e+00
      1.144      0.076     2.7602     30.696     33.154  33.097292     1.9194      7.285   111.7262 2.1121e+02     5.1439      1.124      1.630    24.9978 0.0000e+00
      1.163      0.072     2.7350     29.983     33.073  32.993762     1.9029      7.280   111.7887 2.0285e+02     5.1279      1.142      1.656    24.9515 0.0000e+00
      1.179      0.067     2.6814     29.262     33.055  32.937247     1.9111      7.276   111.7540 2.0059e+02     5.1342      1.156      1.677    24.9230 0.0000e+00
      1.194      0.062     2.6045     28.381     33.081  32.921126     1.9521      7.272   111.8225 1.9717e+02     5.1863      1.169      1.697    24.9173 0.0000e+00
      1.210      0.058     2.5359     27.273     33.123  32.925596     1.9992      7.269   111.9281 1.9084e+02     5.2107      1.186      1.721    24.9191 0.0000e+00
      1.225      0.056     2.4825     26.044     33.160  32.927834     2.0147      7.266   111.9124 1.8524e+02     5.1901      1.202      1.743    24.8855 0.0000e+00
      1.238      0.058     2.4309     24.852     33.155  32.884726     2.0067      7.264   111.8904 1.8492e+02     5.1416      1.214      1.761    24.8169 0.0000e+00
      1.250      0.061     2.3641     23.743     33.101  32.784738     1.9854      7.261   112.0074 1.8124e+02     5.1372      1.226      1.778    24.7487 0.0000e+00
      1.263      0.066     2.2701     22.668     33.037  32.669837     1.9483      7.258   112.1214 1.7465e+02     5.1712      1.238      1.796    24.6944 0.0000e+00
      1.280      0.070     2.1633     21.529     32.998  32.573199     1.9165      7.253   112.1511 1.7405e+02     5.1779      1.253      1.817    24.6453 0.0000e+00
      1.301      0.073     2.0662     20.250     32.997  32.503829     1.8918      7.248   112.1086 1.7282e+02     5.1490      1.275      1.849    24.5913 0.0000e+00
      1.325      0.075     1.9780     18.850     33.036  32.464991     1.8829      7.244   112.0371 1.6767e+02     5.1298      1.300      1.885    24.5198 0.0000e+00
      1.347      0.075     1.8940     17.370     33.140  32.483899     1.8919      7.240   112.0607 1.6233e+02     5.1503      1.322      1.918    24.4404 0.0000e+00
      1.364      0.074     1.8053     15.804     33.222  32.478720     1.9008      7.236   112.1364 1.5612e+02     5.1579      1.338      1.941    24.3568 0.0000e+00
      1.379      0.071     1.7000     14.167     33.160  32.338850     1.9074      7.231   112.0055 1.5063e+02     5.1194      1.352      1.961    24.2520 0.0000e+00
      1.396      0.070     1.5841     12.466     33.074  32.187412     1.9130      7.228   111.8550 1.4748e+02     5.1288      1.369      1.986    24.1309 0.0000e+00
      1.415      0.070     1.4652     10.713     33.044  32.105795     1.9188      7.226   111.9525 1.4401e+02     5.2029      1.388      2.013    24.0064 0.0000e+00
      1.433      0.071     1.3352      9.035     32.962  31.985940     1.9189      7.223   111.9789 1.3991e+02     5.2292      1.407      2.040    23.8740 0.0000e+00
      1.450      0.074     1.1995      7.605     32.831  31.815975     1.9134      7.220   111.9160 1.3554e+02     5.1741      1.421      2.061    23.7483 0.0000e+00
      1.469      0.075     1.0594      6.487     32.782  31.699072     1.9111      7.216   111.9656 1.3139e+02     5.1175      1.440      2.088    23.6434 0.0000e+00
      1.489      0.075     0.9072      5.623     32.835  31.650143     1.9003      7.212   111.9772 1.2854e+02     5.2276      1.461      2.119    23.5664 0.0000e+00
      1.510      0.074     0.7590      4.917     32.891  31.604619     1.8826      7.208   111.8838 1.2588e+02     5.4815      1.480      2.146    23.5148 0.0000e+00
      1.530      0.073     0.6363      4.279     32.897  31.528885     1.8803      7.206   111.6964 1.2292e+02     5.6252      1.503      2.178    23.4647 0.0000e+00
      1.549      0.071     0.5451      3.686     32.807  31.368320     1.8803      7.202   111.5187 1.2045e+02     5.6328      1.521      2.205    23.3668 0.0000e+00
      1.564      0.069     0.4758      3.179     32.635  31.121265     1.8665      7.197   111.3698 1.1840e+02     5.6758      1.534      2.224    23.1854 0.0000e+00
      1.580      0.067     0.4199      2.739     32.491  30.887316     1.8546      7.192   111.1871 1.1617e+02     5.8034      1.549      2.247    23.0249 0.0000e+00
      1.598      0.066     0.3673      2.303     32.462  30.758385     1.8525      7.188   111.1164 1.1377e+02     5.9116      1.567      2.273    22.9142 0.0000e+00
      1.615      0.068     0.3140      1.889     32.545  30.766726     1.8413      7.184   111.2024 1.1161e+02     5.9251      1.585      2.299    22.8064 0.0000e+00
      1.631      0.072     0.2713      1.566     32.535  30.734489     1.8115      7.180   111.3669 1.0946e+02     5.9327      1.601      2.321    22.6843 0.0000e+00
      1.647      0.075     0.2383      1.362     32.380  30.558770     1.7825      7.176   111.3848 1.0728e+02     6.0042      1.613      2.340    22.5329 0.0000e+00
      1.666      0.076     0.1997      1.276     32.321  30.417143     1.7826      7.171   111.1606 1.0513e+02     6.0712      1.632      2.367    22.3546 0.0000e+00
      1.690      0.075     0.1609      1.283     32.386  30.353244     1.8041      7.167   110.9800 1.0244e+02     6.1281      1.657      2.403    22.2237 0.0000e+00
      1.714      0.073     0.1329      1.346     32.446  30.293144     1.8097      7.162   110.9212 9.9876e+01     6.1456      1.681      2.440    22.2299 0.0000e+00
      1.734      0.070     0.1146      1.429     32.439  30.197476     1.8418      7.158   110.7939 9.8066e+01     6.1119      1.702      2.470    22.2286 0.0000e+00
      1.748      0.065     0.1083      1.486     32.404  30.083912     1.9180      7.154   110.5594 9.6486e+01     6.1296      1.715      2.488    22.0770 0.0000e+00
      1.760      0.060     0.1111      1.498     32.478  30.061022     1.9567      7.149   110.3228 9.5005e+01     6.1886      1.726      2.503    21.8452 0.0000e+00
      1.773      0.056     0.1176      1.489     32.697  30.174163     1.9687      7.145   110.0840 9.3531e+01     6.2109      1.738      2.521    21.6569 0.0000e+00
      1.788      0.055     0.1269      1.458     32.922  30.310678     2.0207      7.142   109.8228 9.2033e+01     6.1610      1.753      2.543    21.5376 0.0000e+00
      1.803      0.056     0.1337      1.388     32.982  30.316853     2.1036      7.139   109.6598 9.0711e+01     6.1320      1.769      2.566    21.4247 0.0000e+00
      1.817      0.059     0.1328      1.304     32.929  30.248762     2.1546      7.135   109.5758 8.9102e+01     6.1671      1.781      2.584    21.2733 0.0000e+00
      1.831      0.061     0.1328      1.224     32.916  30.248096     2.1627      7.133   109.4958 8.6939e+01     6.1419      1.795      2.603    21.1264 0.0000e+00
      1.847      0.063     0.1320      1.148     32.974  30.308818     2.2521      7.129   109.3816 8.4713e+01     6.0657      1.810      2.626    21.0178 0.0000e+00
      1.864      0.064     0.1239      1.087     33.063  30.349028     2.4362      7.124   109.3132 8.2556e+01     6.0315      1.827      2.650    20.9411 0.0000e+00
      1.882      0.064     0.1161      1.057     33.153  30.353849     2.5490      7.120   109.2706 8.0388e+01     6.0704      1.844      2.676    20.9039 0.0000e+00
      1.901      0.060     0.1094      1.043     33.244  30.366996     2.5754      7.115   109.0387 7.8294e+01     6.1258      1.863      2.702    20.9377 0.0000e+00
      1.918      0.054     0.1020      1.012     33.312  30.381110     2.6141      7.111   108.6602 7.6745e+01     6.0866      1.883      2.731    20.9946 0.0000e+00
      1.931      0.048     0.0959      0.976     33.365  30.397645     2.6844      7.108   108.3077 7.6094e+01     5.9722      1.896      2.750    20.9165 0.0000e+00
      1.941      0.043     0.0936      0.949     33.428  30.440081     2.7255      7.106   108.0467 7.5824e+01     5.8699      1.904      2.761    20.7580 0.0000e+00
      1.947      0.042     0.0949      0.912     33.503  30.513819     2.7371      7.105   107.8276 7.5304e+01     5.8405      1.910      2.770    20.6582 0.0000e+00
      1.953      0.045     0.0913      0.880     33.598  30.591873     2.8669      7.104   107.6366 7.4304e+01     5.8221      1.915      2.776    20.5876 0.0000e+00
      1.963      0.052     0.0865      0.869     33.843  30.749868     3.0873      7.102   107.4593 7.2918e+01     5.7151      1.925      2.791    20.5417 0.0000e+00
      1.978      0.061     0.0867      0.865     34.545  31.282915     3.1879      7.099   107.4053 7.1133e+01     5.6400      1.939      2.811    20.5115 0.0000e+00
      1.997      0.070     0.0817      0.868     35.727  32.218574     3.2018      7.095   107.4130 6.8874e+01     5.6655      1.957      2.838    20.5321 0.0000e+00
      2.018      0.076     0.0780      0.879     36.958  33.123409     3.2638      7.091   107.0360 6.6654e+01     5.5791      1.980      2.872    20.5702 0.0000e+00
      2.040      0.078     0.0785      0.888     37.850  33.663779     3.3468      7.086   106.2017 6.4669e+01     5.3131      2.000      2.902    20.4425 0.0000e+00
      2.062      0.076     0.0782      0.887     38.343  33.869729     3.3720      7.082   105.0692 6.2668e+01     5.1137      2.022      2.933    20.2735 0.0000e+00
      2.083      0.071     0.0780      0.864     38.414  33.774488     3.3603      7.078   103.5831 6.0947e+01     5.1150      2.045      2.965    20.1368 0.0000e+00
      2.101      0.067     0.0806      0.826     38.180  33.463073     3.3639      7.075   102.0852 5.9777e+01     5.1922      2.064      2.993    19.8492 0.0000e+00
      2.114      0.063     0.0816      0.806     38.060  33.274549     3.3408      7.073   101.0683 5.8740e+01     5.1254      2.073      3.007    19.4489 0.0000e+00
      2.126      0.059     0.0827      0.795     38.133  33.270297     3.2878      7.072   100.2364 5.7435e+01     4.9562      2.082      3.021    19.1209 0.0000e+00
      2.142      0.057     0.0815      0.781     38.208  33.284758     3.2650      7.070    98.9950 5.6012e+01     4.8879      2.101      3.047    18.9334 0.0000e+00
      2.158      0.056     0.0754      0.781     38.289  33.322526     3.2641      7.067    97.5027 5.4694e+01     4.9144      2.118      3.071    18.8121 0.0000e+00
      2.173      0.055     0.0752      0.794     38.414  33.409884     3.3194      7.064    96.3032 5.3458e+01     5.0030      2.132      3.092    18.7021 0.0000e+00
      2.187      0.052     0.0748      0.810     38.490  33.453310     3.4342      7.061    95.3329 5.2262e+01     5.1057      2.145      3.111    18.6133 0.0000e+00
      2.200      0.047     0.0722      0.822     38.456  33.403720     3.4875      7.057    94.4613 5.1182e+01     5.1320      2.156      3.127    18.5440 0.0000e+00
      2.212      0.042     0.0728      0.813     38.360  33.317509     3.4802      7.052    93.7667 5.0274e+01     5.1160      2.170      3.148    18.5033 0.0000e+00
      2.223      0.037     0.0744      0.792     38.255  33.235186     3.5287      7.047    92.8704 4.9544e+01     5.0832      2.181      3.163    18.4879 0.0000e+00
      2.231      0.033     0.0756      0.785     38.322  33.296031     3.6333      7.044    91.4539 4.8959e+01     5.0086      2.189      3.174    18.4532 0.0000e+00
      2.238      0.030     0.0782      0.785     39.338  34.179981     3.6798      7.042    89.9761 4.8430e+01     4.9306      2.194      3.182    18.4160 0.0000e+00
      2.243      0.029     0.0771      0.770     49.506  43.035296     3.6673      7.039    88.6828 4.8038e+01     4.8573      2.200      3.190    18.4157 0.0000e+00
      2.248      0.030     0.0733      0.758     82.195  71.457116     3.6725      7.037    87.0018 4.7769e+01     4.8747      2.204      3.197    18.4390 0.0000e+00
      2.256      0.032     0.0730      0.763    131.379 114.104788     3.6935      7.036    84.8800 4.7263e+01     5.0377      2.210      3.206    18.4439 0.0000e+00
      2.266      0.035     0.0751      0.778    176.561 153.084298     3.7044      7.034    82.9895 4.6569e+01     5.1549      2.222      3.222    18.4270 0.0000e+00
      2.277      0.038     0.0721      0.793    208.756 180.615453     3.7039      7.033    81.6093 4.6003e+01     5.1296      2.233      3.238    18.4503 0.0000e+00
      2.287      0.039     0.0699      0.783    226.671 195.695415     3.6630      7.031    80.3240 4.5365e+01     5.0400      2.242      3.252    18.4904 0.0000e+00
      2.297      0.036     0.0718      0.758    233.406 201.157459     3.5846      7.028    78.4626 4.4507e+01     4.9587      2.252      3.266    18.4540 0.0000e+00
      2.308      0.030     0.0724      0.739    236.480 203.578810     3.5380      7.022    75.3649 4.3571e+01     4.9328      2.264      3.282    18.3655 0.0000e+00
      2.318      0.017     0.0763      0.718    240.745 207.133384     3.5329      7.013    70.8321 4.2683e+01     4.9320      2.275      3.300    18.2668 0.0000e+00
      2.325     -0.004     0.0742      0.693    245.519 211.201447     3.4889      7.004    66.2466 4.2183e+01     4.9494      2.281      3.308    18.1576 0.0000e+00
      2.326     -0.039     0.0708      0.678    241.641 207.867560     3.3808      6.999    63.4583 4.2533e+01     4.9717      2.284      3.313    18.0765 0.0000e+00
      2.319     -0.097     0.0702      0.688    223.928 192.646253     3.3160      6.997    62.4999 4.3961e+01     4.9627      2.278      3.306    18.0314 0.0000e+00
      2.299     -0.181     0.0680      0.704    208.734 179.596168     3.2974      6.997    62.0581 4.6326e+01     4.9769      2.259      3.276    18.0092 0.0000e+00
      2.263     -0.271     0.0656      0.709    218.295 187.844444     3.0721      6.999    61.3863 5.0501e+01     5.1436      2.231      3.235    18.0045 0.0000e+00
      2.193     -0.336     0.0627      0.702    241.323 207.677050     2.6637      6.999    60.2278 5.9526e+01     5.4412      2.169      3.147    18.0066 0.0000e+00
      2.069     -0.354     0.0651      0.689    243.624 209.680261     2.4540      6.994    58.0306 7.6057e+01     5.6721      2.050      2.974    18.0106 0.0000e+00
      1.902     -0.328     0.0669      0.683    225.134 193.805211     2.4428      6.984    55.5556 9.6703e+01     6.0903      1.859      2.698    18.0165 0.0000e+00
      1.759     -0.282     0.0676      0.682    210.708 181.443376     2.4455      6.974    53.9639 1.0899e+02    10.5321      1.682      2.440    18.0214 0.0000e+00
      1.708     -0.237     0.0666      0.667    205.889 177.365623     2.4528      6.968    52.4659 1.0569e+02    18.7615      1.644      2.384    18.0239 0.0000e+00
      1.734     -0.198     0.0647      0.641    208.945 180.075750     2.4486      6.969    50.7797 9.7268e+01    23.2326      1.702      2.469    18.0282 0.0000e+00
      1.761     -0.158     0.0643      0.629    224.606 193.639211     2.4364      6.972    49.6657 9.7883e+01    23.6016      1.753      2.542    18.0370 0.0000e+00
      1.725     -0.123     0.0648      0.622    246.822 212.848278     2.3881      6.971    48.8048 1.1223e+02    23.4616      1.725      2.502    18.0502 0.0000e+00
      1.620     -0.108     0.0643      0.622    262.173 226.152534     2.2896      6.964    47.7706 1.3075e+02    23.0772      1.585      2.300    18.0686 0.0000e+00
      1.527     -0.114     0.0589      0.635    268.399 231.610418     2.2195      6.954    46.3670 1.3599e+02    22.7796      1.456      2.111    18.0888 0.0000e+00
      1.518     -0.130     0.0600      0.645    270.940 233.904524     2.1980      6.949    44.4819 1.2639e+02    22.6977      1.465      2.125    18.1028 0.0000e+00
      1.568     -0.135     0.0583      0.640    272.697 235.514019     2.1795      6.953    43.1318 1.1822e+02    22.9070      1.549      2.247    18.1119 0.0000e+00
      1.592     -0.115     0.0580      0.628    274.113 236.790870     2.1372      6.957    42.8636 1.2546e+02    23.2611      1.598      2.318    18.1242 0.0000e+00
      1.530     -0.081     0.0600      0.620    275.283 237.815636     2.0944      6.955    42.6161 1.4736e+02    23.3929      1.530      2.220    18.1410 0.0000e+00
      1.412     -0.051     0.0615      0.620    276.267 238.682075     2.0859      6.947    42.0317 1.6528e+02    23.4416      1.361      1.974    18.1611 0.0000e+00
      1.343     -0.029     0.0605      0.636    277.235 239.581278     2.1100      6.937    41.5624 1.6353e+02    23.9182      1.267      1.837    18.1810 0.0000e+00
      1.382     -0.017     0.0583      0.651    278.450 240.745705     2.1443      6.930    40.8994 1.4671e+02    24.7148      1.334      1.935    18.1914 0.0000e+00
      1.479     -0.014     0.0590      0.674    280.022 242.256448     2.1593      6.930    40.0380 1.2821e+02    25.1135      1.464      2.124    18.1901 0.0000e+00
      1.544     -0.018     0.0566      0.722    281.191 243.434742     2.1661      6.935    39.6654 1.2287e+02    25.0154      1.547      2.243    18.1896 0.0000e+00
      1.526     -0.028     0.0610      0.778    278.585 241.347543     2.1518      6.936    39.8349 1.3730e+02    23.5625      1.529      2.217    18.2011 0.0000e+00
      1.431     -0.034     0.0609      0.827    267.392 231.815410     2.0944      6.932    40.3674 1.6016e+02    20.9034      1.408      2.042    18.2231 0.0000e+00
      1.331     -0.030     0.0622      0.856    246.418 213.789552     2.0474      6.924    41.1139 1.7126e+02    19.4406      1.268      1.839    18.2513 0.0000e+00
      1.315     -0.019     0.0678      0.867    217.832 189.131863     2.0322      6.917    41.4614 1.6057e+02    19.2331      1.249      1.810    18.2818 0.0000e+00
      1.390     -0.014     0.0732      0.877    168.759 146.639455     2.0352      6.915    41.2130 1.3836e+02    18.8726      1.360      1.971    18.3130 0.0000e+00
      1.481     -0.025     0.0786      0.872    100.323  87.325639     2.0424      6.918    41.1217 1.2518e+02    18.2926      1.480      2.146    18.3436 0.0000e+00
      1.508     -0.059     0.0812      0.841     52.631  46.189980     2.0363      6.920    41.8198 1.3380e+02    17.9584      1.516      2.198    18.3778 0.0000e+00
      1.445     -0.110     0.0811      0.810     38.172  34.189934     2.0272      6.920    42.7710 1.5606e+02    17.8728      1.438      2.084    18.4100 0.0000e+00
      1.333     -0.156     0.0823      0.799     35.582  32.598875     2.0245      6.919    43.0720 1.7572e+02    17.7697      1.296      1.880    18.4473 0.0000e+00
      1.241     -0.171     0.0839      0.953     34.755  32.406349     2.0200      6.919    42.8781 1.8467e+02    16.6097      1.193      1.731    18.5073 0.0000e+00
      1.202     -0.145     0.0770      1.535     34.316  32.370090     2.0056      6.922    42.7504 1.8228e+02    14.3678      1.166      1.691    18.8525 0.0000e+00
      1.200     -0.094     0.0745      2.589     34.045  32.351186     1.9928      6.925    42.7324 1.7982e+02    13.1059      1.176      1.706    19.7988 0.0000e+00
      1.207     -0.041     0.0687      3.900     33.895  32.368308     1.9822      6.927    42.6609 1.8346e+02    12.9667      1.186      1.719    20.9268 0.0000e+00
      1.208     -0.006     0.0679      5.258     33.787  32.387126     1.9851      6.927    42.4884 1.8466e+02    12.8551      1.187      1.721    21.7221 0.0000e+00
      1.203      0.008     0.1169      6.554     33.689  32.388671     2.0187      6.928    42.3668 1.8341e+02    12.6788      1.180      1.712    22.2271 0.0000e+00
      1.200      0.008     0.2171      7.767     33.619  32.387134     2.0474      6.929    42.4814 1.8307e+02    12.5771      1.172      1.700    22.5471 0.0000e+00
      1.205     -0.006     0.3352      8.865     33.564  32.368635     2.0491      6.928    42.7551 1.7977e+02    12.5483      1.178      1.709    22.7580 0.0000e+00
      1.216     -0.043     0.4542      9.746     33.538  32.355254     2.0232      6.923    43.0090 1.7719e+02    12.6031      1.195      1.734    22.9333 0.0000e+00
      1.223     -0.110     0.5638     10.339     33.598  32.415560     1.9840      6.921    43.1419 1.8084e+02    12.7965      1.202      1.744    23.0828 0.0000e+00
      1.214     -0.197     0.6660     10.629     33.690  32.527185     1.9735      6.922    43.2432 1.8796e+02    12.9395      1.201      1.742    23.1791 0.0000e+00
      1.166     -0.283     0.7642     10.669     33.720  32.627138     1.9796      6.924    43.8047 2.0381e+02    12.8967      1.168      1.694    23.2258 0.0000e+00
      1.059     -0.347     0.8410     10.692     33.710  32.736574     1.9835      6.924    44.9411 2.3374e+02    12.1082      1.057      1.533    23.2359 0.0000e+00
      0.909     -0.383     0.8920     11.085     33.675  32.836127     1.9964      6.921    46.1413 2.7320e+02    10.6813      0.892      1.293    23.2250 0.0000e+00
      0.761     -0.398     0.9163     12.136     33.587  32.880009     2.0101      6.920    46.9592 3.0298e+02     9.9568      0.727      1.053    23.2380 0.0000e+00
      0.660     -0.393     0.9115     13.910     33.472  32.886926     2.0244      6.922    47.3454 3.1345e+02     9.9421      0.626      0.908    23.3458 0.0000e+00
      0.603     -0.369     0.8958     16.260     33.343  32.856536     2.0271      6.926    47.5409 3.3499e+02     9.9236      0.597      0.865    23.5443 0.0000e+00
      0.542     -0.338     0.9159     18.867     33.258  32.829722     2.0186      6.930    48.0329 4.1523e+02     9.8010      0.548      0.795    23.7535 0.0000e+00
      0.448     -0.311     1.0011     21.458     33.280  32.879806     2.0220      6.933    49.5077 5.0064e+02     9.5875      0.441      0.639    23.9464 0.0000e+00
      0.345     -0.291     1.1483     23.755     33.325  32.954922     2.0264      6.935    57.4568 5.0923e+02     9.4598      0.330      0.477    24.1288 0.0000e+00
      0.259     -0.267     1.3556     25.466     33.303  32.977171     2.0303      6.940    71.3557 4.8658e+02     9.4518      0.248      0.359    24.2929 0.0000e+00
      0.192     -0.229     1.5777     26.601     33.224  32.958686     2.0361      6.947    79.4653 4.5936e+02     9.2518      0.181      0.264    24.3684 0.0000e+00
      0.143     -0.178     1.7994     27.424     33.104  32.921708     2.0378      6.953    80.6556 4.7769e+02     8.8870      0.133      0.193    24.3853 0.0000e+00
      0.113     -0.127     2.0046     28.309     32.979  32.910600     2.0432      6.958    76.2828 5.7189e+02     8.7303      0.108      0.158    24.4309 0.0000e+00
      0.092     -0.084     2.1414     29.720     32.886  32.951352     2.0425      6.962    66.7742 8.1870e+02     8.7238      0.089      0.131    24.4991 0.0000e+00
      0.076     -0.051     2.2241     31.998     32.801  32.970837     1.9790      6.963    60.9332 1.0196e+03     8.4328      0.071      0.103    24.5848 0.0000e+00
      0.069     -0.027     2.2779     35.036     32.739  32.956147     1.8583      6.964    60.1223 9.8232e+02     7.8416      0.065      0.094    24.7000 0.0000e+00
      0.070     -0.007     2.3286     38.183     32.732  32.964006     1.7977      6.967    60.3253 9.7166e+02     7.5196      0.068      0.099    24.8726 0.0000e+00
      0.074      0.009     2.4226     40.713     32.761  33.002477     1.8044      6.971    60.7217 8.2845e+02     7.5456      0.072      0.106    25.1126 0.0000e+00
      0.077      0.019     2.6028     42.408     32.796  33.040892     1.8064      6.974    61.0424 6.4922e+02     7.5059      0.074      0.108    25.2952 0.0000e+00
      0.082      0.023     2.8724     43.432     32.812  33.048085     1.7966      6.977    61.2780 6.6594e+02     7.3472      0.077      0.112    25.3423 0.0000e+00
      0.092      0.020     3.1578     43.842     32.801  33.026023     1.7858      6.980    61.5045 5.7430e+02     7.2672      0.088      0.128    25.3456 0.0000e+00
      0.104      0.015     3.3682     43.518     32.731  32.964331     1.7835      6.983    61.8025 4.6457e+02     7.2889      0.104      0.151    25.3619 0.0000e+00
      0.109      0.010     3.4971     42.642     32.607  32.872797     1.7779      6.987    62.2142 4.9757e+02     7.2001      0.111      0.161    25.3800 0.0000e+00
      0.106      0.005     3.5796     41.818     32.487  32.806958     1.7511      6.990    62.7832 5.2575e+02     6.9786      0.105      0.153    25.3550 0.0000e+00
      0.100     -0.001     3.6247     41.654     32.415  32.802380     1.7181      6.993    63.2616 5.3440e+02     6.8661      0.095      0.138    25.3226 0.0000e+00
      0.098     -0.006     3.5938     42.542     32.362  32.817544     1.7034      6.996    63.6093 6.6034e+02     6.8307      0.094      0.136    25.3374 0.0000e+00
      0.100     -0.008     3.4945     44.482     32.286  32.800206     1.6719      6.999    64.1482 7.6630e+02     6.5849      0.100      0.145    25.3887 0.0000e+00
      0.099     -0.006     3.4056     47.053     32.217  32.783034     1.6127      7.004    64.8732 6.9269e+02     6.1483      0.099      0.143    25.4795 0.0000e+00
      0.095     -0.005     3.3717     49.799     32.190  32.800203     1.5781      7.008    65.6645 7.3673e+02     5.8558      0.093      0.135    25.5917 0.0000e+00
      0.092     -0.005     3.4361     52.444     32.179  32.817658     1.5611      7.012    66.3166 8.2836e+02     5.8154      0.089      0.130    25.7035 0.0000e+00
      0.092     -0.005     3.6045     54.689     32.156  32.803927     1.5578      7.015    66.7345 6.7638e+02     5.8649      0.090      0.132    25.7930 0.0000e+00
      0.092     -0.003     3.8235     56.246     32.180  32.824403     1.5720      7.018    67.1045 6.2774e+02     5.7717      0.092      0.133    25.8732 0.0000e+00
      0.090      0.000     4.0454     57.024     32.240  32.875015     1.5736      7.019    67.6070 7.2656e+02     5.5076      0.088      0.128    25.9500 0.0000e+00
      0.089     -0.001     4.2651     57.105     32.224  32.845254     1.5606      7.019    68.5072 7.0441e+02     5.3363      0.085      0.124    25.9976 0.0000e+00
      0.091     -0.015     4.4578     56.679     32.167  32.781544     1.5485      7.017    70.1583 6.7320e+02     5.3407      0.088      0.129    26.0093 0.0000e+00
      0.095     -0.045     4.5851     55.947     32.187  32.802101     1.5522      7.015    77.8489 6.4974e+02     5.4240      0.093      0.136    25.9984 0.0000e+00
      0.096     -0.095     4.6486     55.154     32.239  32.840213     1.5640      7.018    91.1134 7.3800e+02     5.4554      0.097      0.141    25.9814 0.0000e+00
      0.083     -0.158     4.6501     54.532     32.230  32.798530     1.5748      7.024    97.7803 9.8962e+02     5.4121      0.092      0.133    25.9531 0.0000e+00
      0.040     -0.231     4.6117     53.971     32.188  32.741874     1.6985      7.033    94.0145 1.2418e+03     5.6870      0.055      0.079    25.9418 0.0000e+00
     -0.041     -0.308     4.5452     53.239     32.151  32.725770     3.1354      7.034    85.9334 1.1903e+03     8.9838     -0.029     -0.043    25.9594 0.0000e+00
     -0.147     -0.378     4.4700     52.550     32.126  32.730657     5.7645      7.028    80.0890 8.1021e+02    14.9728     -0.146     -0.213    25.9473 0.0000e+00
     -0.257     -0.421     4.4307     52.226     32.176  32.801016     7.1856      7.024    78.4155 7.8033e+02    18.2187     -0.251     -0.364    25.8630 0.0000e+00
     -0.376     -0.421     4.4031     52.064     32.619  33.259506     7.2749      7.027    80.8419 1.0674e+03    18.4774     -0.356     -0.516    25.8222 0.0000e+00
     -0.515     -0.382     4.3284     51.704     33.253  33.899414     6.8784      7.033    87.7449 1.1302e+03    18.3396     -0.508     -0.736    25.8890 0.0000e+00
     -0.642     -0.322     4.2498     51.161     33.378  34.007558     6.1447      7.039    93.6489 9.9638e+02    18.0554     -0.653     -0.946    25.9430 0.0000e+00
     -0.720     -0.289     4.2344     50.875     33.255  33.869672     5.7852      7.041    95.1832 8.2491e+02    17.9104     -0.726     -1.053    25.9713 0.0000e+00
     -0.747 -9.990e-29     4.2338 -9.990e-29 -9.990e-29 -9.990e-29 -9.990e-29 -9.990e-29 -9.990e-29 7.3761e+02 -9.990e-29     -0.739     -1.071    25.9819 0.0000e+00
     -0.752 -9.990e-29     4.2052 -9.990e-29 -9.990e-29 -9.990e-29 -9.990e-29 -9.990e-29 -9.990e-29 7.2161e+02 -9.990e-29     -0.738     -1.071    25.9742 0.0000e+00
     -0.752 -9.990e-29     4.1485 -9.990e-29 -9.990e-29 -9.990e-29 -9.990e-29 -9.990e-29 -9.990e-29 6.6075e+02 -9.990e-29     -0.739     -1.071    25.9360 0.0000e+00
     -0.752 -9.990e-29     4.1107 -9.990e-29 -9.990e-29 -9.990e-29 -9.990e-29 -9.990e-29 -9.990e-29 6.1155e+02 -9.990e-29     -0.737     -1.068    25.8946 0.0000e+00
