* Sea-Bird SBE19plus  Data File:
* FileName = C:\DATA\072219_fcr50_0002.hex
* Software version 2.8.0.119
* Temperature SN = 7809
* Conductivity SN = 7809
* System UpLoad Time = Jul 23 2019 10:43:42
* <ApplicationData>
* <Seaterm232>
* <SoftwareVersion>2.8.0.119</SoftwareVersion>
* <BuildDate>07-Nov-2018</BuildDate>
* </Seaterm232>
* </ApplicationData>
* <InstrumentState>
* <HardwareData DeviceType='SBE19plus' SerialNumber='01907809'>
*
*    <Manufacturer>Sea-Bird Electronics, Inc.</Manufacturer>
*
*    <FirmwareVersion>3.1.8</FirmwareVersion>
*
*    <FirmwareDate>Mar  9 2016 16:22:29</FirmwareDate>
*
*    <CommandSetVersion>1.4</CommandSetVersion>
*
*    <PCBAssembly PCBSerialNum='120721' AssemblyNum='41054J'/>
*
*    <PCBAssembly PCBSerialNum='120715' AssemblyNum='41967A'/>
*
*    <PCBAssembly PCBSerialNum='116699' AssemblyNum='41606'/>
*
*    <PCBAssembly PCBSerialNum='120719' AssemblyNum='41059D'/>
*
*    <MfgDate>28-Apr-2017</MfgDate>
*
*    <InternalSensors>
*
*       <Sensor id='Main Temperature'>
*
*          <type>temperature0</type>
*
*          <SerialNumber>01907809</SerialNumber>
*
*       </Sensor>
*
*       <Sensor id='Main Conductivity'>
*
*          <type>conductivity-0</type>
*
*          <SerialNumber>01907809</SerialNumber>
*
*       </Sensor>
*
*       <Sensor id='Main Pressure'>
*
*          <type>strain-0</type>
*
*          <SerialNumber>10586018</SerialNumber>
*
*       </Sensor>
*
*    </InternalSensors>
*
*    <ExternalSensors>
*
*       <Sensor id='volt 0'>
*
*          <type>pH</type>
*
*          <SerialNumber>27-0363</SerialNumber>
*
*       </Sensor>
*
*       <Sensor id='volt 1'>
*
*          <type>ORP</type>
*
*          <SerialNumber>27-0363</SerialNumber>
*
*       </Sensor>
*
*       <Sensor id='volt 2'>
*
*          <type>OXY</type>
*
*          <SerialNumber>43-0434</SerialNumber>
*
*       </Sensor>
*
*       <Sensor id='volt 3'>
*
*          <type>PAR</type>
*
*          <SerialNumber>1122</SerialNumber>
*
*       </Sensor>
*
*       <Sensor id='volt 4'>
*
*          <type>ECO AFL/FL</type>
*
*          <SerialNumber>FLNTURT-2496</SerialNumber>
*
*       </Sensor>
*
*       <Sensor id='volt 5'>
*
*          <type>ECO-NTU</type>
*
*          <SerialNumber>FLNTURT-2496</SerialNumber>
*
*       </Sensor>
*
*       <Sensor id='serial'>
*
*          <type>not assigned</type>
*
*          <SerialNumber>not assigned</SerialNumber>
*
*       </Sensor>
*
*    </ExternalSensors>
*
* </HardwareData>
* <StatusData DeviceType='SBE19plus' SerialNumber='01907809'>
*
*    <DateTime>2019-07-23T10:42:27</DateTime>
*
*    <LoggingState>not logging</LoggingState>
*
*    <EventSummary numEvents='0'/>
*
*    <Power>
*
*       <vMain>12.8</vMain>
*
*       <vLith>8.6</vLith>
*
*       <iMain>63.1</iMain>
*
*       <iPump>45.8</iPump>
*
*       <iExt01>20.3</iExt01>
*
*       <iExt2345>36.7</iExt2345>
*
*    </Power>
*
*    <MemorySummary>
*
*       <Bytes>60789</Bytes>
*
*       <Samples>2643</Samples>
*
*       <SamplesFree>2858145</SamplesFree>
*
*       <SampleLength>23</SampleLength>
*
*       <Profiles>5</Profiles>
*
*    </MemorySummary>
*
* </StatusData>
* <ConfigurationData DeviceType='SBE19plus' SerialNumber='01907809'>
*
*    <ProfileMode>
*
*       <ScansToAverage>1</ScansToAverage>
*
*       <MinimumCondFreq>5</MinimumCondFreq>
*
*       <PumpDelay>45</PumpDelay>
*
*       <AutoRun>no</AutoRun>
*
*       <IgnoreSwitch>no</IgnoreSwitch>
*
*    </ProfileMode>
*
*    <Battery>
*
*       <Type>alkaline</Type>
*
*       <CutOff>7.5</CutOff>
*
*    </Battery>
*
*    <DataChannels>
*
*       <ExtVolt0>yes</ExtVolt0>
*
*       <ExtVolt1>yes</ExtVolt1>
*
*       <ExtVolt2>yes</ExtVolt2>
*
*       <ExtVolt3>yes</ExtVolt3>
*
*       <ExtVolt4>yes</ExtVolt4>
*
*       <ExtVolt5>yes</ExtVolt5>
*
*       <SBE38>no</SBE38>
*
*       <WETLABS>no</WETLABS>
*
*       <OPTODE>no</OPTODE>
*
*       <SBE63>no</SBE63>
*
*       <SeaFET>no</SeaFET>
*
*       <GTD>no</GTD>
*
*    </DataChannels>
*
*    <EchoCharacters>yes</EchoCharacters>
*
*    <OutputExecutedTag>yes</OutputExecutedTag>
*
*    <OutputFormat>raw HEX</OutputFormat>
*
* </ConfigurationData>
* <CalibrationCoefficients DeviceType='SBE19plus' SerialNumber='01907809'>
*
*    <Calibration format='TEMP1' id='Main Temperature'>
*
*       <SerialNum>01907809</SerialNum>
*
*       <CalDate>24-Mar-19</CalDate>
*
*       <TA0>1.217923e-03</TA0>
*
*       <TA1>2.816693e-04</TA1>
*
*       <TA2>-1.603333e-06</TA2>
*
*       <TA3>1.984146e-07</TA3>
*
*       <TOFFSET>0.000000e+00</TOFFSET>
*
*    </Calibration>
*
*    <Calibration format='WBCOND0' id='Main Conductivity'>
*
*       <SerialNum>01907809</SerialNum>
*
*       <CalDate>24-Mar-19</CalDate>
*
*       <G>-1.005893e+00</G>
*
*       <H>1.268163e-01</H>
*
*       <I>-1.515604e-04</I>
*
*       <J>2.671373e-05</J>
*
*       <CPCOR>-9.570000e-08</CPCOR>
*
*       <CTCOR>3.250000e-06</CTCOR>
*
*       <CSLOPE>1.000000e+00</CSLOPE>
*
*    </Calibration>
*
*    <Calibration format='STRAIN0' id='Main Pressure'>
*
*       <SerialNum>10586018</SerialNum>
*
*       <CalDate>11-Mar-19</CalDate>
*
*       <PA0>4.565618e-02</PA0>
*
*       <PA1>4.850951e-04</PA1>
*
*       <PA2>-2.883271e-12</PA2>
*
*       <PTCA0>5.252467e+05</PTCA0>
*
*       <PTCA1>1.223042e+01</PTCA1>
*
*       <PTCA2>-3.567450e-01</PTCA2>
*
*       <PTCB0>2.516687e+01</PTCB0>
*
*       <PTCB1>3.750000e-04</PTCB1>
*
*       <PTCB2>0.000000e+00</PTCB2>
*
*       <PTEMPA0>-5.487846e+01</PTEMPA0>
*
*       <PTEMPA1>5.537568e+01</PTEMPA1>
*
*       <PTEMPA2>-5.867271e-01</PTEMPA2>
*
*       <POFFSET>7.140000e-01</POFFSET>
*
*       <PRANGE>1.600000e+02</PRANGE>
*
*    </Calibration>
*
*    <Calibration format='VOLT0' id='Volt 0'>
*
*       <OFFSET>-4.920000e-02</OFFSET>
*
*       <SLOPE>1.248122e+00</SLOPE>
*
*    </Calibration>
*
*    <Calibration format='VOLT0' id='Volt 1'>
*
*       <OFFSET>-4.784000e-02</OFFSET>
*
*       <SLOPE>1.248871e+00</SLOPE>
*
*    </Calibration>
*
*    <Calibration format='VOLT0' id='Volt 2'>
*
*       <OFFSET>-4.864632e-02</OFFSET>
*
*       <SLOPE>1.248714e+00</SLOPE>
*
*    </Calibration>
*
*    <Calibration format='VOLT0' id='Volt 3'>
*
*       <OFFSET>-4.743790e-02</OFFSET>
*
*       <SLOPE>1.248571e+00</SLOPE>
*
*    </Calibration>
*
*    <Calibration format='VOLT0' id='Volt 4'>
*
*       <OFFSET>-4.671263e-02</OFFSET>
*
*       <SLOPE>1.248951e+00</SLOPE>
*
*    </Calibration>
*
*    <Calibration format='VOLT0' id='Volt 5'>
*
*       <OFFSET>-4.871053e-02</OFFSET>
*
*       <SLOPE>1.249136e+00</SLOPE>
*
*    </Calibration>
*
*    <Calibration format='FREQ0' id='external frequency channel'>
*
*       <EXTFREQSF>1.000014e+00</EXTFREQSF>
*
*    </Calibration>
*
* </CalibrationCoefficients>
* <EventCounters DeviceType='SBE19plus' SerialNumber='01907809'>
*
*    <EventSummary numEvents='0'/>
*
* </EventCounters></InstrumentState>
* <Headers>
*
* cast   2 22 Jul 2019 15:22:22 samples 939 to 1268, avg = 1, stop = mag switch
*
# nquan = 18
# nvalues = 267                         
# units = specified
# name 0 = depFM: Depth [fresh water, m]
# name 1 = tv290C: Temperature [ITS-90, deg C]
# name 2 = sbeox0Mg/L: Oxygen, SBE 43 [mg/l]
# name 3 = sbeox0PS: Oxygen, SBE 43 [% saturation]
# name 4 = c0uS/cm: Conductivity [uS/cm]
# name 5 = specc: Specific Conductance [uS/cm]
# name 6 = ph: pH
# name 7 = orp: Oxidation Reduction Potential [mV]
# name 8 = flECO-AFL: Fluorescence, WET Labs ECO-AFL/FL [mg/m^3]
# name 9 = turbWETntu0: Turbidity, WET Labs ECO [NTU]
# name 10 = sal00: Salinity, Practical [PSU]
# name 11 = dz/dtM: Descent Rate [m/s]
# name 12 = prdM: Pressure, Strain Gauge [db]
# name 13 = prdE: Pressure, Strain Gauge [psi]
# name 14 = scan: Scan Count
# name 15 = par/sat/log: PAR/Logarithmic, Satlantic
# name 16 = density00: Density [density, kg/m^3]
# name 17 = flag:  0.000e+00
# span 0 =     -0.610,      2.423       
# span 1 =    22.9262,    30.5671       
# span 2 =    -0.5401,     9.0693       
# span 3 =     -6.377,    113.002       
# span 4 =   1.534131, 200.248806       
# span 5 =      0.656,    208.007       
# span 6 =      6.874,      8.368       
# span 7 =   -25.3006,   728.5130       
# span 8 =    -0.1216,    20.2797       
# span 9 =    -2.2293,    10.5322       
# span 10 =     0.0140,     0.1010      
# span 11 =     -0.006,      0.183      
# span 12 =     -0.591,      2.375      
# span 13 =     -0.857,      3.444      
# span 14 =          1,        267      
# span 15 = 2.9950e+01, 1.3050e+03      
# span 16 =   995.1897,   997.6445      
# span 17 = 0.0000e+00, 0.0000e+00      
# interval = seconds: 0.25
# start_time = Jul 22 2019 15:22:22 [Instrument's time stamp, header]
# bad_flag = -9.990e-29
# <Sensors count="9" >
#   <sensor Channel="1" >
#     <!-- Count, Temperature -->
#     <TemperatureSensor SensorID="58" >
#       <SerialNumber>7809</SerialNumber>
#       <CalibrationDate>24-Mar-19</CalibrationDate>
#       <A0>1.21792325e-003</A0>
#       <A1>2.81669265e-004</A1>
#       <A2>-1.60333336e-006</A2>
#       <A3>1.98414625e-007</A3>
#       <Slope>1.00000000</Slope>
#       <Offset>0.0000</Offset>
#     </TemperatureSensor>
#   </sensor>
#   <sensor Channel="2" >
#     <!-- Frequency 0, Conductivity -->
#     <ConductivitySensor SensorID="3" >
#       <SerialNumber>7809</SerialNumber>
#       <CalibrationDate>24-Mar-19</CalibrationDate>
#       <UseG_J>1</UseG_J>
#       <!-- Cell const and series R are applicable only for wide range sensors. -->
#       <SeriesR>0.0000</SeriesR>
#       <CellConst>2000.0000</CellConst>
#       <ConductivityType>0</ConductivityType>
#       <Coefficients equation="0" >
#         <A>0.00000000e+000</A>
#         <B>0.00000000e+000</B>
#         <C>0.00000000e+000</C>
#         <D>0.00000000e+000</D>
#         <M>0.0</M>
#         <CPcor>-9.57000000e-008</CPcor>
#       </Coefficients>
#       <Coefficients equation="1" >
#         <G>-1.00589325e+000</G>
#         <H>1.26816302e-001</H>
#         <I>-1.51560448e-004</I>
#         <J>2.67137274e-005</J>
#         <CPcor>-9.57000000e-008</CPcor>
#         <CTcor>3.2500e-006</CTcor>
#         <!-- WBOTC not applicable unless ConductivityType = 1. -->
#         <WBOTC>0.00000000e+000</WBOTC>
#       </Coefficients>
#       <Slope>1.00000000</Slope>
#       <Offset>0.00000</Offset>
#     </ConductivitySensor>
#   </sensor>
#   <sensor Channel="3" >
#     <!-- Count, Pressure, Strain Gauge -->
#     <PressureSensor SensorID="46" >
#       <SerialNumber>7809</SerialNumber>
#       <CalibrationDate>11-Mar-19</CalibrationDate>
#       <PA0>4.56561833e-002</PA0>
#       <PA1>4.85095118e-004</PA1>
#       <PA2>-2.88327090e-012</PA2>
#       <PTEMPA0>-5.48784562e+001</PTEMPA0>
#       <PTEMPA1>5.53756816e+001</PTEMPA1>
#       <PTEMPA2>-5.86727098e-001</PTEMPA2>
#       <PTCA0>5.25246745e+005</PTCA0>
#       <PTCA1>1.22304214e+001</PTCA1>
#       <PTCA2>-3.56745036e-001</PTCA2>
#       <PTCB0>2.51668750e+001</PTCB0>
#       <PTCB1>3.75000000e-004</PTCB1>
#       <PTCB2>0.00000000e+000</PTCB2>
#       <Offset>0.000000</Offset>
#     </PressureSensor>
#   </sensor>
#   <sensor Channel="4" >
#     <!-- A/D voltage 0, Oxygen, SBE 43 -->
#     <OxygenSensor SensorID="38" >
#       <SerialNumber>0434</SerialNumber>
#       <CalibrationDate>13-Apr-19</CalibrationDate>
#       <Use2007Equation>1</Use2007Equation>
#       <CalibrationCoefficients equation="0" >
#         <!-- Coefficients for Owens-Millard equation. -->
#         <Boc>0.0000</Boc>
#         <Soc>0.0000e+000</Soc>
#         <offset>0.0000</offset>
#         <Pcor>0.00e+000</Pcor>
#         <Tcor>0.0000</Tcor>
#         <Tau>0.0</Tau>
#       </CalibrationCoefficients>
#       <CalibrationCoefficients equation="1" >
#         <!-- Coefficients for Sea-Bird equation - SBE calibration in 2007 and later. -->
#         <Soc>4.2007e-001</Soc>
#         <offset>-0.6109</offset>
#         <A>-4.3656e-003</A>
#         <B> 1.7017e-004</B>
#         <C>-2.5341e-006</C>
#         <D0> 2.5826e+000</D0>
#         <D1> 1.92634e-004</D1>
#         <D2>-4.64803e-002</D2>
#         <E> 3.6000e-002</E>
#         <Tau20> 1.1800</Tau20>
#         <H1>-3.3000e-002</H1>
#         <H2> 5.0000e+003</H2>
#         <H3> 1.4500e+003</H3>
#       </CalibrationCoefficients>
#     </OxygenSensor>
#   </sensor>
#   <sensor Channel="5" >
#     <!-- A/D voltage 1, PAR/Logarithmic, Satlantic -->
#     <PARLog_SatlanticSensor SensorID="76" >
#       <SerialNumber>1122</SerialNumber>
#       <CalibrationDate>08-May-2019</CalibrationDate>
#       <a0>9.7456e-001</a0>
#       <a1>8.1640e-001</a1>
#       <Im>1.3589e+000</Im>
#       <Multiplier>1.0000e+000</Multiplier>
#     </PARLog_SatlanticSensor>
#   </sensor>
#   <sensor Channel="6" >
#     <!-- A/D voltage 2, pH -->
#     <pH_Sensor SensorID="43" >
#       <SerialNumber>0363</SerialNumber>
#       <CalibrationDate>15-Apr-19</CalibrationDate>
#       <Slope>4.5952</Slope>
#       <Offset>2.5370</Offset>
#     </pH_Sensor>
#   </sensor>
#   <sensor Channel="7" >
#     <!-- A/D voltage 3, Oxidation Reduction Potential -->
#     <OxidationReductionPotentialSensor SensorID="41" >
#       <SerialNumber>0363</SerialNumber>
#       <CalibrationDate>15-Apr-19</CalibrationDate>
#       <B>2.499480</B>
#       <M>-0.496195</M>
#       <Offset>0.0</Offset>
#     </OxidationReductionPotentialSensor>
#   </sensor>
#   <sensor Channel="8" >
#     <!-- A/D voltage 4, Fluorometer, WET Labs ECO-AFL/FL -->
#     <FluoroWetlabECO_AFL_FL_Sensor SensorID="20" >
#       <SerialNumber>FLNTURT-2496</SerialNumber>
#       <CalibrationDate>08-May-2019</CalibrationDate>
#       <ScaleFactor>5.00000000e+001</ScaleFactor>
#       <!-- Dark output -->
#       <Vblank>0.0550</Vblank>
#     </FluoroWetlabECO_AFL_FL_Sensor>
#   </sensor>
#   <sensor Channel="9" >
#     <!-- A/D voltage 5, Turbidity Meter, WET Labs, ECO-NTU -->
#     <TurbidityMeter SensorID="67" >
#       <SerialNumber>FLNTURT-2496</SerialNumber>
#       <CalibrationDate>08-May-2019</CalibrationDate>
#       <ScaleFactor>189.000000</ScaleFactor>
#       <!-- Dark output -->
#       <DarkVoltage>0.071000</DarkVoltage>
#     </TurbidityMeter>
#   </sensor>
# </Sensors>
# datcnv_date = Jul 23 2019 10:50:46, 7.26.7.129 [datcnv_vars = 17]
# datcnv_in = C:\DATA\072219_fcr10.hex C:\DATA\SBE19plusV2_7809.xmlcon
# datcnv_skipover = 0
# datcnv_ox_hysteresis_correction = yes
# datcnv_ox_tau_correction = yes
# filter_date = Jul 23 2019 10:51:02, 7.26.7.129
# filter_in = C:\DATA\072219_fcr10.cnv
# filter_low_pass_tc_A = 0.030
# filter_low_pass_tc_B = 0.150
# filter_low_pass_A_vars = tv290C c0uS/cm par/sat/log density00
# filter_low_pass_B_vars = prdM prdE
# alignctd_date = Jul 23 2019 10:51:16, 7.26.7.129
# alignctd_in = C:\DATA\072219_fcr10.cnv
# alignctd_adv = tv290C 0.500, sbeox0Mg/L 3.000, sbeox0PS 3.000                                                                                                                                                                      
# file_type = ascii
*END*
     -0.610    30.5671     7.7154     99.682   1.534131      0.656      7.100   -25.3006    -0.1064    -0.5854     0.0140      0.000     -0.591     -0.857          1 8.3477e+02   995.1897 0.0000e+00
     -0.585    29.8625     7.7650    100.274   6.460959      6.519      7.380   728.5130    -0.1216    -0.6142     0.0149      0.006     -0.574     -0.833          2 1.1221e+03   995.2495 0.0000e+00
     -0.568    29.4746     7.8216    100.942  14.926114     12.364      7.580   221.9451    -0.1140    -0.6142     0.0165      0.016     -0.546     -0.792          3 1.1613e+03   995.4862 0.0000e+00
     -0.513    29.2102     7.8637    101.507  29.748741     28.131      7.789   217.9701    -0.1026    -2.1283     0.0221      0.036     -0.501     -0.727          4 1.1803e+03   995.7047 0.0000e+00
     -0.455    29.0708     7.8920    101.969  37.142243     33.512      8.003   224.2166    -0.1102    -2.1427     0.0242      0.066     -0.447     -0.649          5 1.2216e+03   995.8226 0.0000e+00
     -0.402    28.9361     7.9147    102.322  38.693596     36.121      8.157   228.0023    -0.0835    -2.2293     0.0251      0.100     -0.397     -0.577          6 1.2691e+03   995.9019 0.0000e+00
     -0.359    28.8082     7.9158    102.390  39.701086     36.444      8.287   227.2830    -0.0873    -2.1716     0.0252      0.131     -0.357     -0.517          7 1.2298e+03   995.9432 0.0000e+00
     -0.330    28.7152     7.9033    102.293  39.237442     36.536      8.340   232.6966     1.2746    -0.5277     0.0253      0.154     -0.325     -0.471          8 1.0712e+03   995.9828 0.0000e+00
     -0.306    28.6603     7.8282    101.306  39.478133     36.572      8.360   231.4851     1.2708    -0.5277     0.0252      0.164     -0.294     -0.427          9 1.2754e+03   996.0203 0.0000e+00
     -0.263    28.6417     7.9400    102.678  39.342339     36.686      8.358   221.6044     1.2746    -0.5277     0.0253      0.166     -0.253     -0.367         10 1.3050e+03   996.0475 0.0000e+00
     -0.205    28.6315     8.2171    106.145  39.465762     36.725      8.363   215.2822     1.2746    -0.6142     0.0253      0.168     -0.199     -0.287         11 1.1721e+03   996.0638 0.0000e+00
     -0.137    28.6031     8.4507    109.046  39.383844     36.737      8.368   215.5851     1.2669    -0.6431     0.0253      0.169     -0.140     -0.201         12 1.1066e+03   996.0695 0.0000e+00
     -0.083    28.5693     8.5672    110.472  39.385023     36.692      8.362   217.9701     6.2185     2.1976     0.0252      0.174     -0.088     -0.127         13 1.1377e+03   996.0726 0.0000e+00
     -0.048    28.5816     8.6337    111.295  39.345750     36.711      8.350   220.0144     6.1994     2.2986     0.0252      0.178     -0.049     -0.071         14 1.0549e+03   996.0811 0.0000e+00
     -0.015    28.6336     8.7241    112.436  39.314180     36.683      8.347   221.6801     6.2185     2.1688     0.0252      0.183     -0.020     -0.028         15 7.0014e+02   996.0909 0.0000e+00
      0.003    28.6678     8.7546    112.793  39.305771     36.674      8.330   224.1030     6.1956     2.1688     0.0252      0.180     -0.002     -0.002         16 7.3300e+02   996.0875 0.0000e+00
      0.006    28.6988     8.7172    112.286  39.356210     36.689      8.320   224.0273     7.5193     1.8660     0.0252      0.165      0.006      0.009         17 8.5783e+02   996.0724 0.0000e+00
      0.010    28.7315     8.5989    110.766  39.310667     36.615      8.313   220.9230     7.5346     2.0823     0.0252      0.136      0.013      0.019         18 6.5795e+02   996.0625 0.0000e+00
      0.025    28.7253     8.4302    108.596  39.303152     36.594      8.291   170.2321     7.5117     1.9813     0.0252      0.104      0.021      0.031         19 6.0132e+02   996.0536 0.0000e+00
      0.027    28.6833     8.2838    106.696  39.306267     36.570      8.287   217.8187     7.5308     2.0102     0.0252      0.073      0.026      0.038         20 7.0246e+02   996.0440 0.0000e+00
      0.030    28.6219     8.1595    105.079  39.306776     36.576      8.282   219.5223     7.1569     1.9381     0.0252      0.050      0.029      0.043         21 6.2316e+02   996.0459 0.0000e+00
      0.034    28.5607     8.0538    103.712  39.302521     36.604      8.277   220.1280     7.1493     1.9525     0.0252      0.035      0.032      0.046         22 6.5715e+02   996.0581 0.0000e+00
      0.032    28.5208     7.9539    102.427  39.311583     36.646      8.267   221.8694     7.1874     1.9381     0.0252      0.023      0.032      0.046         23 7.4915e+02   996.0759 0.0000e+00
      0.031    28.5027     7.8340    100.881  39.295531     36.688      8.255   186.8893     7.1798     2.0823     0.0252      0.016      0.032      0.047         24 9.1393e+02   996.0936 0.0000e+00
      0.038    28.4902     7.7085     99.264  39.233614     36.637      8.249   171.4814     7.6338     1.9813     0.0252      0.014      0.035      0.052         25 8.8188e+02   996.1052 0.0000e+00
      0.039    28.4723     7.5835     97.659  39.240466     36.676      8.241   174.3207     7.6376     1.9236     0.0252      0.011      0.036      0.052         26 6.2724e+02   996.1104 0.0000e+00
      0.032    28.4600     7.4545     95.987  39.227740     36.658      8.236   223.1566     7.6414     1.9813     0.0252      0.005      0.033      0.049         27 7.0676e+02   996.1139 0.0000e+00
      0.033    28.4612     7.3320     94.390  39.219823     36.670      8.232   223.1566     7.6338     1.9813     0.0252      0.003      0.033      0.049         28 6.7642e+02   996.1191 0.0000e+00
      0.038    28.4630     7.2639     93.498  39.220689     36.679      8.227   175.1536     8.0763     2.0102     0.0252      0.002      0.036      0.052         29 6.1476e+02   996.1227 0.0000e+00
      0.039    28.4558     7.2699     93.566  39.226667     36.678      8.226   223.3837     8.0648     2.0246     0.0252      0.002      0.038      0.055         30 6.9336e+02   996.1223 0.0000e+00
      0.039    28.4473     7.3292     94.323  39.301297     36.755      8.213   175.9107     8.0534     1.9813     0.0252      0.003      0.039      0.056         31 6.3838e+02   996.1218 0.0000e+00
      0.040    28.4443     7.4367     95.709  39.305643     36.760      8.206   174.0557     8.0572     2.0102     0.0252      0.003      0.040      0.057         32 6.1090e+02   996.1239 0.0000e+00
      0.042    28.4446     7.5741     97.476  39.310178     36.766      8.205   224.1408     8.0458     1.9236     0.0252      0.002      0.041      0.060         33 6.1002e+02   996.1263 0.0000e+00
      0.044    28.4437     7.7177     99.317  39.295658     36.768      8.188   178.4471     8.2556     2.0534     0.0252      0.004      0.044      0.064         34 6.2207e+02   996.1273 0.0000e+00
      0.048    28.4436     7.8694    101.260  39.323715     36.768      8.182   216.9101     8.2212     1.9957     0.0252      0.007      0.048      0.069         35 6.2719e+02   996.1272 0.0000e+00
      0.054    28.4451     8.0041    102.984  39.334538     36.821      8.180   225.3523     8.2556     1.9525     0.0253      0.008      0.053      0.076         36 5.8594e+02   996.1275 0.0000e+00
      0.058    28.4396     8.1029    104.248  39.282189     36.716      8.162   226.5637     8.2174     1.9525     0.0252      0.010      0.055      0.079         37 6.1997e+02   996.1275 0.0000e+00
      0.055    28.4274     8.1645    105.035  39.270311     36.767      8.156   227.5101     8.9575     2.0534     0.0252      0.010      0.054      0.078         38 6.3024e+02   996.1271 0.0000e+00
      0.052    28.4183     8.1928    105.399  39.260405     36.693      8.147   228.1916     8.9460     1.9813     0.0252      0.009      0.051      0.074         39 6.5485e+02   996.1286 0.0000e+00
      0.050    28.4125     8.1915    105.381  39.264879     36.780      8.139   228.9109     8.9270     1.8660     0.0252      0.007      0.049      0.070         40 5.9588e+02   996.1321 0.0000e+00
      0.047    28.4097     8.1921    105.386  39.205471     36.655      8.132   228.0780     8.9346     1.9236     0.0252      0.003      0.047      0.068         41 5.5636e+02   996.1348 0.0000e+00
      0.047    28.4107     8.1696    105.097  39.215789     36.737      8.125   229.6301     8.9727     1.7362     0.0252     -0.000      0.047      0.068         42 6.2791e+02   996.1364 0.0000e+00
      0.048    28.4098     8.1554    104.926  39.192767     36.661      8.118   229.9709     8.9613     1.7073     0.0252     -0.003      0.047      0.068         43 6.4167e+02   996.1372 0.0000e+00
      0.047    28.4053     8.1301    104.609  39.204485     36.713      8.110   230.8794     8.9689     1.8660     0.0252     -0.005      0.046      0.067         44 5.9440e+02   996.1369 0.0000e+00
      0.047    28.4003     8.1044    104.283  39.171568     36.661      8.103   230.9173     8.9499     1.6497     0.0252     -0.005      0.046      0.067         45 6.4121e+02   996.1372 0.0000e+00
      0.046    28.3954     8.0812    103.978  39.115182     36.612      8.097   231.0309     9.2779     1.8660     0.0252     -0.004      0.046      0.067         46 6.8776e+02   996.1385 0.0000e+00
      0.046    28.3913     8.0738    103.865  39.185744     36.693      8.090   230.3873     9.2627     1.9813     0.0252     -0.002      0.046      0.067         47 6.0537e+02   996.1399 0.0000e+00
      0.048    28.3889     8.0761    103.881  39.172670     36.671      8.090   230.3494     9.2398     1.9236     0.0252     -0.001      0.047      0.068         48 6.9182e+02   996.1413 0.0000e+00
      0.049    28.3883     8.0788    103.903  39.161092     36.674      8.088   230.3494     9.2627     1.9957     0.0252      0.000      0.048      0.070         49 6.6558e+02   996.1425 0.0000e+00
      0.052    28.3880     8.0732    103.813  39.170517     36.675      8.089   230.2737     9.4916     1.9669     0.0252      0.001      0.050      0.072         50 5.7665e+02   996.1432 0.0000e+00
      0.052    28.3863     8.0426    103.397  39.160943     36.676      8.086   230.6144     9.4763     1.8804     0.0252      0.002      0.051      0.073         51 5.8008e+02   996.1434 0.0000e+00
      0.052    28.3871     8.0014    102.854  39.173008     36.676      8.081   231.1823     9.5068     2.0534     0.0252      0.003      0.052      0.075         52 6.3699e+02   996.1435 0.0000e+00
      0.055    28.3923     7.9382    102.052  39.185140     36.703      8.077   231.6744     9.4916     2.0534     0.0252      0.004      0.054      0.079         53 6.9201e+02   996.1440 0.0000e+00
      0.058    28.3974     7.8663    101.143  39.116206     36.624      8.073   231.7123     9.4687     1.8948     0.0252      0.006      0.057      0.083         54 5.9089e+02   996.1438 0.0000e+00
      0.061    28.4001     7.7935    100.210  39.110603     36.620      8.071   232.0530     9.7853     1.8660     0.0252      0.007      0.060      0.087         55 5.9254e+02   996.1423 0.0000e+00
      0.063    28.3962     7.7403     99.525  39.162472     36.670      8.062   232.7344     9.7929     2.0102     0.0252      0.008      0.062      0.089         56 5.9432e+02   996.1409 0.0000e+00
      0.063    28.3870     7.7054     99.076  39.170205     36.667      8.056   233.3780     9.8272     2.0534     0.0252      0.008      0.062      0.089         57 5.8646e+02   996.1400 0.0000e+00
      0.062    28.3792     7.6840     98.804  39.130616     36.644      8.054   232.8101     9.8120     1.9957     0.0252      0.007      0.061      0.088         58 6.1628e+02   996.1411 0.0000e+00
      0.061    28.3721     7.6709     98.636  39.122829     36.624      8.054   233.6052    10.2850     1.8660     0.0252      0.006      0.060      0.086         59 5.7981e+02   996.1438 0.0000e+00
      0.060    28.3624     7.6495     98.356  39.150263     36.682      8.049   233.4916    10.2583     1.8660     0.0252      0.004      0.059      0.085         60 5.9166e+02   996.1460 0.0000e+00
      0.058    28.3499     7.6182     97.949  39.126117     36.634      8.049   233.6430    10.2698     1.8948     0.0252      0.001      0.057      0.083         61 6.1808e+02   996.1480 0.0000e+00
      0.058    28.3433     7.5634     97.260  39.212159     36.746      8.048   234.0216    10.3079     1.9236     0.0252     -0.001      0.057      0.083         62 5.5602e+02   996.1508 0.0000e+00
      0.059    28.3486     7.4897     96.353  39.191382     36.728      8.046   233.9837     9.6213     1.9525     0.0252     -0.003      0.058      0.084         63 5.3094e+02   996.1545 0.0000e+00
      0.059    28.3566     7.3990     95.215  39.122342     36.654      8.047   233.9459     9.6213     1.9813     0.0252     -0.003      0.058      0.084         64 5.5880e+02   996.1563 0.0000e+00
      0.058    28.3588     7.3105     94.084  39.149890     36.703      8.043   234.0973     9.6098     1.9381     0.0252     -0.002      0.058      0.084         65 5.6682e+02   996.1547 0.0000e+00
      0.059    28.3583     7.2268     93.013  39.127458     36.645      8.039   234.4002     9.6060     2.0102     0.0252     -0.001      0.058      0.084         66 5.4708e+02   996.1525 0.0000e+00
      0.060    28.3587     7.1502     92.030  39.090979     36.644      8.035   234.6273     8.9766     2.0246     0.0252     -0.000      0.059      0.085         67 5.4663e+02   996.1519 0.0000e+00
      0.061    28.3602     7.0968     91.335  39.076734     36.592      8.032   234.5516     8.9422     1.8948     0.0251      0.001      0.060      0.086         68 5.6822e+02   996.1521 0.0000e+00
      0.062    28.3604     7.0586     90.840  39.115548     36.670      8.029   234.3623     8.9918     2.0102     0.0252      0.002      0.061      0.088         69 5.3978e+02   996.1519 0.0000e+00
      0.063    28.3576     7.0308     90.483  39.131589     36.643      8.025   234.4002     8.9537     1.9957     0.0252      0.002      0.061      0.089         70 5.3821e+02   996.1515 0.0000e+00
      0.064    28.3548     7.0085     90.200  39.145683     36.695      8.025   234.5137     9.5488     2.0390     0.0252      0.003      0.062      0.090         71 5.0473e+02   996.1514 0.0000e+00
      0.064    28.3644     6.9840     89.898  39.127647     36.644      8.023   235.4602     9.5640     1.9525     0.0252      0.003      0.062      0.090         72 4.9931e+02   996.1522 0.0000e+00
      0.062    28.3878     6.9417     89.367  39.094761     36.647      8.018   235.4980     9.5678     1.9236     0.0252      0.003      0.061      0.088         73 5.8043e+02   996.1530 0.0000e+00
      0.059    28.4047     6.8968     88.795  39.097694     36.614      8.011   236.0280     9.5564     2.0534     0.0252      0.001      0.058      0.085         74 5.5890e+02   996.1503 0.0000e+00
      0.057    28.4102     6.8540     88.246  39.153629     36.676      8.011   235.2330     9.5564     1.9813     0.0252     -0.001      0.056      0.082         75 5.2376e+02   996.1436 0.0000e+00
      0.056    28.4143     6.8054     87.620  39.173332     36.664      8.009   235.8766     9.0338     1.9813     0.0252     -0.003      0.055      0.080         76 5.6890e+02   996.1386 0.0000e+00
      0.054    28.4150     6.7561     86.995  39.162081     36.661      8.006   235.7252     9.0681     1.9236     0.0252     -0.005      0.053      0.078         77 5.8489e+02   996.1371 0.0000e+00
      0.053    28.4110     6.6993     86.275  39.167626     36.658      8.003   235.0816     9.0719     1.9525     0.0252     -0.006      0.053      0.077         78 5.6637e+02   996.1359 0.0000e+00
      0.055    28.4090     6.6349     85.445  39.136789     36.631      8.003   235.4980     9.0719     2.0390     0.0252     -0.006      0.054      0.078         79 5.3442e+02   996.1357 0.0000e+00
      0.056    28.4092     6.5701     84.619  39.111543     36.608      7.998   234.8166     8.1068     1.9669     0.0252     -0.004      0.055      0.080         80 5.1365e+02   996.1368 0.0000e+00
      0.058    28.4116     6.5043     83.796  39.110132     36.609      7.999   235.8387     8.1221     2.0246     0.0252     -0.002      0.057      0.083         81 5.2400e+02   996.1374 0.0000e+00
      0.059    28.4198     6.4419     83.014  39.108908     36.609      7.996   236.1416     8.1335     2.1544     0.0252      0.001      0.057      0.084         82 5.6451e+02   996.1374 0.0000e+00
      0.058    28.4289     6.3716     82.134  39.053791     36.555      7.991   235.8766     8.1259     1.9813     0.0251      0.002      0.057      0.084         83 5.6630e+02   996.1366 0.0000e+00
      0.057    28.4332     6.3084     81.337  39.119447     36.602      7.984   236.8609     8.6218     1.9957     0.0252      0.002      0.057      0.084         84 5.4157e+02   996.1344 0.0000e+00
      0.060    28.4338     6.2562     80.667  39.175386     36.674      7.978   237.0880     8.6294     1.9525     0.0252      0.003      0.059      0.086         85 5.5690e+02   996.1317 0.0000e+00
      0.064    28.4340     6.2103     80.076  39.132362     36.593      7.972   234.7409     8.6409     1.9092     0.0252      0.004      0.063      0.091         86 5.2895e+02   996.1305 0.0000e+00
      0.067    28.4403     6.1690     79.549  39.143350     36.644      7.966   235.0816     8.6561     2.0390     0.0252      0.005      0.065      0.095         87 4.2363e+02   996.1304 0.0000e+00
      0.069    28.4477     6.1255     78.995  39.072797     36.540      7.961   238.3373     8.9422     1.9381     0.0251      0.006      0.066      0.095         88 4.2463e+02   996.1303 0.0000e+00
      0.065    28.4472     6.0780     78.395  39.042334     36.536      7.962   238.4130     8.9308     1.9092     0.0251      0.005      0.063      0.091         89 5.1627e+02   996.1284 0.0000e+00
      0.059    28.4535     6.0391     77.905  39.033068     36.504      7.956   238.5645     8.9422     1.9092     0.0251      0.003      0.059      0.086         90 5.4014e+02   996.1263 0.0000e+00
      0.059    28.4690     6.0045     77.452  38.995413     36.479      7.953   238.2237     8.9651     1.9525     0.0251      0.001      0.059      0.086         91 5.5798e+02   996.1264 0.0000e+00
      0.064    28.4845     6.0205     77.649  39.000279     36.474      7.950   237.9587     8.9041     2.0678     0.0251      0.001      0.062      0.090         92 5.3651e+02   996.1246 0.0000e+00
      0.066    28.5027     6.0979     78.608  38.997370     36.463      7.939   238.0345     8.8850     1.9813     0.0251     -0.000      0.064      0.093         93 5.3250e+02   996.1201 0.0000e+00
      0.067    28.5149     6.2084     79.983  38.999026     36.453      7.936   237.6559     8.8621     1.9525     0.0251     -0.001      0.065      0.095         94 5.6979e+02   996.1156 0.0000e+00
      0.069    28.5170     6.3130     81.299  38.998210     36.440      7.926   238.8673     8.8926     1.9525     0.0251      0.000      0.067      0.098         95 5.3337e+02   996.1104 0.0000e+00
      0.071    28.5177     6.4318     82.813  38.998377     36.432      7.913   238.9430     9.4839     1.9813     0.0251      0.003      0.069      0.100         96 4.8135e+02   996.1070 0.0000e+00
      0.071    28.5216     6.5824     84.746  38.939537     36.379      7.891   240.0787     9.4916     1.8948     0.0251      0.005      0.070      0.101         97 4.7660e+02   996.1063 0.0000e+00
      0.070    28.5270     6.7733     87.203  38.952881     36.378      7.863   240.5330     9.5068     1.8804     0.0251      0.006      0.069      0.100         98 5.2005e+02   996.1061 0.0000e+00
      0.070    28.5368     7.0011     90.137  38.981769     36.428      7.853   240.7602     9.4992     1.9957     0.0251      0.005      0.069      0.100         99 5.2473e+02   996.1050 0.0000e+00
      0.071    28.5437     7.1881     92.544  38.962861     36.372      7.850   240.4195     9.4648     2.1111     0.0251      0.003      0.070      0.102        100 5.1575e+02   996.1035 0.0000e+00
      0.073    28.5401     7.3420     94.516  39.006047     36.444      7.852   239.2837    10.1324     1.9813     0.0251      0.003      0.077      0.112        101 4.6935e+02   996.1006 0.0000e+00
      0.094    28.5316     7.4469     95.860  39.016934     36.412      7.858   233.7566    10.1134     1.8660     0.0251      0.008      0.097      0.142        102 3.7862e+02   996.0987 0.0000e+00
      0.134    28.5043     7.5048     96.601  39.038221     36.468      7.842   194.4986    10.1248     2.0102     0.0251      0.022      0.126      0.183        103 3.3185e+02   996.0999 0.0000e+00
      0.154    28.4687     7.5247     96.839  39.009194     36.420      7.834   191.7729    10.1362     1.8948     0.0251      0.037      0.147      0.214        104 3.2071e+02   996.1024 0.0000e+00
      0.164    28.4471     7.5240     96.832  38.993790     36.440      7.833   190.1829    10.4643     2.0534     0.0251      0.051      0.160      0.232        105 3.4612e+02   996.1104 0.0000e+00
      0.172    28.4361     7.5075     96.662  39.027767     36.490      7.835   189.0850    10.4834     2.0534     0.0251      0.060      0.169      0.245        106 3.3787e+02   996.1208 0.0000e+00
      0.181    28.4321     7.4668     96.143  38.996565     36.479      7.836   188.4036    10.4681     2.0246     0.0251      0.065      0.178      0.257        107 3.4018e+02   996.1269 0.0000e+00
      0.191    28.4318     7.4298     95.653  39.002995     36.486      7.835   187.4193    10.4681     1.9813     0.0251      0.065      0.188      0.272        108 3.5639e+02   996.1302 0.0000e+00
      0.203    28.4324     7.3933     95.146  39.049407     36.541      7.839   186.6622    11.7270     1.9236     0.0251      0.060      0.200      0.290        109 3.4401e+02   996.1314 0.0000e+00
      0.218    28.4315     7.3760     94.876  39.057360     36.541      7.840   186.3214    11.7423     2.0390     0.0251      0.052      0.214      0.311        110 3.0887e+02   996.1316 0.0000e+00
      0.235    28.4264     7.3870     95.006  39.022737     36.515      7.843   185.8293    11.7499     1.9813     0.0251      0.045      0.231      0.335        111 3.0249e+02   996.1315 0.0000e+00
      0.254    28.4221     7.3918     95.020  38.944306     36.437      7.843   185.8293    11.7499     2.0534     0.0251      0.047      0.248      0.360        112 3.4159e+02   996.1318 0.0000e+00
      0.270    28.4197     7.3795     94.840  38.888228     36.388      7.838   185.2614    12.7265     2.0534     0.0251      0.053      0.265      0.384        113 3.7116e+02   996.1333 0.0000e+00
      0.285    28.4088     7.3588     94.565  38.944339     36.443      7.832   184.9586    12.7341     1.8948     0.0251      0.058      0.283      0.411        114 3.9176e+02   996.1347 0.0000e+00
      0.311    28.4110     7.3355     94.256  38.933755     36.445      7.821   185.5643    12.7341     1.8948     0.0251      0.064      0.308      0.446        115 3.4929e+02   996.1354 0.0000e+00
      0.345    28.4336     7.3082     93.901  38.901403     36.400      7.805   185.8672    12.7494     2.0102     0.0251      0.073      0.336      0.487        116 3.0404e+02   996.1387 0.0000e+00
      0.371    28.4385     7.2925     93.704  38.925329     36.452      7.783   185.7914    14.2409     2.2841     0.0251      0.081      0.363      0.527        117 3.1551e+02   996.1382 0.0000e+00
      0.395    28.4298     7.3028     93.850  38.903977     36.382      7.780   186.1322    14.2218     2.1544     0.0251      0.088      0.391      0.568        118 3.3992e+02   996.1318 0.0000e+00
      0.433    28.4064     7.3334     94.270  38.868691     36.380      7.776   186.8893    14.2218     2.1111     0.0251      0.097      0.423      0.614        119 3.4188e+02   996.1305 0.0000e+00
      0.464    28.3817     7.3748     94.814  38.850688     36.334      7.777   186.4729    14.2104     2.1688     0.0251      0.105      0.457      0.662        120 3.1376e+02   996.1332 0.0000e+00
      0.501    28.3705     7.4005     95.135  38.867112     36.401      7.774   187.0407    14.2295     2.3274     0.0251      0.115      0.488      0.708        121 2.9912e+02   996.1400 0.0000e+00
      0.527    28.3461     7.3983     95.093  38.729714     36.263      7.761   186.6243    16.2322     2.3130     0.0250      0.120      0.512      0.743        122 3.0934e+02   996.1472 0.0000e+00
      0.537    28.3303     7.3759     94.812  38.636401     36.189      7.765   186.2079    16.2246     2.1544     0.0250      0.117      0.528      0.765        123 3.0297e+02   996.1505 0.0000e+00
      0.552    28.3266     7.3507     94.512  38.686872     36.261      7.772   187.0407    16.2017     2.2409     0.0250      0.108      0.541      0.784        124 3.0173e+02   996.1576 0.0000e+00
      0.565    28.3199     7.3054     93.926  38.637278     36.218      7.771   187.0407    16.2284     2.3274     0.0250      0.099      0.553      0.801        125 3.0555e+02   996.1621 0.0000e+00
      0.572    28.3175     7.2542     93.248  38.638854     36.221      7.771   186.8893    17.5254     2.2409     0.0250      0.086      0.562      0.814        126 2.9365e+02   996.1632 0.0000e+00
      0.581    28.3197     7.1860     92.365  38.625639     36.225      7.778   187.0029    17.4796     2.1688     0.0250      0.070      0.572      0.829        127 2.9815e+02   996.1652 0.0000e+00
      0.595    28.3289     7.1142     91.442  38.683364     36.253      7.787   186.9650    17.4949     2.1544     0.0250      0.058      0.588      0.852        128 2.9498e+02   996.1659 0.0000e+00
      0.622    28.3448     7.0358     90.441  38.804118     36.408      7.791   187.1922    17.4949     2.1976     0.0251      0.052      0.608      0.882        129 2.8282e+02   996.1655 0.0000e+00
      0.642    28.3517     6.9642     89.523  38.771736     36.324      7.792   187.3436    16.9112     2.0534     0.0250      0.053      0.628      0.911        130 2.7924e+02   996.1629 0.0000e+00
      0.657    28.3457     6.9247     89.025  38.812571     36.391      7.794   187.4193    16.9151     1.9525     0.0251      0.058      0.644      0.934        131 2.7235e+02   996.1585 0.0000e+00
      0.671    28.3380     6.9257     89.029  38.753295     36.308      7.775   187.6086    16.8884     1.9236     0.0250      0.061      0.656      0.951        132 2.6425e+02   996.1565 0.0000e+00
      0.677    28.3423     6.9590     89.393  38.726950     36.286      7.765   187.3057    16.9303     1.8948     0.0250      0.062      0.668      0.968        133 2.5971e+02   996.1583 0.0000e+00
      0.697    28.3561     6.9980     89.846  38.815720     36.396      7.769   188.1007    17.3232     2.1255     0.0251      0.064      0.684      0.991        134 2.5452e+02   996.1606 0.0000e+00
      0.715    28.3538     7.0287     90.190  38.761376     36.315      7.768   187.9114    17.3347     2.1976     0.0250      0.064      0.700      1.015        135 2.5073e+02   996.1594 0.0000e+00
      0.727    28.3426     7.0585     90.524  38.735303     36.305      7.771   187.9493    17.3232     2.2841     0.0250      0.061      0.714      1.036        136 2.4611e+02   996.1555 0.0000e+00
      0.743    28.3381     7.0825     90.774  38.759250     36.307      7.777   188.1386    17.3499     2.1399     0.0250      0.058      0.729      1.057        137 2.4202e+02   996.1562 0.0000e+00
      0.758    28.3382     7.0860     90.760  38.761212     36.341      7.783   188.3279    16.7739     2.0823     0.0250      0.057      0.743      1.077        138 2.3699e+02   996.1594 0.0000e+00
      0.771    28.3423     7.0599     90.383  38.703227     36.265      7.786   188.7822    16.7777     2.1399     0.0250      0.058      0.755      1.095        139 2.3347e+02   996.1609 0.0000e+00
      0.781    28.3442     7.0260     89.930  38.683226     36.265      7.789   188.7443    16.7739     2.2697     0.0250      0.057      0.769      1.115        140 2.3058e+02   996.1609 0.0000e+00
      0.800    28.3508     6.9979     89.562  38.756466     36.315      7.794   189.0093    16.8006     2.2697     0.0250      0.058      0.789      1.144        141 2.1995e+02   996.1599 0.0000e+00
      0.835    28.3422     6.9941     89.506  38.819543     36.392      7.790   189.6529    16.7625     2.2120     0.0251      0.062      0.816      1.183        142 2.1430e+02   996.1595 0.0000e+00
      0.858    28.3054     6.9982     89.559  38.841827     36.388      7.790   189.1986    16.6023     2.2120     0.0251      0.067      0.843      1.222        143 2.0921e+02   996.1576 0.0000e+00
      0.887    28.2727     7.0386     90.078  38.817649     36.392      7.791   189.6150    16.6023     2.2120     0.0251      0.076      0.869      1.260        144 1.9903e+02   996.1602 0.0000e+00
      0.913    28.2430     7.0801     90.587  38.701452     36.289      7.793   189.6150    16.5870     2.1976     0.0250      0.085      0.895      1.298        145 1.9402e+02   996.1708 0.0000e+00
      0.936    28.2112     7.1093     90.934  38.749345     36.361      7.796   189.7286    16.5717     2.2409     0.0250      0.092      0.920      1.334        146 1.8831e+02   996.1804 0.0000e+00
      0.965    28.1761     7.1311     91.203  38.817340     36.462      7.792   189.9557    16.7281     2.1399     0.0251      0.099      0.943      1.368        147 1.8203e+02   996.1890 0.0000e+00
      0.982    28.1392     7.1381     91.302  38.765039     36.404      7.791   189.6907    16.7053     2.1976     0.0250      0.102      0.961      1.393        148 1.7916e+02   996.1982 0.0000e+00
      0.993    28.1128     7.1288     91.184  38.755173     36.455      7.793   190.0315    16.7167     2.1544     0.0250      0.097      0.974      1.412        149 1.7645e+02   996.2083 0.0000e+00
      1.004    28.1000     7.0966     90.764  38.770361     36.453      7.796   189.9179    16.7243     2.1976     0.0250      0.087      0.986      1.431        150 1.7312e+02   996.2188 0.0000e+00
      1.020    28.0948     7.0493     90.164  38.805433     36.551      7.800   190.3722    16.8502     2.1976     0.0251      0.079      1.000      1.451        151 1.7011e+02   996.2264 0.0000e+00
      1.035    28.0901     6.9869     89.368  38.770816     36.480      7.803   190.0315    16.8311     2.1976     0.0250      0.070      1.016      1.474        152 1.6644e+02   996.2302 0.0000e+00
      1.054    28.0912     6.9160     88.470  38.813450     36.563      7.807   190.4857    16.8464     2.1399     0.0251      0.065      1.035      1.501        153 1.6099e+02   996.2318 0.0000e+00
      1.079    28.0913     6.8476     87.597  38.841293     36.566      7.806   190.2965    16.8311     2.1111     0.0251      0.063      1.055      1.531        154 1.5716e+02   996.2332 0.0000e+00
      1.094    28.0779     6.7864     86.822  38.825079     36.566      7.808   190.1829    16.8655     2.1688     0.0251      0.063      1.071      1.554        155 1.5592e+02   996.2329 0.0000e+00
      1.105    28.0614     6.7320     86.122  38.744715     36.486      7.808   190.7507    16.8617     2.1688     0.0250      0.064      1.084      1.572        156 1.5486e+02   996.2330 0.0000e+00
      1.116    28.0559     6.6956     85.668  38.763482     36.496      7.811   191.1672    16.8311     2.2265     0.0250      0.064      1.097      1.592        157 1.5088e+02   996.2368 0.0000e+00
      1.137    28.0617     6.6726     85.375  38.801730     36.586      7.810   191.5836    16.8197     2.2409     0.0251      0.065      1.113      1.615        158 1.4889e+02   996.2416 0.0000e+00
      1.151    28.0616     6.6608     85.227  38.726760     36.458      7.809   191.6593    17.4529     2.1111     0.0250      0.064      1.129      1.638        159 1.4701e+02   996.2432 0.0000e+00
      1.168    28.0578     6.6484     85.050  38.797509     36.586      7.811   191.6593    17.4873     2.2553     0.0251      0.063      1.146      1.662        160 1.4322e+02   996.2417 0.0000e+00
      1.187    28.0593     6.6427     84.951  38.772959     36.506      7.811   191.9243    17.4491     2.2265     0.0250      0.062      1.162      1.686        161 1.4154e+02   996.2419 0.0000e+00
      1.200    28.0623     6.6177     84.612  38.727675     36.510      7.812   192.1515    17.4377     2.1832     0.0250      0.061      1.177      1.708        162 1.3955e+02   996.2429 0.0000e+00
      1.215    28.0659     6.5803     84.133  38.764953     36.508      7.813   191.8865    17.4262     2.3274     0.0250      0.062      1.191      1.728        163 1.3772e+02   996.2425 0.0000e+00
      1.228    28.0694     6.5331     83.538  38.815480     36.586      7.813   191.7350    17.6246     2.2409     0.0251      0.062      1.205      1.748        164 1.3561e+02   996.2418 0.0000e+00
      1.243    28.0718     6.4842     82.921  38.842618     36.582      7.813   192.0757    17.6399     2.2120     0.0251      0.061      1.219      1.768        165 1.3385e+02   996.2408 0.0000e+00
      1.258    28.0727     6.4524     82.531  38.820092     36.581      7.814   192.3407    17.6284     2.2697     0.0251      0.059      1.235      1.791        166 1.3128e+02   996.2398 0.0000e+00
      1.277    28.0774     6.4330     82.276  38.754601     36.499      7.811   192.6436    17.6208     2.2265     0.0250      0.060      1.252      1.816        167 1.2882e+02   996.2393 0.0000e+00
      1.294    28.0802     6.4314     82.248  38.746294     36.500      7.813   192.3786    17.6093     2.1399     0.0250      0.060      1.270      1.841        168 1.2656e+02   996.2391 0.0000e+00
      1.313    28.0802     6.4431     82.350  38.741514     36.495      7.812   193.5143    17.6246     2.2409     0.0250      0.062      1.287      1.866        169 1.2444e+02   996.2379 0.0000e+00
      1.328    28.0696     6.4464     82.334  38.760546     36.495      7.809   193.4765    17.6361     2.2265     0.0250      0.064      1.302      1.888        170 1.2304e+02   996.2371 0.0000e+00
      1.342    28.0515     6.5370     83.324  38.811520     36.572      7.807   193.8172    17.6093     2.2409     0.0251      0.064      1.315      1.907        171 1.2116e+02   996.2372 0.0000e+00
      1.352    28.0395     6.9853     88.560  38.707717     36.449      7.799   193.7793    18.1091     2.3851     0.0250      0.064      1.325      1.922        172 1.2085e+02   996.2403 0.0000e+00
      1.359    28.0386     7.7183     97.400  38.682271     36.461      7.801   193.7036    18.1053     2.3995     0.0250      0.059      1.334      1.934        173 1.1982e+02   996.2454 0.0000e+00
      1.370    28.0432     8.3782    105.404  38.695009     36.469      7.804   194.1958    18.1167     2.4860     0.0250      0.055      1.343      1.948        174 1.1880e+02   996.2489 0.0000e+00
      1.381    28.0513     8.8453    110.801  38.691871     36.470      7.809   194.6500    18.1053     2.5004     0.0250      0.049      1.356      1.967        175 1.1658e+02   996.2492 0.0000e+00
      1.401    28.0601     9.0517    113.002  38.775089     36.545      7.809   195.4072    18.0366     2.1399     0.0250      0.048      1.373      1.992        176 1.1411e+02   996.2480 0.0000e+00
      1.419    28.0573     9.0693    112.984  38.739630     36.515      7.808   195.7858    18.0442     2.2409     0.0250      0.048      1.393      2.020        177 1.1226e+02   996.2458 0.0000e+00
      1.442    28.0502     8.9594    111.489  38.706357     36.454      7.805   196.9593    18.0442     2.2409     0.0250      0.053      1.413      2.049        178 1.0890e+02   996.2433 0.0000e+00
      1.460    28.0184     8.8069    109.532  38.668306     36.458      7.799   197.7165    18.0519     2.3130     0.0250      0.058      1.429      2.072        179 1.0730e+02   996.2442 0.0000e+00
      1.468    27.9793     8.6484    107.524  38.668436     36.409      7.789   198.3601    17.8077     2.1688     0.0250      0.062      1.439      2.086        180 1.0785e+02   996.2462 0.0000e+00
      1.472    27.8590     8.4954    105.568  38.617291     36.457      7.776   198.5493    17.8039     2.2120     0.0250      0.062      1.444      2.095        181 1.0712e+02   996.2552 0.0000e+00
      1.480    27.5654     8.4134    104.533  37.902138     35.747      7.769   199.0415    17.7467     2.2120     0.0247      0.058      1.452      2.107        182 1.0476e+02   996.2662 0.0000e+00
      1.493    27.3057     8.3698    103.971  37.394989     35.348      7.760   199.1929    17.7734     2.1399     0.0245      0.053      1.465      2.125        183 1.0306e+02   996.3002 0.0000e+00
      1.509    27.1250     8.3274    103.378  37.499958     35.684      7.755   199.6851    17.8001     2.2265     0.0246      0.049      1.481      2.149        184 1.0107e+02   996.3830 0.0000e+00
      1.530    26.8935     8.2627    102.553  37.830904     36.130      7.747   200.0636    17.6971     2.2697     0.0247      0.047      1.499      2.175        185 9.8941e+01   996.4558 0.0000e+00
      1.547    26.6993     8.1653    101.312  38.494716     36.945      7.741   200.1015    17.6589     2.1255     0.0250      0.048      1.518      2.201        186 9.6273e+01   996.5061 0.0000e+00
      1.567    26.5857     8.0283     99.452  38.896727     37.466      7.731   200.7451    17.6742     2.1399     0.0251      0.053      1.534      2.226        187 9.4697e+01   996.5700 0.0000e+00
      1.580    26.5205     7.8708     97.314  38.931130     37.657      7.718   202.1458    17.6742     2.1544     0.0252      0.059      1.549      2.247        188 9.3463e+01   996.6231 0.0000e+00
      1.592    26.4920     7.6974     94.957  38.955841     37.743      7.710   205.4772    17.8077     2.3995     0.0252      0.063      1.561      2.264        189 9.1846e+01   996.6541 0.0000e+00
      1.602    26.4705     7.5194     92.675  38.925314     37.788      7.698   208.9979    17.8459     2.4572     0.0252      0.063      1.572      2.280        190 9.0780e+01   996.6718 0.0000e+00
      1.615    26.4453     7.3794     90.890  38.909880     37.756      7.689   210.2094    17.8001     2.3851     0.0252      0.060      1.586      2.300        191 8.8420e+01   996.6796 0.0000e+00
      1.634    26.4350     7.3247     90.125  39.004707     37.906      7.681   210.1715    17.7810     2.4860     0.0252      0.058      1.602      2.324        192 8.6700e+01   996.6855 0.0000e+00
      1.651    26.4236     7.3302     90.147  38.955506     37.845      7.670   211.0422    17.8993     2.3851     0.0252      0.057      1.619      2.349        193 8.4513e+01   996.6924 0.0000e+00
      1.670    26.3898     7.3746     90.600  39.060033     37.960      7.660   210.4744    17.9374     2.4139     0.0252      0.057      1.633      2.369        194 8.3031e+01   996.6953 0.0000e+00
      1.676    26.3784     7.4325     91.262  39.200653     38.131      7.643   211.6101    17.9450     2.4139     0.0253      0.056      1.642      2.382        195 8.3015e+01   996.6984 0.0000e+00
      1.679    26.3555     7.5209     92.225  39.136176     38.048      7.639   214.2222    17.9031     2.3418     0.0253      0.054      1.652      2.395        196 8.0963e+01   996.7075 0.0000e+00
      1.700    26.2736     7.5864     92.760  39.347757     38.302      7.632   216.4937    18.6584     2.5437     0.0254      0.054      1.667      2.418        197 7.8352e+01   996.7108 0.0000e+00
      1.720    26.1614     7.6204     92.958  39.530124     38.479      7.618   217.5537    18.6431     2.5004     0.0254      0.055      1.687      2.446        198 7.6210e+01   996.7170 0.0000e+00
      1.740    26.0448     7.6695     93.400  39.650205     38.654      7.612   217.4022    18.6660     2.7023     0.0255      0.057      1.707      2.476        199 7.3447e+01   996.7392 0.0000e+00
      1.764    25.9894     7.7488     94.240  39.820778     38.925      7.602   218.9165    18.6584     2.6302     0.0256      0.059      1.726      2.503        200 7.2307e+01   996.7695 0.0000e+00
      1.775    25.9521     7.8609     95.508  39.792135     38.965      7.594   220.8094    18.5020     2.7023     0.0255      0.062      1.741      2.525        201 7.0734e+01   996.8006 0.0000e+00
      1.790    25.9011     7.9814     96.963  39.834103     39.059      7.590   221.6801    18.5249     2.6590     0.0256      0.065      1.755      2.545        202 6.8488e+01   996.8154 0.0000e+00
      1.804    25.8672     8.0929     98.453  39.798225     39.059      7.577   221.5665    18.5402     2.8465     0.0256      0.068      1.768      2.564        203 6.7526e+01   996.8253 0.0000e+00
      1.813    25.8171     8.2018     99.845  39.718253     38.992      7.572   223.0430    18.5516     2.8032     0.0255      0.067      1.779      2.581        204 6.5619e+01   996.8388 0.0000e+00
      1.828    25.7832     8.2875    100.953  39.755815     39.095      7.562   222.8537    18.5096     2.7600     0.0256      0.062      1.791      2.598        205 6.4485e+01   996.8480 0.0000e+00
      1.836    25.7091     8.3369    101.610  39.662583     39.001      7.557   223.5351    19.4023     2.9330     0.0255      0.056      1.802      2.614        206 6.3306e+01   996.8612 0.0000e+00
      1.851    25.5558     8.3626    101.880  39.004416     38.447      7.557   224.6708    19.4290     3.0051     0.0253      0.052      1.815      2.632        207 6.1344e+01   996.8700 0.0000e+00
      1.865    25.4260     8.3589    101.635  38.085314     37.483      7.548   224.3680    19.4175     3.0628     0.0249      0.049      1.828      2.651        208 6.0070e+01   996.8893 0.0000e+00
      1.875    25.3346     8.3321    101.100  37.901942     37.517      7.547   224.2166    19.4290     3.1637     0.0248      0.049      1.840      2.668        209 5.8568e+01   996.9295 0.0000e+00
      1.889    25.2631     8.2953    100.524  37.810100     37.474      7.542   224.6708    19.9249     3.6684     0.0248      0.048      1.852      2.686        210 5.7232e+01   996.9635 0.0000e+00
      1.901    25.2061     8.2605    100.013  37.636584     37.376      7.538   224.5194    19.9516     3.7261     0.0247      0.048      1.864      2.703        211 5.6000e+01   996.9873 0.0000e+00
      1.912    25.2067     8.2397     99.661  37.614113     37.429      7.536   225.0494    19.9478     3.6540     0.0247      0.049      1.875      2.719        212 5.4851e+01   997.0059 0.0000e+00
      1.922    25.2731     8.2451     99.706  37.778830     37.582      7.530   224.7466    19.9707     3.7261     0.0248      0.048      1.884      2.732        213 5.3905e+01   997.0207 0.0000e+00
      1.928    25.3163     8.2706     99.962  38.024349     37.919      7.524   226.0716    18.4791     3.5098     0.0249      0.046      1.892      2.744        214 5.2340e+01   997.0206 0.0000e+00
      1.939    25.3473     8.2825    100.088  37.990206     37.724      7.521   226.5637    18.4753     3.4666     0.0248      0.043      1.901      2.757        215 5.1157e+01   997.0035 0.0000e+00
      1.947    25.3793     8.2698     99.953  38.117663     37.918      7.516   227.3587    18.4677     3.4089     0.0249      0.041      1.910      2.770        216 5.0315e+01   996.9923 0.0000e+00
      1.955    25.3522     8.2292     99.397  38.132439     37.836      7.514   228.1916    18.4867     3.4666     0.0249      0.039      1.918      2.782        217 4.9499e+01   996.9843 0.0000e+00
      1.966    25.2496     8.1324     97.981  38.149620     37.870      7.511   228.1916    19.0742     3.4666     0.0249      0.037      1.928      2.797        218 4.8861e+01   996.9761 0.0000e+00
      1.977    25.1353     7.9191     95.149  38.066635     37.804      7.508   229.0623    19.0933     3.4954     0.0249      0.036      1.938      2.812        219 4.8177e+01   996.9831 0.0000e+00
      1.988    25.0680     7.5277     90.225  37.820814     37.607      7.505   229.2137    19.0590     3.4377     0.0248      0.037      1.947      2.825        220 4.8017e+01   997.0097 0.0000e+00
      1.992    25.0142     6.9237     82.788  37.714670     37.635      7.500   229.4030    19.0666     3.4666     0.0248      0.036      1.955      2.835        221 4.7662e+01   997.0392 0.0000e+00
      2.001    24.9666     6.1117     72.941  37.606055     37.520      7.498   230.1980    19.9669     3.6973     0.0247      0.036      1.963      2.847        222 4.7139e+01   997.0565 0.0000e+00
      2.011    24.9487     5.0407     60.061  37.659661     37.669      7.493   230.2737    19.9631     3.6829     0.0248      0.036      1.973      2.862        223 4.6751e+01   997.0705 0.0000e+00
      2.022    24.9259     3.9522     47.026  37.914712     37.905      7.491   231.3337    19.9592     3.6540     0.0248      0.036      1.985      2.879        224 4.5892e+01   997.0829 0.0000e+00
      2.041    24.9130     2.8720     34.148  38.177765     38.249      7.485   231.8259    19.9821     3.8126     0.0250      0.039      2.000      2.901        225 4.4943e+01   997.0876 0.0000e+00
      2.055    24.9241     1.7622     20.941  38.310324     38.327      7.480   231.5987    19.9440     3.6684     0.0250      0.042      2.014      2.921        226 4.4630e+01   997.0935 0.0000e+00
      2.064    24.8838     0.8957     10.642  38.549958     38.642      7.476   232.0909    20.1538     4.0433     0.0251      0.044      2.027      2.940        227 4.3873e+01   997.0969 0.0000e+00
      2.082    24.7523     0.2658      3.155  39.272522     39.278      7.470   233.5673    20.1538     3.9424     0.0254      0.048      2.042      2.962        228 4.2528e+01   997.0943 0.0000e+00
      2.100    24.6024    -0.1883     -2.231  40.552808     40.678      7.459   233.4159    20.1462     3.8992     0.0260      0.053      2.059      2.987        229 4.1585e+01   997.1052 0.0000e+00
      2.117    24.4702    -0.4166     -4.930  41.491560     41.688      7.455   234.4002    20.1309     4.0145     0.0263      0.057      2.077      3.014        230 4.0273e+01   997.1390 0.0000e+00
      2.139    24.3426    -0.5370     -6.345  43.173000     43.445      7.447   234.7409    20.1347     4.1587     0.0270      0.062      2.096      3.040        231 3.9431e+01   997.1776 0.0000e+00
      2.153    24.2394    -0.5401     -6.377  43.529314     44.211      7.442   235.4223    20.1118     4.1875     0.0273      0.064      2.111      3.062        232 3.8774e+01   997.2111 0.0000e+00
      2.166    24.1495    -0.4715     -5.566  45.257720     45.402      7.438   236.3687    20.1385     4.2164     0.0278      0.064      2.125      3.082        233 3.7719e+01   997.2437 0.0000e+00
      2.181    24.0784    -0.3757     -4.438  56.293656     57.301      7.430   236.9744    20.1385     4.1731     0.0328      0.065      2.138      3.101        234 3.7415e+01   997.2732 0.0000e+00
      2.191    24.0351    -0.2505     -2.966  61.143021     62.723      7.419   237.2773    19.7380     4.3029     0.0351      0.064      2.149      3.117        235 3.7214e+01   997.2972 0.0000e+00
      2.202    24.0094    -0.1003     -1.190  61.468365     61.677      7.412   237.5044    19.7075     4.3750     0.0347      0.059      2.161      3.134        236 3.6454e+01   997.3150 0.0000e+00
      2.217    23.9916     0.1143      1.356  69.628138     71.879      7.407   238.0345    19.7532     4.2885     0.0391      0.056      2.176      3.156        237 3.5805e+01   997.3285 0.0000e+00
      2.237    23.9373     0.3723      4.423  77.879057     78.600      7.400   237.6937    19.7456     4.4183     0.0420      0.055      2.193      3.182        238 3.4955e+01   997.3378 0.0000e+00
      2.257    23.8582     0.6724      8.001  90.898515     93.277      7.388   237.8830    19.3336     4.4471     0.0485      0.055      2.210      3.207        239 3.4535e+01   997.3468 0.0000e+00
      2.269    23.7777     0.9727     11.575 101.609643    103.743      7.372   238.0345    19.3145     4.4327     0.0532      0.057      2.225      3.227        240 3.4476e+01   997.3639 0.0000e+00
      2.282    23.6944     1.2293     14.616 111.447410    113.690      7.351   237.8073    19.3412     4.4615     0.0576      0.058      2.238      3.246        241 3.3798e+01   997.3869 0.0000e+00
      2.297    23.6571     1.4404     17.116 122.608838    126.347      7.326   238.2237    19.3145     4.3173     0.0633      0.059      2.250      3.263        242 3.3682e+01   997.4107 0.0000e+00
      2.303    23.6526     1.5765     18.728 117.079424    120.177      7.296   238.2616    20.0546     4.4904     0.0605      0.058      2.257      3.273        243 3.4120e+01   997.4291 0.0000e+00
      2.305    23.6874     1.6578     19.685 104.644696    107.308      7.269   238.7537    20.0699     4.4183     0.0547      0.053      2.261      3.279        244 3.4450e+01   997.4339 0.0000e+00
      2.309    23.7946     1.6861     20.012  96.176240     99.051      7.243   239.1323    20.0546     4.4327     0.0510      0.045      2.265      3.284        245 3.4645e+01   997.4321 0.0000e+00
      2.312    23.8922     1.6777     19.901  89.561868     91.628      7.216   239.2459    20.0584     4.3317     0.0477      0.036      2.268      3.289        246 3.4742e+01   997.4213 0.0000e+00
      2.316    23.9424     1.6297     19.315  89.485314     91.759      7.189   239.7759    20.2530     4.1875     0.0478      0.028      2.271      3.294        247 3.4893e+01   997.3950 0.0000e+00
      2.319    23.9990     1.5558     18.419  87.297085     89.576      7.171   240.3437    20.2606     4.2020     0.0468      0.022      2.275      3.299        248 3.4917e+01   997.3703 0.0000e+00
      2.324    24.0678     1.4559     17.199  85.125036     86.252      7.150   241.4795    20.2797     4.3029     0.0454      0.018      2.280      3.306        249 3.4678e+01   997.3572 0.0000e+00
      2.331    24.0801     1.3223     15.565  88.504547     91.069      7.131   241.4795    20.2720     4.2164     0.0475      0.015      2.285      3.314        250 3.4626e+01   997.3444 0.0000e+00
      2.334    24.0353     1.1234     13.163  86.478053     87.598      7.116   241.8959    20.2225     4.1731     0.0460      0.016      2.289      3.320        251 3.4499e+01   997.3267 0.0000e+00
      2.338    24.0026     0.8792     10.268  85.329406     87.121      7.101   241.9716    20.1309     4.1875     0.0458      0.016      2.293      3.325        252 3.4286e+01   997.3234 0.0000e+00
      2.340    23.9845     0.6308      7.357  85.091461     86.804      7.085   242.2366    20.1233     4.1587     0.0456      0.016      2.295      3.329        253 3.4169e+01   997.3344 0.0000e+00
      2.344    23.9593     0.3857      4.496  85.942418     87.318      7.071   242.4259    20.1423     4.0578     0.0459      0.016      2.298      3.333        254 3.4112e+01   997.3427 0.0000e+00
      2.347    23.9369     0.1854      2.159  89.410190     91.779      7.060   242.6152    20.1233     4.1587     0.0478      0.016      2.302      3.338        255 3.4045e+01   997.3483 0.0000e+00
      2.350    23.9058 -9.990e-29 -9.990e-29  92.125270     93.428      7.051   243.1830    20.0966     4.8076     0.0486      0.015      2.305      3.343        256 3.3980e+01   997.3556 0.0000e+00
      2.354    23.8597 -9.990e-29 -9.990e-29  94.003301     96.848      7.040   243.2209    20.1156     4.5625     0.0501      0.014      2.309      3.349        257 3.3859e+01   997.3618 0.0000e+00
      2.360    23.7956 -9.990e-29 -9.990e-29 100.684562    101.658      7.031   243.5238    20.0699     4.6778     0.0522      0.013      2.316      3.358        258 3.3638e+01   997.3718 0.0000e+00
      2.369    23.6770 -9.990e-29 -9.990e-29 110.239675    114.349      7.019   243.8645    20.0699     4.5625     0.0579      0.015      2.326      3.374        259 3.2765e+01   997.3865 0.0000e+00
      2.387    23.4797 -9.990e-29 -9.990e-29 129.044303    129.831      7.005   240.3437    17.2469    10.4313     0.0649      0.021      2.341      3.396        260 3.1514e+01   997.4090 0.0000e+00
      2.406    23.2396 -9.990e-29 -9.990e-29 163.800464    170.503      6.987   239.3595    17.2584    10.5178     0.0836      0.029      2.355      3.417        261 3.1320e+01   997.4506 0.0000e+00
      2.413    23.0617 -9.990e-29 -9.990e-29 189.341132    193.628      6.965   234.0594    17.2355    10.4601     0.0943      0.035      2.364      3.430        262 3.1430e+01   997.5081 0.0000e+00
      2.415    22.9999 -9.990e-29 -9.990e-29 195.529436    204.768      6.942   216.1151    17.2737    10.5322     0.0995      0.039      2.369      3.435        263 3.0906e+01   997.5684 0.0000e+00
      2.418    22.9612 -9.990e-29 -9.990e-29 190.872555    196.585      6.921   182.8007    14.6949     7.0282     0.0957      0.039      2.371      3.439        264 3.0243e+01   997.6094 0.0000e+00
      2.420    22.9262 -9.990e-29 -9.990e-29 194.807881    204.206      6.905   159.6699    14.6720     7.2013     0.0992      0.037      2.373      3.441        265 2.9950e+01   997.6257 0.0000e+00
      2.421 -9.990e-29 -9.990e-29 -9.990e-29 200.248806    208.007      6.890   149.8649    14.7140     7.1292     0.1010      0.031      2.374      3.443        266 3.0212e+01   997.6369 0.0000e+00
      2.423 -9.990e-29 -9.990e-29 -9.990e-29 198.109012    207.268      6.874   139.9842    14.7140     7.1292     0.1006      0.023      2.375      3.444        267 3.0514e+01   997.6445 0.0000e+00
