* Sea-Bird SBE19plus  Data File:
* FileName = C:\DATA\072219_fcr50_0004.hex
* Software version 2.8.0.119
* Temperature SN = 7809
* Conductivity SN = 7809
* System UpLoad Time = Jul 23 2019 10:44:06
* <ApplicationData>
* <Seaterm232>
* <SoftwareVersion>2.8.0.119</SoftwareVersion>
* <BuildDate>07-Nov-2018</BuildDate>
* </Seaterm232>
* </ApplicationData>
* <InstrumentState>
* <HardwareData DeviceType='SBE19plus' SerialNumber='01907809'>
*
*    <Manufacturer>Sea-Bird Electronics, Inc.</Manufacturer>
*
*    <FirmwareVersion>3.1.8</FirmwareVersion>
*
*    <FirmwareDate>Mar  9 2016 16:22:29</FirmwareDate>
*
*    <CommandSetVersion>1.4</CommandSetVersion>
*
*    <PCBAssembly PCBSerialNum='120721' AssemblyNum='41054J'/>
*
*    <PCBAssembly PCBSerialNum='120715' AssemblyNum='41967A'/>
*
*    <PCBAssembly PCBSerialNum='116699' AssemblyNum='41606'/>
*
*    <PCBAssembly PCBSerialNum='120719' AssemblyNum='41059D'/>
*
*    <MfgDate>28-Apr-2017</MfgDate>
*
*    <InternalSensors>
*
*       <Sensor id='Main Temperature'>
*
*          <type>temperature0</type>
*
*          <SerialNumber>01907809</SerialNumber>
*
*       </Sensor>
*
*       <Sensor id='Main Conductivity'>
*
*          <type>conductivity-0</type>
*
*          <SerialNumber>01907809</SerialNumber>
*
*       </Sensor>
*
*       <Sensor id='Main Pressure'>
*
*          <type>strain-0</type>
*
*          <SerialNumber>10586018</SerialNumber>
*
*       </Sensor>
*
*    </InternalSensors>
*
*    <ExternalSensors>
*
*       <Sensor id='volt 0'>
*
*          <type>pH</type>
*
*          <SerialNumber>27-0363</SerialNumber>
*
*       </Sensor>
*
*       <Sensor id='volt 1'>
*
*          <type>ORP</type>
*
*          <SerialNumber>27-0363</SerialNumber>
*
*       </Sensor>
*
*       <Sensor id='volt 2'>
*
*          <type>OXY</type>
*
*          <SerialNumber>43-0434</SerialNumber>
*
*       </Sensor>
*
*       <Sensor id='volt 3'>
*
*          <type>PAR</type>
*
*          <SerialNumber>1122</SerialNumber>
*
*       </Sensor>
*
*       <Sensor id='volt 4'>
*
*          <type>ECO AFL/FL</type>
*
*          <SerialNumber>FLNTURT-2496</SerialNumber>
*
*       </Sensor>
*
*       <Sensor id='volt 5'>
*
*          <type>ECO-NTU</type>
*
*          <SerialNumber>FLNTURT-2496</SerialNumber>
*
*       </Sensor>
*
*       <Sensor id='serial'>
*
*          <type>not assigned</type>
*
*          <SerialNumber>not assigned</SerialNumber>
*
*       </Sensor>
*
*    </ExternalSensors>
*
* </HardwareData>
* <StatusData DeviceType='SBE19plus' SerialNumber='01907809'>
*
*    <DateTime>2019-07-23T10:42:27</DateTime>
*
*    <LoggingState>not logging</LoggingState>
*
*    <EventSummary numEvents='0'/>
*
*    <Power>
*
*       <vMain>12.8</vMain>
*
*       <vLith>8.6</vLith>
*
*       <iMain>63.1</iMain>
*
*       <iPump>45.8</iPump>
*
*       <iExt01>20.3</iExt01>
*
*       <iExt2345>36.7</iExt2345>
*
*    </Power>
*
*    <MemorySummary>
*
*       <Bytes>60789</Bytes>
*
*       <Samples>2643</Samples>
*
*       <SamplesFree>2858145</SamplesFree>
*
*       <SampleLength>23</SampleLength>
*
*       <Profiles>5</Profiles>
*
*    </MemorySummary>
*
* </StatusData>
* <ConfigurationData DeviceType='SBE19plus' SerialNumber='01907809'>
*
*    <ProfileMode>
*
*       <ScansToAverage>1</ScansToAverage>
*
*       <MinimumCondFreq>5</MinimumCondFreq>
*
*       <PumpDelay>45</PumpDelay>
*
*       <AutoRun>no</AutoRun>
*
*       <IgnoreSwitch>no</IgnoreSwitch>
*
*    </ProfileMode>
*
*    <Battery>
*
*       <Type>alkaline</Type>
*
*       <CutOff>7.5</CutOff>
*
*    </Battery>
*
*    <DataChannels>
*
*       <ExtVolt0>yes</ExtVolt0>
*
*       <ExtVolt1>yes</ExtVolt1>
*
*       <ExtVolt2>yes</ExtVolt2>
*
*       <ExtVolt3>yes</ExtVolt3>
*
*       <ExtVolt4>yes</ExtVolt4>
*
*       <ExtVolt5>yes</ExtVolt5>
*
*       <SBE38>no</SBE38>
*
*       <WETLABS>no</WETLABS>
*
*       <OPTODE>no</OPTODE>
*
*       <SBE63>no</SBE63>
*
*       <SeaFET>no</SeaFET>
*
*       <GTD>no</GTD>
*
*    </DataChannels>
*
*    <EchoCharacters>yes</EchoCharacters>
*
*    <OutputExecutedTag>yes</OutputExecutedTag>
*
*    <OutputFormat>raw HEX</OutputFormat>
*
* </ConfigurationData>
* <CalibrationCoefficients DeviceType='SBE19plus' SerialNumber='01907809'>
*
*    <Calibration format='TEMP1' id='Main Temperature'>
*
*       <SerialNum>01907809</SerialNum>
*
*       <CalDate>24-Mar-19</CalDate>
*
*       <TA0>1.217923e-03</TA0>
*
*       <TA1>2.816693e-04</TA1>
*
*       <TA2>-1.603333e-06</TA2>
*
*       <TA3>1.984146e-07</TA3>
*
*       <TOFFSET>0.000000e+00</TOFFSET>
*
*    </Calibration>
*
*    <Calibration format='WBCOND0' id='Main Conductivity'>
*
*       <SerialNum>01907809</SerialNum>
*
*       <CalDate>24-Mar-19</CalDate>
*
*       <G>-1.005893e+00</G>
*
*       <H>1.268163e-01</H>
*
*       <I>-1.515604e-04</I>
*
*       <J>2.671373e-05</J>
*
*       <CPCOR>-9.570000e-08</CPCOR>
*
*       <CTCOR>3.250000e-06</CTCOR>
*
*       <CSLOPE>1.000000e+00</CSLOPE>
*
*    </Calibration>
*
*    <Calibration format='STRAIN0' id='Main Pressure'>
*
*       <SerialNum>10586018</SerialNum>
*
*       <CalDate>11-Mar-19</CalDate>
*
*       <PA0>4.565618e-02</PA0>
*
*       <PA1>4.850951e-04</PA1>
*
*       <PA2>-2.883271e-12</PA2>
*
*       <PTCA0>5.252467e+05</PTCA0>
*
*       <PTCA1>1.223042e+01</PTCA1>
*
*       <PTCA2>-3.567450e-01</PTCA2>
*
*       <PTCB0>2.516687e+01</PTCB0>
*
*       <PTCB1>3.750000e-04</PTCB1>
*
*       <PTCB2>0.000000e+00</PTCB2>
*
*       <PTEMPA0>-5.487846e+01</PTEMPA0>
*
*       <PTEMPA1>5.537568e+01</PTEMPA1>
*
*       <PTEMPA2>-5.867271e-01</PTEMPA2>
*
*       <POFFSET>7.140000e-01</POFFSET>
*
*       <PRANGE>1.600000e+02</PRANGE>
*
*    </Calibration>
*
*    <Calibration format='VOLT0' id='Volt 0'>
*
*       <OFFSET>-4.920000e-02</OFFSET>
*
*       <SLOPE>1.248122e+00</SLOPE>
*
*    </Calibration>
*
*    <Calibration format='VOLT0' id='Volt 1'>
*
*       <OFFSET>-4.784000e-02</OFFSET>
*
*       <SLOPE>1.248871e+00</SLOPE>
*
*    </Calibration>
*
*    <Calibration format='VOLT0' id='Volt 2'>
*
*       <OFFSET>-4.864632e-02</OFFSET>
*
*       <SLOPE>1.248714e+00</SLOPE>
*
*    </Calibration>
*
*    <Calibration format='VOLT0' id='Volt 3'>
*
*       <OFFSET>-4.743790e-02</OFFSET>
*
*       <SLOPE>1.248571e+00</SLOPE>
*
*    </Calibration>
*
*    <Calibration format='VOLT0' id='Volt 4'>
*
*       <OFFSET>-4.671263e-02</OFFSET>
*
*       <SLOPE>1.248951e+00</SLOPE>
*
*    </Calibration>
*
*    <Calibration format='VOLT0' id='Volt 5'>
*
*       <OFFSET>-4.871053e-02</OFFSET>
*
*       <SLOPE>1.249136e+00</SLOPE>
*
*    </Calibration>
*
*    <Calibration format='FREQ0' id='external frequency channel'>
*
*       <EXTFREQSF>1.000014e+00</EXTFREQSF>
*
*    </Calibration>
*
* </CalibrationCoefficients>
* <EventCounters DeviceType='SBE19plus' SerialNumber='01907809'>
*
*    <EventSummary numEvents='0'/>
*
* </EventCounters></InstrumentState>
* <Headers>
*
* cast   4 22 Jul 2019 15:47:48 samples 1612 to 2054, avg = 1, stop = mag switch
*
# nquan = 18
# nvalues = 345                         
# units = specified
# name 0 = depFM: Depth [fresh water, m]
# name 1 = tv290C: Temperature [ITS-90, deg C]
# name 2 = sbeox0Mg/L: Oxygen, SBE 43 [mg/l]
# name 3 = sbeox0PS: Oxygen, SBE 43 [% saturation]
# name 4 = c0uS/cm: Conductivity [uS/cm]
# name 5 = specc: Specific Conductance [uS/cm]
# name 6 = ph: pH
# name 7 = orp: Oxidation Reduction Potential [mV]
# name 8 = flECO-AFL: Fluorescence, WET Labs ECO-AFL/FL [mg/m^3]
# name 9 = turbWETntu0: Turbidity, WET Labs ECO [NTU]
# name 10 = sal00: Salinity, Practical [PSU]
# name 11 = dz/dtM: Descent Rate [m/s]
# name 12 = prdM: Pressure, Strain Gauge [db]
# name 13 = prdE: Pressure, Strain Gauge [psi]
# name 14 = scan: Scan Count
# name 15 = par/sat/log: PAR/Logarithmic, Satlantic
# name 16 = density00: Density [density, kg/m^3]
# name 17 = flag:  0.000e+00
# span 0 =     -0.327,      5.293       
# span 1 =    11.2311,    28.2346       
# span 2 =    -0.3101,    13.3449       
# span 3 =     -3.018,    155.048       
# span 4 =  30.256466,  61.630388       
# span 5 =     34.294,     78.459       
# span 6 =      7.689,      8.797       
# span 7 =   165.9921,   263.5881       
# span 8 =     0.5574,    24.0982       
# span 9 =     1.0296,    14.8870       
# span 10 =     0.0218,     0.0393      
# span 11 =     -0.084,      0.162      
# span 12 =     -0.307,      5.190      
# span 13 =     -0.446,      7.527      
# span 14 =          1,        345      
# span 15 = 3.1904e-01, 7.1640e+02      
# span 16 =   996.1871,   999.6250      
# span 17 = 0.0000e+00, 0.0000e+00      
# interval = seconds: 0.25
# start_time = Jul 22 2019 15:47:48 [Instrument's time stamp, header]
# bad_flag = -9.990e-29
# <Sensors count="9" >
#   <sensor Channel="1" >
#     <!-- Count, Temperature -->
#     <TemperatureSensor SensorID="58" >
#       <SerialNumber>7809</SerialNumber>
#       <CalibrationDate>24-Mar-19</CalibrationDate>
#       <A0>1.21792325e-003</A0>
#       <A1>2.81669265e-004</A1>
#       <A2>-1.60333336e-006</A2>
#       <A3>1.98414625e-007</A3>
#       <Slope>1.00000000</Slope>
#       <Offset>0.0000</Offset>
#     </TemperatureSensor>
#   </sensor>
#   <sensor Channel="2" >
#     <!-- Frequency 0, Conductivity -->
#     <ConductivitySensor SensorID="3" >
#       <SerialNumber>7809</SerialNumber>
#       <CalibrationDate>24-Mar-19</CalibrationDate>
#       <UseG_J>1</UseG_J>
#       <!-- Cell const and series R are applicable only for wide range sensors. -->
#       <SeriesR>0.0000</SeriesR>
#       <CellConst>2000.0000</CellConst>
#       <ConductivityType>0</ConductivityType>
#       <Coefficients equation="0" >
#         <A>0.00000000e+000</A>
#         <B>0.00000000e+000</B>
#         <C>0.00000000e+000</C>
#         <D>0.00000000e+000</D>
#         <M>0.0</M>
#         <CPcor>-9.57000000e-008</CPcor>
#       </Coefficients>
#       <Coefficients equation="1" >
#         <G>-1.00589325e+000</G>
#         <H>1.26816302e-001</H>
#         <I>-1.51560448e-004</I>
#         <J>2.67137274e-005</J>
#         <CPcor>-9.57000000e-008</CPcor>
#         <CTcor>3.2500e-006</CTcor>
#         <!-- WBOTC not applicable unless ConductivityType = 1. -->
#         <WBOTC>0.00000000e+000</WBOTC>
#       </Coefficients>
#       <Slope>1.00000000</Slope>
#       <Offset>0.00000</Offset>
#     </ConductivitySensor>
#   </sensor>
#   <sensor Channel="3" >
#     <!-- Count, Pressure, Strain Gauge -->
#     <PressureSensor SensorID="46" >
#       <SerialNumber>7809</SerialNumber>
#       <CalibrationDate>11-Mar-19</CalibrationDate>
#       <PA0>4.56561833e-002</PA0>
#       <PA1>4.85095118e-004</PA1>
#       <PA2>-2.88327090e-012</PA2>
#       <PTEMPA0>-5.48784562e+001</PTEMPA0>
#       <PTEMPA1>5.53756816e+001</PTEMPA1>
#       <PTEMPA2>-5.86727098e-001</PTEMPA2>
#       <PTCA0>5.25246745e+005</PTCA0>
#       <PTCA1>1.22304214e+001</PTCA1>
#       <PTCA2>-3.56745036e-001</PTCA2>
#       <PTCB0>2.51668750e+001</PTCB0>
#       <PTCB1>3.75000000e-004</PTCB1>
#       <PTCB2>0.00000000e+000</PTCB2>
#       <Offset>0.000000</Offset>
#     </PressureSensor>
#   </sensor>
#   <sensor Channel="4" >
#     <!-- A/D voltage 0, Oxygen, SBE 43 -->
#     <OxygenSensor SensorID="38" >
#       <SerialNumber>0434</SerialNumber>
#       <CalibrationDate>13-Apr-19</CalibrationDate>
#       <Use2007Equation>1</Use2007Equation>
#       <CalibrationCoefficients equation="0" >
#         <!-- Coefficients for Owens-Millard equation. -->
#         <Boc>0.0000</Boc>
#         <Soc>0.0000e+000</Soc>
#         <offset>0.0000</offset>
#         <Pcor>0.00e+000</Pcor>
#         <Tcor>0.0000</Tcor>
#         <Tau>0.0</Tau>
#       </CalibrationCoefficients>
#       <CalibrationCoefficients equation="1" >
#         <!-- Coefficients for Sea-Bird equation - SBE calibration in 2007 and later. -->
#         <Soc>4.2007e-001</Soc>
#         <offset>-0.6109</offset>
#         <A>-4.3656e-003</A>
#         <B> 1.7017e-004</B>
#         <C>-2.5341e-006</C>
#         <D0> 2.5826e+000</D0>
#         <D1> 1.92634e-004</D1>
#         <D2>-4.64803e-002</D2>
#         <E> 3.6000e-002</E>
#         <Tau20> 1.1800</Tau20>
#         <H1>-3.3000e-002</H1>
#         <H2> 5.0000e+003</H2>
#         <H3> 1.4500e+003</H3>
#       </CalibrationCoefficients>
#     </OxygenSensor>
#   </sensor>
#   <sensor Channel="5" >
#     <!-- A/D voltage 1, PAR/Logarithmic, Satlantic -->
#     <PARLog_SatlanticSensor SensorID="76" >
#       <SerialNumber>1122</SerialNumber>
#       <CalibrationDate>08-May-2019</CalibrationDate>
#       <a0>9.7456e-001</a0>
#       <a1>8.1640e-001</a1>
#       <Im>1.3589e+000</Im>
#       <Multiplier>1.0000e+000</Multiplier>
#     </PARLog_SatlanticSensor>
#   </sensor>
#   <sensor Channel="6" >
#     <!-- A/D voltage 2, pH -->
#     <pH_Sensor SensorID="43" >
#       <SerialNumber>0363</SerialNumber>
#       <CalibrationDate>15-Apr-19</CalibrationDate>
#       <Slope>4.5952</Slope>
#       <Offset>2.5370</Offset>
#     </pH_Sensor>
#   </sensor>
#   <sensor Channel="7" >
#     <!-- A/D voltage 3, Oxidation Reduction Potential -->
#     <OxidationReductionPotentialSensor SensorID="41" >
#       <SerialNumber>0363</SerialNumber>
#       <CalibrationDate>15-Apr-19</CalibrationDate>
#       <B>2.499480</B>
#       <M>-0.496195</M>
#       <Offset>0.0</Offset>
#     </OxidationReductionPotentialSensor>
#   </sensor>
#   <sensor Channel="8" >
#     <!-- A/D voltage 4, Fluorometer, WET Labs ECO-AFL/FL -->
#     <FluoroWetlabECO_AFL_FL_Sensor SensorID="20" >
#       <SerialNumber>FLNTURT-2496</SerialNumber>
#       <CalibrationDate>08-May-2019</CalibrationDate>
#       <ScaleFactor>5.00000000e+001</ScaleFactor>
#       <!-- Dark output -->
#       <Vblank>0.0550</Vblank>
#     </FluoroWetlabECO_AFL_FL_Sensor>
#   </sensor>
#   <sensor Channel="9" >
#     <!-- A/D voltage 5, Turbidity Meter, WET Labs, ECO-NTU -->
#     <TurbidityMeter SensorID="67" >
#       <SerialNumber>FLNTURT-2496</SerialNumber>
#       <CalibrationDate>08-May-2019</CalibrationDate>
#       <ScaleFactor>189.000000</ScaleFactor>
#       <!-- Dark output -->
#       <DarkVoltage>0.071000</DarkVoltage>
#     </TurbidityMeter>
#   </sensor>
# </Sensors>
# datcnv_date = Jul 23 2019 10:50:47, 7.26.7.129 [datcnv_vars = 17]
# datcnv_in = C:\DATA\072219_fcr30.hex C:\DATA\SBE19plusV2_7809.xmlcon
# datcnv_skipover = 0
# datcnv_ox_hysteresis_correction = yes
# datcnv_ox_tau_correction = yes
# filter_date = Jul 23 2019 10:51:03, 7.26.7.129
# filter_in = C:\DATA\072219_fcr30.cnv
# filter_low_pass_tc_A = 0.030
# filter_low_pass_tc_B = 0.150
# filter_low_pass_A_vars = tv290C c0uS/cm par/sat/log density00
# filter_low_pass_B_vars = prdM prdE
# alignctd_date = Jul 23 2019 10:51:16, 7.26.7.129
# alignctd_in = C:\DATA\072219_fcr30.cnv
# alignctd_adv = tv290C 0.500, sbeox0Mg/L 3.000, sbeox0PS 3.000                                                                                                                                                                      
# file_type = ascii
*END*
     -0.327    28.0118     6.5760     84.257  38.792449     36.873      8.418   232.3180     0.5574     1.0296     0.0251 1.0527e-16     -0.307     -0.446          1 7.1640e+02   996.3694 0.0000e+00
     -0.279    28.1122     6.6986     85.810  38.983898     36.919      8.567   236.0280     0.5841     1.0873     0.0251      0.012     -0.280     -0.406          2 6.9620e+02   996.3092 0.0000e+00
     -0.257    28.1776     6.9499     89.032  39.089261     36.859      8.671   240.8359     0.5803     1.0585     0.0252      0.028     -0.255     -0.369          3 6.6685e+02   996.2498 0.0000e+00
     -0.243    28.2129     7.2684     93.130  39.046520     36.759      8.731   243.9023     9.8349     1.7362     0.0252      0.042     -0.236     -0.343          4 6.9319e+02   996.2211 0.0000e+00
     -0.226    28.2266     7.5985     97.382  39.007387     36.664      8.758   239.0945     9.8501     1.7073     0.0251      0.055     -0.207     -0.301          5 6.4650e+02   996.2025 0.0000e+00
     -0.163    28.2321     7.9074    101.369  38.989735     36.638      8.775   237.4287     9.8196     1.8515     0.0251      0.078     -0.152     -0.221          6 4.5824e+02   996.1927 0.0000e+00
     -0.075    28.2346     8.2472    105.754  38.890640     36.525      8.793   237.3530     9.8692     1.8515     0.0251      0.114     -0.085     -0.124          7 3.2017e+02   996.1892 0.0000e+00
     -0.026    28.2141     8.5010    109.025  38.775048     36.416      8.797   241.2902    13.4436     1.7939     0.0250      0.145     -0.036     -0.052          8 2.5323e+02   996.1878 0.0000e+00
     -0.009    28.1907     8.6243    110.608  38.689021     36.335      8.796   243.1073    13.4398     1.7650     0.0250      0.162     -0.012     -0.017          9 2.3194e+02   996.1871 0.0000e+00
      0.003    28.1742     8.6162    110.504  38.582776     36.245      8.784   243.6373    13.4398     1.7650     0.0250      0.161      0.002      0.003         10 2.2380e+02   996.1929 0.0000e+00
      0.014    28.1583     8.5102    109.150  38.640540     36.313      8.767   243.1452    13.4513     1.7939     0.0250      0.156      0.012      0.017         11 2.1583e+02   996.1997 0.0000e+00
      0.020    28.1475     8.3527    107.136  38.735696     36.430      8.754   244.2052    13.4589     1.8948     0.0250      0.142      0.016      0.024         12 2.2169e+02   996.2045 0.0000e+00
      0.015    28.1491     8.1794    104.913  38.760740     36.440      8.744   245.7195    16.1750     1.7650     0.0250      0.112      0.015      0.021         13 2.3132e+02   996.2091 0.0000e+00
      0.010    28.1594     8.0116    102.758  38.816843     36.527      8.728   246.2873    16.1292     1.8371     0.0251      0.070      0.011      0.016         14 2.4271e+02   996.2122 0.0000e+00
      0.010    28.1728     7.8394    100.538  38.843706     36.525      8.723   245.9088    16.1445     1.7362     0.0251      0.034      0.011      0.015         15 2.3432e+02   996.2117 0.0000e+00
      0.012    28.1884     7.6917     98.617  38.875497     36.571      8.713   246.2873    16.1521     1.7650     0.0251      0.015      0.012      0.017         16 2.3211e+02   996.2088 0.0000e+00
      0.014    28.2037     7.5771     97.118  38.836550     36.509      8.704   246.1738    15.3472     1.7650     0.0251      0.007      0.014      0.019         17 2.3676e+02   996.2049 0.0000e+00
      0.015    28.2120     7.4492     95.448  38.832892     36.499      8.700   246.7795    15.3358     1.8227     0.0251      0.002      0.015      0.021         18 2.2820e+02   996.2005 0.0000e+00
      0.016    28.2130     7.3615     94.291  38.820766     36.488      8.694   247.1580    15.3358     1.5776     0.0251     -0.001      0.015      0.022         19 2.2128e+02   996.1961 0.0000e+00
      0.017    28.2134     7.3211     93.745  38.762721     36.404      8.686   247.5366    15.3510     1.7650     0.0250      0.000      0.016      0.023         20 2.2188e+02   996.1937 0.0000e+00
      0.016    28.2162     7.3580     94.191  38.727299     36.403      8.682   247.8773    15.2862     1.7218     0.0250      0.003      0.016      0.024         21 2.1993e+02   996.1935 0.0000e+00
      0.017    28.2190     7.4680     95.572  38.657384     36.298      8.674   248.1423    15.2862     1.8371     0.0250      0.004      0.017      0.024         22 2.1902e+02   996.1933 0.0000e+00
      0.017    28.2193     7.6476     97.851  38.731177     36.401      8.670   248.0666    15.2862     1.6929     0.0250      0.003      0.017      0.024         23 2.2430e+02   996.1925 0.0000e+00
      0.017    28.2177     7.8378    100.281  38.754013     36.399      8.666   248.4073    15.2595     1.8371     0.0250      0.002      0.017      0.024         24 2.3019e+02   996.1917 0.0000e+00
      0.017    28.2112     8.0151    102.554  38.777152     36.425      8.662   248.4831    14.7368     1.6785     0.0250      0.001      0.016      0.024         25 2.2768e+02   996.1916 0.0000e+00
      0.016    28.1963     8.1632    104.455  38.820931     36.478      8.661   248.8995    14.7407     1.7073     0.0251      0.001      0.016      0.023         26 2.3051e+02   996.1921 0.0000e+00
      0.016    28.1785     8.2480    105.541  38.758808     36.404      8.654   248.8616    14.7445     1.8804     0.0250     -0.000      0.015      0.022         27 2.3410e+02   996.1940 0.0000e+00
      0.014    28.1601     8.2677    105.753  38.735918     36.414      8.652   249.2781    14.7216     1.7073     0.0250     -0.001      0.014      0.020         28 2.3007e+02   996.1982 0.0000e+00
      0.014    28.1407     8.2074    104.929  38.701236     36.374      8.649   249.5052    14.7445     1.7362     0.0250     -0.001      0.014      0.020         29 2.2886e+02   996.2033 0.0000e+00
      0.015    28.1233     8.0976    103.477  38.653789     36.360      8.645   249.5052    13.6687     1.7794     0.0250     -0.002      0.014      0.021         30 2.2786e+02   996.2086 0.0000e+00
      0.016    28.1073     7.9720    101.835  38.587513     36.295      8.641   250.0731    13.6649     1.7506     0.0250     -0.001      0.016      0.023         31 2.2528e+02   996.2140 0.0000e+00
      0.019    28.0916     7.8710    100.520  38.576265     36.307      8.636   248.7859    13.6458     1.7650     0.0250     -0.000      0.022      0.032         32 2.3318e+02   996.2191 0.0000e+00
      0.033    28.0798     7.8065     99.684  38.578884     36.318      8.634   247.9909    13.6649     1.7506     0.0250      0.005      0.033      0.047         33 2.2596e+02   996.2237 0.0000e+00
      0.047    28.0777     7.7840     99.386  38.524988     36.276      8.630   248.9752    13.8938     1.7939     0.0250      0.012      0.044      0.063         34 2.0282e+02   996.2281 0.0000e+00
      0.052    28.0803     7.7990     99.570  38.495160     36.258      8.628   249.3538    13.9090     1.7362     0.0249      0.019      0.050      0.072         35 2.0385e+02   996.2315 0.0000e+00
      0.052    28.0844     7.8404    100.091  38.467824     36.233      8.619   249.3538    13.9357     1.7362     0.0249      0.023      0.050      0.073         36 2.1299e+02   996.2322 0.0000e+00
      0.050    28.0829     7.8819    100.617  38.470098     36.231      8.615   249.8838    13.9014     1.6929     0.0249      0.023      0.049      0.071         37 2.1365e+02   996.2315 0.0000e+00
      0.048    28.0628     7.9097    100.975  38.521966     36.281      8.610   249.8081    14.1532     1.6641     0.0250      0.021      0.047      0.068         38 2.1331e+02   996.2303 0.0000e+00
      0.046    28.0340     7.9278    101.210  38.521822     36.281      8.606   250.2245    14.1456     1.7939     0.0250      0.016      0.045      0.065         39 2.2164e+02   996.2306 0.0000e+00
      0.044    28.0083     7.9380    101.347  38.529555     36.296      8.604   250.0352    14.1494     1.7650     0.0250      0.009      0.043      0.062         40 2.2731e+02   996.2363 0.0000e+00
      0.042    27.9876     7.9457    101.448  38.541990     36.341      8.600   250.2245    14.1417     1.8948     0.0250      0.000      0.041      0.060         41 2.2174e+02   996.2445 0.0000e+00
      0.042    27.9741     7.9460    101.449  38.476722     36.280      8.594   250.4138    14.5156     1.7939     0.0249     -0.005      0.041      0.060         42 2.1521e+02   996.2519 0.0000e+00
      0.042    27.9665     7.9324    101.270  38.462607     36.294      8.591   250.2623    14.5156     1.6929     0.0249     -0.006      0.041      0.059         43 2.2022e+02   996.2578 0.0000e+00
      0.041    27.9607     7.9187    101.089  38.411382     36.251      8.590   251.1331    14.4660     1.7073     0.0249     -0.006      0.040      0.058         44 2.2061e+02   996.2615 0.0000e+00
      0.040    27.9558     7.9162    101.051  38.362656     36.203      8.586   251.0952    14.5232     1.8371     0.0249     -0.005      0.040      0.058         45 2.1334e+02   996.2637 0.0000e+00
      0.043    27.9523     7.9225    101.122  38.375065     36.234      8.583   250.8302    14.8246     1.7939     0.0249     -0.003      0.042      0.060         46 2.1454e+02   996.2653 0.0000e+00
      0.045    27.9502     7.9350    101.278  38.366305     36.211      8.583   251.2088    14.8169     1.8371     0.0249     -0.001      0.043      0.063         47 2.1569e+02   996.2667 0.0000e+00
      0.044    27.9514     7.9494    101.457  38.343924     36.213      8.579   251.2088    14.7788     1.6497     0.0249      0.001      0.043      0.063         48 2.1820e+02   996.2677 0.0000e+00
      0.044    27.9543     7.9635    101.633  38.284373     36.135      8.579   251.2845    14.7788     1.7362     0.0249      0.001      0.043      0.062         49 2.1829e+02   996.2682 0.0000e+00
      0.044    27.9572     7.9700    101.708  38.262593     36.134      8.580   250.9059    14.9734     1.9813     0.0249      0.002      0.043      0.062         50 2.1756e+02   996.2679 0.0000e+00
      0.044    27.9589     7.9570    101.528  38.282117     36.133      8.576   251.0573    15.0001     1.9525     0.0249      0.002      0.043      0.062         51 2.1887e+02   996.2671 0.0000e+00
      0.045    27.9577     7.9100    100.911  38.319349     36.183      8.576   251.3981    15.0001     1.8948     0.0249      0.002      0.044      0.063         52 2.1951e+02   996.2663 0.0000e+00
      0.046    27.9545     7.8237     99.796  38.364442     36.208      8.574   251.0573    14.9924     2.0823     0.0249      0.002      0.046      0.067         53 2.1416e+02   996.2658 0.0000e+00
      0.050    27.9513     7.7170     98.427  38.344546     36.209      8.573   251.2845    14.9886     1.9381     0.0249      0.002      0.049      0.072         54 2.0759e+02   996.2662 0.0000e+00
      0.056    27.9475     7.6011     96.941  38.284835     36.132      8.569   251.3981    15.2862     1.9813     0.0249      0.004      0.054      0.079         55 2.0205e+02   996.2671 0.0000e+00
      0.061    27.9429     7.4736     95.308  38.349843     36.214      8.570   251.8145    15.2900     2.0102     0.0249      0.008      0.058      0.085         56 1.9875e+02   996.2681 0.0000e+00
      0.062    27.9399     7.3748     94.040  38.382194     36.243      8.567   251.9659    15.3014     1.9669     0.0249      0.010      0.060      0.087         57 2.0192e+02   996.2691 0.0000e+00
      0.061    27.9381     7.2906     92.958  38.274213     36.140      8.565   252.2309    15.2556     1.9092     0.0249      0.011      0.059      0.086         58 2.0373e+02   996.2705 0.0000e+00
      0.060    27.9358     7.2226     92.086  38.217493     36.090      8.564   252.1173    15.1412     1.7073     0.0248      0.010      0.059      0.086         59 2.0658e+02   996.2713 0.0000e+00
      0.060    27.9310     7.1805     91.545  38.215689     36.091      8.562   251.8523    15.1603     1.7939     0.0248      0.009      0.059      0.086         60 2.0320e+02   996.2718 0.0000e+00
      0.061    27.9231     7.1520     91.180  38.276461     36.145      8.560   252.1173    15.1565     1.8083     0.0249      0.006      0.059      0.086         61 1.9872e+02   996.2725 0.0000e+00
      0.061    27.9137     7.1333     90.939  38.319684     36.201      8.558   252.3445    15.1374     1.7939     0.0249      0.004      0.059      0.086         62 2.0065e+02   996.2738 0.0000e+00
      0.060    27.9060     7.1265     90.849  38.280447     36.154      8.554   252.4959    14.8627     1.6785     0.0249      0.001      0.058      0.085         63 2.0320e+02   996.2761 0.0000e+00
      0.059    27.9009     7.1103     90.640  38.266022     36.160      8.550   252.4202    14.8437     1.7506     0.0249     -0.001      0.057      0.084         64 2.0295e+02   996.2787 0.0000e+00
      0.057    27.8968     7.0870     90.340  38.278366     36.166      8.548   252.7988    14.8818     1.7218     0.0249     -0.002      0.057      0.082         65 2.0507e+02   996.2809 0.0000e+00
      0.058    27.8930     7.0558     89.939  38.265089     36.169      8.542   252.6095    14.8704     1.8804     0.0249     -0.001      0.056      0.082         66 2.0523e+02   996.2823 0.0000e+00
      0.056    27.8881     7.0244     89.536  38.223276     36.119      8.539   253.1774    14.8551     1.7073     0.0248     -0.002      0.055      0.080         67 2.0584e+02   996.2834 0.0000e+00
      0.053    27.8831     6.9910     89.109  38.182219     36.095      8.537   253.2531    14.8704     1.7650     0.0248     -0.003      0.052      0.075         68 2.1328e+02   996.2845 0.0000e+00
      0.050    27.8797     6.9591     88.699  38.108726     36.019      8.539   252.9124    14.8589     1.7218     0.0248     -0.005      0.049      0.071         69 2.1440e+02   996.2859 0.0000e+00
      0.048    27.8775     6.9245     88.257  38.107282     36.023      8.537   252.9881    14.8475     1.8515     0.0248     -0.006      0.047      0.068         70 2.1422e+02   996.2873 0.0000e+00
      0.047    27.8759     6.9047     88.002  38.154383     36.078      8.537   252.6852    14.8780     1.7650     0.0248     -0.007      0.046      0.066         71 2.1692e+02   996.2882 0.0000e+00
      0.047    27.8743     6.9078     88.030  38.168659     36.079      8.538   252.6095    14.8704     1.6352     0.0248     -0.007      0.046      0.066         72 2.2031e+02   996.2889 0.0000e+00
      0.047    27.8727     6.9282     88.285  38.178428     36.107      8.538   252.9124    14.8551     1.7218     0.0248     -0.007      0.046      0.066         73 2.1797e+02   996.2894 0.0000e+00
      0.046    27.8707     6.9439     88.492  38.112590     36.029      8.538   253.1774    14.8513     1.7506     0.0248     -0.006      0.045      0.065         74 2.1607e+02   996.2899 0.0000e+00
      0.045    27.8688     6.9321     88.350  38.043137     35.977      8.539   253.1395    14.8665     1.7362     0.0248     -0.005      0.044      0.063         75 2.1793e+02   996.2902 0.0000e+00
      0.043    27.8670     6.9032     87.987  38.057406     35.978      8.537   253.0638    15.3281     1.8227     0.0248     -0.004      0.043      0.063         76 2.1640e+02   996.2908 0.0000e+00
      0.045    27.8652     6.8479     87.279  38.094834     36.033      8.537   252.9881    15.3281     1.6641     0.0248     -0.002      0.044      0.065         77 2.1267e+02   996.2913 0.0000e+00
      0.048    27.8640     6.7889     86.520  38.115106     36.034      8.537   253.0638    15.3358     1.7073     0.0248     -0.001      0.047      0.068         78 2.1213e+02   996.2919 0.0000e+00
      0.050    27.8622     6.7292     85.752  38.121088     36.061      8.538   253.2152    15.3129     1.6497     0.0248      0.001      0.050      0.073         79 2.1193e+02   996.2925 0.0000e+00
      0.055    27.8613     6.6658     84.939  38.057754     35.983      8.537   253.2531    15.4998     2.0534     0.0248      0.003      0.054      0.079         80 2.0455e+02   996.2927 0.0000e+00
      0.060    27.8596     6.6134     84.272  38.045743     35.984      8.539   252.7231    15.4578     1.8804     0.0248      0.006      0.061      0.088         81 1.9851e+02   996.2932 0.0000e+00
      0.071    27.8527     6.5908     83.985  38.106400     36.038      8.535   252.9502    15.4807     1.9813     0.0248      0.011      0.073      0.105         82 1.9625e+02   996.2936 0.0000e+00
      0.092    27.8492     6.6015     84.121  38.160087     36.091      8.521   252.6473    15.4769     2.0102     0.0248      0.020      0.088      0.128         83 1.8675e+02   996.2941 0.0000e+00
      0.105    27.8537     6.6480     84.716  38.127113     36.070      8.505   252.3066    15.3968     1.9813     0.0248      0.029      0.100      0.145         84 1.7595e+02   996.2961 0.0000e+00
      0.108    27.8594     6.7132     85.539  37.939983     35.888      8.488   252.2309    15.3853     2.0534     0.0247      0.034      0.104      0.150         85 1.7310e+02   996.2971 0.0000e+00
      0.105    27.8622     6.7686     86.244  37.800241     35.752      8.478   233.5294    15.3853     2.0390     0.0247      0.035      0.102      0.148         86 1.8149e+02   996.2958 0.0000e+00
      0.100    27.8602     6.8157     86.846  37.797201     35.748      8.480   210.3987    15.4006     2.0246     0.0247      0.031      0.102      0.148         87 1.7994e+02   996.2941 0.0000e+00
      0.109    27.8556     6.8645     87.470  37.795583     35.746      8.488   208.2787    15.5532     1.8083     0.0247      0.027      0.109      0.158         88 1.7654e+02   996.2934 0.0000e+00
      0.126    27.8512     6.9055     87.985  37.802253     35.748      8.494   206.9158    15.6028     1.7506     0.0247      0.026      0.122      0.176         89 1.7783e+02   996.2941 0.0000e+00
      0.136    27.8480     6.9276     88.251  37.907445     35.857      8.502   205.4394    15.5685     1.7939     0.0247      0.023      0.133      0.192         90 1.6650e+02   996.2955 0.0000e+00
      0.145    27.8478     6.9227     88.188  37.931402     35.886      8.507   204.6822    15.5799     1.7650     0.0247      0.022      0.143      0.207         91 1.7068e+02   996.2967 0.0000e+00
      0.156    27.8486     6.8891     87.769  37.950258     35.888      8.512   203.3194    15.5303     1.7218     0.0247      0.026      0.155      0.225         92 1.6966e+02   996.2977 0.0000e+00
      0.173    27.8494     6.8637     87.439  38.032163     35.994      8.517   202.5622    15.5494     1.7939     0.0248      0.035      0.170      0.248         93 1.6092e+02   996.2979 0.0000e+00
      0.192    27.8497     6.9264     88.227  38.066567     35.993      8.516   201.9186    15.5227     1.7939     0.0248      0.045      0.190      0.275         94 1.5624e+02   996.2977 0.0000e+00
      0.216    27.8460     7.0378     89.645  38.055626     36.020      8.511   200.9343    15.5418     1.8371     0.0248      0.054      0.211      0.305         95 1.5387e+02   996.2975 0.0000e+00
      0.234    27.8442     7.1899     91.579  38.016141     35.940      8.503   200.4043    15.5227     1.7650     0.0248      0.060      0.231      0.335         96 1.5507e+02   996.2976 0.0000e+00
      0.256    27.8463     7.3599     93.739  38.086068     36.048      8.503   200.1772    15.7592     1.8948     0.0248      0.065      0.254      0.368         97 1.5193e+02   996.2987 0.0000e+00
      0.287    27.8469     7.5331     95.932  38.116787     36.049      8.501   200.2151    15.7477     1.9813     0.0248      0.074      0.281      0.407         98 1.5045e+02   996.2993 0.0000e+00
      0.315    27.8418     7.6822     97.817  38.155734     36.101      8.502   200.3286    15.7706     2.1111     0.0248      0.084      0.308      0.446         99 1.4716e+02   996.2989 0.0000e+00
      0.339    27.8328     7.7690     98.916  38.185783     36.127      8.497   200.4422    15.7783     2.0102     0.0248      0.091      0.328      0.477        100 1.4629e+02   996.2988 0.0000e+00
      0.350    27.8323     7.8028     99.340  38.049754     35.998      8.495   200.3665    16.1788     1.9525     0.0248      0.092      0.341      0.495        101 1.4263e+02   996.3002 0.0000e+00
      0.354    27.8375     7.7743     98.974  37.791565     35.767      8.495   200.2908    16.1597     2.0390     0.0247      0.086      0.347      0.504        102 1.4487e+02   996.3028 0.0000e+00
      0.356    27.8336     7.7098     98.149  37.825462     35.767      8.498   200.2151    16.1788     2.0246     0.0247      0.076      0.359      0.522        103 1.4642e+02   996.3030 0.0000e+00
      0.392    27.8268     7.6322     97.156  38.185392     36.159      8.502   201.2372    16.1674     2.0534     0.0248      0.072      0.389      0.565        104 1.3641e+02   996.3017 0.0000e+00
      0.442    27.8258     7.5396     95.976  38.232731     36.162      8.505   201.1615    16.5794     2.0390     0.0248      0.075      0.429      0.623        105 1.3229e+02   996.3030 0.0000e+00
      0.477    27.8244     7.4517     94.852  38.181460     36.141      8.511   200.9722    16.5717     1.9236     0.0248      0.082      0.464      0.674        106 1.2981e+02   996.3052 0.0000e+00
      0.502    27.8204     7.3890     94.051  38.160290     36.115      8.518   201.0101    16.5450     2.0102     0.0248      0.090      0.493      0.715        107 1.2739e+02   996.3056 0.0000e+00
      0.531    27.8132     7.3412     93.439  38.170169     36.116      8.522   201.4643    16.5794     2.0823     0.0248      0.101      0.519      0.753        108 1.2490e+02   996.3060 0.0000e+00
      0.556    27.8059     7.3077     93.008  38.139533     36.118      8.525   201.4643    15.8851     1.9813     0.0248      0.113      0.542      0.787        109 1.2221e+02   996.3073 0.0000e+00
      0.572    27.8014     7.3016     92.920  38.020601     35.965      8.526   201.3886    15.8660     2.0246     0.0248      0.118      0.561      0.814        110 1.2165e+02   996.3093 0.0000e+00
      0.589    27.7986     7.3085     92.994  38.051452     36.049      8.526   201.3129    15.8660     2.0823     0.0248      0.115      0.580      0.840        111 1.1890e+02   996.3115 0.0000e+00
      0.611    27.7965     7.3215     93.146  38.071504     36.026      8.529   201.6158    15.8698     1.9669     0.0248      0.102      0.601      0.872        112 1.1831e+02   996.3128 0.0000e+00
      0.640    27.7940     7.3180     93.079  38.084558     36.080      8.532   201.8051    15.8050     2.0102     0.0248      0.092      0.626      0.908        113 1.1547e+02   996.3138 0.0000e+00
      0.665    27.7918     7.3046     92.888  38.064846     36.029      8.527   202.2972    15.8355     1.9813     0.0248      0.089      0.649      0.941        114 1.1334e+02   996.3145 0.0000e+00
      0.679    27.7902     7.2662     92.384  37.977490     35.978      8.524   201.7293    15.8279     1.9236     0.0248      0.086      0.666      0.965        115 1.1410e+02   996.3152 0.0000e+00
      0.692    27.7879     7.2070     91.618  37.956178     35.926      8.525   201.8808    15.8088     1.9813     0.0247      0.082      0.681      0.988        116 1.1122e+02   996.3159 0.0000e+00
      0.713    27.7856     7.1513     90.892  38.002459     36.007      8.525   202.1836    15.8164     1.9092     0.0248      0.080      0.700      1.015        117 1.0977e+02   996.3165 0.0000e+00
      0.735    27.7836     7.0817     89.996  38.008805     35.982      8.528   202.0322    15.3205     1.7506     0.0248      0.080      0.720      1.044        118 1.0835e+02   996.3172 0.0000e+00
      0.752    27.7808     7.0241     89.253  37.977919     35.984      8.529   202.7136    15.3663     1.7650     0.0248      0.078      0.740      1.074        119 1.0537e+02   996.3179 0.0000e+00
      0.778    27.7742     6.9887     88.794  38.070536     36.038      8.529   202.8272    15.3434     1.7650     0.0248      0.077      0.765      1.110        120 1.0277e+02   996.3186 0.0000e+00
      0.812    27.7664     6.9850     88.738  38.189914     36.198      8.524   203.0543    15.3319     1.6352     0.0248      0.080      0.795      1.153        121 1.0029e+02   996.3197 0.0000e+00
      0.841    27.7577     6.9979     88.892  38.244271     36.203      8.523   202.9786    15.0306     2.0102     0.0248      0.086      0.826      1.199        122 9.7029e+01   996.3216 0.0000e+00
      0.877    27.7444     7.0254     89.227  38.328898     36.341      8.518   203.2815    15.0382     2.0102     0.0249      0.097      0.859      1.246        123 9.3591e+01   996.3239 0.0000e+00
      0.911    27.7315     7.0587     89.638  38.380970     36.346      8.515   204.0765    15.0573     1.9813     0.0249      0.107      0.890      1.290        124 9.1467e+01   996.3266 0.0000e+00
      0.934    27.7226     7.0902     90.029  38.327657     36.356      8.515   203.5465    15.0496     1.9813     0.0249      0.113      0.914      1.325        125 9.0133e+01   996.3304 0.0000e+00
      0.952    27.7136     7.1144     90.326  38.247066     36.232      8.516   203.4329    15.0382     1.9813     0.0248      0.114      0.934      1.355        126 8.8315e+01   996.3342 0.0000e+00
      0.973    27.7033     7.1172     90.351  38.244175     36.291      8.518   203.6601    15.0306     2.0246     0.0249      0.112      0.953      1.381        127 8.6616e+01   996.3368 0.0000e+00
      0.989    27.6951     7.1275     90.469  38.153440     36.165      8.516   203.1679    15.0496     1.9236     0.0248      0.105      0.969      1.405        128 8.6401e+01   996.3394 0.0000e+00
      1.001    27.6890     7.1302     90.487  38.093259     36.146      8.520   203.4329    15.0687     2.0246     0.0248      0.094      0.984      1.428        129 8.5175e+01   996.3422 0.0000e+00
      1.023    27.6829     7.1333     90.501  38.170892     36.204      8.523   203.7358    15.1565     1.9957     0.0248      0.085      1.004      1.456        130 8.3280e+01   996.3447 0.0000e+00
      1.047    27.6772     7.1271     90.402  38.205016     36.262      8.526   203.7358    15.1526     1.9381     0.0248      0.078      1.025      1.486        131 8.2440e+01   996.3465 0.0000e+00
      1.063    27.6710     7.1000     90.050  38.169342     36.213      8.524   203.8494    15.1412     1.9813     0.0248      0.073      1.042      1.512        132 8.2142e+01   996.3482 0.0000e+00
      1.078    27.6623     7.0582     89.507  38.215292     36.270      8.524   203.9251    15.1679     2.0102     0.0248      0.072      1.059      1.536        133 8.1172e+01   996.3500 0.0000e+00
      1.100    27.6547     6.9828     88.541  38.207110     36.274      8.523   204.3036    15.1145     2.1111     0.0248      0.072      1.078      1.563        134 7.9879e+01   996.3518 0.0000e+00
      1.118    27.6490     6.9013     87.502  38.120254     36.174      8.521   204.5308    15.1069     1.9525     0.0248      0.073      1.096      1.589        135 7.9113e+01   996.3544 0.0000e+00
      1.133    27.6431     6.8159     86.412  38.145566     36.232      8.519   205.1365    15.0992     1.9092     0.0248      0.073      1.112      1.612        136 7.8448e+01   996.3566 0.0000e+00
      1.150    27.6359     6.7329     85.352  38.175613     36.236      8.520   205.6286    15.1069     1.9669     0.0248      0.072      1.130      1.639        137 7.6889e+01   996.3582 0.0000e+00
      1.174    27.6280     6.6811     84.678  38.260686     36.346      8.517   206.5751    15.1069     1.9092     0.0249      0.071      1.153      1.672        138 7.4652e+01   996.3600 0.0000e+00
      1.202    27.6177     6.6761     84.580  38.276793     36.351      8.512   206.1586    14.9276     2.0102     0.0249      0.074      1.179      1.710        139 7.3337e+01   996.3621 0.0000e+00
      1.230    27.6019     6.7105     84.985  38.274120     36.357      8.507   206.7644    14.9505     1.9236     0.0249      0.080      1.207      1.750        140 7.1026e+01   996.3646 0.0000e+00
      1.259    27.5895     6.7601     85.585  38.264017     36.364      8.502   207.4836    14.9009     1.9669     0.0249      0.087      1.234      1.789        141 6.8732e+01   996.3676 0.0000e+00
      1.285    27.5838     6.8060     86.140  38.170823     36.268      8.499   208.1272    14.9009     2.0534     0.0248      0.092      1.255      1.821        142 6.8005e+01   996.3720 0.0000e+00
      1.295    27.5768     6.8326     86.454  38.093736     36.224      8.495   208.1651    15.1641     2.1688     0.0248      0.094      1.268      1.840        143 6.7498e+01   996.3755 0.0000e+00
      1.301    27.5701     6.8423     86.558  38.033953     36.148      8.494   208.1651    15.1794     2.2409     0.0248      0.091      1.277      1.852        144 6.7100e+01   996.3772 0.0000e+00
      1.310    27.5663     6.8393     86.502  38.037771     36.180      8.494   208.2029    15.1717     2.1544     0.0248      0.083      1.288      1.869        145 6.6157e+01   996.3791 0.0000e+00
      1.330    27.5621     6.8303     86.381  38.059352     36.184      8.492   208.6194    15.1565     2.1111     0.0248      0.074      1.306      1.894        146 6.4663e+01   996.3811 0.0000e+00
      1.354    27.5567     6.8066     86.070  38.096009     36.240      8.489   208.8465    15.8393     2.5004     0.0248      0.067      1.328      1.927        147 6.3444e+01   996.3823 0.0000e+00
      1.378    27.5443     6.7920     85.863  38.169975     36.296      8.484   209.1115    15.8279     2.4139     0.0248      0.064      1.354      1.964        148 6.2081e+01   996.3836 0.0000e+00
      1.410    27.5228     6.7982     85.907  38.204398     36.353      8.481   209.9065    15.8088     2.5437     0.0249      0.067      1.384      2.008        149 5.9899e+01   996.3853 0.0000e+00
      1.448    27.5018     6.8373     86.372  38.171720     36.308      8.473   210.3229    15.8546     2.2409     0.0248      0.078      1.417      2.055        150 5.8238e+01   996.3889 0.0000e+00
      1.475    27.4834     6.9125     87.288  38.151376     36.323      8.467   210.7772    17.0524     2.3130     0.0248      0.092      1.446      2.097        151 5.7218e+01   996.3950 0.0000e+00
      1.501    27.4657     7.0131     88.518  38.170455     36.337      8.464   211.1937    17.0448     2.4428     0.0248      0.104      1.473      2.136        152 5.5543e+01   996.4010 0.0000e+00
      1.531    27.4520     7.0976     89.543  38.147989     36.351      8.458   211.4587    17.0715     2.3851     0.0248      0.112      1.499      2.173        153 5.4212e+01   996.4063 0.0000e+00
      1.552    27.4398     7.1599     90.295  38.120070     36.309      8.452   211.7237    17.0600     2.4139     0.0248      0.113      1.522      2.207        154 5.3627e+01   996.4114 0.0000e+00
      1.573    27.4287     7.2119     90.922  38.175572     36.399      8.446   212.5944    18.4829     2.3851     0.0248      0.110      1.545      2.241        155 5.1600e+01   996.4153 0.0000e+00
      1.604    27.4232     7.2481     91.346  38.108562     36.327      8.441   213.0865    18.5096     2.4139     0.0248      0.108      1.569      2.276        156 5.0476e+01   996.4188 0.0000e+00
      1.622    27.4162     7.2824     91.748  37.996012     36.229      8.439   213.5787    18.5020     2.4428     0.0248      0.102      1.590      2.306        157 5.0017e+01   996.4219 0.0000e+00
      1.640    27.4005     7.3121     92.087  38.048915     36.285      8.433   213.9951    18.4944     2.4139     0.0248      0.095      1.610      2.336        158 4.8689e+01   996.4235 0.0000e+00
      1.665    27.3796     7.3613     92.674  38.102004     36.344      8.427   216.1908    18.5287     2.2986     0.0248      0.092      1.635      2.372        159 4.7224e+01   996.4256 0.0000e+00
      1.699    27.3598     7.4122     93.273  38.078132     36.328      8.415   216.5694    18.8148     2.3707     0.0248      0.093      1.667      2.418        160 4.5144e+01   996.4302 0.0000e+00
      1.737    27.3386     7.4614     93.858  38.048993     36.316      8.401   217.4022    18.8148     2.4139     0.0248      0.097      1.704      2.471        161 4.3439e+01   996.4362 0.0000e+00
      1.777    27.3127     7.4908     94.198  37.990094     36.276      8.387   217.8187    18.8148     2.4572     0.0248      0.106      1.741      2.526        162 4.1430e+01   996.4418 0.0000e+00
      1.815    27.2868     7.4943     94.200  37.884714     36.184      8.372   217.6294    18.8224     2.3851     0.0247      0.116      1.774      2.574        163 4.0369e+01   996.4478 0.0000e+00
      1.834    27.2660     7.4858     94.066  37.794876     36.122      8.360   219.9008    21.3173     2.5149     0.0247      0.121      1.798      2.609        164 3.9666e+01   996.4551 0.0000e+00
      1.854    27.2479     7.4572     93.669  37.805547     36.140      8.358   220.9608    21.3173     2.4860     0.0247      0.124      1.819      2.639        165 3.8340e+01   996.4623 0.0000e+00
      1.878    27.2287     7.4224     93.209  37.841810     36.208      8.348   220.9608    21.2944     2.5725     0.0247      0.122      1.840      2.669        166 3.7412e+01   996.4683 0.0000e+00
      1.898    27.2089     7.3855     92.716  37.809031     36.167      8.347   223.2323    21.3173     2.5725     0.0247      0.115      1.860      2.698        167 3.6775e+01   996.4733 0.0000e+00
      1.915    27.1887     7.3619     92.377  37.787079     36.180      8.341   224.3301    22.4121     3.0340     0.0247      0.104      1.880      2.727        168 3.5847e+01   996.4788 0.0000e+00
      1.940    27.1685     7.3617     92.258  37.750595     36.140      8.336   225.5794    22.3740     2.9907     0.0247      0.094      1.903      2.761        169 3.4486e+01   996.4844 0.0000e+00
      1.968    27.1435     7.3793     92.322  37.676629     36.101      8.329   225.4658    22.3816     2.9619     0.0247      0.088      1.929      2.797        170 3.3677e+01   996.4901 0.0000e+00
      1.992    27.1237     7.4951     92.786  37.642051     36.061      8.323   225.6551    22.3740     2.9474     0.0246      0.086      1.955      2.835        171 3.2672e+01   996.4957 0.0000e+00
      2.021    27.1044     7.7622     94.186  37.675094     36.132      8.323   226.0716    22.8737     3.5531     0.0247      0.090      1.981      2.873        172 3.1746e+01   996.5028 0.0000e+00
      2.045    27.0821     8.2081     98.095  37.635519     36.093      8.315   226.1094    22.9042     3.4666     0.0246      0.094      2.007      2.910        173 3.0859e+01   996.5083 0.0000e+00
      2.073    27.0628     8.9078    105.475  37.572769     36.051      8.311   226.6394    22.8775     3.5387     0.0246      0.097      2.033      2.948        174 2.9944e+01   996.5138 0.0000e+00
      2.098    27.0438     9.8046    115.697  37.516108     36.015      8.307   226.9801    22.8699     3.5098     0.0246      0.101      2.059      2.986        175 2.8960e+01   996.5200 0.0000e+00
      2.128    27.0258    10.7940    127.282  37.528227     36.026      8.300   227.4723    24.0525     3.0051     0.0246      0.104      2.086      3.025        176 2.8021e+01   996.5256 0.0000e+00
      2.151    27.0137    11.6439    137.276  37.498426     36.042      8.297   227.6237    24.0601     3.1205     0.0246      0.104      2.111      3.062        177 2.7285e+01   996.5309 0.0000e+00
      2.180    26.9807    12.3989    145.700  37.405026     35.917      8.294   228.5323    24.0982     3.0340     0.0245      0.104      2.138      3.100        178 2.6228e+01   996.5359 0.0000e+00
      2.208    26.9186    12.9402    151.314  37.348114     35.929      8.288   228.9866    24.0334     2.9186     0.0245      0.105      2.167      3.142        179 2.5222e+01   996.5393 0.0000e+00
      2.241    26.8129    13.2367    154.277  37.421083     35.947      8.281   230.1223    24.0296     2.9763     0.0245      0.107      2.197      3.186        180 2.4397e+01   996.5487 0.0000e+00
      2.269    26.2157    13.3449    155.048  37.314235     35.996      8.277   230.5387    22.4159     2.5870     0.0246      0.109      2.226      3.228        181 2.3500e+01   996.5657 0.0000e+00
      2.299    25.1551    13.2900    153.748  36.147557     34.849      8.271   231.4851    22.4121     2.5149     0.0241      0.111      2.254      3.269        182 2.2464e+01   996.5946 0.0000e+00
      2.328    24.3104    13.1363    151.235  35.168817     34.294      8.270   231.5987    22.3740     2.6014     0.0237      0.113      2.281      3.309        183 2.1783e+01   996.7557 0.0000e+00
      2.350    23.8316    12.9501    148.243  35.183935     35.100      8.273   232.2423    22.3664     2.6302     0.0237      0.112      2.303      3.341        184 2.1183e+01   997.0347 0.0000e+00
      2.369    23.6327    12.7442    145.305  35.210553     35.685      8.269   231.8637    16.3505     2.2409     0.0238      0.110      2.322      3.367        185 2.0764e+01   997.2495 0.0000e+00
      2.382    23.6043    12.5171    142.214  35.254615     36.105      8.272   233.0752    16.3352     2.1976     0.0238      0.102      2.337      3.389        186 2.0385e+01   997.3679 0.0000e+00
      2.398    23.5812    12.2389    138.525  35.307139     36.298      8.270   234.0216    16.3429     2.1976     0.0238      0.094      2.354      3.413        187 1.9734e+01   997.4168 0.0000e+00
      2.421    23.4140    11.9307    134.469  35.263828     36.269      8.266   234.8544    16.3657     2.1544     0.0238      0.086      2.374      3.443        188 1.9164e+01   997.4237 0.0000e+00
      2.444    23.1562    11.5691    129.873  35.308548     36.335      8.263   235.5737    13.2071     1.9525     0.0238      0.081      2.396      3.474        189 1.8711e+01   997.4295 0.0000e+00
      2.462    22.9822    11.1695    125.113  35.310779     36.465      8.262   236.6337    13.2071     2.0246     0.0238      0.076      2.416      3.504        190 1.8257e+01   997.4700 0.0000e+00
      2.484    22.8123    10.7435    120.257  35.261126     36.604      8.261   236.6337    13.2033     1.9669     0.0238      0.075      2.437      3.535        191 1.7800e+01   997.5319 0.0000e+00
      2.510    22.5929    10.3509    115.539  35.311182     36.794      8.261   237.3909    13.2186     2.0390     0.0238      0.078      2.461      3.570        192 1.7276e+01   997.5734 0.0000e+00
      2.537    22.3313     9.9579    110.637  35.307847     36.922      8.257   237.8073     9.2474     1.9236     0.0238      0.083      2.488      3.609        193 1.6733e+01   997.6136 0.0000e+00
      2.567    22.0451     9.6326    106.496  35.443163     37.214      8.252   238.4887     9.2436     1.9381     0.0239      0.090      2.515      3.647        194 1.6263e+01   997.6652 0.0000e+00
      2.588    21.8296     9.3029    102.600  35.646655     37.679      8.247   238.9052     9.2512     1.9236     0.0240      0.093      2.538      3.680        195 1.5924e+01   997.7259 0.0000e+00
      2.609    21.6515     8.9228     98.309  35.588131     37.798      8.246   239.4730     9.2283     1.9957     0.0240      0.094      2.561      3.713        196 1.5524e+01   997.7915 0.0000e+00
      2.637    21.4521     8.4941     93.329  35.605025     38.025      8.240   240.7602     7.3972     1.9813     0.0240      0.097      2.587      3.752        197 1.5014e+01   997.8405 0.0000e+00
      2.669    21.2381     8.0548     88.078  35.685008     38.234      8.237   241.3659     7.4049     1.9381     0.0241      0.100      2.617      3.794        198 1.4521e+01   997.8806 0.0000e+00
      2.698    21.0321     7.5972     82.644  35.696123     38.425      8.234   240.9116     7.3972     1.8948     0.0241      0.103      2.643      3.833        199 1.4209e+01   997.9252 0.0000e+00
      2.717    20.9245     7.1905     77.974  35.739459     38.635      8.227   240.7223     7.3972     1.8660     0.0241      0.102      2.664      3.864        200 1.3970e+01   997.9724 0.0000e+00
      2.735    20.8792     6.7953     73.432  35.720082     38.808      8.227   241.4037     7.2714     2.0534     0.0241      0.100      2.682      3.890        201 1.3691e+01   998.0174 0.0000e+00
      2.752    20.7429     6.3583     68.334  35.690695     38.841      8.220   241.4795     7.2904     1.9669     0.0241      0.095      2.701      3.917        202 1.3477e+01   998.0409 0.0000e+00
      2.774    20.5032     5.9005     63.093  35.894625     39.115      8.217   242.0852     7.2714     1.9813     0.0242      0.093      2.721      3.947        203 1.3063e+01   998.0508 0.0000e+00
      2.800    20.2601     5.3826     57.294  36.207186     39.572      8.213   242.2366     7.2866     2.0823     0.0243      0.090      2.744      3.981        204 1.2786e+01   998.0803 0.0000e+00
      2.822    20.1340     4.8747     51.759  36.338983     39.932      8.207   242.9938     7.2561     1.9236     0.0244      0.086      2.767      4.013        205 1.2569e+01   998.1315 0.0000e+00
      2.842    20.0795     4.3055     45.713  36.323403     40.121      8.205   245.2273     8.7629     1.8371     0.0244      0.083      2.788      4.043        206 1.2224e+01   998.1828 0.0000e+00
      2.864    19.9432     3.7017     39.188  36.315589     40.231      8.200   245.0002     8.7324     1.5920     0.0244      0.083      2.809      4.074        207 1.1980e+01   998.2092 0.0000e+00
      2.887    19.7005     3.0930     32.578  36.319141     40.276      8.197   246.5145     8.7172     1.6785     0.0244      0.085      2.833      4.109        208 1.1732e+01   998.2206 0.0000e+00
      2.915    19.4469     2.5934     27.180  36.378297     40.462      8.191   246.6659     8.7515     1.7073     0.0245      0.088      2.862      4.150        209 1.1357e+01   998.2489 0.0000e+00
      2.952    19.2851     2.2021     22.972  36.627297     40.962      8.187   246.7416     6.9853     1.4334     0.0246      0.094      2.894      4.198        210 1.0980e+01   998.2988 0.0000e+00
      2.985    19.1096     1.9434     20.200  36.631712     41.232      8.180   247.3095     6.9853     1.4334     0.0246      0.100      2.927      4.245        211 1.0725e+01   998.3502 0.0000e+00
      3.016    18.8436     1.7367     18.018  36.669269     41.347      8.172   248.5588     6.9776     1.4334     0.0246      0.106      2.957      4.290        212 1.0461e+01   998.3828 0.0000e+00
      3.047    18.5908     1.5592     16.170  37.173367     42.174      8.167   250.3381     6.9547     1.5487     0.0249      0.113      2.989      4.336        213 1.0217e+01   998.4178 0.0000e+00
      3.083    18.3683     1.4120     14.620  37.545535     42.785      8.162   250.4895     5.3335     1.2748     0.0251      0.120      3.023      4.385        214 9.9229e+00   998.4701 0.0000e+00
      3.118    18.2515     1.2695     13.074  37.717681     43.288      8.154   251.2088     5.3258     1.2459     0.0252      0.126      3.057      4.435        215 9.6867e+00   998.5192 0.0000e+00
      3.152    18.2370     1.2131     12.425  37.640904     43.381      8.148   251.3223     5.2953     1.2748     0.0252      0.130      3.092      4.486        216 9.4688e+00   998.5616 0.0000e+00
      3.191    18.1021     1.2349     12.593  37.374459     43.214      8.138   253.4424     5.3182     1.3036     0.0251      0.133      3.129      4.539        217 9.1848e+00   998.5837 0.0000e+00
      3.230    17.8539     1.3835     14.075  37.041687     42.828      8.135   253.4802     4.7117     1.2892     0.0249      0.135      3.165      4.591        218 9.0079e+00   998.5865 0.0000e+00
      3.262    17.6113     1.6103     16.313  36.869618     42.742      8.127   254.6916     4.7078     1.2459     0.0249      0.138      3.199      4.641        219 8.8275e+00   998.6118 0.0000e+00
      3.298    17.3871     1.8181     18.319  37.381214     43.609      8.121   255.5245     4.7193     1.3036     0.0251      0.140      3.233      4.689        220 8.6523e+00   998.6580 0.0000e+00
      3.330    17.2150     1.9206     19.277  37.649853     44.218      8.114   255.5245     4.7269     1.2459     0.0253      0.140      3.265      4.736        221 8.4773e+00   998.7024 0.0000e+00
      3.361    17.1218     1.8707     18.743  37.068879     43.694      8.111   256.1302     4.2577     1.5343     0.0250      0.138      3.293      4.777        222 8.2967e+00   998.7426 0.0000e+00
      3.384    17.1059     1.6737     16.746  36.563256     43.312      8.107   256.2059     4.2615     1.5055     0.0248      0.133      3.316      4.811        223 8.2949e+00   998.7730 0.0000e+00
      3.400    17.0211     1.3246     13.206  36.441748     43.240      8.100   257.2281     4.2882     1.5487     0.0247      0.124      3.341      4.847        224 8.1320e+00   998.7894 0.0000e+00
      3.441    16.7776     0.8869      8.795  35.501309     42.230      8.094   257.4174     4.2692     1.5487     0.0243      0.119      3.375      4.895        225 7.8634e+00   998.7921 0.0000e+00
      3.480    16.5052     0.4748      4.693  34.088686     40.445      8.086   258.4017     4.2615     1.5199     0.0235      0.118      3.416      4.955        226 7.6586e+00   998.8065 0.0000e+00
      3.530    16.3097     0.1195      1.176  34.614149     41.429      8.080   259.9538     3.7694     2.2120     0.0238      0.123      3.463      5.023        227 7.3643e+00   998.8489 0.0000e+00
      3.586    16.1829    -0.1266     -1.239  36.180982     43.609      8.075   260.1052     3.7809     2.0967     0.0247      0.134      3.509      5.089        228 7.2307e+00   998.8962 0.0000e+00
      3.615    15.9879    -0.2743     -2.677  37.295220     45.112      8.073   260.8245     3.8037     2.2697     0.0253      0.143      3.546      5.143        229 7.0799e+00   998.9295 0.0000e+00
      3.649    15.7332    -0.3101     -3.018  43.482543     52.458      8.073   260.9759     3.7542     2.2841     0.0284      0.151      3.581      5.194        230 6.8016e+00   998.9532 0.0000e+00
      3.694    15.5565    -0.2868     -2.776  50.744106     62.500      8.070   261.2409     2.9607     2.6014     0.0327      0.160      3.617      5.245        231 6.5797e+00   998.9882 0.0000e+00
      3.719    15.4693    -0.2115     -2.042  50.524096     61.653      8.067   261.5438     2.9759     2.6014     0.0322      0.161      3.645      5.286        232 6.5273e+00   999.0294 0.0000e+00
      3.736    15.4051    -0.1444     -1.393  49.686289     61.411      8.057   262.4145     2.9645     2.5725     0.0321      0.149      3.672      5.325        233 6.3224e+00   999.0572 0.0000e+00
      3.781    15.2328    -0.0678     -0.654  49.147523     60.742      8.049   262.7174     2.9836     2.6735     0.0317      0.141      3.707      5.376        234 5.9290e+00   999.0708 0.0000e+00
      3.823    15.0016    -0.0062     -0.060  47.161775     58.248      8.037   263.1717     2.8272     2.8609     0.0306      0.135      3.744      5.430        235 5.7787e+00   999.0802 0.0000e+00
      3.847    14.8409     0.0500      0.480  45.011474     56.127      8.029   263.5881     2.7928     2.7167     0.0296      0.129      3.778      5.479        236 5.6237e+00   999.1061 0.0000e+00
      3.888    14.6349     0.0917      0.875  44.915099     55.704      8.014   262.5659     2.7814     2.8609     0.0294      0.131      3.820      5.540        237 5.0703e+00   999.1415 0.0000e+00
      3.954    14.3911     0.1231      1.173  54.725855     68.636      8.002   260.3324     2.8081     2.7600     0.0350      0.140      3.871      5.614        238 4.4850e+00   999.1702 0.0000e+00
      3.996    14.2598     0.1483      1.413  61.630388     78.459      7.991   251.4738     2.9988     5.2690     0.0393      0.149      3.913      5.675        239 4.3554e+00   999.2039 0.0000e+00
      4.019    14.1183     0.1657      1.578  58.509108     73.583      7.979   235.4223     2.9759     5.3844     0.0370      0.157      3.943      5.719        240 4.1451e+00   999.2382 0.0000e+00
      4.051    13.8929     0.1824      1.737  57.422964     73.622      7.969   226.0337     2.9836     5.1681     0.0370      0.159      3.970      5.758        241 3.8479e+00   999.2567 0.0000e+00
      4.075    13.7594     0.1804      1.716  57.196681     72.722      7.954   221.5287     2.9683     5.2690     0.0366      0.151      3.991      5.787        242 3.8268e+00   999.2768 0.0000e+00
      4.079    13.7282     0.1857      1.760  56.506540     72.924      7.940   215.6608     2.3046     5.0672     0.0366      0.137      4.001      5.803        243 3.7977e+00   999.3079 0.0000e+00
      4.088    13.7108     0.1926      1.819  55.730764     71.712      7.926   211.5344     2.3046     5.1825     0.0360      0.120      4.012      5.819        244 3.7113e+00   999.3260 0.0000e+00
      4.107    13.6630     0.1995      1.880  55.462754     71.637      7.913   208.0515     2.2626     5.0095     0.0359      0.098      4.034      5.852        245 3.4601e+00   999.3302 0.0000e+00
      4.149    13.4912     0.2018      1.897  56.721461     73.245      7.897   205.5908     2.3046     5.1248     0.0366      0.083      4.069      5.902        246 3.1588e+00   999.3334 0.0000e+00
      4.193    13.2709     0.2114      1.978  51.287410     66.801      7.883   203.1679     2.3084     5.0527     0.0338      0.085      4.104      5.952        247 3.0116e+00   999.3376 0.0000e+00
      4.212    13.1884     0.2457      2.288  46.980955     59.973      7.874   202.4865     2.1291     5.2690     0.0307      0.090      4.124      5.982        248 3.0094e+00   999.3587 0.0000e+00
      4.212    13.1673     0.2842      2.641  50.395787     66.878      7.861   197.9815     2.1291     5.3267     0.0336      0.088      4.132      5.994        249 2.9790e+00   999.3893 0.0000e+00
      4.221    13.1391     0.3867      3.588  49.350580     63.929      7.846   190.5236     2.0871     5.2402     0.0323      0.086      4.140      6.004        250 2.8931e+00   999.3997 0.0000e+00
      4.233    13.1377     0.6001      5.553  47.184288     62.214      7.833   185.6400     2.1329     5.3555     0.0315      0.084      4.150      6.019        251 2.8433e+00   999.4015 0.0000e+00
      4.240    13.0896     0.9224      8.510  47.368520     61.784      7.823   181.8543     2.1787     3.8703     0.0313      0.075      4.163      6.037        252 2.7768e+00   999.4052 0.0000e+00
      4.263    12.9407     1.3380     12.323  45.474181     59.988      7.814   178.8636     2.1825     4.0289     0.0305      0.065      4.184      6.068        253 2.5892e+00   999.4046 0.0000e+00
      4.297    12.7708     1.8476     16.997  39.936208     52.253      7.801   177.8793     2.1672     3.8992     0.0271      0.058      4.210      6.107        254 2.4633e+00   999.4085 0.0000e+00
      4.316    12.6821     2.3855     21.928  36.918656     48.409      7.794   176.8193     2.1748     4.0001     0.0254      0.057      4.235      6.142        255 2.4285e+00   999.4262 0.0000e+00
      4.340    12.5765     2.9312     26.953  37.906243     50.520      7.787   175.2671     1.8315     4.9230     0.0263      0.066      4.268      6.191        256 2.1991e+00   999.4480 0.0000e+00
      4.406    12.3666     3.4561     31.800  35.121174     46.445      7.784   174.0178     1.8124     4.8076     0.0245      0.089      4.318      6.263        257 1.9764e+00   999.4580 0.0000e+00
      4.462    12.1588     3.9141     36.023  32.176071     42.784      7.783   171.6707     1.8353     4.8941     0.0228      0.114      4.366      6.332        258 1.8527e+00   999.4699 0.0000e+00
      4.485    12.0619     4.2812     39.352  31.999995     42.803      7.787   170.8757     1.8315     4.9230     0.0227      0.131      4.396      6.376        259 1.7856e+00   999.4952 0.0000e+00
      4.501    11.9978     4.5481     41.748  32.169829     43.309      7.794   168.1500     1.5187    10.0997     0.0229      0.139      4.420      6.411        260 1.7040e+00   999.5198 0.0000e+00
      4.539    11.8704     4.7224     43.320  31.757393     42.855      7.796   167.3550     1.5187    10.0997     0.0226      0.142      4.453      6.458        261 1.5953e+00   999.5310 0.0000e+00
      4.581    11.7420     4.7953     43.968  31.120766     42.019      7.805   167.2414     1.5111    10.0276     0.0223      0.144      4.489      6.511        262 1.5498e+00   999.5383 0.0000e+00
      4.613    11.6669     4.8179     44.191  30.917777     41.942      7.813   167.3550     1.5187     9.9987     0.0222      0.145      4.521      6.557        263 1.4896e+00   999.5528 0.0000e+00
      4.636    11.6171     4.8157     44.170  30.943446     42.087      7.819   166.9764     1.3356    13.9065     0.0222      0.137      4.547      6.595        264 1.4033e+00   999.5673 0.0000e+00
      4.664    11.5865     4.8110     44.076  30.911104     42.175      7.823   166.1057     1.3509    13.9209     0.0222      0.123      4.570      6.628        265 1.3792e+00   999.5758 0.0000e+00
      4.680    11.5959     4.8188     44.090  30.928433     42.191      7.826   166.1814     1.3470    13.8776     0.0222      0.115      4.587      6.652        266 1.3720e+00   999.5812 0.0000e+00
      4.688    11.6270     4.8395     44.236  31.010785     42.422      7.829   165.9921     1.3203    13.8632     0.0222      0.108      4.597      6.667        267 1.3510e+00   999.5847 0.0000e+00
      4.695    11.6344     4.8564     44.357  31.075279     42.407      7.827   166.6735     1.3203    14.6851     0.0222      0.096      4.609      6.684        268 1.3224e+00   999.5838 0.0000e+00
      4.718    11.5813     4.8939     44.673  31.055564     42.449      7.832   166.4464     1.0686    14.8870     0.0223      0.082      4.628      6.712        269 1.2458e+00   999.5804 0.0000e+00
      4.745    11.5225     4.9511     45.178  30.857546     42.055      7.831   166.9007     1.0762    14.8438     0.0221      0.073      4.651      6.746        270 1.2199e+00   999.5796 0.0000e+00
      4.763    11.4926     5.0089     45.696  30.788412     42.120      7.833   168.2635     1.0686    14.8438     0.0221      0.069      4.675      6.780        271 1.2060e+00   999.5855 0.0000e+00
      4.794    11.4745     5.0877     46.406  30.756459     42.074      7.838   168.9450     1.0724    14.7428     0.0221      0.071      4.700      6.816        272 1.1577e+00   999.5921 0.0000e+00
      4.819    11.4878     5.1744     47.190  30.719569     42.106      7.839   169.1721     0.7100    12.3491     0.0221      0.076      4.721      6.848        273 1.1333e+00   999.5953 0.0000e+00
      4.828    11.4867     5.2311     47.706  30.834335     42.245      7.840   170.0050     0.7367    12.3347     0.0221      0.080      4.740      6.875        274 1.0875e+00   999.5974 0.0000e+00
      4.856    11.4381     5.2903     48.249  30.791404     42.226      7.837   171.1785     0.7481    12.3203     0.0221      0.087      4.768      6.914        275 1.0095e+00   999.5961 0.0000e+00
      4.901    11.3812     5.3385     48.692  30.535978     41.807      7.840   172.2007     0.7024    12.2915     0.0219      0.095      4.804      6.967        276 9.4148e-01   999.5963 0.0000e+00
      4.934    11.3382     5.3595     48.890  30.441159     41.787      7.839   173.6014     0.6985    10.7053     0.0219      0.101      4.842      7.022        277 8.8259e-01   999.6017 0.0000e+00
      4.978    11.3052     5.3641     48.930  30.465014     41.853      7.839   174.4343     0.6757    10.7918     0.0219      0.111      4.882      7.081        278 7.8477e-01   999.6080 0.0000e+00
      5.023    11.2796     5.3757     49.028  30.447060     41.902      7.838   175.4186     0.7176    10.7197     0.0219      0.124      4.920      7.136        279 7.3479e-01   999.6127 0.0000e+00
      5.048    11.2636     5.3625     48.900  30.404268     41.863      7.836   176.9707     0.6757    10.7485     0.0219      0.131      4.949      7.177        280 7.0672e-01   999.6163 0.0000e+00
      5.068    11.2543     5.3408     48.699  30.340521     41.816      7.839   178.2200     0.7214    10.0276     0.0219      0.135      4.972      7.211        281 6.4379e-01   999.6191 0.0000e+00
      5.095    11.2459     5.3237     48.542  30.348641     41.834      7.839   179.2800     0.7291    10.0276     0.0219      0.137      4.994      7.243        282 6.1103e-01   999.6208 0.0000e+00
      5.113    11.2399     5.2933     48.266  30.394169     41.922      7.835   180.8700     0.7367    10.0708     0.0219      0.127      5.011      7.267        283 6.0508e-01   999.6219 0.0000e+00
      5.120    11.2389     5.2781     48.131  30.402374     41.932      7.836   182.7629     0.7100     9.9987     0.0219      0.111      5.022      7.284        284 6.0382e-01   999.6229 0.0000e+00
      5.133    11.2409     5.2603     47.974  30.397688     41.939      7.831   184.2014     0.8397     9.8113     0.0219      0.094      5.034      7.301        285 5.6700e-01   999.6235 0.0000e+00
      5.147    11.2453     5.2477     47.859  30.400004     41.940      7.832   185.4129     0.8435     9.7824     0.0219      0.078      5.046      7.318        286 5.4155e-01   999.6237 0.0000e+00
      5.153    11.2498     5.2294     47.692  30.399494     41.937      7.828   187.0786     0.8549     9.8545     0.0219      0.063      5.055      7.331        287 5.4202e-01   999.6235 0.0000e+00
      5.160    11.2486     5.2223     47.627  30.339070     41.856      7.828   188.1764     0.8664     9.8689     0.0219      0.054      5.067      7.348        288 5.1343e-01   999.6230 0.0000e+00
      5.186    11.2414     5.2221     47.625  30.356691     41.850      7.825   189.5772     0.8397     9.7536     0.0219      0.051      5.087      7.379        289 4.6379e-01   999.6227 0.0000e+00
      5.217    11.2349     5.2191     47.599  30.377561     41.928      7.827   189.8043     0.7291     9.1624     0.0219      0.053      5.112      7.414        290 4.4392e-01   999.6230 0.0000e+00
      5.235    11.2320     5.2258     47.665  30.313099     41.783      7.824   190.9400     0.7062     9.1047     0.0218      0.059      5.130      7.441        291 4.4018e-01   999.6238 0.0000e+00
      5.243    11.2311     5.2165     47.600  30.318410     41.868      7.822   191.6215     0.7176     9.1047     0.0219      0.063      5.141      7.457        292 4.1646e-01   999.6245 0.0000e+00
      5.252    11.2318     5.2208     47.674  30.282072     41.755      7.821   192.4165     0.7176     9.1912     0.0218      0.064      5.148      7.468        293 3.9727e-01   999.6248 0.0000e+00
      5.256    11.2350     5.2162     47.694  30.328695     41.872      7.818   193.3250     0.7596     8.9461     0.0219      0.062      5.153      7.475        294 4.0789e-01   999.6250 0.0000e+00
      5.258    11.2396     5.2121     47.712  30.349270     41.871      7.813   194.5743     0.7977     8.9605     0.0219      0.056      5.158      7.481        295 4.0049e-01   999.6249 0.0000e+00
      5.266    11.2401     5.2045     47.682  30.256466     41.752      7.813   195.4072     0.7901     9.0759     0.0218      0.048      5.163      7.489        296 3.7068e-01   999.6246 0.0000e+00
      5.272    11.2401     5.1895     47.605  30.266426     41.746      7.810   195.4829     0.7939     8.9172     0.0218      0.036      5.168      7.496        297 3.7936e-01   999.6242 0.0000e+00
      5.272    11.2403     5.1919     47.655  30.336875     41.862      7.805   196.3536     0.7748     8.9749     0.0219      0.025      5.170      7.498        298 3.9086e-01   999.6241 0.0000e+00
      5.272    11.2399     5.1751     47.513  30.346553     41.862      7.804   197.3758     0.7901     8.8451     0.0219      0.019      5.170      7.499        299 3.9204e-01   999.6242 0.0000e+00
      5.273    11.2404     5.1644     47.473  30.343261     41.861      7.801   198.6629     0.7748     9.0038     0.0219      0.015      5.171      7.500        300 3.8805e-01   999.6241 0.0000e+00
      5.273    11.2458     5.1413     47.307  30.340971     41.862      7.798   198.8901     0.7710     8.9317     0.0219      0.011      5.171      7.500        301 3.8249e-01   999.6242 0.0000e+00
      5.273    11.2631     5.1175     47.085  30.349402     41.861      7.798   199.3822     0.9694     8.9461     0.0219      0.008      5.171      7.500        302 3.9405e-01   999.6241 0.0000e+00
      5.274    11.2962     5.0885     46.848  30.392022     41.933      7.795   199.4201     0.9618     8.8596     0.0219      0.006      5.172      7.501        303 3.9402e-01   999.6237 0.0000e+00
      5.274    11.3518     5.0469     46.474  30.406437     41.911      7.792   200.6315     0.9656     8.8019     0.0219      0.003      5.172      7.501        304 3.7773e-01   999.6218 0.0000e+00
      5.274    11.4011     4.9936     45.975  30.449963     41.952      7.789   201.4265     0.9618     8.9172     0.0219      0.001      5.172      7.501        305 3.6437e-01   999.6182 0.0000e+00
      5.274    11.4401     4.9074     45.395  30.515601     41.963      7.788   201.7672     1.1754     9.2056     0.0219      0.001      5.172      7.501        306 3.6029e-01   999.6125 0.0000e+00
      5.274    11.4920     4.8401     45.029  30.561747     41.982      7.784   202.1836     1.1639     9.1047     0.0220      0.001      5.172      7.501        307 3.8240e-01   999.6073 0.0000e+00
      5.274    11.5184     4.7786     44.608  30.629533     42.016      7.781   203.0543     1.1601     9.1047     0.0220      0.001      5.172      7.502        308 3.8215e-01   999.6031 0.0000e+00
      5.275    11.5318     4.7160     44.081  30.608987     41.954      7.779   203.4329     1.1868     9.1479     0.0220      0.001      5.172      7.502        309 3.6563e-01   999.5975 0.0000e+00
      5.273    11.5843     4.5900     42.900  30.765059     42.077      7.774   204.3036     1.1716     9.2056     0.0221      0.000      5.171      7.500        310 3.9549e-01   999.5947 0.0000e+00
      5.271    11.6256     4.4107     41.184  30.998212     42.484      7.772   205.3636     1.1449     9.1191     0.0223     -0.001      5.171      7.499        311 3.8716e-01   999.5934 0.0000e+00
      5.272    11.6246     4.2026     39.189  31.029884     42.345      7.771   205.5151     1.1601     9.1047     0.0222     -0.001      5.171      7.499        312 3.6143e-01   999.5877 0.0000e+00
      5.273    11.6537     3.9693     36.961  31.051531     42.448      7.770   205.8558     1.1334     9.1335     0.0223     -0.001      5.171      7.500        313 3.8491e-01   999.5831 0.0000e+00
      5.274    11.6549     3.7530     34.897  31.356420     42.719      7.763   206.1965     1.1525     9.1047     0.0224     -0.001      5.170      7.498        314 3.7665e-01   999.5835 0.0000e+00
      5.269    11.6612     3.5778     33.171  31.183751     42.685      7.764   207.1429     1.0037     9.1047     0.0224     -0.002      5.158      7.482        315 3.9497e-01   999.5802 0.0000e+00
      5.236    11.8552     3.4613     31.971  31.562689     42.791      7.760   209.0358     1.0381     9.1624     0.0224     -0.011      5.128      7.438        316 4.8052e-01   999.5800 0.0000e+00
      5.181    12.1089     3.4280     31.595  33.907108     46.457      7.758   210.0958     0.9961     9.1479     0.0240     -0.032      5.087      7.379        317 5.2026e-01   999.5801 0.0000e+00
      5.149    12.2570     3.4833     32.067  34.992283     47.409      7.759   210.6637     1.0113     9.2200     0.0245     -0.055      5.057      7.335        318 5.1353e-01   999.5589 0.0000e+00
      5.142    12.3165     3.6052     33.170  34.597536     46.636      7.752   211.5344     0.9007     9.3787     0.0243     -0.072      5.045      7.317        319 5.1873e-01   999.5297 0.0000e+00
      5.140    12.3122     3.7788     34.746  34.368619     46.112      7.745   212.4429     0.9007     9.3787     0.0241     -0.082      5.041      7.311        320 5.3986e-01   999.5122 0.0000e+00
      5.137    12.2709     3.9791     36.558  33.884358     45.405      7.742   212.7837     0.9198     9.3354     0.0238     -0.084      5.039      7.310        321 5.3271e-01   999.5050 0.0000e+00
      5.141    12.2111     4.1796     38.332  33.481494     44.847      7.742   212.7079     0.9198     9.3066     0.0236     -0.076      5.044      7.316        322 5.4482e-01   999.5053 0.0000e+00
      5.154    12.1502     4.3815     40.098  33.180967     44.525      7.736   213.3137     1.0190     9.5661     0.0234     -0.055      5.054      7.330        323 5.1787e-01   999.5102 0.0000e+00
      5.166    12.0854     4.5385     41.512  32.954603     44.257      7.734   213.1622     1.0381     9.6526     0.0233     -0.025      5.065      7.346        324 4.7964e-01   999.5171 0.0000e+00
      5.175    11.9572     4.6771     42.770  32.696517     44.031      7.731   212.7458     1.0266     9.5950     0.0232      0.003      5.075      7.361        325 4.9601e-01   999.5242 0.0000e+00
      5.186    11.7973     4.7984     43.859  32.050302     43.201      7.726   212.5187     1.0228     9.5661     0.0228      0.021      5.084      7.375        326 4.7655e-01   999.5315 0.0000e+00
      5.194    11.6985     4.8999     44.801  31.595882     42.709      7.726   212.9351     0.7825     9.4508     0.0225      0.029      5.092      7.385        327 4.7305e-01   999.5460 0.0000e+00
      5.196    11.6498     4.9885     45.619  31.573223     42.938      7.719   213.0487     0.7863     9.4652     0.0226      0.033      5.097      7.392        328 4.4040e-01   999.5640 0.0000e+00
      5.203    11.6229     5.0652     46.309  31.485985     42.859      7.722   212.6322     0.7977     9.4508     0.0225      0.035      5.102      7.400        329 4.2243e-01   999.5750 0.0000e+00
      5.208    11.5974     5.1285     46.877  31.378579     42.843      7.721   212.8215     0.7786     9.5373     0.0225      0.032      5.105      7.405        330 4.5994e-01   999.5803 0.0000e+00
      5.207    11.5599     5.1590     47.170  31.232859     42.604      7.719   214.0708     0.7825     9.1912     0.0223      0.026      5.110      7.411        331 4.2858e-01   999.5832 0.0000e+00
      5.217    11.4826     5.1737     47.336  31.134038     42.559      7.717   213.9194     0.7863     9.2056     0.0223      0.023      5.120      7.426        332 3.8412e-01   999.5861 0.0000e+00
      5.241    11.3929     5.1676     47.298  30.820132     42.143      7.716   214.1844     0.7710     9.1768     0.0221      0.026      5.138      7.452        333 3.8743e-01   999.5901 0.0000e+00
      5.260    11.3660 -9.990e-29 -9.990e-29  30.527309     41.811      7.715   214.7901     0.7519     9.2200     0.0219      0.032      5.155      7.477        334 3.6335e-01   999.5985 0.0000e+00
      5.269    11.3564 -9.990e-29 -9.990e-29  30.668912     42.149      7.713   215.1308     0.7748     9.1335     0.0220      0.038      5.165      7.492        335 3.5113e-01   999.6081 0.0000e+00
      5.273    11.3390 -9.990e-29 -9.990e-29  30.821701     42.369      7.710   215.1308     0.7939     9.2345     0.0221      0.042      5.170      7.499        336 3.6192e-01   999.6110 0.0000e+00
      5.275    11.3495 -9.990e-29 -9.990e-29  30.929727     42.533      7.706   215.2444     0.7748     9.2345     0.0222      0.043      5.173      7.503        337 3.4702e-01   999.6122 0.0000e+00
      5.278    11.3581 -9.990e-29 -9.990e-29  31.038151     42.710      7.708   215.6987     0.7825     9.1047     0.0223      0.041      5.176      7.507        338 3.5442e-01   999.6141 0.0000e+00
      5.282    11.3470 -9.990e-29 -9.990e-29  31.101561     42.771      7.703   216.0394     0.7825     9.1047     0.0223      0.037      5.179      7.512        339 3.5016e-01   999.6130 0.0000e+00
      5.284    11.3385 -9.990e-29 -9.990e-29  31.087836     42.762      7.701   216.4937     0.9389     9.6671     0.0223      0.028      5.182      7.516        340 3.3059e-01   999.6120 0.0000e+00
      5.286    11.3509 -9.990e-29 -9.990e-29  31.055231     42.698      7.698   216.9101     0.9465     9.6671     0.0223      0.018      5.184      7.519        341 3.4337e-01   999.6132 0.0000e+00
      5.288    11.3794 -9.990e-29 -9.990e-29  31.082883     42.786      7.697   217.2887     0.9694     9.5661     0.0223      0.013      5.186      7.522        342 3.4838e-01   999.6142 0.0000e+00
      5.290    11.3948 -9.990e-29 -9.990e-29  31.171937     42.847      7.695   217.7051     0.9389     9.5373     0.0223      0.010      5.188      7.525        343 3.2575e-01   999.6129 0.0000e+00
      5.292 -9.990e-29 -9.990e-29 -9.990e-29  31.388821     43.159      7.690   217.4780     1.0037     9.9410     0.0225      0.010      5.190      7.527        344 3.1904e-01   999.6100 0.0000e+00
      5.293 -9.990e-29 -9.990e-29 -9.990e-29  31.524040     43.293      7.689   217.9322     1.0266     9.9122     0.0225      0.009      5.190      7.527        345 3.2681e-01   999.6084 0.0000e+00
