* Sea-Bird SBE19plus  Data File:
* FileName = C:\DATA\072219_fcr50_0003.hex
* Software version 2.8.0.119
* Temperature SN = 7809
* Conductivity SN = 7809
* System UpLoad Time = Jul 23 2019 10:43:53
* <ApplicationData>
* <Seaterm232>
* <SoftwareVersion>2.8.0.119</SoftwareVersion>
* <BuildDate>07-Nov-2018</BuildDate>
* </Seaterm232>
* </ApplicationData>
* <InstrumentState>
* <HardwareData DeviceType='SBE19plus' SerialNumber='01907809'>
*
*    <Manufacturer>Sea-Bird Electronics, Inc.</Manufacturer>
*
*    <FirmwareVersion>3.1.8</FirmwareVersion>
*
*    <FirmwareDate>Mar  9 2016 16:22:29</FirmwareDate>
*
*    <CommandSetVersion>1.4</CommandSetVersion>
*
*    <PCBAssembly PCBSerialNum='120721' AssemblyNum='41054J'/>
*
*    <PCBAssembly PCBSerialNum='120715' AssemblyNum='41967A'/>
*
*    <PCBAssembly PCBSerialNum='116699' AssemblyNum='41606'/>
*
*    <PCBAssembly PCBSerialNum='120719' AssemblyNum='41059D'/>
*
*    <MfgDate>28-Apr-2017</MfgDate>
*
*    <InternalSensors>
*
*       <Sensor id='Main Temperature'>
*
*          <type>temperature0</type>
*
*          <SerialNumber>01907809</SerialNumber>
*
*       </Sensor>
*
*       <Sensor id='Main Conductivity'>
*
*          <type>conductivity-0</type>
*
*          <SerialNumber>01907809</SerialNumber>
*
*       </Sensor>
*
*       <Sensor id='Main Pressure'>
*
*          <type>strain-0</type>
*
*          <SerialNumber>10586018</SerialNumber>
*
*       </Sensor>
*
*    </InternalSensors>
*
*    <ExternalSensors>
*
*       <Sensor id='volt 0'>
*
*          <type>pH</type>
*
*          <SerialNumber>27-0363</SerialNumber>
*
*       </Sensor>
*
*       <Sensor id='volt 1'>
*
*          <type>ORP</type>
*
*          <SerialNumber>27-0363</SerialNumber>
*
*       </Sensor>
*
*       <Sensor id='volt 2'>
*
*          <type>OXY</type>
*
*          <SerialNumber>43-0434</SerialNumber>
*
*       </Sensor>
*
*       <Sensor id='volt 3'>
*
*          <type>PAR</type>
*
*          <SerialNumber>1122</SerialNumber>
*
*       </Sensor>
*
*       <Sensor id='volt 4'>
*
*          <type>ECO AFL/FL</type>
*
*          <SerialNumber>FLNTURT-2496</SerialNumber>
*
*       </Sensor>
*
*       <Sensor id='volt 5'>
*
*          <type>ECO-NTU</type>
*
*          <SerialNumber>FLNTURT-2496</SerialNumber>
*
*       </Sensor>
*
*       <Sensor id='serial'>
*
*          <type>not assigned</type>
*
*          <SerialNumber>not assigned</SerialNumber>
*
*       </Sensor>
*
*    </ExternalSensors>
*
* </HardwareData>
* <StatusData DeviceType='SBE19plus' SerialNumber='01907809'>
*
*    <DateTime>2019-07-23T10:42:27</DateTime>
*
*    <LoggingState>not logging</LoggingState>
*
*    <EventSummary numEvents='0'/>
*
*    <Power>
*
*       <vMain>12.8</vMain>
*
*       <vLith>8.6</vLith>
*
*       <iMain>63.1</iMain>
*
*       <iPump>45.8</iPump>
*
*       <iExt01>20.3</iExt01>
*
*       <iExt2345>36.7</iExt2345>
*
*    </Power>
*
*    <MemorySummary>
*
*       <Bytes>60789</Bytes>
*
*       <Samples>2643</Samples>
*
*       <SamplesFree>2858145</SamplesFree>
*
*       <SampleLength>23</SampleLength>
*
*       <Profiles>5</Profiles>
*
*    </MemorySummary>
*
* </StatusData>
* <ConfigurationData DeviceType='SBE19plus' SerialNumber='01907809'>
*
*    <ProfileMode>
*
*       <ScansToAverage>1</ScansToAverage>
*
*       <MinimumCondFreq>5</MinimumCondFreq>
*
*       <PumpDelay>45</PumpDelay>
*
*       <AutoRun>no</AutoRun>
*
*       <IgnoreSwitch>no</IgnoreSwitch>
*
*    </ProfileMode>
*
*    <Battery>
*
*       <Type>alkaline</Type>
*
*       <CutOff>7.5</CutOff>
*
*    </Battery>
*
*    <DataChannels>
*
*       <ExtVolt0>yes</ExtVolt0>
*
*       <ExtVolt1>yes</ExtVolt1>
*
*       <ExtVolt2>yes</ExtVolt2>
*
*       <ExtVolt3>yes</ExtVolt3>
*
*       <ExtVolt4>yes</ExtVolt4>
*
*       <ExtVolt5>yes</ExtVolt5>
*
*       <SBE38>no</SBE38>
*
*       <WETLABS>no</WETLABS>
*
*       <OPTODE>no</OPTODE>
*
*       <SBE63>no</SBE63>
*
*       <SeaFET>no</SeaFET>
*
*       <GTD>no</GTD>
*
*    </DataChannels>
*
*    <EchoCharacters>yes</EchoCharacters>
*
*    <OutputExecutedTag>yes</OutputExecutedTag>
*
*    <OutputFormat>raw HEX</OutputFormat>
*
* </ConfigurationData>
* <CalibrationCoefficients DeviceType='SBE19plus' SerialNumber='01907809'>
*
*    <Calibration format='TEMP1' id='Main Temperature'>
*
*       <SerialNum>01907809</SerialNum>
*
*       <CalDate>24-Mar-19</CalDate>
*
*       <TA0>1.217923e-03</TA0>
*
*       <TA1>2.816693e-04</TA1>
*
*       <TA2>-1.603333e-06</TA2>
*
*       <TA3>1.984146e-07</TA3>
*
*       <TOFFSET>0.000000e+00</TOFFSET>
*
*    </Calibration>
*
*    <Calibration format='WBCOND0' id='Main Conductivity'>
*
*       <SerialNum>01907809</SerialNum>
*
*       <CalDate>24-Mar-19</CalDate>
*
*       <G>-1.005893e+00</G>
*
*       <H>1.268163e-01</H>
*
*       <I>-1.515604e-04</I>
*
*       <J>2.671373e-05</J>
*
*       <CPCOR>-9.570000e-08</CPCOR>
*
*       <CTCOR>3.250000e-06</CTCOR>
*
*       <CSLOPE>1.000000e+00</CSLOPE>
*
*    </Calibration>
*
*    <Calibration format='STRAIN0' id='Main Pressure'>
*
*       <SerialNum>10586018</SerialNum>
*
*       <CalDate>11-Mar-19</CalDate>
*
*       <PA0>4.565618e-02</PA0>
*
*       <PA1>4.850951e-04</PA1>
*
*       <PA2>-2.883271e-12</PA2>
*
*       <PTCA0>5.252467e+05</PTCA0>
*
*       <PTCA1>1.223042e+01</PTCA1>
*
*       <PTCA2>-3.567450e-01</PTCA2>
*
*       <PTCB0>2.516687e+01</PTCB0>
*
*       <PTCB1>3.750000e-04</PTCB1>
*
*       <PTCB2>0.000000e+00</PTCB2>
*
*       <PTEMPA0>-5.487846e+01</PTEMPA0>
*
*       <PTEMPA1>5.537568e+01</PTEMPA1>
*
*       <PTEMPA2>-5.867271e-01</PTEMPA2>
*
*       <POFFSET>7.140000e-01</POFFSET>
*
*       <PRANGE>1.600000e+02</PRANGE>
*
*    </Calibration>
*
*    <Calibration format='VOLT0' id='Volt 0'>
*
*       <OFFSET>-4.920000e-02</OFFSET>
*
*       <SLOPE>1.248122e+00</SLOPE>
*
*    </Calibration>
*
*    <Calibration format='VOLT0' id='Volt 1'>
*
*       <OFFSET>-4.784000e-02</OFFSET>
*
*       <SLOPE>1.248871e+00</SLOPE>
*
*    </Calibration>
*
*    <Calibration format='VOLT0' id='Volt 2'>
*
*       <OFFSET>-4.864632e-02</OFFSET>
*
*       <SLOPE>1.248714e+00</SLOPE>
*
*    </Calibration>
*
*    <Calibration format='VOLT0' id='Volt 3'>
*
*       <OFFSET>-4.743790e-02</OFFSET>
*
*       <SLOPE>1.248571e+00</SLOPE>
*
*    </Calibration>
*
*    <Calibration format='VOLT0' id='Volt 4'>
*
*       <OFFSET>-4.671263e-02</OFFSET>
*
*       <SLOPE>1.248951e+00</SLOPE>
*
*    </Calibration>
*
*    <Calibration format='VOLT0' id='Volt 5'>
*
*       <OFFSET>-4.871053e-02</OFFSET>
*
*       <SLOPE>1.249136e+00</SLOPE>
*
*    </Calibration>
*
*    <Calibration format='FREQ0' id='external frequency channel'>
*
*       <EXTFREQSF>1.000014e+00</EXTFREQSF>
*
*    </Calibration>
*
* </CalibrationCoefficients>
* <EventCounters DeviceType='SBE19plus' SerialNumber='01907809'>
*
*    <EventSummary numEvents='0'/>
*
* </EventCounters></InstrumentState>
* <Headers>
*
* cast   3 22 Jul 2019 15:42:03 samples 1269 to 1611, avg = 1, stop = mag switch
*
# nquan = 18
# nvalues = 272                         
# units = specified
# name 0 = depFM: Depth [fresh water, m]
# name 1 = tv290C: Temperature [ITS-90, deg C]
# name 2 = sbeox0Mg/L: Oxygen, SBE 43 [mg/l]
# name 3 = sbeox0PS: Oxygen, SBE 43 [% saturation]
# name 4 = c0uS/cm: Conductivity [uS/cm]
# name 5 = specc: Specific Conductance [uS/cm]
# name 6 = ph: pH
# name 7 = orp: Oxidation Reduction Potential [mV]
# name 8 = flECO-AFL: Fluorescence, WET Labs ECO-AFL/FL [mg/m^3]
# name 9 = turbWETntu0: Turbidity, WET Labs ECO [NTU]
# name 10 = sal00: Salinity, Practical [PSU]
# name 11 = dz/dtM: Descent Rate [m/s]
# name 12 = prdM: Pressure, Strain Gauge [db]
# name 13 = prdE: Pressure, Strain Gauge [psi]
# name 14 = scan: Scan Count
# name 15 = par/sat/log: PAR/Logarithmic, Satlantic
# name 16 = density00: Density [density, kg/m^3]
# name 17 = flag:  0.000e+00
# span 0 =     -0.620,      2.909       
# span 1 =    20.2012,    28.4686       
# span 2 =    -0.7661,    10.6530       
# span 3 =     -8.581,    132.107       
# span 4 =   2.333742,  81.775377       
# span 5 =      1.012,     89.283       
# span 6 =      6.509,      8.562       
# span 7 =   157.5499,   315.0361       
# span 8 =    -0.1483,    28.3898       
# span 9 =    -0.3547,    43.1930       
# span 10 =     0.0129,     0.0460      
# span 11 =     -0.007,      0.158      
# span 12 =     -0.588,      2.851      
# span 13 =     -0.854,      4.136      
# span 14 =          1,        272      
# span 15 = 8.6304e+00, 6.9636e+02      
# span 16 =   996.1187,   998.2115      
# span 17 = 0.0000e+00, 0.0000e+00      
# interval = seconds: 0.25
# start_time = Jul 22 2019 15:42:03 [Instrument's time stamp, header]
# bad_flag = -9.990e-29
# <Sensors count="9" >
#   <sensor Channel="1" >
#     <!-- Count, Temperature -->
#     <TemperatureSensor SensorID="58" >
#       <SerialNumber>7809</SerialNumber>
#       <CalibrationDate>24-Mar-19</CalibrationDate>
#       <A0>1.21792325e-003</A0>
#       <A1>2.81669265e-004</A1>
#       <A2>-1.60333336e-006</A2>
#       <A3>1.98414625e-007</A3>
#       <Slope>1.00000000</Slope>
#       <Offset>0.0000</Offset>
#     </TemperatureSensor>
#   </sensor>
#   <sensor Channel="2" >
#     <!-- Frequency 0, Conductivity -->
#     <ConductivitySensor SensorID="3" >
#       <SerialNumber>7809</SerialNumber>
#       <CalibrationDate>24-Mar-19</CalibrationDate>
#       <UseG_J>1</UseG_J>
#       <!-- Cell const and series R are applicable only for wide range sensors. -->
#       <SeriesR>0.0000</SeriesR>
#       <CellConst>2000.0000</CellConst>
#       <ConductivityType>0</ConductivityType>
#       <Coefficients equation="0" >
#         <A>0.00000000e+000</A>
#         <B>0.00000000e+000</B>
#         <C>0.00000000e+000</C>
#         <D>0.00000000e+000</D>
#         <M>0.0</M>
#         <CPcor>-9.57000000e-008</CPcor>
#       </Coefficients>
#       <Coefficients equation="1" >
#         <G>-1.00589325e+000</G>
#         <H>1.26816302e-001</H>
#         <I>-1.51560448e-004</I>
#         <J>2.67137274e-005</J>
#         <CPcor>-9.57000000e-008</CPcor>
#         <CTcor>3.2500e-006</CTcor>
#         <!-- WBOTC not applicable unless ConductivityType = 1. -->
#         <WBOTC>0.00000000e+000</WBOTC>
#       </Coefficients>
#       <Slope>1.00000000</Slope>
#       <Offset>0.00000</Offset>
#     </ConductivitySensor>
#   </sensor>
#   <sensor Channel="3" >
#     <!-- Count, Pressure, Strain Gauge -->
#     <PressureSensor SensorID="46" >
#       <SerialNumber>7809</SerialNumber>
#       <CalibrationDate>11-Mar-19</CalibrationDate>
#       <PA0>4.56561833e-002</PA0>
#       <PA1>4.85095118e-004</PA1>
#       <PA2>-2.88327090e-012</PA2>
#       <PTEMPA0>-5.48784562e+001</PTEMPA0>
#       <PTEMPA1>5.53756816e+001</PTEMPA1>
#       <PTEMPA2>-5.86727098e-001</PTEMPA2>
#       <PTCA0>5.25246745e+005</PTCA0>
#       <PTCA1>1.22304214e+001</PTCA1>
#       <PTCA2>-3.56745036e-001</PTCA2>
#       <PTCB0>2.51668750e+001</PTCB0>
#       <PTCB1>3.75000000e-004</PTCB1>
#       <PTCB2>0.00000000e+000</PTCB2>
#       <Offset>0.000000</Offset>
#     </PressureSensor>
#   </sensor>
#   <sensor Channel="4" >
#     <!-- A/D voltage 0, Oxygen, SBE 43 -->
#     <OxygenSensor SensorID="38" >
#       <SerialNumber>0434</SerialNumber>
#       <CalibrationDate>13-Apr-19</CalibrationDate>
#       <Use2007Equation>1</Use2007Equation>
#       <CalibrationCoefficients equation="0" >
#         <!-- Coefficients for Owens-Millard equation. -->
#         <Boc>0.0000</Boc>
#         <Soc>0.0000e+000</Soc>
#         <offset>0.0000</offset>
#         <Pcor>0.00e+000</Pcor>
#         <Tcor>0.0000</Tcor>
#         <Tau>0.0</Tau>
#       </CalibrationCoefficients>
#       <CalibrationCoefficients equation="1" >
#         <!-- Coefficients for Sea-Bird equation - SBE calibration in 2007 and later. -->
#         <Soc>4.2007e-001</Soc>
#         <offset>-0.6109</offset>
#         <A>-4.3656e-003</A>
#         <B> 1.7017e-004</B>
#         <C>-2.5341e-006</C>
#         <D0> 2.5826e+000</D0>
#         <D1> 1.92634e-004</D1>
#         <D2>-4.64803e-002</D2>
#         <E> 3.6000e-002</E>
#         <Tau20> 1.1800</Tau20>
#         <H1>-3.3000e-002</H1>
#         <H2> 5.0000e+003</H2>
#         <H3> 1.4500e+003</H3>
#       </CalibrationCoefficients>
#     </OxygenSensor>
#   </sensor>
#   <sensor Channel="5" >
#     <!-- A/D voltage 1, PAR/Logarithmic, Satlantic -->
#     <PARLog_SatlanticSensor SensorID="76" >
#       <SerialNumber>1122</SerialNumber>
#       <CalibrationDate>08-May-2019</CalibrationDate>
#       <a0>9.7456e-001</a0>
#       <a1>8.1640e-001</a1>
#       <Im>1.3589e+000</Im>
#       <Multiplier>1.0000e+000</Multiplier>
#     </PARLog_SatlanticSensor>
#   </sensor>
#   <sensor Channel="6" >
#     <!-- A/D voltage 2, pH -->
#     <pH_Sensor SensorID="43" >
#       <SerialNumber>0363</SerialNumber>
#       <CalibrationDate>15-Apr-19</CalibrationDate>
#       <Slope>4.5952</Slope>
#       <Offset>2.5370</Offset>
#     </pH_Sensor>
#   </sensor>
#   <sensor Channel="7" >
#     <!-- A/D voltage 3, Oxidation Reduction Potential -->
#     <OxidationReductionPotentialSensor SensorID="41" >
#       <SerialNumber>0363</SerialNumber>
#       <CalibrationDate>15-Apr-19</CalibrationDate>
#       <B>2.499480</B>
#       <M>-0.496195</M>
#       <Offset>0.0</Offset>
#     </OxidationReductionPotentialSensor>
#   </sensor>
#   <sensor Channel="8" >
#     <!-- A/D voltage 4, Fluorometer, WET Labs ECO-AFL/FL -->
#     <FluoroWetlabECO_AFL_FL_Sensor SensorID="20" >
#       <SerialNumber>FLNTURT-2496</SerialNumber>
#       <CalibrationDate>08-May-2019</CalibrationDate>
#       <ScaleFactor>5.00000000e+001</ScaleFactor>
#       <!-- Dark output -->
#       <Vblank>0.0550</Vblank>
#     </FluoroWetlabECO_AFL_FL_Sensor>
#   </sensor>
#   <sensor Channel="9" >
#     <!-- A/D voltage 5, Turbidity Meter, WET Labs, ECO-NTU -->
#     <TurbidityMeter SensorID="67" >
#       <SerialNumber>FLNTURT-2496</SerialNumber>
#       <CalibrationDate>08-May-2019</CalibrationDate>
#       <ScaleFactor>189.000000</ScaleFactor>
#       <!-- Dark output -->
#       <DarkVoltage>0.071000</DarkVoltage>
#     </TurbidityMeter>
#   </sensor>
# </Sensors>
# datcnv_date = Jul 23 2019 10:50:46, 7.26.7.129 [datcnv_vars = 17]
# datcnv_in = C:\DATA\072219_fcr20.hex C:\DATA\SBE19plusV2_7809.xmlcon
# datcnv_skipover = 0
# datcnv_ox_hysteresis_correction = yes
# datcnv_ox_tau_correction = yes
# filter_date = Jul 23 2019 10:51:02, 7.26.7.129
# filter_in = C:\DATA\072219_fcr20.cnv
# filter_low_pass_tc_A = 0.030
# filter_low_pass_tc_B = 0.150
# filter_low_pass_A_vars = tv290C c0uS/cm par/sat/log density00
# filter_low_pass_B_vars = prdM prdE
# alignctd_date = Jul 23 2019 10:51:16, 7.26.7.129
# alignctd_in = C:\DATA\072219_fcr20.cnv
# alignctd_adv = tv290C 0.500, sbeox0Mg/L 3.000, sbeox0PS 3.000                                                                                                                                                                      
# file_type = ascii
*END*
     -0.620    28.2044     6.5517     84.400   2.333742      1.012      6.509   315.0361    -0.0987    -0.3403     0.0129 2.1053e-16     -0.588     -0.854          1 5.0346e+02   996.1989 0.0000e+00
     -0.556    28.2767     6.5602     84.506  22.466675     21.791      6.754   157.5499    -0.1102    -0.2393     0.0193      0.017     -0.536     -0.779          2 5.1155e+02   996.2032 0.0000e+00
     -0.466    28.3296     6.5750     84.695  38.102599     35.910      7.249   200.4043    -0.1064    -0.3547     0.0248      0.053     -0.466     -0.676          3 5.3832e+02   996.1935 0.0000e+00
     -0.408    28.3724     6.5921     84.914  38.757276     36.307      7.641   203.9629    -0.1483    -0.3114     0.0250      0.094     -0.410     -0.595          4 6.2261e+02   996.1733 0.0000e+00
     -0.380    28.4060     6.6221     85.296  38.835265     36.454      7.912   210.0201    -0.1102    -0.3403     0.0251      0.129     -0.378     -0.549          5 6.5637e+02   996.1583 0.0000e+00
     -0.367    28.4315     6.6599     85.779  38.983546     36.477      8.112   210.7394    -0.1293    -0.2970     0.0251      0.151     -0.362     -0.526          6 6.5198e+02   996.1461 0.0000e+00
     -0.361    28.4494     6.6865     86.113  39.076562     36.611      8.252   213.2380    -0.1254    -0.2970     0.0252      0.158     -0.352     -0.512          7 6.5894e+02   996.1365 0.0000e+00
     -0.350    28.4611     6.7193     86.513  39.104782     36.567      8.362   213.5408     1.7094    43.1930     0.0251      0.152     -0.339     -0.492          8 6.6926e+02   996.1292 0.0000e+00
     -0.324    28.4685     6.7408     86.765  38.978051     36.477      8.426   214.7901     1.6675    43.0200     0.0251      0.134     -0.319     -0.463          9 6.7820e+02   996.1241 0.0000e+00
     -0.302    28.4686     6.7589     86.964  38.848977     36.312      8.468   216.4937     1.6904    43.1498     0.0251      0.103     -0.299     -0.434         10 6.8460e+02   996.1208 0.0000e+00
     -0.290    28.4648     6.7623     86.959  38.820841     36.307      8.504   216.4558     1.7094    43.0200     0.0251      0.075     -0.282     -0.410         11 6.8674e+02   996.1187 0.0000e+00
     -0.272    28.4628     6.7498     86.741  38.746322     36.229      8.516   214.2601     1.7171    43.1209     0.0250      0.064     -0.262     -0.381         12 6.9636e+02   996.1188 0.0000e+00
     -0.245    28.4621     6.7243     86.368  38.793524     36.258      8.536   206.6886     7.9313     1.6929     0.0250      0.067     -0.227     -0.330         13 6.5925e+02   996.1199 0.0000e+00
     -0.176    28.4609     6.7158     86.222  38.910288     36.416      8.543   204.2279     7.9084     1.7794     0.0251      0.085     -0.171     -0.248         14 5.9331e+02   996.1209 0.0000e+00
     -0.102    28.4577     6.7592     86.745  38.719566     36.181      8.555   177.8036     7.9199     1.6785     0.0250      0.114     -0.111     -0.160         15 5.7486e+02   996.1214 0.0000e+00
     -0.064    28.4552     6.8323     87.658  38.615952     36.130      8.562   211.4965     7.9313     1.8371     0.0250      0.138     -0.068     -0.099         16 6.0916e+02   996.1218 0.0000e+00
     -0.041    28.4492     6.9282     88.876  38.594673     36.080      8.555   212.8972     8.9232     1.9813     0.0250      0.152     -0.043     -0.062         17 5.8350e+02   996.1228 0.0000e+00
     -0.024    28.4347     6.9986     89.774  38.597862     36.107      8.546   213.0487     8.9499     1.9957     0.0250      0.158     -0.026     -0.038         18 4.5342e+02   996.1237 0.0000e+00
     -0.014    28.4179     7.0599     90.556  38.523074     36.033      8.531   214.1465     8.9422     1.9669     0.0249      0.155     -0.017     -0.024         19 4.2949e+02   996.1254 0.0000e+00
     -0.014    28.3967     7.1475     91.677  38.480288     35.991      8.516   214.9794     8.9232     2.0102     0.0249      0.136     -0.014     -0.020         20 4.3060e+02   996.1295 0.0000e+00
     -0.014    28.3642     7.3363     94.097  38.621479     36.159      8.501   216.3044    10.8153     2.0246     0.0250      0.106     -0.013     -0.018         21 4.3895e+02   996.1344 0.0000e+00
     -0.010    28.3276     7.6006     97.485  38.762296     36.278      8.493   216.9101    10.8153     1.9236     0.0250      0.069     -0.009     -0.014         22 4.4739e+02   996.1405 0.0000e+00
     -0.005    28.2973     7.7935     99.958  38.868165     36.430      8.480   217.5158    10.8267     1.9957     0.0251      0.040     -0.005     -0.009         23 4.2532e+02   996.1499 0.0000e+00
     -0.003    28.2733     7.9101    101.450  38.845395     36.403      8.474   218.6894    10.8420     2.1111     0.0251      0.025     -0.003     -0.005         24 4.4917e+02   996.1605 0.0000e+00
     -0.003    28.2511     7.9513    101.976  38.879564     36.476      8.466   219.1815    10.8725     1.9813     0.0251      0.015     -0.003     -0.004         25 4.5196e+02   996.1693 0.0000e+00
     -0.002    28.2346     7.9155    101.516  38.944208     36.545      8.459   219.9765    10.8954     2.0534     0.0251      0.010     -0.002     -0.003         26 4.4001e+02   996.1761 0.0000e+00
     -0.001    28.2266     7.8065    100.116  38.942786     36.560      8.454   219.9765    10.8839     1.9669     0.0251      0.008     -0.001     -0.001         27 4.2901e+02   996.1824 0.0000e+00
     -0.000    28.2230     7.6296     97.848  38.940621     36.572      8.444   221.0744    10.8916     1.9525     0.0251      0.008      0.001      0.002         28 4.2156e+02   996.1872 0.0000e+00
      0.004    28.2206     7.4476     95.517  38.946913     36.577      8.436   221.4908    12.0093     1.8948     0.0251      0.007      0.005      0.008         29 4.1223e+02   996.1896 0.0000e+00
      0.012    28.2190     7.3144     93.814  38.934961     36.580      8.428   221.3015    12.0398     1.9525     0.0251      0.008      0.012      0.017         30 3.9218e+02   996.1906 0.0000e+00
      0.020    28.2177     7.2405     92.871  38.896221     36.529      8.420   220.5444    12.0474     2.0102     0.0251      0.011      0.019      0.027         31 3.8565e+02   996.1913 0.0000e+00
      0.026    28.2167     7.1991     92.344  38.935850     36.583      8.415   220.9987    12.0322     1.9236     0.0251      0.014      0.025      0.036         32 3.9242e+02   996.1918 0.0000e+00
      0.030    28.2156     7.1786     92.085  38.885645     36.531      8.410   221.4530    12.0436     1.9813     0.0251      0.018      0.029      0.042         33 3.8589e+02   996.1921 0.0000e+00
      0.033    28.2142     7.2110     92.502  38.840150     36.479      8.407   221.3015    13.3788     1.8660     0.0251      0.020      0.034      0.050         34 3.6758e+02   996.1925 0.0000e+00
      0.044    28.2132     7.3005     93.647  38.933194     36.585      8.406   221.0744    13.3864     1.9236     0.0251      0.023      0.044      0.065         35 3.5606e+02   996.1928 0.0000e+00
      0.059    28.2122     7.4041     94.972  38.888405     36.533      8.403   221.2637    13.3864     1.9813     0.0251      0.027      0.056      0.081         36 3.4985e+02   996.1933 0.0000e+00
      0.068    28.2112     7.5315     96.593  38.836613     36.481      8.397   221.3394    13.4017     1.9957     0.0251      0.030      0.063      0.092         37 3.5245e+02   996.1936 0.0000e+00
      0.067    28.2114     7.6904     98.613  38.879097     36.535      8.396   222.0965    14.3592     2.2265     0.0251      0.029      0.063      0.092         38 3.6128e+02   996.1939 0.0000e+00
      0.059    28.2135     7.8292    100.359  38.894810     36.535      8.396   219.0301    14.3744     2.2697     0.0251      0.025      0.059      0.086         39 3.6057e+02   996.1942 0.0000e+00
      0.057    28.2168     7.9329    101.655  38.935612     36.588      8.392   220.9987    14.3935     2.2697     0.0251      0.020      0.058      0.084         40 3.6028e+02   996.1941 0.0000e+00
      0.061    28.2197     7.9996    102.479  38.946872     36.586      8.385   221.2258    14.4011     2.1832     0.0251      0.015      0.060      0.087         41 3.5673e+02   996.1935 0.0000e+00
      0.065    28.2220     8.0358    102.916  38.940070     36.584      8.377   185.1857    14.5156     1.8948     0.0251      0.011      0.064      0.092         42 3.5297e+02   996.1926 0.0000e+00
      0.068    28.2243     8.0497    103.073  38.884798     36.530      8.375   182.8007    14.5232     1.9236     0.0251      0.006      0.068      0.098         43 3.5097e+02   996.1918 0.0000e+00
      0.074    28.2251     8.0604    103.191  38.837828     36.475      8.375   220.3930    14.5080     1.9525     0.0251      0.004      0.073      0.106         44 3.4174e+02   996.1911 0.0000e+00
      0.084    28.2239     8.0769    103.390  38.879971     36.526      8.358   182.8007    14.5041     1.9813     0.0251      0.007      0.080      0.116         45 3.4268e+02   996.1905 0.0000e+00
      0.087    28.2204     8.0867    103.510  38.891627     36.526      8.348   180.4914    14.2791     2.0102     0.0251      0.013      0.083      0.121         46 3.5478e+02   996.1903 0.0000e+00
      0.085    28.2139     8.0885    103.526  38.823323     36.474      8.341   179.8100    14.2524     1.8371     0.0251      0.016      0.083      0.120         47 3.6426e+02   996.1906 0.0000e+00
      0.082    28.2025     8.0883    103.513  38.757511     36.398      8.337   178.8636    14.2600     1.9957     0.0250      0.015      0.081      0.118         48 3.7478e+02   996.1916 0.0000e+00
      0.081    28.1843     8.0851    103.461  38.825343     36.481      8.334   178.2957    14.2981     1.9813     0.0251      0.012      0.080      0.116         49 3.8489e+02   996.1935 0.0000e+00
      0.081    28.1657     8.0790    103.366  38.827825     36.489      8.330   178.0307    14.3287     2.2120     0.0251      0.008      0.080      0.116         50 3.8913e+02   996.1967 0.0000e+00
      0.080    28.1487     8.0422    102.873  38.754430     36.423      8.333   177.1221    14.3477     2.2120     0.0250      0.004      0.080      0.116         51 3.8334e+02   996.2019 0.0000e+00
      0.083    28.1341     7.9837    102.106  38.827779     36.514      8.331   176.6678    14.3287     2.2409     0.0251      0.001      0.082      0.118         52 3.8361e+02   996.2073 0.0000e+00
      0.087    28.1225     7.9200    101.274  38.825465     36.526      8.336   176.5164    14.3210     2.1688     0.0251     -0.001      0.085      0.123         53 3.8041e+02   996.2121 0.0000e+00
      0.089    28.1120     7.8670    100.580  38.757318     36.457      8.332   176.5543    14.3515     2.1976     0.0250      0.001      0.089      0.129         54 3.7332e+02   996.2163 0.0000e+00
      0.097    28.1054     7.8186     99.946  38.823682     36.544      8.331   176.4407    15.5990     2.0534     0.0251      0.005      0.096      0.138         55 3.6969e+02   996.2197 0.0000e+00
      0.106    28.1023     7.7881     99.540  38.891071     36.604      8.328   176.3650    15.5952     2.0823     0.0251      0.011      0.102      0.148         56 3.5751e+02   996.2227 0.0000e+00
      0.108    28.0982     7.7686     99.277  38.821646     36.556      8.324   176.4028    15.5799     1.8948     0.0251      0.014      0.104      0.152         57 3.5763e+02   996.2245 0.0000e+00
      0.105    28.0931     7.7694     99.282  38.761895     36.479      8.323   176.5543    15.5875     1.9957     0.0250      0.015      0.103      0.150         58 3.6319e+02   996.2254 0.0000e+00
      0.103    28.0869     7.7754     99.357  38.817245     36.561      8.319   176.4028    15.5341     1.8804     0.0251      0.014      0.101      0.146         59 3.6457e+02   996.2266 0.0000e+00
      0.100    28.0768     7.7790     99.403  38.841680     36.564      8.314   176.4407    15.5074     1.9669     0.0251      0.010      0.099      0.143         60 3.6012e+02   996.2281 0.0000e+00
      0.099    28.0649     7.7899     99.535  38.879675     36.621      8.311   176.2514    15.5379     1.9525     0.0251      0.006      0.098      0.142         61 3.5266e+02   996.2299 0.0000e+00
      0.099    28.0546     7.8207     99.918  38.829238     36.575      8.304   176.2514    15.5074     1.9092     0.0251      0.002      0.098      0.142         62 3.5180e+02   996.2327 0.0000e+00
      0.102    28.0449     7.8614    100.437  38.756265     36.505      8.303   176.6678    15.4655     1.9525     0.0250     -0.002      0.100      0.146         63 3.4532e+02   996.2361 0.0000e+00
      0.106    28.0360     7.8826    100.710  38.822307     36.591      8.298   176.4407    15.4731     1.9669     0.0251     -0.002      0.104      0.151         64 3.3697e+02   996.2391 0.0000e+00
      0.109    28.0273     7.8606    100.434  38.835969     36.597      8.298   216.6451    15.4616     2.0823     0.0251      0.000      0.106      0.154         65 3.3321e+02   996.2418 0.0000e+00
      0.110    28.0176     7.8055     99.724  38.828182     36.603      8.292   218.2351    15.4655     2.0534     0.0251      0.003      0.108      0.156         66 3.3355e+02   996.2444 0.0000e+00
      0.111    28.0102     7.7357     98.825  38.832004     36.609      8.287   219.2573    15.8660     1.9092     0.0251      0.006      0.108      0.157         67 3.3151e+02   996.2468 0.0000e+00
      0.111    28.0072     7.6514     97.743  38.831216     36.616      8.283   220.5065    15.8622     1.9957     0.0251      0.007      0.108      0.156         68 3.2917e+02   996.2495 0.0000e+00
      0.107    28.0067     7.5745     96.760  38.829166     36.621      8.279   221.5287    15.8736     1.9381     0.0251      0.006      0.105      0.151         69 3.2982e+02   996.2517 0.0000e+00
      0.102    28.0063     7.4961     95.761  38.834558     36.623      8.280   221.1880    15.9042     2.0390     0.0251      0.002      0.100      0.144         70 3.3752e+02   996.2525 0.0000e+00
      0.096    28.0021     7.4238     94.840  38.824506     36.624      8.281   220.0901    16.6328     2.1544     0.0251     -0.003      0.096      0.139         71 3.4686e+02   996.2526 0.0000e+00
      0.095    27.9967     7.3759     94.233  38.782401     36.571      8.279   220.5444    16.6251     2.1255     0.0250     -0.007      0.096      0.140         72 3.3930e+02   996.2528 0.0000e+00
      0.103    27.9956     7.3539     93.953  38.827684     36.627      8.274   221.3015    16.6099     2.2986     0.0251     -0.007      0.101      0.147         73 3.3786e+02   996.2540 0.0000e+00
      0.111    27.9976     7.3482     93.879  38.827431     36.631      8.265   222.0965    16.6518     2.2553     0.0251     -0.004      0.109      0.158         74 3.3005e+02   996.2555 0.0000e+00
      0.121    27.9992     7.3447     93.831  38.693808     36.499      8.258   189.1607    16.6442     2.2697     0.0250      0.002      0.117      0.169         75 3.1985e+02   996.2559 0.0000e+00
      0.126    27.9964     7.3363     93.724  38.579052     36.393      8.258   187.4193    17.2584     1.8948     0.0250      0.008      0.122      0.176         76 3.1926e+02   996.2553 0.0000e+00
      0.125    27.9921     7.3082     93.367  38.496042     36.312      8.261   185.9050    17.2431     1.9669     0.0249      0.014      0.123      0.179         77 3.1549e+02   996.2548 0.0000e+00
      0.126    27.9896     7.2581     92.728  38.411827     36.236      8.262   184.8829    17.2431     2.0246     0.0249      0.017      0.124      0.180         78 3.1491e+02   996.2556 0.0000e+00
      0.128    27.9889     7.1949     91.921  38.417123     36.238      8.262   184.2014    17.2737     1.9381     0.0249      0.018      0.125      0.182         79 3.1334e+02   996.2568 0.0000e+00
      0.130    27.9901     7.1175     90.930  38.400543     36.240      8.263   183.7093    17.4758     2.0246     0.0249      0.016      0.126      0.183         80 3.1501e+02   996.2575 0.0000e+00
      0.127    27.9925     7.0304     89.817  38.373188     36.188      8.265   183.4822    17.4949     1.9813     0.0249      0.011      0.124      0.181         81 3.1770e+02   996.2577 0.0000e+00
      0.124    27.9948     6.9343     88.587  38.451164     36.293      8.266   182.9521    17.4796     2.0390     0.0249      0.005      0.123      0.179         82 3.0905e+02   996.2574 0.0000e+00
      0.127    27.9957     6.8472     87.473  38.510962     36.317      8.264   182.9521    17.4835     1.9525     0.0249      0.002      0.125      0.181         83 2.9285e+02   996.2567 0.0000e+00
      0.132    27.9947     6.7680     86.460  38.565505     36.395      8.262   182.7250    17.6742     1.9957     0.0250      0.001      0.130      0.189         84 2.8533e+02   996.2561 0.0000e+00
      0.139    27.9931     6.7006     85.598  38.590746     36.394      8.262   182.3464    17.6780     2.0102     0.0250      0.004      0.137      0.199         85 2.6428e+02   996.2559 0.0000e+00
      0.149    27.9930     6.6415     84.839  38.627735     36.447      8.259   182.6871    17.6628     1.9236     0.0250      0.008      0.145      0.210         86 2.3772e+02   996.2562 0.0000e+00
      0.154    27.9944     6.6032     84.346  38.638023     36.449      8.257   182.3464    17.6856     1.9525     0.0250      0.013      0.151      0.218         87 2.2971e+02   996.2567 0.0000e+00
      0.158    27.9953     6.5961     84.253  38.607582     36.422      8.256   182.2707    17.6017     2.2409     0.0250      0.017      0.154      0.223         88 2.2482e+02   996.2568 0.0000e+00
      0.159    27.9948     6.6035     84.348  38.576706     36.395      8.257   182.0057    17.6437     2.2986     0.0250      0.020      0.156      0.226         89 2.2138e+02   996.2563 0.0000e+00
      0.159    27.9938     6.6297     84.678  38.468986     36.289      8.253   182.5357    17.5979     2.2409     0.0249      0.020      0.156      0.226         90 2.2758e+02   996.2560 0.0000e+00
      0.158    27.9931     6.6724     85.214  38.415629     36.237      8.255   182.4600    17.6093     2.1544     0.0249      0.017      0.156      0.227         91 2.2732e+02   996.2561 0.0000e+00
      0.162    27.9922     6.7240     85.863  38.465286     36.290      8.254   181.9300    18.1434     2.1688     0.0249      0.013      0.159      0.231         92 2.2610e+02   996.2565 0.0000e+00
      0.168    27.9914     6.7740     86.496  38.525738     36.343      8.256   182.0814    18.1587     2.2409     0.0250      0.011      0.164      0.238         93 2.3960e+02   996.2567 0.0000e+00
      0.172    27.9909     6.8167     87.042  38.547857     36.370      8.257   181.8543    18.1510     2.1688     0.0250      0.009      0.167      0.243         94 2.5400e+02   996.2569 0.0000e+00
      0.171    27.9903     6.8620     87.616  38.526670     36.344      8.259   181.9679    18.1510     2.2120     0.0250      0.009      0.167      0.243         95 2.6337e+02   996.2572 0.0000e+00
      0.169    27.9878     6.8985     88.078  38.522467     36.345      8.259   181.9300    18.1587     2.1688     0.0250      0.008      0.167      0.242         96 2.6739e+02   996.2574 0.0000e+00
      0.171    27.9845     6.9342     88.531  38.523451     36.345      8.260   181.6271    18.3227     2.1976     0.0250      0.007      0.169      0.246         97 2.7399e+02   996.2576 0.0000e+00
      0.179    27.9835     6.9701     88.984  38.584721     36.399      8.261   181.5893    18.3456     2.3562     0.0250      0.009      0.174      0.252         98 2.8026e+02   996.2584 0.0000e+00
      0.182    27.9837     7.0053     89.430  38.653679     36.481      8.257   181.5136    18.3380     2.2986     0.0250      0.010      0.177      0.257         99 2.8493e+02   996.2592 0.0000e+00
      0.182    27.9805     7.0444     89.927  38.645097     36.455      8.259   181.5514    18.3303     2.1832     0.0250      0.009      0.181      0.262        100 2.8818e+02   996.2595 0.0000e+00
      0.191    27.9744     7.0715     90.272  38.625041     36.455      8.259   181.1350    17.8611     1.9525     0.0250      0.010      0.189      0.274        101 2.7911e+02   996.2596 0.0000e+00
      0.207    27.9680     7.1156     90.836  38.589727     36.404      8.261   181.3243    17.8535     2.0534     0.0250      0.015      0.203      0.294        102 2.7558e+02   996.2605 0.0000e+00
      0.221    27.9646     7.1796     91.655  38.629771     36.462      8.264   181.0593    17.8535     2.0102     0.0250      0.023      0.221      0.319        103 2.7106e+02   996.2623 0.0000e+00
      0.246    27.9648     7.2744     92.874  38.604848     36.439      8.258   181.4757    17.8459     1.9957     0.0250      0.035      0.241      0.349        104 2.5590e+02   996.2643 0.0000e+00
      0.268    27.9623     7.3428     93.748  38.531836     36.363      8.247   181.7029    17.4262     2.2120     0.0250      0.046      0.262      0.379        105 2.5276e+02   996.2653 0.0000e+00
      0.286    27.9597     7.3680     94.067  38.572449     36.415      8.245   182.1571    17.4224     2.2120     0.0250      0.055      0.282      0.409        106 2.4630e+02   996.2653 0.0000e+00
      0.310    27.9578     7.3643     94.019  38.524668     36.365      8.232   182.6493    17.4224     2.2265     0.0250      0.067      0.301      0.436        107 2.3689e+02   996.2661 0.0000e+00
      0.323    27.9546     7.3364     93.662  38.413476     36.261      8.228   182.6871    17.4262     2.2409     0.0249      0.074      0.316      0.457        108 2.3516e+02   996.2669 0.0000e+00
      0.333    27.9523     7.2866     93.024  38.473732     36.315      8.232   183.1036    17.6856     2.1976     0.0249      0.074      0.326      0.473        109 2.3078e+02   996.2675 0.0000e+00
      0.342    27.9505     7.2205     92.179  38.420044     36.291      8.235   183.5579    17.7009     2.1832     0.0249      0.070      0.334      0.484        110 2.2785e+02   996.2684 0.0000e+00
      0.344    27.9499     7.1407     91.160  38.302466     36.134      8.238   183.8607    17.6551     2.1688     0.0249      0.062      0.340      0.493        111 2.2774e+02   996.2691 0.0000e+00
      0.351    27.9504     7.0569     90.090  38.442235     36.320      8.248   183.6336    17.6589     2.2120     0.0249      0.051      0.351      0.508        112 2.2107e+02   996.2697 0.0000e+00
      0.376    27.9523     6.9758     89.053  38.542477     36.373      8.248   184.9207    17.9222     2.1976     0.0250      0.047      0.371      0.538        113 2.0852e+02   996.2700 0.0000e+00
      0.407    27.9565     6.9013     88.102  38.562999     36.425      8.251   185.4886    17.8955     2.1399     0.0250      0.049      0.395      0.573        114 1.9892e+02   996.2699 0.0000e+00
      0.424    27.9574     6.8384     87.301  38.505606     36.345      8.241   185.2614    17.9336     2.2697     0.0249      0.052      0.413      0.599        115 1.9606e+02   996.2694 0.0000e+00
      0.433    27.9559     6.7877     86.656  38.465715     36.315      8.242   185.5643    17.9145     2.1976     0.0249      0.057      0.427      0.619        116 1.9171e+02   996.2683 0.0000e+00
      0.450    27.9554     6.7465     86.131  38.523731     36.368      8.246   185.8293    17.8993     2.1976     0.0250      0.062      0.442      0.641        117 1.8292e+02   996.2681 0.0000e+00
      0.470    27.9544     6.7245     85.848  38.522317     36.369      8.247   186.4729    17.7429     2.1688     0.0250      0.068      0.461      0.668        118 1.7679e+02   996.2686 0.0000e+00
      0.489    27.9535     6.7188     85.772  38.467476     36.316      8.252   186.6243    17.7314     2.2697     0.0249      0.073      0.479      0.694        119 1.7014e+02   996.2688 0.0000e+00
      0.505    27.9532     6.7219     85.810  38.414160     36.264      8.253   186.7000    17.7200     2.1399     0.0249      0.072      0.494      0.716        120 1.6542e+02   996.2692 0.0000e+00
      0.516    27.9529     6.7152     85.723  38.381209     36.239      8.258   187.0407    17.7314     2.2409     0.0249      0.067      0.506      0.734        121 1.6133e+02   996.2695 0.0000e+00
      0.528    27.9520     6.6982     85.505  38.360295     36.212      8.260   187.3814    17.7314     2.1688     0.0249      0.062      0.517      0.750        122 1.5660e+02   996.2696 0.0000e+00
      0.536    27.9517     6.6643     85.072  38.262364     36.134      8.260   187.6843    17.7429     2.2841     0.0249      0.059      0.526      0.763        123 1.5454e+02   996.2697 0.0000e+00
      0.544    27.9522     6.6193     84.498  38.236353     36.081      8.262   187.5329    17.7276     2.2553     0.0248      0.055      0.535      0.776        124 1.5131e+02   996.2700 0.0000e+00
      0.556    27.9531     6.5654     83.812  38.333395     36.214      8.265   188.0250    17.7162     2.1688     0.0249      0.050      0.546      0.791        125 1.4772e+02   996.2702 0.0000e+00
      0.570    27.9542     6.5089     83.091  38.349056     36.187      8.265   188.2522    17.6055     1.9381     0.0249      0.046      0.559      0.810        126 1.4483e+02   996.2701 0.0000e+00
      0.582    27.9547     6.4533     82.385  38.335408     36.213      8.272   188.2900    17.6017     2.0102     0.0249      0.043      0.573      0.830        127 1.4148e+02   996.2698 0.0000e+00
      0.600    27.9536     6.4084     81.813  38.291103     36.133      8.274   188.2522    17.6017     1.9813     0.0249      0.045      0.588      0.852        128 1.3746e+02   996.2696 0.0000e+00
      0.616    27.9515     6.3758     81.397  38.344918     36.211      8.277   188.7443    17.6017     2.1111     0.0249      0.048      0.603      0.876        129 1.3439e+02   996.2696 0.0000e+00
      0.632    27.9504     6.3591     81.185  38.416622     36.265      8.275   188.6686    17.4224     2.1976     0.0249      0.052      0.618      0.896        130 1.3226e+02   996.2700 0.0000e+00
      0.642    27.9498     6.3527     81.103  38.320419     36.187      8.272   189.0850    17.4148     2.2697     0.0249      0.055      0.628      0.910        131 1.3006e+02   996.2705 0.0000e+00
      0.647    27.9492     6.3480     81.042  38.168273     36.030      8.274   188.8957    17.4377     2.2553     0.0248      0.054      0.635      0.920        132 1.2816e+02   996.2708 0.0000e+00
      0.653    27.9491     6.3291     80.800  38.102139     35.977      8.278   189.4636    17.4224     2.2986     0.0248      0.050      0.640      0.928        133 1.2704e+02   996.2710 0.0000e+00
      0.657    27.9494     6.3264     80.763  38.106356     35.978      8.284   189.3122    17.4911     2.0534     0.0248      0.045      0.647      0.938        134 1.2525e+02   996.2712 0.0000e+00
      0.669    27.9502     6.2978     80.398  38.103753     35.978      8.287   190.0315    17.4568     1.9525     0.0248      0.040      0.657      0.952        135 1.2192e+02   996.2713 0.0000e+00
      0.681    27.9513     6.2657     79.988  38.105379     35.978      8.287   190.0315    17.5102     2.0102     0.0248      0.035      0.667      0.967        136 1.2054e+02   996.2713 0.0000e+00
      0.691    27.9528     6.2255     79.474  38.133969     36.003      8.292   189.9557    17.4987     2.0102     0.0248      0.033      0.678      0.984        137 1.1817e+02   996.2711 0.0000e+00
      0.706    27.9542     6.1825     78.926  38.097808     35.976      8.290   190.2207    17.0944     2.2120     0.0248      0.034      0.692      1.004        138 1.1542e+02   996.2708 0.0000e+00
      0.721    27.9545     6.1385     78.364  38.120743     35.975      8.291   190.1829    17.0524     2.1976     0.0248      0.039      0.708      1.027        139 1.1343e+02   996.2704 0.0000e+00
      0.741    27.9550     6.0957     77.819  38.194337     36.080      8.293   190.6750    17.0524     2.2553     0.0248      0.046      0.725      1.052        140 1.1066e+02   996.2702 0.0000e+00
      0.755    27.9547     6.0464     77.188  38.184042     36.027      8.292   190.7507    17.0524     2.1976     0.0248      0.051      0.740      1.074        141 1.0872e+02   996.2702 0.0000e+00
      0.768    27.9539     6.0266     76.935  38.192827     36.079      8.291   191.0157    17.0524     2.1255     0.0248      0.056      0.754      1.093        142 1.0625e+02   996.2701 0.0000e+00
      0.781    27.9537     6.0019     76.617  38.124131     35.974      8.293   191.3186    17.6856     2.1688     0.0248      0.057      0.765      1.108        143 1.0508e+02   996.2703 0.0000e+00
      0.788    27.9526     5.9869     76.421  38.091716     35.975      8.294   191.0157    17.6704     2.2409     0.0248      0.056      0.773      1.121        144 1.0342e+02   996.2705 0.0000e+00
      0.796    27.9523     5.9847     76.390  38.114621     35.975      8.293   191.1672    17.6589     2.1688     0.0248      0.053      0.780      1.131        145 1.0196e+02   996.2705 0.0000e+00
      0.802    27.9519     5.9884     76.434  38.095625     35.976      8.294   191.5079    17.6933     2.2265     0.0248      0.048      0.788      1.143        146 1.0107e+02   996.2708 0.0000e+00
      0.813    27.9515     5.9910     76.462  38.115356     35.976      8.300   191.5079    17.9260     2.2986     0.0248      0.043      0.798      1.157        147 9.8798e+01   996.2710 0.0000e+00
      0.825    27.9521     5.9889     76.430  38.119703     36.002      8.302   191.7350    17.9222     2.1688     0.0248      0.039      0.808      1.171        148 9.8180e+01   996.2711 0.0000e+00
      0.832    27.9523     5.9782     76.289  38.060579     35.924      8.307   192.0757    17.9298     2.2265     0.0248      0.036      0.818      1.186        149 9.6843e+01   996.2713 0.0000e+00
      0.845    27.9524     5.9600     76.055  38.040752     35.923      8.309   192.0000    17.9031     2.1832     0.0248      0.036      0.828      1.201        150 9.5492e+01   996.2712 0.0000e+00
      0.855    27.9518     5.9364     75.755  38.055467     35.923      8.312   192.0757    17.6170     2.2841     0.0248      0.037      0.840      1.219        151 9.4599e+01   996.2712 0.0000e+00
      0.872    27.9507     5.8999     75.289  38.101540     35.976      8.313   192.4922    17.6208     2.1976     0.0248      0.040      0.854      1.239        152 9.2362e+01   996.2712 0.0000e+00
      0.886    27.9490     5.8641     74.832  38.131599     36.002      8.311   192.5300    17.6284     2.2986     0.0248      0.044      0.867      1.259        153 9.1865e+01   996.2715 0.0000e+00
      0.897    27.9464     5.8262     74.349  38.106970     35.977      8.311   192.6436    17.6284     2.1976     0.0248      0.046      0.882      1.279        154 9.0336e+01   996.2719 0.0000e+00
      0.917    27.9444     5.7979     73.987  38.102554     35.978      8.309   193.0600    17.0753     2.1976     0.0248      0.050      0.898      1.303        155 8.8401e+01   996.2724 0.0000e+00
      0.932    27.9414     5.7718     73.651  38.107458     35.980      8.307   193.2493    17.0791     2.2409     0.0248      0.053      0.913      1.324        156 8.7700e+01   996.2733 0.0000e+00
      0.944    27.9374     5.7609     73.504  38.100869     35.981      8.309   193.2115    17.0715     2.2409     0.0248      0.056      0.926      1.343        157 8.6157e+01   996.2738 0.0000e+00
      0.956    27.9337     5.7616     73.504  38.051484     35.930      8.312   193.4765    17.0791     2.1976     0.0248      0.056      0.936      1.358        158 8.5517e+01   996.2747 0.0000e+00
      0.962    27.9310     5.7805     73.731  38.080009     35.959      8.315   194.0443    16.4458     2.1688     0.0248      0.054      0.944      1.370        159 8.4638e+01   996.2759 0.0000e+00
      0.972    27.9295     5.8080     74.065  38.095008     35.988      8.319   193.8929    16.4802     2.1688     0.0248      0.051      0.952      1.382        160 8.3605e+01   996.2770 0.0000e+00
      0.980    27.9293     5.8552     74.648  38.003183     35.885      8.321   194.2715    16.4802     2.1688     0.0248      0.047      0.961      1.394        161 8.2786e+01   996.2778 0.0000e+00
      0.987    27.9295     5.9107     75.334  37.986831     35.886      8.326   194.0065    16.4573     2.1976     0.0248      0.043      0.969      1.405        162 8.1933e+01   996.2782 0.0000e+00
      0.997    27.9298     5.9838     76.240  37.996813     35.886      8.327   194.0443    16.4344     2.1688     0.0248      0.037      0.978      1.418        163 8.1426e+01   996.2783 0.0000e+00
      1.006    27.9297     6.0719     77.336  38.020396     35.912      8.333   194.0065    16.3429     2.1976     0.0248      0.035      0.988      1.433        164 8.0583e+01   996.2783 0.0000e+00
      1.021    27.9292     6.1577     78.393  38.046390     35.938      8.334   194.3850    16.3276     2.1832     0.0248      0.035      1.000      1.451        165 7.9496e+01   996.2783 0.0000e+00
      1.034    27.9270     6.2322     79.300  38.053374     35.938      8.335   194.4229    16.3352     2.1399     0.0248      0.037      1.014      1.471        166 7.8523e+01   996.2784 0.0000e+00
      1.047    27.9214     6.2826     79.909  38.041343     35.939      8.337   194.6879    16.3581     2.1688     0.0248      0.041      1.029      1.492        167 7.7728e+01   996.2786 0.0000e+00
      1.067    27.9137     6.3020     80.126  38.061362     35.940      8.339   194.8393    16.4573     2.1544     0.0248      0.046      1.045      1.516        168 7.6374e+01   996.2793 0.0000e+00
      1.083    27.9038     6.3093     80.199  38.117370     36.023      8.339   195.0665    16.4649     2.1399     0.0248      0.051      1.062      1.541        169 7.5067e+01   996.2809 0.0000e+00
      1.102    27.8910     6.2940     79.985  38.119828     36.002      8.341   195.0286    16.4458     2.1976     0.0248      0.057      1.080      1.566        170 7.3802e+01   996.2832 0.0000e+00
      1.119    27.8766     6.3309     80.371  38.147217     36.062      8.340   195.5965    16.4573     2.2553     0.0248      0.061      1.097      1.591        171 7.2315e+01   996.2862 0.0000e+00
      1.136    27.8607     6.7101     84.993  38.172199     36.070      8.339   195.5586    16.3810     2.2553     0.0248      0.065      1.114      1.616        172 7.1258e+01   996.2899 0.0000e+00
      1.153    27.8414     7.4877     94.687  38.207292     36.133      8.335   195.8993    16.4153     2.2841     0.0248      0.066      1.132      1.642        173 6.9662e+01   996.2940 0.0000e+00
      1.174    27.8216     8.4151    106.315  38.281375     36.196      8.331   195.8993    16.4306     2.1688     0.0249      0.069      1.152      1.671        174 6.8124e+01   996.2986 0.0000e+00
      1.197    27.7961     9.1670    115.760  38.317109     36.263      8.325   196.1265    16.3924     2.1399     0.0249      0.072      1.173      1.701        175 6.6621e+01   996.3042 0.0000e+00
      1.216    27.7672     9.7572    123.181  38.281379     36.223      8.320   197.3000    17.0600     2.3562     0.0249      0.073      1.192      1.729        176 6.5123e+01   996.3098 0.0000e+00
      1.234    27.7435    10.1659    128.323  38.207304     36.188      8.311   197.4515    17.0715     2.4572     0.0248      0.075      1.209      1.753        177 6.4652e+01   996.3171 0.0000e+00
      1.247    27.7234    10.4030    131.305  38.231485     36.208      8.310   197.6786    17.0715     2.3851     0.0248      0.074      1.225      1.777        178 6.3365e+01   996.3253 0.0000e+00
      1.269    27.7085    10.4673    132.107  38.251301     36.277      8.304   197.9058    17.0715     2.4860     0.0249      0.074      1.242      1.802        179 6.2312e+01   996.3321 0.0000e+00
      1.284    27.6957    10.3498    130.611  38.153023     36.159      8.296   197.9815    17.9031     2.2120     0.0248      0.073      1.257      1.823        180 6.2232e+01   996.3378 0.0000e+00
      1.291    27.6340    10.1352    127.893  38.087071     36.142      8.297   197.8300    17.9107     2.1399     0.0248      0.069      1.267      1.839        181 6.1694e+01   996.3420 0.0000e+00
      1.304    27.5131     9.9315    125.321  38.007381     36.045      8.303   197.8679    17.9374     2.1832     0.0248      0.064      1.281      1.858        182 6.0743e+01   996.3457 0.0000e+00
      1.324    27.4178     9.7775    123.379  37.926205     36.032      8.307   198.2086    17.9222     2.1976     0.0247      0.061      1.297      1.881        183 5.9806e+01   996.3631 0.0000e+00
      1.338    27.3672     9.6639    121.945  37.951034     36.119      8.307   198.3222    17.9107     2.1832     0.0247      0.058      1.311      1.901        184 5.9438e+01   996.3970 0.0000e+00
      1.346    27.3391     9.5847    120.928  38.035809     36.289      8.309   198.4736    17.6093     2.4283     0.0248      0.056      1.322      1.918        185 5.8532e+01   996.4238 0.0000e+00
      1.363    27.3255     9.5211    119.979  37.968934     36.245      8.309   198.9658    17.6055     2.4860     0.0248      0.055      1.336      1.938        186 5.7540e+01   996.4380 0.0000e+00
      1.377    27.3172     9.4690    119.176  37.886105     36.184      8.311   199.1929    17.6170     2.5293     0.0247      0.053      1.351      1.960        187 5.6575e+01   996.4458 0.0000e+00
      1.395    27.3132     9.4197    118.262  37.931451     36.247      8.310   199.4579    17.6513     2.3851     0.0248      0.055      1.367      1.983        188 5.5480e+01   996.4496 0.0000e+00
      1.410    27.3083     9.3240    116.594  37.942148     36.252      8.307   199.6093    18.1472     2.4572     0.0248      0.057      1.383      2.006        189 5.4402e+01   996.4520 0.0000e+00
      1.426    27.3035     9.1439    114.005  37.932069     36.255      8.308   200.7072    18.1587     2.4860     0.0248      0.058      1.400      2.030        190 5.2906e+01   996.4533 0.0000e+00
      1.447    27.2986     8.9318    111.153  37.914359     36.232      8.306   200.9722    18.1434     2.3274     0.0247      0.060      1.417      2.055        191 5.2137e+01   996.4547 0.0000e+00
      1.459    27.2990     8.6869    107.921  37.875281     36.209      8.303   201.0479    18.1510     2.3418     0.0247      0.062      1.433      2.080        192 5.0933e+01   996.4560 0.0000e+00
      1.482    27.2976     8.4359    104.630  37.891795     36.212      8.300   201.0101    18.9865     2.4860     0.0247      0.065      1.451      2.105        193 4.9536e+01   996.4575 0.0000e+00
      1.497    27.3002     8.2063    101.632  37.864173     36.212      8.297   201.3129    18.9865     2.4428     0.0247      0.066      1.467      2.128        194 4.9134e+01   996.4575 0.0000e+00
      1.508    27.2868     8.0347     99.407  37.820747     36.132      8.296   201.5022    19.0094     2.4283     0.0247      0.066      1.484      2.153        195 4.7880e+01   996.4579 0.0000e+00
      1.537    27.2243     7.9359     98.159  37.708748     36.079      8.297   202.3729    19.0361     2.4572     0.0247      0.068      1.507      2.186        196 4.6022e+01   996.4573 0.0000e+00
      1.564    27.1513     7.9104     97.868  37.292295     35.630      8.291   202.8651    19.4137     2.4572     0.0245      0.072      1.532      2.222        197 4.5170e+01   996.4610 0.0000e+00
      1.583    27.0122     7.9352     98.177  37.212868     35.623      8.291   203.3194    19.4099     2.3851     0.0245      0.076      1.557      2.259        198 4.3724e+01   996.4784 0.0000e+00
      1.620    26.7946     7.9884     98.815  37.689077     36.126      8.281   204.7958    19.4175     2.3995     0.0247      0.083      1.586      2.301        199 4.1918e+01   996.4989 0.0000e+00
      1.648    26.6288     8.0621     99.662  37.914775     36.463      8.272   205.6286    19.4137     2.4572     0.0248      0.091      1.611      2.338        200 4.1417e+01   996.5374 0.0000e+00
      1.660    26.5243     8.1196    100.360  37.969326     36.620      8.272   206.3858    20.3026     2.4283     0.0248      0.094      1.631      2.366        201 4.0554e+01   996.5972 0.0000e+00
      1.685    26.4300     8.1655    100.983  38.154745     36.980      8.267   206.9158    20.3293     2.4572     0.0249      0.097      1.653      2.398        202 3.9156e+01   996.6426 0.0000e+00
      1.713    26.3390     8.2103    101.424  38.128660     36.973      8.260   207.4836    20.2949     2.4283     0.0249      0.099      1.678      2.433        203 3.8366e+01   996.6710 0.0000e+00
      1.735    26.2580     8.2330    101.411  38.090759     37.041      8.251   207.7486    20.2949     2.4716     0.0249      0.097      1.702      2.467        204 3.7318e+01   996.6966 0.0000e+00
      1.758    26.2020     8.2430    101.247  38.053780     37.052      8.248   211.9508    20.2873     2.3274     0.0248      0.095      1.722      2.496        205 3.6702e+01   996.7212 0.0000e+00
      1.772    26.1884     8.2485    100.942  37.996907     37.057      8.239   212.8594    22.5533     2.5725     0.0248      0.091      1.739      2.521        206 3.6207e+01   996.7430 0.0000e+00
      1.790    26.2002     8.2431    100.498  37.983757     37.097      8.233   212.3672    22.5571     2.5437     0.0248      0.085      1.758      2.549        207 3.4979e+01   996.7581 0.0000e+00
      1.817    26.2031     8.2423    100.175  37.921988     37.026      8.222   215.0551    22.5609     2.6446     0.0248      0.084      1.778      2.579        208 3.4341e+01   996.7619 0.0000e+00
      1.832    26.1895     8.2448     99.994  37.984877     37.097      8.211   214.9037    22.5685     2.4860     0.0248      0.083      1.795      2.604        209 3.3863e+01   996.7588 0.0000e+00
      1.844    26.1562     8.2391     99.727  37.994402     37.096      8.203   215.3580    22.3473     2.5725     0.0248      0.078      1.808      2.622        210 3.3553e+01   996.7580 0.0000e+00
      1.854    26.1497     8.2091     99.222  37.880498     36.996      8.196   216.7965    22.3473     2.6735     0.0248      0.071      1.821      2.641        211 3.3115e+01   996.7617 0.0000e+00
      1.873    26.1772     8.1771     98.710  37.889544     37.021      8.190   218.9165    22.3358     2.5293     0.0248      0.067      1.839      2.667        212 3.2069e+01   996.7707 0.0000e+00
      1.899    26.1140     8.1535     98.267  37.894247     37.054      8.182   219.6358    22.3396     2.6879     0.0248      0.067      1.863      2.702        213 3.1209e+01   996.7725 0.0000e+00
      1.926    25.9617     8.1092     97.698  37.815375     36.923      8.172   219.7115    22.8890     2.6735     0.0247      0.071      1.891      2.743        214 3.0129e+01   996.7654 0.0000e+00
      1.962    25.7993     8.0956     97.510  37.780245     36.967      8.158   219.7494    22.8966     2.5870     0.0247      0.077      1.920      2.785        215 2.9227e+01   996.7824 0.0000e+00
      1.984    25.6029     8.1076     97.537  37.641636     36.918      8.151   219.7873    22.8852     2.6014     0.0247      0.083      1.944      2.819        216 2.8774e+01   996.8230 0.0000e+00
      2.000    25.3944     8.1204     97.648  37.513762     36.921      8.142   221.6801    22.8775     2.5437     0.0246      0.089      1.962      2.845        217 2.8014e+01   996.8660 0.0000e+00
      2.019    25.2279     8.1945     98.288  37.376385     36.931      8.136   221.6801    24.2814     3.0772     0.0246      0.093      1.978      2.869        218 2.7580e+01   996.9176 0.0000e+00
      2.032    25.1082     8.2772     99.076  37.279253     36.970      8.130   222.7401    24.3233     3.0051     0.0246      0.092      1.993      2.891        219 2.7257e+01   996.9722 0.0000e+00
      2.047    25.0042     8.4346    100.863  37.130935     36.985      8.126   223.9516    24.2890     3.0051     0.0245      0.086      2.007      2.911        220 2.6597e+01   997.0154 0.0000e+00
      2.062    24.9254     8.7312    104.329  36.879434     36.763      8.123   223.6866    24.3004     3.1493     0.0244      0.078      2.020      2.930        221 2.6396e+01   997.0463 0.0000e+00
      2.070    24.8551     9.1547    109.254  36.821789     36.842      8.117   224.9737    24.4225     3.5098     0.0244      0.067      2.031      2.946        222 2.6255e+01   997.0730 0.0000e+00
      2.081    24.7706     9.6243    114.624  36.758198     36.787      8.112   226.3744    24.4111     3.3945     0.0244      0.058      2.044      2.963        223 2.5708e+01   997.0932 0.0000e+00
      2.100    24.7521     9.9939    118.723  36.751170     36.866      8.108   225.8444    24.4225     3.4089     0.0244      0.055      2.059      2.987        224 2.5119e+01   997.1113 0.0000e+00
      2.118    24.7308    10.2782    121.625  36.860210     37.015      8.108   227.0937    24.4378     3.5675     0.0244      0.055      2.077      3.012        225 2.4534e+01   997.1329 0.0000e+00
      2.136    24.6789    10.4710    123.464  36.829979     37.029      8.099   226.9423    24.4187     3.5242     0.0244      0.056      2.093      3.036        226 2.4355e+01   997.1377 0.0000e+00
      2.147    24.6391    10.5961    124.653  36.818445     36.983      8.096   228.9866    24.4034     3.7261     0.0244      0.057      2.109      3.059        227 2.3795e+01   997.1432 0.0000e+00
      2.171    24.5155    10.6530    125.088  36.637497     36.919      8.088   229.6680    24.4263     3.6973     0.0244      0.060      2.130      3.089        228 2.2867e+01   997.1563 0.0000e+00
      2.198    24.3986    10.6508    124.864  36.195782     36.402      8.083   230.0466    24.4378     3.7261     0.0241      0.066      2.153      3.122        229 2.2373e+01   997.1664 0.0000e+00
      2.217    24.3485    10.6093    124.231  36.034634     36.419      8.078   230.3873    24.4416     3.6973     0.0241      0.072      2.172      3.151        230 2.1867e+01   997.1977 0.0000e+00
      2.230    24.3055    10.5731    123.433  36.067603     36.472      8.071   231.4094    23.9190     3.6829     0.0241      0.075      2.187      3.172        231 2.1446e+01   997.2271 0.0000e+00
      2.244    24.2376    10.5308    122.617  36.125170     36.624      8.069   231.9016    23.9380     3.7117     0.0241      0.073      2.201      3.192        232 2.0892e+01   997.2397 0.0000e+00
      2.259    24.1315    10.4596    121.589  36.170464     36.655      8.064   231.8259    23.9266     3.6829     0.0241      0.072      2.215      3.211        233 2.0550e+01   997.2506 0.0000e+00
      2.270    23.9901    10.2884    119.463  36.070529     36.648      8.060   232.3937    23.9609     3.7405     0.0241      0.069      2.228      3.231        234 2.0234e+01   997.2675 0.0000e+00
      2.287    23.7872    10.0158    116.172  35.923599     36.530      8.059   233.1130    23.3887     3.6829     0.0241      0.066      2.244      3.254        235 1.9530e+01   997.2939 0.0000e+00
      2.308    23.5951     9.6972    112.380  35.879226     36.632      8.055   233.0373    23.4116     3.7838     0.0241      0.062      2.260      3.279        236 1.9156e+01   997.3289 0.0000e+00
      2.318    23.4741     9.3020    107.796  35.859118     36.731      8.054   232.5451    23.4230     3.6540     0.0240      0.058      2.275      3.300        237 1.8808e+01   997.3788 0.0000e+00
      2.335    23.3713     8.8554    102.553  35.830179     36.875      8.050   234.0216    23.3963     3.7694     0.0240      0.058      2.292      3.325        238 1.7993e+01   997.4257 0.0000e+00
      2.361    23.2940     8.4385     97.350  35.974597     37.083      8.046   233.7566    22.0955     3.7550     0.0241      0.062      2.313      3.355        239 1.7681e+01   997.4552 0.0000e+00
      2.377    23.2209     8.0567     92.528  35.916531     37.159      8.042   233.4916    22.1069     3.5963     0.0241      0.065      2.335      3.387        240 1.7116e+01   997.4801 0.0000e+00
      2.408    23.0711     7.7048     88.070  36.080295     37.282      8.038   235.2709    22.0955     3.8126     0.0241      0.071      2.360      3.423        241 1.6073e+01   997.4989 0.0000e+00
      2.435    22.9279     7.1728     81.473  36.541329     37.967      8.030   235.6116    22.1184     3.7405     0.0244      0.079      2.384      3.456        242 1.5809e+01   997.5166 0.0000e+00
      2.446    22.8443     6.4273     72.616  36.587471     37.977      8.028   236.2173    19.8524     3.2935     0.0244      0.081      2.401      3.480        243 1.5549e+01   997.5524 0.0000e+00
      2.462    22.7823     5.4367     61.230  36.734165     38.378      8.025   236.5959    19.8677     3.2647     0.0245      0.082      2.416      3.503        244 1.5058e+01   997.5865 0.0000e+00
      2.481    22.7271     4.1455     46.540  37.099716     38.710      8.020   237.0123    19.8562     3.2647     0.0246      0.083      2.432      3.527        245 1.4772e+01   997.6064 0.0000e+00
      2.494    22.6812     2.8626     32.108  37.406921     39.196      8.016   236.8609    19.8524     3.2791     0.0248      0.079      2.447      3.549        246 1.4541e+01   997.6213 0.0000e+00
      2.510    22.6812     1.6600     18.629  37.418772     39.156      8.011   237.9209    19.8448     3.2503     0.0247      0.074      2.466      3.576        247 1.3905e+01   997.6343 0.0000e+00
      2.541    22.6378     0.6275      7.046  36.996088     38.841      8.006   237.8830    19.3412     3.0772     0.0246      0.073      2.490      3.610        248 1.3420e+01   997.6450 0.0000e+00
      2.562    22.4448    -0.1284     -1.443  37.577334     39.282      8.002   239.0945    19.3832     3.1493     0.0248      0.072      2.513      3.644        249 1.3090e+01   997.6452 0.0000e+00
      2.583    22.2083    -0.6043     -6.789  38.414358     40.483      7.996   239.6245    19.3527     3.1493     0.0253      0.074      2.534      3.675        250 1.2666e+01   997.6558 0.0000e+00
      2.605    21.9602    -0.7661     -8.581  39.036703     40.920      7.991   240.1166    19.3565     3.0051     0.0254      0.079      2.559      3.711        251 1.2175e+01   997.7010 0.0000e+00
      2.641    21.6357    -0.6880     -7.674  39.648172     42.247      7.984   241.3280    18.2693     3.0340     0.0259      0.086      2.591      3.759        252 1.1394e+01   997.7558 0.0000e+00
      2.682    21.3652    -0.5055     -5.611  41.506656     43.807      7.975   243.3723    18.2807     2.9763     0.0265      0.097      2.625      3.807        253 1.1025e+01   997.8132 0.0000e+00
      2.704    21.1921    -0.3031     -3.352  42.533674     46.150      7.963   243.8645    18.2655     3.0051     0.0274      0.105      2.650      3.843        254 1.0861e+01   997.8866 0.0000e+00
      2.720    21.0399    -0.1438     -1.588  43.350151     46.033      7.957   244.7352    18.3151     3.1349     0.0272      0.106      2.667      3.868        255 1.0554e+01   997.9472 0.0000e+00
      2.736    20.9880    -0.0701     -0.775  47.042628     51.608      7.947   244.6973    16.4573     3.4089     0.0296      0.103      2.681      3.888        256 1.0487e+01   997.9866 0.0000e+00
      2.744    21.0112    -0.0308     -0.341  45.587544     49.150      7.936   245.0759    16.4802     3.4666     0.0285      0.097      2.693      3.906        257 1.0313e+01   998.0193 0.0000e+00
      2.759    21.0430    -0.0140     -0.155  45.427562     49.321      7.928   245.7952    16.4611     3.4377     0.0285      0.088      2.707      3.926        258 1.0033e+01   998.0305 0.0000e+00
      2.778    21.0954    -0.0442     -0.490  48.220257     52.696      7.919   246.4388    16.4611     3.4377     0.0300      0.078      2.726      3.953        259 9.7712e+00   998.0265 0.0000e+00
      2.802    21.0644    -0.0464     -0.514  48.694409     52.481      7.910   246.5523    17.3652     3.6252     0.0299      0.069      2.749      3.986        260 9.5028e+00   998.0200 0.0000e+00
      2.827    20.9132 -9.990e-29 -9.990e-29  51.479664     56.175      7.902   246.5145    17.3499     3.6540     0.0315      0.066      2.775      4.024        261 9.2127e+00   998.0096 0.0000e+00
      2.860    20.6972 -9.990e-29 -9.990e-29  60.621899     65.101      7.883   247.3852    17.3576     3.6829     0.0354      0.072      2.803      4.065        262 8.8348e+00   998.0198 0.0000e+00
      2.888    20.4551 -9.990e-29 -9.990e-29  75.295288     82.681      7.860   247.3473    17.3614     3.7838     0.0431      0.082      2.826      4.099        263 8.7313e+00   998.0582 0.0000e+00
      2.895    20.2730 -9.990e-29 -9.990e-29  81.775377     89.283      7.842   248.5588    15.5799     4.3750     0.0460      0.086      2.837      4.115        264 8.6866e+00   998.1071 0.0000e+00
      2.897    20.2012 -9.990e-29 -9.990e-29  80.790475     88.997      7.819   248.2938    15.6104     4.3462     0.0458      0.085      2.841      4.120        265 8.6496e+00   998.1583 0.0000e+00
      2.900    20.2047 -9.990e-29 -9.990e-29  80.411293     88.673      7.799   248.2559    15.5799     4.4183     0.0456      0.076      2.844      4.124        266 8.6702e+00   998.1966 0.0000e+00
      2.902    20.2496 -9.990e-29 -9.990e-29  80.198146     88.815      7.781   247.8773    15.5952     4.3462     0.0456      0.063      2.846      4.128        267 8.6411e+00   998.2115 0.0000e+00
      2.904    20.3103 -9.990e-29 -9.990e-29  78.650240     86.979      7.767   247.2338    28.3670     5.9900     0.0448      0.047      2.848      4.131        268 8.6304e+00   998.2102 0.0000e+00
      2.906    20.3517 -9.990e-29 -9.990e-29  76.220097     84.173      7.748   247.5366    28.3784     5.9756     0.0436      0.032      2.850      4.133        269 8.6420e+00   998.1999 0.0000e+00
      2.907    20.3635 -9.990e-29 -9.990e-29  75.026461     82.791      7.735   247.2338    28.3555     5.9756     0.0430      0.018      2.851      4.135        270 8.6543e+00   998.1868 0.0000e+00
      2.908 -9.990e-29 -9.990e-29 -9.990e-29  73.484413     81.052      7.720   247.1202    28.3898     6.0189     0.0422      0.009      2.851      4.136        271 8.6446e+00   998.1775 0.0000e+00
      2.909 -9.990e-29 -9.990e-29 -9.990e-29  72.290107     79.549      7.709   247.3095    28.3822     6.0044     0.0415      0.007      2.851      4.136        272 8.6460e+00   998.1745 0.0000e+00
