* Sea-Bird SBE19plus  Data File:
* FileName = C:\DATA\072318_fcr50_0005.hex
* Software version 2.6.3.104 SB_Terminal.dll
* Temperature SN = 7809
* Conductivity SN = 7809
* System UpLoad Time = Jul 23 2018 15:34:17
* <ApplicationData>
* <Seaterm232>
* <SoftwareVersion>2.6.3.104</SoftwareVersion>
* <BuildDate>30-Jun-2017</BuildDate>
* </Seaterm232>
* </ApplicationData>
* cast   5 23 Jul 2018 14:24:47 samples 3813 to 4477, avg = 1, stop = mag switch
# nquan = 15
# nvalues = 525                         
# units = specified
# name 0 = depFM: Depth [fresh water, m]
# name 1 = dz/dtM: Descent Rate [m/s]
# name 2 = sbeox0Mg/L: Oxygen, SBE 43 [mg/l]
# name 3 = sbeox0PS: Oxygen, SBE 43 [% saturation]
# name 4 = specc: Specific Conductance [uS/cm]
# name 5 = c0uS/cm: Conductivity [uS/cm]
# name 6 = flECO-AFL: Fluorescence, WET Labs ECO-AFL/FL [mg/m^3]
# name 7 = ph: pH
# name 8 = orp: Oxidation Reduction Potential [mV]
# name 9 = par/sat/log: PAR/Logarithmic, Satlantic
# name 10 = turbWETntu0: Turbidity, WET Labs ECO [NTU]
# name 11 = prdM: Pressure, Strain Gauge [db]
# name 12 = prdE: Pressure, Strain Gauge [psi]
# name 13 = tv290C: Temperature [ITS-90, deg C]
# name 14 = flag:  0.000e+00
# span 0 =     -0.621,      3.599       
# span 1 =     -0.105,      0.108       
# span 2 =    -0.3512,     9.8168       
# span 3 =     -3.841,    119.047       
# span 4 =      0.756,    391.620       
# span 5 =   0.734339, 312.275128       
# span 6 =    -0.1980,    13.5036       
# span 7 =      6.739,      8.476       
# span 8 =   112.3033,   337.5290       
# span 9 = 6.0589e-01, 1.5307e+02       
# span 10 =    -0.2389,    17.0521      
# span 11 =     -0.610,      3.530      
# span 12 =     -0.885,      5.120      
# span 13 =    14.8276,    25.1292      
# span 14 = 0.0000e+00, 0.0000e+00      
# interval = seconds: 0.25
# start_time = Jul 23 2018 14:24:47 [Instrument's time stamp, header]
# bad_flag = -9.990e-29
# <Sensors count="9" >
#   <sensor Channel="1" >
#     <!-- Count, Temperature -->
#     <TemperatureSensor SensorID="58" >
#       <SerialNumber>7809</SerialNumber>
#       <CalibrationDate>09-Mar-18</CalibrationDate>
#       <A0>1.21093245e-003</A0>
#       <A1>2.84356597e-004</A1>
#       <A2>-1.94507398e-006</A2>
#       <A3>2.12806664e-007</A3>
#       <Slope>1.00000000</Slope>
#       <Offset>0.0000</Offset>
#     </TemperatureSensor>
#   </sensor>
#   <sensor Channel="2" >
#     <!-- Frequency 0, Conductivity -->
#     <ConductivitySensor SensorID="3" >
#       <SerialNumber>7809</SerialNumber>
#       <CalibrationDate>09-Mar-18</CalibrationDate>
#       <UseG_J>1</UseG_J>
#       <!-- Cell const and series R are applicable only for wide range sensors. -->
#       <SeriesR>0.0000</SeriesR>
#       <CellConst>2000.0000</CellConst>
#       <ConductivityType>0</ConductivityType>
#       <Coefficients equation="0" >
#         <A>0.00000000e+000</A>
#         <B>0.00000000e+000</B>
#         <C>0.00000000e+000</C>
#         <D>0.00000000e+000</D>
#         <M>0.0</M>
#         <CPcor>-9.57000000e-008</CPcor>
#       </Coefficients>
#       <Coefficients equation="1" >
#         <G>-1.00672082e+000</G>
#         <H>1.26906489e-001</H>
#         <I>-1.40584351e-004</I>
#         <J>2.47837121e-005</J>
#         <CPcor>-9.57000000e-008</CPcor>
#         <CTcor>3.2500e-006</CTcor>
#         <!-- WBOTC not applicable unless ConductivityType = 1. -->
#         <WBOTC>0.00000000e+000</WBOTC>
#       </Coefficients>
#       <Slope>1.00000000</Slope>
#       <Offset>0.00000</Offset>
#     </ConductivitySensor>
#   </sensor>
#   <sensor Channel="3" >
#     <!-- Count, Pressure, Strain Gauge -->
#     <PressureSensor SensorID="46" >
#       <SerialNumber>7809</SerialNumber>
#       <CalibrationDate>07-Mar-18</CalibrationDate>
#       <PA0>-4.08176359e-002</PA0>
#       <PA1>4.85188419e-004</PA1>
#       <PA2>-3.51168169e-012</PA2>
#       <PTEMPA0>-5.37806900e+001</PTEMPA0>
#       <PTEMPA1>5.36620721e+001</PTEMPA1>
#       <PTEMPA2>4.87214332e-002</PTEMPA2>
#       <PTCA0>5.25213435e+005</PTCA0>
#       <PTCA1>1.79532409e+000</PTCA1>
#       <PTCA2>-2.84353509e-001</PTCA2>
#       <PTCB0>2.51668750e+001</PTCB0>
#       <PTCB1>3.75000000e-004</PTCB1>
#       <PTCB2>0.00000000e+000</PTCB2>
#       <Offset>0.000000</Offset>
#     </PressureSensor>
#   </sensor>
#   <sensor Channel="4" >
#     <!-- A/D voltage 0, pH -->
#     <pH_Sensor SensorID="43" >
#       <SerialNumber>0363</SerialNumber>
#       <CalibrationDate>16-Mar-18</CalibrationDate>
#       <Slope>4.6194</Slope>
#       <Offset>2.5947</Offset>
#     </pH_Sensor>
#   </sensor>
#   <sensor Channel="5" >
#     <!-- A/D voltage 1, Oxidation Reduction Potential -->
#     <OxidationReductionPotentialSensor SensorID="41" >
#       <SerialNumber>0363</SerialNumber>
#       <CalibrationDate>16-Mar-18</CalibrationDate>
#       <B>2.499480</B>
#       <M>-0.496195</M>
#       <Offset>0.0</Offset>
#     </OxidationReductionPotentialSensor>
#   </sensor>
#   <sensor Channel="6" >
#     <!-- A/D voltage 2, Oxygen, SBE 43 -->
#     <OxygenSensor SensorID="38" >
#       <SerialNumber>0434</SerialNumber>
#       <CalibrationDate>13-Mar-18</CalibrationDate>
#       <Use2007Equation>1</Use2007Equation>
#       <CalibrationCoefficients equation="0" >
#         <!-- Coefficients for Owens-Millard equation. -->
#         <Boc>0.0000</Boc>
#         <Soc>0.0000e+000</Soc>
#         <offset>0.0000</offset>
#         <Pcor>0.00e+000</Pcor>
#         <Tcor>0.0000</Tcor>
#         <Tau>0.0</Tau>
#       </CalibrationCoefficients>
#       <CalibrationCoefficients equation="1" >
#         <!-- Coefficients for Sea-Bird equation - SBE calibration in 2007 and later. -->
#         <Soc>4.5718e-001</Soc>
#         <offset>-0.6113</offset>
#         <A>-4.0649e-003</A>
#         <B> 2.0945e-004</B>
#         <C>-3.3182e-006</C>
#         <D0> 2.5826e+000</D0>
#         <D1> 1.92634e-004</D1>
#         <D2>-4.64803e-002</D2>
#         <E> 3.6000e-002</E>
#         <Tau20> 1.2200</Tau20>
#         <H1>-3.3000e-002</H1>
#         <H2> 5.0000e+003</H2>
#         <H3> 1.4500e+003</H3>
#       </CalibrationCoefficients>
#     </OxygenSensor>
#   </sensor>
#   <sensor Channel="7" >
#     <!-- A/D voltage 3, PAR/Logarithmic, Satlantic -->
#     <PARLog_SatlanticSensor SensorID="76" >
#       <SerialNumber>1122</SerialNumber>
#       <CalibrationDate>22-Jun-2017</CalibrationDate>
#       <a0>9.6090e-001</a0>
#       <a1>8.0780e-001</a1>
#       <Im>1.3589e+000</Im>
#       <Multiplier>1.0000e+000</Multiplier>
#     </PARLog_SatlanticSensor>
#   </sensor>
#   <sensor Channel="8" >
#     <!-- A/D voltage 4, Fluorometer, WET Labs ECO-AFL/FL -->
#     <FluoroWetlabECO_AFL_FL_Sensor SensorID="20" >
#       <SerialNumber>FLNTURT-2496</SerialNumber>
#       <CalibrationDate>25-Jan-2017</CalibrationDate>
#       <ScaleFactor>5.30000000e+001</ScaleFactor>
#       <!-- Dark output -->
#       <Vblank>0.0560</Vblank>
#     </FluoroWetlabECO_AFL_FL_Sensor>
#   </sensor>
#   <sensor Channel="9" >
#     <!-- A/D voltage 5, Turbidity Meter, WET Labs, ECO-NTU -->
#     <TurbidityMeter SensorID="67" >
#       <SerialNumber>FLNTURT-2496</SerialNumber>
#       <CalibrationDate>25-Jan-2017</CalibrationDate>
#       <ScaleFactor>176.000000</ScaleFactor>
#       <!-- Dark output -->
#       <DarkVoltage>0.072000</DarkVoltage>
#     </TurbidityMeter>
#   </sensor>
# </Sensors>
# datcnv_date = Jul 23 2018 15:39:15, 7.26.7.114 [datcnv_vars = 14]
# datcnv_in = C:\DATA\072318_fcr20.hex C:\DATA\SBE19plusV2_7809.xmlcon
# datcnv_skipover = 0
# datcnv_ox_hysteresis_correction = yes
# datcnv_ox_tau_correction = yes
# filter_date = Jul 23 2018 15:39:39, 7.26.7.114
# filter_in = C:\DATA\072318_fcr20.cnv
# filter_low_pass_tc_A = 0.030
# filter_low_pass_tc_B = 0.150
# filter_low_pass_A_vars = prdM prdE tv290C
# filter_low_pass_B_vars = depFM dz/dtM sbeox0Mg/L sbeox0PS specc c0uS/cm flECO-AFL ph orp par/sat/log turbWETntu0
# alignctd_date = Jul 23 2018 15:40:00, 7.26.7.114
# alignctd_in = C:\DATA\072318_fcr20.cnv
# alignctd_adv = dz/dtM 1.000, sbeox0Mg/L 1.000, sbeox0PS 1.000, specc 1.000, c0uS/cm 1.000, flECO-AFL 1.000, ph 1.000, orp 1.000, turbWETntu0 1.000                                                                                 
# file_type = ascii
*END*
     -0.620 -3.351e-26     8.4557     99.775      1.365   1.327513    -0.1903      7.330   323.3186 6.1992e+01     0.0201     -0.608     -0.882    23.6609 0.0000e+00
     -0.620 -3.686e-25     8.4581     99.792      1.432   1.393319    -0.1948      7.341   322.1780 6.2354e+01     0.0154     -0.608     -0.882    23.6544 0.0000e+00
     -0.621 -4.054e-24     8.4596     99.797      1.481   1.440396    -0.1967      7.351   320.9184 6.1165e+01     0.0234     -0.609     -0.883    23.6475 0.0000e+00
     -0.621 -4.460e-23     8.4580     99.764      1.494   1.452817    -0.1856      7.361   319.0164 5.8126e+01     0.0239     -0.609     -0.883    23.6425 0.0000e+00
     -0.621 -4.906e-22     8.4578     99.748      1.457   1.416672    -0.1798      7.371   316.7323 5.3996e+01     0.0220     -0.608     -0.882    23.6373 0.0000e+00
     -0.621 -5.396e-21     8.4611     99.772      1.358   1.320444    -0.1827      7.380   315.2410 4.9553e+01     0.0312     -0.609     -0.883    23.6316 0.0000e+00
     -0.620 -5.936e-20     8.4616     99.767      1.211   1.177120    -0.1747      7.379   315.0097 4.7913e+01     0.0137     -0.608     -0.882    23.6246 0.0000e+00
     -0.620 -6.530e-19     8.4580     99.715      1.045   1.015442    -0.1647      7.368   316.0011 4.9324e+01    -0.0068     -0.608     -0.882    23.6173 0.0000e+00
     -0.621 -7.183e-18     8.4534     99.655      0.913   0.887521    -0.1730      7.358   317.0749 5.1258e+01    -0.0036     -0.609     -0.883    23.6096 0.0000e+00
     -0.621 -7.901e-17     8.4512     99.624      0.859   0.835279    -0.1917      7.352   317.2381 5.2337e+01    -0.0080     -0.609     -0.884    23.6020 0.0000e+00
     -0.621 -8.691e-16     8.4517     99.629      0.852   0.827670    -0.1980      7.341   317.9749 5.2097e+01     0.0009     -0.609     -0.883    23.5956 0.0000e+00
     -0.620 -9.560e-15     8.4543     99.659      0.819   0.795525    -0.1945      7.325   319.7021 5.2199e+01     0.0420     -0.608     -0.882    23.5907 0.0000e+00
     -0.620 -1.052e-13     8.4561     99.677      0.786   0.763675    -0.1950      7.306   320.5700 5.3141e+01     0.0623     -0.608     -0.882    23.5878 0.0000e+00
     -0.620 -1.157e-12     8.4567     99.682      0.782   0.759639    -0.1954      7.283   320.0367 5.2809e+01     0.0641     -0.608     -0.882    23.5860 0.0000e+00
     -0.621 -1.272e-11     8.4584     99.699      0.769   0.746723    -0.1897      7.260   320.1370 5.1762e+01     0.0633     -0.609     -0.883    23.5853 0.0000e+00
     -0.621 -1.400e-10     8.4589     99.702      0.756   0.734339    -0.1812      7.241   322.2121 5.1237e+01    -0.0080     -0.609     -0.883    23.5849 0.0000e+00
     -0.621 -1.540e-09     8.4593     99.703      0.758   0.736727    -0.1750      7.227   324.3918 5.0008e+01    -0.1269     -0.609     -0.883    23.5836 0.0000e+00
     -0.621 -1.694e-08     8.4591     99.696      0.798   0.775592    -0.1788      7.217   326.3582 4.7485e+01    -0.1843     -0.609     -0.884    23.5821 0.0000e+00
     -0.621 -1.863e-07     8.4568     99.666      0.913   0.887192    -0.1812      7.209   329.1243 4.4387e+01    -0.2135     -0.609     -0.884    23.5803 0.0000e+00
     -0.621 -1.863e-07     8.4565     99.658      1.103   1.071477    -0.1763      7.203   329.4431 4.1875e+01    -0.2361     -0.609     -0.884    23.5784 0.0000e+00
     -0.621 -1.693e-08     8.4587     99.682      1.329   1.291620    -0.1755      7.201   325.3091 4.0043e+01    -0.2139     -0.609     -0.883    23.5767 0.0000e+00
     -0.621 -1.525e-09     8.4590     99.683      1.499   1.456275    -0.1714      7.204   321.1266 3.8045e+01    -0.1890     -0.609     -0.884    23.5746 0.0000e+00
     -0.621 2.2043e-11     8.4575     99.663      1.585   1.540385    -0.1727      7.208   319.3122 3.6660e+01    -0.1787     -0.609     -0.883    23.5725 0.0000e+00
     -0.621 1.7692e-09     8.4568     99.652      1.658   1.611031    -0.1827      7.210   318.6001 3.6886e+01    -0.1816     -0.609     -0.884    23.5704 0.0000e+00
     -0.621 1.9600e-08     8.4564     99.646      1.726   1.676297    -0.1818      7.211   318.5392 3.7551e+01    -0.1928     -0.609     -0.884    23.5689 0.0000e+00
     -0.621 2.1562e-07     8.4558     99.638      1.745   1.695370    -0.1798      7.212   319.2648 3.7589e+01    -0.1919     -0.609     -0.883    23.5679 0.0000e+00
     -0.621      0.000     8.4556     99.633      1.765   1.714811    -0.1853      7.218   319.4576 3.7144e+01    -0.2017     -0.609     -0.883    23.5669 0.0000e+00
     -0.621      0.000     8.4559     99.636      2.359   2.291842    -0.1840      7.229   318.7197 3.7069e+01    -0.2187     -0.610     -0.884    23.5657 0.0000e+00
     -0.621      0.000     8.4565     99.650      3.508   3.408451    -0.1740      7.239   319.2903 3.8493e+01    -0.2151     -0.609     -0.884    23.5646 0.0000e+00
     -0.621      0.003     8.4528     99.690      4.689   4.561335    -0.1655      7.253   320.5060 4.0943e+01    -0.2193     -0.610     -0.884    23.5636 0.0000e+00
     -0.621      0.010     8.4307     99.729      5.972   5.830025    -0.1630      7.271   321.0295 4.2737e+01    -0.2389     -0.609     -0.883    23.5629 0.0000e+00
     -0.621      0.017     8.3911     99.744      6.506   6.379939    -0.1722      7.286   321.4035 4.3670e+01    -0.2384     -0.610     -0.884    23.5618 0.0000e+00
     -0.620      0.022     8.3571     99.773      5.843   5.755685    -0.1849      7.292   321.8447 4.4436e+01    -0.1827     -0.610     -0.885    23.5614 0.0000e+00
     -0.610      0.024     8.3389     99.828      6.346   6.274120    -0.1874      7.297   322.4930 4.5008e+01    -0.0841     -0.602     -0.873    23.5606 0.0000e+00
     -0.594      0.026     8.3271     99.852     10.719  10.617870    -0.1846      7.316   325.7143 4.5637e+01    -0.0234     -0.580     -0.841    23.7181 0.0000e+00
     -0.584      0.030     8.3161     99.832     18.142  17.989690    -0.1875      7.416   333.6043 4.7198e+01    -0.0281     -0.568     -0.823    24.0561 0.0000e+00
     -0.583      0.038     8.3061     99.815     26.242  26.049172    -0.1952      7.665   337.5290 5.2049e+01    -0.0188     -0.570     -0.827    24.3027 0.0000e+00
     -0.583      0.049     8.2951     99.793     32.539  32.333585    -0.1946      7.983   314.6607 5.9564e+01     0.0278     -0.575     -0.834    24.4270 0.0000e+00
     -0.575      0.064     8.2853     99.768     34.984  34.794234    -0.1893      8.229   272.8070 6.4704e+01     0.0469     -0.568     -0.823    24.5095 0.0000e+00
     -0.556      0.080     8.2785     99.746     35.203  35.034538    -0.1860      8.370   251.2648 6.6890e+01     0.0290     -0.550     -0.797    24.5595 0.0000e+00
     -0.525      0.095     8.2737     99.743     35.260  35.112070    -0.1732      8.433   248.0417 6.8443e+01     0.0553     -0.518     -0.751    24.6100 0.0000e+00
     -0.489      0.103     8.2682     99.751     35.280  35.160012    -0.0253      8.450   246.7435 6.9467e+01     0.6705     -0.476     -0.691    24.6756 0.0000e+00
     -0.456      0.101     8.2593     99.733     35.255  35.169603     0.2502      8.450   250.2803 7.1322e+01     1.8215     -0.445     -0.646    24.7319 0.0000e+00
     -0.429      0.092     8.2519     99.728     35.217  35.164560     0.4112      8.449   255.0987 7.9486e+01     2.4675     -0.421     -0.611    24.7554 0.0000e+00
     -0.408      0.078     8.2483     99.751     35.190  35.162612     0.5425      8.447   258.7139 9.3230e+01     2.8350     -0.398     -0.577    24.7783 0.0000e+00
     -0.394      0.066     8.2493     99.807     35.157  35.146084     1.8553      8.445   261.2096 1.0324e+02     6.5380     -0.384     -0.558    24.8211 0.0000e+00
     -0.384      0.056     8.2561     99.913     35.093  35.091788     4.2636      8.443   262.4741 1.0674e+02    13.3346     -0.378     -0.550    24.8744 0.0000e+00
     -0.372      0.048     8.2626    100.002     35.012  35.014296     5.5834      8.439   263.5061 1.0821e+02    17.0185     -0.365     -0.530    24.9233 0.0000e+00
     -0.358      0.041     8.2648    100.033     34.967  34.971371     5.7279      8.436   264.1370 1.1104e+02    17.0521     -0.350     -0.508    24.9608 0.0000e+00
     -0.347      0.035     8.2697    100.086     34.952  34.953913     5.9556      8.434   264.5091 1.1354e+02    13.4356     -0.340     -0.493    24.9830 0.0000e+00
     -0.337      0.029     8.2798    100.181     34.939  34.930243     6.3603      8.434   264.8225 1.1370e+02     6.7401     -0.330     -0.479    24.9950 0.0000e+00
     -0.330      0.022     8.2871    100.236     34.960  34.939242     6.5783      8.434   265.0868 1.1281e+02     3.0836     -0.322     -0.467    24.9989 0.0000e+00
     -0.328      0.016     8.2915    100.268     34.965  34.935661     6.5883      8.435   265.3810 1.1196e+02     2.7347     -0.320     -0.464    25.0006 0.0000e+00
     -0.328      0.012     8.2968    100.322     34.920  34.886936     6.5813      8.436   265.7981 1.1152e+02     2.7046     -0.321     -0.466    25.0026 0.0000e+00
     -0.328      0.010     8.3018    100.371     34.896  34.858263     6.5683      8.436   266.0007 1.1177e+02     2.6887     -0.322     -0.466    24.9841 0.0000e+00
     -0.325      0.009     8.3059    100.406     34.886  34.843048     6.5684      8.435   265.7656 1.1310e+02     2.6958     -0.320     -0.464    24.9591 0.0000e+00
     -0.320      0.008     8.3089    100.429     34.877  34.830001     6.5821      8.433   265.6229 1.1463e+02     2.7601     -0.313     -0.454    24.9504 0.0000e+00
     -0.315      0.007     8.3102    100.431     34.880  34.827551     6.5770      8.431   265.7375 1.1503e+02     2.7945     -0.307     -0.446    24.9485 0.0000e+00
     -0.313      0.005     8.3109    100.428     34.871  34.813416     6.5534      8.431   265.6893 1.1419e+02     2.7460     -0.307     -0.445    24.9413 0.0000e+00
     -0.315      0.002     8.3131    100.442     34.849  34.786126     6.5351      8.431   265.3844 1.1306e+02     2.6917     -0.308     -0.448    24.9320 0.0000e+00
     -0.317      0.001     8.3141    100.441     34.819  34.751661     6.5304      8.431   265.0616 1.1264e+02     2.6873     -0.311     -0.451    24.9256 0.0000e+00
     -0.317      0.001     8.3126    100.411     34.785  34.714294     6.5340      8.432   264.8837 1.1271e+02     2.6925     -0.311     -0.450    24.9190 0.0000e+00
     -0.317      0.003     8.3132    100.409     34.789  34.715429     6.5514      8.433   264.6965 1.1271e+02     2.6932     -0.310     -0.450    24.9122 0.0000e+00
     -0.316      0.008     8.3155    100.427     34.843  34.765369     6.5748      8.433   263.4861 1.1288e+02     2.6960     -0.311     -0.451    24.9054 0.0000e+00
     -0.314      0.015     8.3171    100.440     34.891  34.809960     6.5779      8.431   259.9716 1.1362e+02     2.6969     -0.309     -0.448    24.8980 0.0000e+00
     -0.310      0.027     8.3194    100.468     34.891  34.809946     6.5797      8.424   254.7256 1.1497e+02     2.7038     -0.304     -0.441    24.8920 0.0000e+00
     -0.305      0.042     8.3242    100.529     34.844  34.765197     6.6246      8.414   250.1327 1.1662e+02     2.7176     -0.299     -0.433    24.8871 0.0000e+00
     -0.297      0.057     8.3326    100.634     34.791  34.713542     6.6890      8.408   248.0604 1.1884e+02     2.7119     -0.294     -0.427    24.8826 0.0000e+00
     -0.282      0.068     8.3455    100.794     34.770  34.693531     6.7141      8.407   248.0824 1.2042e+02     2.6954     -0.282     -0.408    24.8765 0.0000e+00
     -0.254      0.073     8.3633    101.004     34.792  34.713805     6.7075      8.408   246.6996 1.2027e+02     2.7321     -0.251     -0.364    24.8776 0.0000e+00
     -0.223      0.074     8.3817    101.214     34.851  34.768113     6.6925      8.410   241.4931 1.2070e+02     2.7590     -0.214     -0.311    24.8818 0.0000e+00
     -0.201      0.072     8.3968    101.398     34.925  34.842012     6.6710      8.411   235.7221 1.2195e+02     2.7150     -0.193     -0.279    24.8802 0.0000e+00
     -0.190      0.068     8.4098    101.574     34.985  34.908593     6.6499      8.411   236.2040 1.2307e+02     2.6884     -0.187     -0.271    24.8873 0.0000e+00
     -0.181      0.063     8.4208    101.729     35.005  34.937960     6.6303      8.408   241.8125 1.2424e+02     2.6809     -0.179     -0.259    24.8844 0.0000e+00
     -0.170      0.058     8.4298    101.863     35.001  34.943025     6.6264      8.408   241.7589 1.2470e+02     2.6550     -0.168     -0.244    24.8712 0.0000e+00
     -0.152      0.053     8.4387    102.000     35.016  34.969847     6.6396      8.411   235.9856 1.2434e+02     2.6504     -0.152     -0.221    24.8724 0.0000e+00
     -0.130      0.047     8.4460    102.125     35.041  35.008199     6.6426      8.416   234.0418 1.2403e+02     2.6865     -0.125     -0.181    24.8852 0.0000e+00
     -0.113      0.039     8.4506    102.218     35.045  35.025643     6.6353      8.422   237.5299 1.2407e+02     2.7253     -0.106     -0.154    24.8996 0.0000e+00
     -0.106      0.028     8.4572    102.328     35.062  35.053735     6.6063      8.429   241.3360 1.2418e+02     2.7229     -0.102     -0.148    24.9100 0.0000e+00
     -0.106      0.017     8.4748    102.564     35.093  35.093792     6.5495      8.434   240.5680 1.2446e+02     2.6876     -0.103     -0.149    24.9254 0.0000e+00
     -0.108      0.010     8.4929    102.801     35.122  35.128872     6.5185      8.439   236.7621 1.2504e+02     2.6654     -0.105     -0.152    24.9472 0.0000e+00
     -0.109      0.008     8.4808    102.670     35.147  35.160288     6.5251      8.442   234.5528 1.2535e+02     2.6675     -0.109     -0.158    24.9676 0.0000e+00
     -0.109      0.012     8.4250    102.010     35.137  35.156043     6.5376      8.443   234.5916 1.2453e+02     2.6521     -0.108     -0.157    24.9843 0.0000e+00
     -0.104      0.017     8.3316    100.893     35.117  35.141073     6.5873      8.443   236.1136 1.2281e+02     2.6018     -0.104     -0.149    24.9962 0.0000e+00
     -0.097      0.020     8.2071     99.394     35.142  35.169853     6.6757      8.444   237.7252 1.2135e+02     2.5466     -0.097     -0.140    25.0044 0.0000e+00
     -0.087      0.021     8.0647     97.676     35.157  35.186438     6.7245      8.445   240.1387 1.2073e+02     2.5039     -0.085     -0.124    25.0127 0.0000e+00
     -0.080      0.020     7.9331     96.088     35.119  35.151034     6.7261      8.446   244.0435 1.2084e+02     2.4820     -0.076     -0.110    25.0215 0.0000e+00
     -0.077      0.018     7.8336     94.888     35.089  35.122916     6.7600      8.447   246.5649 1.2107e+02     2.5260     -0.075     -0.108    25.0280 0.0000e+00
     -0.074      0.013     7.7715     94.138     35.065  35.100542     6.8495      8.449   246.4471 1.2090e+02     2.6087     -0.073     -0.106    25.0333 0.0000e+00
     -0.071      0.008     7.7378     93.731     35.035  35.071079     6.9169      8.449   246.3191 1.2009e+02     2.6582     -0.070     -0.101    25.0363 0.0000e+00
     -0.069      0.002     7.7145     93.450     35.047  35.084288     6.9216      8.448   247.4257 1.1909e+02     2.6974     -0.068     -0.098    25.0394 0.0000e+00
     -0.067     -0.005     7.6910     93.168     35.096  35.133206     6.8424      8.447   247.0067 1.1914e+02     2.6553     -0.065     -0.094    25.0434 0.0000e+00
     -0.067     -0.013     7.6626     92.824     35.117  35.154391     6.7136      8.446   245.6418 1.2004e+02     2.5148     -0.063     -0.092    25.0444 0.0000e+00
     -0.071     -0.019     7.6235     92.347     35.113  35.149876     6.6507      8.445   244.6037 1.2009e+02     2.4634     -0.068     -0.098    25.0442 0.0000e+00
     -0.081     -0.021     7.5704     91.701     35.107  35.142135     6.6427      8.445   245.8976 1.1697e+02     2.4921     -0.080     -0.115    25.0458 0.0000e+00
     -0.092     -0.018     7.5076     90.937     35.091  35.124312     6.5886      8.444   250.9615 1.1212e+02     2.5262     -0.091     -0.131    25.0477 0.0000e+00
     -0.100     -0.012     7.4491     90.224     35.093  35.124929     6.4931      8.442   253.4330 1.1019e+02     2.6007     -0.100     -0.146    25.0475 0.0000e+00
     -0.103     -0.005     7.4105     89.752     35.120  35.149598     6.4521      8.441   252.1196 1.1173e+02     2.6609     -0.105     -0.152    25.0458 0.0000e+00
     -0.098      0.001     7.3975     89.592     35.140  35.168492     6.4606      8.441   250.3109 1.1511e+02     2.6740     -0.096     -0.139    25.0438 0.0000e+00
     -0.091      0.006     7.4064     89.699     35.135  35.162814     6.5043      8.444   247.2233 1.1904e+02     2.6373     -0.086     -0.125    25.0417 0.0000e+00
     -0.088      0.009     7.4292     89.974     35.117  35.144463     6.5943      8.447   246.2775 1.2205e+02     2.5526     -0.084     -0.122    25.0384 0.0000e+00
     -0.088      0.009     7.4504     90.232     35.109  35.137175     6.6482      8.449   248.3393 1.2378e+02     2.5045     -0.086     -0.125    25.0356 0.0000e+00
     -0.088      0.008     7.4624     90.380     35.109  35.138218     6.6511      8.445   247.2875 1.2438e+02     2.5138     -0.087     -0.127    25.0346 0.0000e+00
     -0.088      0.008     7.4867     90.676     35.127  35.157069     6.6655      8.440   246.5519 1.2395e+02     2.5127     -0.087     -0.126    25.0337 0.0000e+00
     -0.085      0.009     7.5407     91.331     35.144  35.174553     6.6942      8.437   249.9429 1.2301e+02     2.4910     -0.085     -0.123    25.0336 0.0000e+00
     -0.080      0.011     7.6137     92.217     35.128  35.159052     6.7039      8.437   251.5489 1.2254e+02     2.4655     -0.079     -0.115    25.0347 0.0000e+00
     -0.075      0.011     7.6918     93.163     35.129  35.160212     6.6998      8.437   249.1051 1.2255e+02     2.4483     -0.072     -0.105    25.0359 0.0000e+00
     -0.073      0.010     7.7663     94.066     35.158  35.188574     6.6993      8.438   247.6698 1.2224e+02     2.4653     -0.071     -0.103    25.0367 0.0000e+00
     -0.072      0.007     7.8350     94.899     35.153  35.184371     6.6886      8.442   251.4897 1.2148e+02     2.5493     -0.072     -0.104    25.0379 0.0000e+00
     -0.071      0.004     7.8971     95.654     35.141  35.172912     6.6627      8.446   251.9264 1.2103e+02     2.6704     -0.070     -0.101    25.0388 0.0000e+00
     -0.069      0.002     7.9451     96.238     35.144  35.177072     6.6440      8.447   245.5505 1.2189e+02     2.7086     -0.068     -0.099    25.0383 0.0000e+00
     -0.069      0.001     7.9678     96.513     35.137  35.171152     6.6369      8.446   243.4033 1.2349e+02     2.6761     -0.067     -0.098    25.0386 0.0000e+00
     -0.070      0.001     7.9610     96.431     35.130  35.164842     6.6413      8.445   247.4741 1.2456e+02     2.6740     -0.068     -0.100    25.0395 0.0000e+00
     -0.071      0.002     7.9355     96.124     35.129  35.164300     6.6509      8.442   251.3206 1.2499e+02     2.6830     -0.070     -0.102    25.0405 0.0000e+00
     -0.070      0.004     7.9074     95.785     35.129  35.164602     6.6429      8.435   250.1602 1.2491e+02     2.6931     -0.070     -0.100    25.0417 0.0000e+00
     -0.069      0.005     7.8863     95.525     35.134  35.168501     6.6367      8.425   246.0062 1.2500e+02     2.7055     -0.068     -0.098    25.0423 0.0000e+00
     -0.067      0.002     7.8708     95.336     35.114  35.147922     6.6488      8.419   243.6845 1.2660e+02     2.6796     -0.067     -0.097    25.0424 0.0000e+00
     -0.062     -0.008     7.8514     95.101     35.073  35.106333     6.6515      8.420   242.0504 1.3069e+02     2.6542     -0.061     -0.088    25.0440 0.0000e+00
     -0.059     -0.023     7.8200     94.719     35.078  35.110302     6.6415      8.426   241.9930 1.3592e+02     2.6736     -0.054     -0.079    25.0453 0.0000e+00
     -0.063     -0.042     7.7753     94.173     35.101  35.132389     6.6290      8.433   243.7655 1.3971e+02     2.7006     -0.060     -0.087    25.0421 0.0000e+00
     -0.076     -0.057     7.7219     93.525     35.089  35.119299     6.5745      8.439   246.8755 1.4227e+02     2.7059     -0.072     -0.104    25.0405 0.0000e+00
     -0.099     -0.063     7.6679     92.869     35.050  35.079082     6.4882      8.443   252.2351 1.4531e+02     2.7073     -0.092     -0.134    25.0420 0.0000e+00
     -0.132     -0.059     7.6141     92.214     34.999  35.027244     6.4497      8.443   253.8466 1.4862e+02     2.7178     -0.131     -0.191    25.0402 0.0000e+00
     -0.159     -0.047     7.5547     91.487     34.976  35.000683     6.4581      8.443   248.8942 1.5091e+02     2.7403     -0.167     -0.241    25.0369 0.0000e+00
     -0.166     -0.024     7.4920     90.705     34.996  35.012003     6.4706      8.443   243.0342 1.5170e+02     2.7357     -0.169     -0.244    25.0374 0.0000e+00
     -0.159      0.008     7.4360     90.002     35.031  35.037058     6.5447      8.440   241.1549 1.5210e+02     2.6935     -0.153     -0.223    25.0359 0.0000e+00
     -0.153      0.045     7.3977     89.526     35.050  35.049523     6.6833      8.435   242.0889 1.5293e+02     2.6573     -0.150     -0.217    25.0349 0.0000e+00
     -0.145      0.077     7.3790     89.297     35.038  35.035672     6.7590      8.432   243.2289 1.5307e+02     2.6338     -0.149     -0.216    25.0334 0.0000e+00
     -0.123      0.097     7.3665     89.148     34.998  34.996623     6.7714      8.431   244.5283 1.5134e+02     2.6523     -0.126     -0.182    25.0170 0.0000e+00
     -0.085      0.107     7.3482     88.922     34.962  34.958513     6.7769      8.431   244.1192 1.3985e+02     2.6982     -0.085     -0.123    24.9978 0.0000e+00
     -0.042      0.108     7.3247     88.613     34.969  34.955995     6.7710      8.431   243.4444 1.1725e+02     2.7006     -0.039     -0.058    24.9904 0.0000e+00
     -0.003      0.098     7.2987     88.267     34.993  34.966162     6.7641      8.435   246.0915 9.9169e+01     2.6814      0.003      0.003    24.9903 0.0000e+00
      0.021      0.081     7.2631     87.816     34.990  34.954385     6.7575      8.439   249.2810 9.3399e+01     2.7101      0.026      0.038    24.9935 0.0000e+00
      0.030      0.061     7.2107     87.178     34.979  34.940620     6.6829      8.443   251.0348 9.5232e+01     2.7431      0.031      0.045    24.9956 0.0000e+00
      0.035      0.043     7.1463     86.400     34.964  34.926770     6.5424      8.447   252.2397 9.6536e+01     2.7141      0.032      0.046    24.9779 0.0000e+00
      0.040      0.030     7.0773     85.568     34.950  34.913971     6.4641      8.449   252.7506 9.4424e+01     2.6947      0.038      0.056    24.9510 0.0000e+00
      0.048      0.025     7.0079     84.728     34.950  34.912901     6.4611      8.451   252.3080 9.2307e+01     2.7226      0.047      0.068    24.9397 0.0000e+00
      0.056      0.024     6.9390     83.893     34.952  34.913836     6.4977      8.452   251.2763 9.1711e+01     2.7156      0.055      0.080    24.9383 0.0000e+00
      0.062      0.024     6.8720     83.082     34.963  34.925271     6.5576      8.451   250.1707 9.2324e+01     2.6716      0.063      0.091    24.9403 0.0000e+00
      0.067      0.021     6.8106     82.337     34.963  34.924126     6.5881      8.449   246.8557 9.2493e+01     2.6780      0.065      0.094    24.9427 0.0000e+00
      0.072      0.011     6.7555     81.665     34.942  34.899989     6.5913      8.448   241.3946 9.1763e+01     2.7318      0.069      0.100    24.9422 0.0000e+00
      0.078     -0.008     6.7059     81.050     34.936  34.887505     6.6052      8.449   238.2601 9.1047e+01     2.7729      0.077      0.111    24.9399 0.0000e+00
      0.082     -0.033     6.6706     80.600     34.961  34.900220     6.6269      8.450   237.8653 9.1658e+01     2.7476      0.082      0.120    24.9395 0.0000e+00
      0.078     -0.061     6.6598     80.446     34.999  34.926661     6.6332      8.449   239.6325 9.5720e+01     2.6696      0.083      0.119    24.9387 0.0000e+00
      0.059     -0.086     6.6786     80.663     35.029  34.953109     6.6357      8.449   242.1617 1.0312e+02     2.6241      0.066      0.096    24.9349 0.0000e+00
      0.022     -0.102     6.7294     81.287     35.037  34.965916     6.6472      8.447   243.0634 1.1393e+02     2.5940      0.023      0.034    24.9275 0.0000e+00
     -0.022     -0.105     6.8022     82.190     35.015  34.954480     6.6540      8.443   242.6199 1.2639e+02     2.5495     -0.025     -0.035    24.9081 0.0000e+00
     -0.060     -0.095     6.8798     83.158     34.988  34.941888     6.6441      8.438   240.3261 1.3415e+02     2.5125     -0.062     -0.089    24.8868 0.0000e+00
     -0.085     -0.075     6.9508     84.047     34.973  34.940731     6.6279      8.437   238.5605 1.3582e+02     2.4825     -0.090     -0.131    24.8809 0.0000e+00
     -0.096     -0.050     7.0040     84.712     34.963  34.940511     6.6229      8.438   239.7704 1.3416e+02     2.4922     -0.099     -0.142    24.8891 0.0000e+00
     -0.097     -0.027     7.0277     85.013     34.956  34.939241     6.6491      8.440   241.0162 1.3204e+02     2.5692     -0.094     -0.138    24.9063 0.0000e+00
     -0.095     -0.011     7.0193     84.921     34.938  34.925391     6.6969      8.443   240.2018 1.3163e+02     2.6506     -0.093     -0.136    24.9280 0.0000e+00
     -0.094     -0.002     6.9821     84.476     34.910  34.900097     6.7221      8.447   240.1613 1.3194e+02     2.6830     -0.093     -0.134    24.9494 0.0000e+00
     -0.094      0.001     6.9203     83.731     34.896  34.887487     6.7239      8.449   240.6984 1.3220e+02     2.7168     -0.091     -0.132    24.9633 0.0000e+00
     -0.095      0.002     6.8416     82.780     34.908  34.899972     6.7652      8.451   240.5011 1.3309e+02     2.7538     -0.092     -0.134    24.9715 0.0000e+00
     -0.095      0.003     6.7541     81.721     34.932  34.924006     6.8542      8.454   240.4431 1.3448e+02     2.7641     -0.094     -0.136    24.9778 0.0000e+00
     -0.094      0.005     6.6624     80.611     34.932  34.924005     6.9087      8.454   239.3099 1.3598e+02     2.7499     -0.093     -0.135    24.9810 0.0000e+00
     -0.093      0.006     6.5714     79.509     34.908  34.899961     6.9087      8.454   238.1564 1.3793e+02     2.7041     -0.092     -0.133    24.9818 0.0000e+00
     -0.090      0.006     6.4865     78.481     34.897  34.887371     6.8819      8.453   238.1110 1.3955e+02     2.6081     -0.089     -0.129    24.9817 0.0000e+00
     -0.086      0.006     6.4111     77.568     34.909  34.898815     6.8509      8.451   238.1592 1.4013e+02     2.5039     -0.085     -0.122    24.9822 0.0000e+00
     -0.085      0.005     6.3446     76.761     34.923  34.911290     6.8376      8.451   238.1372 1.4059e+02     2.4819     -0.082     -0.118    24.9824 0.0000e+00
     -0.085      0.005     6.2842     76.028     34.923  34.911165     6.8312      8.451   238.1030 1.4122e+02     2.4951     -0.084     -0.121    24.9816 0.0000e+00
     -0.086      0.005     6.2289     75.359     34.910  34.897298     6.8284      8.452   238.2618 1.4154e+02     2.5408     -0.086     -0.124    24.9811 0.0000e+00
     -0.085      0.006     6.1803     74.770     34.884  34.870660     6.8317      8.454   239.1960 1.4148e+02     2.6384     -0.085     -0.123    24.9799 0.0000e+00
     -0.083      0.007     6.1373     74.247     34.857  34.843172     6.8339      8.455   240.7089 1.4105e+02     2.6980     -0.083     -0.120    24.9776 0.0000e+00
     -0.080      0.007     6.0975     73.764     34.834  34.819013     6.8364      8.455   241.5831 1.4043e+02     2.7117     -0.078     -0.114    24.9770 0.0000e+00
     -0.076      0.007     6.0613     73.323     34.849  34.832633     6.8444      8.455   240.8183 1.4016e+02     2.7132     -0.075     -0.109    24.9766 0.0000e+00
     -0.074      0.006     6.0275     72.910     34.899  34.880813     6.8476      8.455   239.2058 1.4056e+02     2.6855     -0.073     -0.105    24.9752 0.0000e+00
     -0.073      0.004     5.9955     72.520     34.914  34.893401     6.8384      8.456   238.3468 1.4093e+02     2.6520     -0.071     -0.102    24.9738 0.0000e+00
     -0.074      0.002     5.9667     72.168     34.880  34.857789     6.8347      8.456   238.1768 1.4092e+02     2.6739     -0.072     -0.104    24.9727 0.0000e+00
     -0.074      0.001     5.9417     71.863     34.855  34.831340     6.8395      8.455   238.0965 1.4114e+02     2.7367     -0.074     -0.107    24.9717 0.0000e+00
     -0.074      0.001     5.9196     71.592     34.853  34.827689     6.8131      8.455   238.1498 1.4153e+02     2.7699     -0.074     -0.107    24.9691 0.0000e+00
     -0.073      0.001     5.9011     71.365     34.841  34.813630     6.7541      8.453   238.3918 1.4172e+02     2.7707     -0.072     -0.104    24.9653 0.0000e+00
     -0.073      0.002     5.8844     71.160     34.817  34.788397     6.7148      8.451   238.6133 1.4193e+02     2.7770     -0.071     -0.103    24.9628 0.0000e+00
     -0.073      0.002     5.8666     70.944     34.806  34.776676     6.7056      8.450   238.6770 1.4233e+02     2.7541     -0.073     -0.105    24.9608 0.0000e+00
     -0.072      0.001     5.8499     70.741     34.828  34.798942     6.7254      8.449   238.8180 1.4276e+02     2.7079     -0.072     -0.104    24.9582 0.0000e+00
     -0.071     -0.002     5.8344     70.556     34.959  34.930583     6.7617      8.448   239.0269 1.4312e+02     2.6757     -0.068     -0.100    24.9556 0.0000e+00
     -0.070     -0.003     5.8309     70.522     35.186  35.161458     6.7765      8.447   239.6541 1.4358e+02     2.6702     -0.067     -0.097    24.9532 0.0000e+00
     -0.072     -0.002     5.9098     71.507     35.312  35.303727     6.7755      8.448   240.9812 1.4401e+02     2.6713     -0.069     -0.100    24.9511 0.0000e+00
     -0.076     -0.001     6.1859     74.903     35.298  35.316856     6.7777      8.450   241.3931 1.4410e+02     2.6591     -0.074     -0.108    24.9521 0.0000e+00
     -0.079      0.001     6.6994     81.175     35.275  35.320241     6.7842      8.450   240.2458 1.4390e+02     2.6758     -0.078     -0.114    24.9543 0.0000e+00
     -0.079      0.003     7.3661     89.290     35.283  35.344695     6.7905      8.450   239.2405 1.4385e+02     2.6902     -0.079     -0.114    24.9517 0.0000e+00
     -0.074      0.004     8.0578     97.696     35.288  35.358457     6.7890      8.450   238.9607 1.4395e+02     2.6801     -0.073     -0.105    24.9721 0.0000e+00
     -0.068      0.004     8.6818    105.272     35.285  35.359614     6.7845      8.450   238.8419 1.4397e+02     2.6766     -0.064     -0.094    25.0243 0.0000e+00
     -0.065      0.003     9.1946    111.496     35.282  35.358686     6.7821      8.450   238.7502 1.4418e+02     2.6780     -0.062     -0.090    25.0642 0.0000e+00
     -0.068      0.002     9.5659    116.003     35.270  35.347242     6.7778      8.450   238.7123 1.4442e+02     2.6963     -0.067     -0.097    25.0841 0.0000e+00
     -0.072      0.000     9.7704    118.483     35.270  35.348293     6.7700      8.451   238.6423 1.4431e+02     2.7156     -0.072     -0.105    25.0953 0.0000e+00
     -0.074 -7.784e-08     9.8168    119.047     35.293  35.371392     6.7617      8.452   238.5066 1.4411e+02     2.7272     -0.073     -0.106    25.0995 0.0000e+00
     -0.072 -8.562e-07     9.7481    118.215     35.293  35.372442     6.7594      8.452   238.4476 1.4404e+02     2.7457     -0.071     -0.102    25.1029 0.0000e+00
     -0.069      0.000     9.6239    116.709     35.282  35.360987     6.7610      8.453   238.4447 1.4402e+02     2.7257     -0.068     -0.097    25.1048 0.0000e+00
     -0.068      0.000     9.4935    115.128     35.281  35.359946     6.7629      8.455   238.3856 1.4392e+02     2.6984     -0.066     -0.095    25.1051 0.0000e+00
     -0.068     -0.001     9.3786    113.734     35.281  35.359852     6.7719      8.457   238.3348 1.4382e+02     2.7207     -0.066     -0.095    25.1050 0.0000e+00
     -0.070     -0.003     9.2823    112.568     35.280  35.359843     6.8248      8.458   238.4333 1.4384e+02     2.7516     -0.068     -0.098    25.1055 0.0000e+00
     -0.073     -0.003     9.2034    111.613     35.280  35.359842     6.9152      8.458   238.6293 1.4389e+02     2.7356     -0.072     -0.103    25.1059 0.0000e+00
     -0.075     -0.002     9.1429    110.881     35.279  35.359843     6.9648      8.458   238.6400 1.4385e+02     2.6801     -0.074     -0.108    25.1058 0.0000e+00
     -0.075      0.000     9.0991    110.351     35.279  35.359852     6.9645      8.458   238.5636 1.4379e+02     2.6608     -0.073     -0.107    25.1061 0.0000e+00
     -0.074      0.002     9.0675    109.968     35.279  35.359957     6.9124      8.459   238.6521 1.4378e+02     2.6851     -0.072     -0.105    25.1068 0.0000e+00
     -0.072      0.003     9.0429    109.668     35.280  35.361112     6.8209      8.459   238.7636 1.4387e+02     2.6997     -0.070     -0.102    25.1074 0.0000e+00
     -0.070      0.003     9.0215    109.410     35.293  35.373815     6.7777      8.459   238.7917 1.4388e+02     2.7150     -0.068     -0.099    25.1079 0.0000e+00
     -0.069      0.002     9.0034    109.191     35.305  35.386510     6.7859      8.460   238.8208 1.4383e+02     2.7475     -0.068     -0.098    25.1082 0.0000e+00
     -0.069      0.001     8.9908    109.039     35.306  35.387560     6.8372      8.461   238.8574 1.4388e+02     2.7268     -0.067     -0.098    25.1088 0.0000e+00
     -0.070      0.000     8.9868    108.991     35.305  35.386510     6.9197      8.461   238.8035 1.4395e+02     2.6779     -0.068     -0.100    25.1087 0.0000e+00
     -0.070 5.8035e-08     8.9883    109.007     35.293  35.373816     6.9651      8.461   238.7723 1.4394e+02     2.6754     -0.069     -0.099    25.1085 0.0000e+00
     -0.070 6.3839e-07     8.9901    109.024     35.282  35.361113     6.9730      8.461   238.9097 1.4391e+02     2.6959     -0.068     -0.099    25.1089 0.0000e+00
     -0.070      0.000     8.9932    109.057     35.282  35.359968     6.9420      8.460   239.0881 1.4396e+02     2.7125     -0.068     -0.099    25.1095 0.0000e+00
     -0.070      0.000     8.9990    109.122     35.284  35.359969     6.8742      8.458   239.2083 1.4406e+02     2.6939     -0.068     -0.099    25.1099 0.0000e+00
     -0.070      0.001     9.0035    109.175     35.286  35.361114     6.8342      8.457   239.2448 1.4407e+02     2.6849     -0.069     -0.100    25.1087 0.0000e+00
     -0.070      0.001     9.0043    109.185     35.299  35.373817     6.8348      8.456   239.1854 1.4404e+02     2.7249     -0.068     -0.099    25.1069 0.0000e+00
     -0.070      0.002     9.0042    109.187     35.310  35.386512     6.8264      8.454   239.1785 1.4412e+02     2.7503     -0.068     -0.099    25.1048 0.0000e+00
     -0.069      0.002     9.0062    109.214     35.310  35.387572     6.7965      8.454   239.3335 1.4423e+02     2.7178     -0.068     -0.098    25.1017 0.0000e+00
     -0.068      0.002     9.0096    109.258     35.308  35.386636     6.7769      8.454   239.5107 1.4441e+02     2.6672     -0.067     -0.097    25.0996 0.0000e+00
     -0.066      0.002     9.0115    109.283     35.296  35.375192     6.7733      8.455   239.6871 1.4466e+02     2.6577     -0.065     -0.095    25.0996 0.0000e+00
     -0.066      0.001     9.0118    109.291     35.296  35.376243     6.7715      8.456   239.8313 1.4476e+02     2.6647     -0.064     -0.093    25.1015 0.0000e+00
     -0.066      0.000     9.0143    109.323     35.318  35.399350     6.7733      8.457   239.8777 1.4469e+02     2.6294     -0.065     -0.094    25.1038 0.0000e+00
     -0.067     -0.001     9.0203    109.398     35.318  35.400505     6.7773      8.458   239.9028 1.4463e+02     2.5662     -0.066     -0.095    25.1047 0.0000e+00
     -0.067     -0.001     9.0285    109.498     35.308  35.390195     6.7742      8.458   239.9631 1.4469e+02     2.5420     -0.066     -0.096    25.1053 0.0000e+00
     -0.068     -0.001     9.0365    109.594     35.320  35.401744     6.7815      8.458   240.0900 1.4475e+02     2.5495     -0.067     -0.097    25.1075 0.0000e+00
     -0.068      0.000     9.0415    109.654     35.331  35.413104     6.8561      8.458   240.2335 1.4465e+02     2.5960     -0.066     -0.096    25.1095 0.0000e+00
     -0.068      0.000     9.0416    109.656     35.319  35.400495     6.9770      8.458   240.3205 1.4453e+02     2.6778     -0.067     -0.097    25.1104 0.0000e+00
     -0.068      0.001     9.0384    109.617     35.295  35.376337     7.0397      8.457   240.3677 1.4456e+02     2.6837     -0.066     -0.096    25.1107 0.0000e+00
     -0.067      0.001     9.0364    109.592     35.294  35.375087     7.0353      8.457   240.3740 1.4463e+02     2.6357     -0.066     -0.095    25.1103 0.0000e+00
     -0.067      0.000     9.0352    109.576     35.304  35.385388     6.9789      8.457   240.3109 1.4462e+02     2.6474     -0.065     -0.095    25.1095 0.0000e+00
     -0.067     -0.000     9.0320    109.535     35.293  35.373838     6.8913      8.458   240.2929 1.4463e+02     2.7034     -0.065     -0.095    25.1089 0.0000e+00
     -0.067     -0.001     9.0289    109.494     35.283  35.362478     6.8490      8.459   240.3292 1.4458e+02     2.7329     -0.065     -0.095    25.1093 0.0000e+00
     -0.067     -0.001     9.0280    109.480     35.297  35.375077     6.8526      8.460   240.3196 1.4451e+02     2.7292     -0.066     -0.096    25.1097 0.0000e+00
     -0.068      0.000     9.0315    109.520     35.322  35.399131     6.8976      8.461   240.3481 1.4466e+02     2.7499     -0.067     -0.097    25.1091 0.0000e+00
     -0.069      0.001     9.0375    109.592     35.322  35.399226     6.9803      8.461   240.4169 1.4483e+02     2.8309     -0.068     -0.099    25.1079 0.0000e+00
     -0.069      0.002     9.0391    109.612     35.299  35.376222     7.0351      8.461   240.4629 1.4484e+02     2.9152     -0.068     -0.099    25.1060 0.0000e+00
     -0.068      0.003     9.0333    109.542     35.298  35.375076     7.0455      8.461   240.9047 1.4479e+02     2.9446     -0.067     -0.097    25.1039 0.0000e+00
     -0.066      0.004     9.0248    109.440     35.308  35.385376     7.0508      8.461   241.4557 1.4472e+02     2.8814     -0.065     -0.093    25.1027 0.0000e+00
     -0.064      0.004     9.0209    109.393     35.296  35.373714     7.0716      8.462   241.7048 1.4481e+02     2.7610     -0.062     -0.090    25.1024 0.0000e+00
     -0.063      0.004     9.0226    109.417     35.283  35.361113     7.0850      8.462   242.1960 1.4482e+02     2.7091     -0.061     -0.089    25.1028 0.0000e+00
     -0.063      0.004     9.0256    109.456     35.281  35.360071     7.0849      8.461   242.2316 1.4466e+02     2.7427     -0.062     -0.090    25.1036 0.0000e+00
     -0.062      0.003     9.0234    109.432     35.281  35.361112     7.0886      8.461   241.4470 1.4451e+02     2.7719     -0.062     -0.089    25.1037 0.0000e+00
     -0.061      0.001     9.0175    109.363     35.292  35.373702     7.1110      8.461   241.4851 1.4420e+02     2.7573     -0.061     -0.087    25.1041 0.0000e+00
     -0.060      0.000     9.0147    109.332     35.302  35.385250     7.1450      8.461   242.4341 1.4385e+02     2.7478     -0.058     -0.084    25.1050 0.0000e+00
     -0.060     -0.002     9.0133    109.318     35.290  35.373701     7.1682      8.460   242.5975 1.4376e+02     2.7484     -0.058     -0.084    25.1069 0.0000e+00
     -0.061     -0.004     9.0120    109.302     35.278  35.361103     7.1802      8.457   241.9981 1.4379e+02     2.7352     -0.060     -0.087    25.1089 0.0000e+00
     -0.062     -0.006     9.0128    109.311     35.277  35.359968     7.2171      8.449   242.3273 1.4370e+02     2.6795     -0.061     -0.088    25.1097 0.0000e+00
     -0.064     -0.007     9.0139    109.323     35.277  35.359977     7.2930      8.442   243.5667 1.4397e+02     2.5626     -0.062     -0.090    25.1110 0.0000e+00
     -0.068     -0.007     9.0139    109.323     35.278  35.361217     7.3435      8.441   244.3361 1.4423e+02     2.4821     -0.068     -0.099    25.1126 0.0000e+00
     -0.070     -0.006     9.0146    109.332     35.292  35.374961     7.3502      8.443   244.8326 1.4382e+02     2.4995     -0.071     -0.102    25.1132 0.0000e+00
     -0.070     -0.004     9.0142    109.329     35.315  35.399110     7.3192      8.445   245.3543 1.4408e+02     2.5287     -0.068     -0.098    25.1122 0.0000e+00
     -0.072     -0.003     9.0070    109.243     35.315  35.399119     7.2623      8.445   245.5676 1.4476e+02     2.4990     -0.071     -0.102    25.1110 0.0000e+00
     -0.073     -0.003     8.9923    109.064     35.291  35.375075     7.2313      8.447   244.9166 1.4481e+02     2.4762     -0.072     -0.105    25.1108 0.0000e+00
     -0.072     -0.003     8.9774    108.885     35.279  35.362476     7.2112      8.451   243.4193 1.4498e+02     2.4976     -0.069     -0.101    25.1119 0.0000e+00
     -0.072     -0.003     8.9694    108.790     35.289  35.373836     7.0564      8.457   242.3483 1.4504e+02     2.4834     -0.069     -0.101    25.1129 0.0000e+00
     -0.074     -0.001     8.9698    108.796     35.300  35.385376     6.7928      8.462   241.9488 1.4491e+02     2.4261     -0.073     -0.104    25.1129 0.0000e+00
     -0.077      0.001     8.9760    108.873     35.289  35.374972     6.6614      8.464   241.6861 1.4503e+02     2.4154     -0.076     -0.110    25.1130 0.0000e+00
     -0.078      0.003     8.9837    108.967     35.289  35.375086     6.6539      8.465   241.4949 1.4513e+02     2.4462     -0.078     -0.113    25.1132 0.0000e+00
     -0.075      0.005     8.9897    109.040     35.300  35.386750     6.7115      8.465   241.4439 1.4511e+02     2.5234     -0.075     -0.108    25.1144 0.0000e+00
     -0.070      0.007     8.9937    109.089     35.302  35.388955     6.8249      8.464   241.4998 1.4491e+02     2.6162     -0.069     -0.100    25.1157 0.0000e+00
     -0.066      0.007     8.9966    109.124     35.315  35.401754     6.8848      8.463   241.4832 1.4474e+02     2.6212     -0.064     -0.093    25.1156 0.0000e+00
     -0.064      0.006     8.9959    109.117     35.327  35.414456     6.8938      8.462   241.5008 1.4476e+02     2.6143     -0.062     -0.090    25.1161 0.0000e+00
     -0.064      0.003     8.9915    109.065     35.328  35.415499     6.8975      8.460   241.5401 1.4461e+02     2.6251     -0.063     -0.091    25.1167 0.0000e+00
     -0.065     -0.002     8.9876    109.019     35.326  35.414354     6.9018      8.460   241.3563 1.4446e+02     2.6291     -0.064     -0.093    25.1163 0.0000e+00
     -0.066     -0.006     8.9857    108.997     35.312  35.400619     6.9088      8.462   241.2568 1.4431e+02     2.6628     -0.064     -0.093    25.1167 0.0000e+00
     -0.067     -0.008     8.9854    108.994     35.288  35.376472     6.9087      8.463   241.2839 1.4389e+02     2.6969     -0.065     -0.095    25.1178 0.0000e+00
     -0.070     -0.008     8.9893    109.039     35.288  35.376470     6.9005      8.463   241.1683 1.4365e+02     2.7066     -0.068     -0.098    25.1185 0.0000e+00
     -0.075     -0.007     8.9988    109.155     35.313  35.400598     6.8562      8.463   241.0636 1.4377e+02     2.7181     -0.074     -0.107    25.1192 0.0000e+00
     -0.078     -0.004     9.0106    109.300     35.325  35.414125     6.7765      8.464   241.1357 1.4371e+02     2.7448     -0.078     -0.113    25.1196 0.0000e+00
     -0.079     -0.001     9.0211    109.430     35.323  35.412979     6.7277      8.466   241.3516 1.4341e+02     2.7553     -0.077     -0.112    25.1194 0.0000e+00
     -0.078      0.002     9.0265    109.496     35.297  35.386739     6.7165      8.466   241.6090 1.4324e+02     2.7538     -0.076     -0.110    25.1186 0.0000e+00
     -0.075      0.005     9.0208    109.425     35.262  35.350946     6.7686      8.467   242.1837 1.4324e+02     2.7568     -0.074     -0.106    25.1181 0.0000e+00
     -0.072      0.007     9.0054    109.237     35.272  35.361341     6.8898      8.468   243.5680 1.4334e+02     2.7605     -0.071     -0.101    25.1194 0.0000e+00
     -0.071      0.008     8.9895    109.042     35.297  35.385376     6.9686      8.467   245.2684 1.4350e+02     2.7676     -0.069     -0.101    25.1210 0.0000e+00
     -0.070      0.008     8.9792    108.918     35.299  35.387467     6.9677      8.462   246.2229 1.4363e+02     2.7512     -0.069     -0.100    25.1215 0.0000e+00
     -0.068      0.007     8.9754    108.874     35.298  35.386624     6.8891      8.454   246.8499 1.4360e+02     2.7148     -0.067     -0.097    25.1206 0.0000e+00
     -0.065      0.005     8.9770    108.894     35.286  35.375189     6.7710      8.449   247.5154 1.4348e+02     2.6946     -0.064     -0.092    25.1194 0.0000e+00
     -0.062      0.004     8.9819    108.954     35.287  35.376240     6.7157      8.448   247.5578 1.4347e+02     2.6893     -0.060     -0.087    25.1190 0.0000e+00
     -0.061      0.002     8.9878    109.026     35.310  35.399339     6.7176      8.448   247.3633 1.4357e+02     2.6823     -0.059     -0.086    25.1195 0.0000e+00
     -0.063      0.000     8.9942    109.105     35.310  35.400390     6.7664      8.453   247.3996 1.4364e+02     2.6702     -0.062     -0.090    25.1202 0.0000e+00
     -0.064     -0.001     9.0007    109.183     35.300  35.388946     6.8554      8.458   247.4802 1.4368e+02     2.6657     -0.064     -0.092    25.1206 0.0000e+00
     -0.064     -0.001     9.0037    109.215     35.300  35.388009     6.9019      8.460   247.5641 1.4368e+02     2.6890     -0.063     -0.091    25.1207 0.0000e+00
     -0.065     -0.001     9.0023    109.193     35.302  35.389060     6.9055      8.459   247.6393 1.4350e+02     2.7379     -0.063     -0.092    25.1214 0.0000e+00
     -0.065      0.000     9.0012    109.175     35.316  35.401650     6.9091      8.455   247.7021 1.4324e+02     2.7376     -0.064     -0.093    25.1218 0.0000e+00
     -0.065      0.001     9.0044    109.213     35.328  35.413199     6.9541      8.455   247.7201 1.4314e+02     2.6856     -0.064     -0.093    25.1213 0.0000e+00
     -0.065      0.001     9.0129    109.316     35.317  35.401649     7.0364      8.459   247.6851 1.4312e+02     2.6891     -0.065     -0.094    25.1200 0.0000e+00
     -0.064      0.001     9.0218    109.426     35.303  35.389049     7.0766      8.462   247.7089 1.4313e+02     2.7497     -0.064     -0.092    25.1170 0.0000e+00
     -0.063      0.001     9.0270    109.493     35.301  35.387895     7.0823      8.463   247.7504 1.4313e+02     2.7780     -0.062     -0.090    25.1143 0.0000e+00
     -0.063      0.001     9.0290    109.520     35.300  35.387695     7.0768      8.466   247.7566 1.4305e+02     2.8166     -0.062     -0.089    25.1132 0.0000e+00
     -0.063      0.001     9.0265    109.491     35.299  35.386635     7.0469      8.469   247.7840 1.4302e+02     2.9118     -0.062     -0.089    25.1138 0.0000e+00
     -0.063      0.000     9.0205    109.417     35.288  35.375076     7.0252      8.472   247.8235 1.4303e+02     2.9521     -0.062     -0.090    25.1155 0.0000e+00
     -0.063 4.1283e-07     9.0169    109.372     35.288  35.374981     7.0255      8.475   247.8895 1.4297e+02     2.9380     -0.062     -0.089    25.1169 0.0000e+00
     -0.064      0.000     9.0182    109.388     35.298  35.385479     7.0315      8.476   247.9802 1.4283e+02     2.8941     -0.063     -0.090    25.1179 0.0000e+00
     -0.064      0.000     9.0222    109.436     35.287  35.374971     7.0335      8.476   248.0587 1.4269e+02     2.7875     -0.063     -0.091    25.1182 0.0000e+00
     -0.064      0.001     9.0264    109.490     35.287  35.374962     7.0313      8.474   248.1515 1.4266e+02     2.7174     -0.063     -0.092    25.1183 0.0000e+00
     -0.063      0.001     9.0300    109.536     35.297  35.385374     7.0332      8.472   248.3279 1.4265e+02     2.7170     -0.062     -0.090    25.1176 0.0000e+00
     -0.062      0.001     9.0315    109.554     35.285  35.373826     7.0379      8.471   248.3852 1.4264e+02     2.6914     -0.061     -0.088    25.1170 0.0000e+00
     -0.062      0.001     9.0280    109.512     35.274  35.362373     7.0417      8.471   247.9832 1.4271e+02     2.6514     -0.061     -0.088    25.1180 0.0000e+00
     -0.061      0.000     9.0177    109.388     35.285  35.373940     7.0423      8.470   246.9090 1.4281e+02     2.6607     -0.060     -0.087    25.1191 0.0000e+00
     -0.061     -0.002     9.0042    109.224     35.297  35.386645     7.0366      8.470   245.4638 1.4283e+02     2.6827     -0.060     -0.087    25.1200 0.0000e+00
     -0.061     -0.005     8.9948    109.110     35.299  35.388935     7.0185      8.470   244.4479 1.4286e+02     2.7036     -0.060     -0.087    25.1200 0.0000e+00
     -0.062     -0.007     8.9943    109.103     35.312  35.401638     6.9890      8.471   243.9184 1.4294e+02     2.7304     -0.061     -0.088    25.1202 0.0000e+00
     -0.065     -0.007     9.0033    109.210     35.325  35.413197     6.9649      8.472   243.6208 1.4291e+02     2.7317     -0.063     -0.092    25.1207 0.0000e+00
     -0.069     -0.006     9.0155    109.356     35.315  35.401651     6.9564      8.473   243.6028 1.4284e+02     2.7192     -0.068     -0.098    25.1207 0.0000e+00
     -0.073     -0.003     9.0260    109.481     35.302  35.389070     6.9598      8.474   243.6158 1.4287e+02     2.7015     -0.073     -0.105    25.1206 0.0000e+00
     -0.075      0.002     9.0348    109.589     35.301  35.388123     6.9690      8.476   243.5192 1.4287e+02     2.7010     -0.074     -0.108    25.1202 0.0000e+00
     -0.073      0.008     9.0403    109.660     35.302  35.390205     6.9665      8.476   243.3817 1.4283e+02     2.7126     -0.073     -0.105    25.1192 0.0000e+00
     -0.069      0.016     9.0414    109.676     35.325  35.414239     6.9576      8.476   243.1570 1.4264e+02     2.6904     -0.068     -0.098    25.1173 0.0000e+00
     -0.063      0.025     9.0395    109.655     35.334  35.424633     6.9622      8.473   242.7810 1.4247e+02     2.6455     -0.062     -0.090    25.1164 0.0000e+00
     -0.057      0.035     9.0374    109.631     35.298  35.388842     6.9944      8.466   242.3633 1.4313e+02     2.6270     -0.056     -0.082    25.1175 0.0000e+00
     -0.049      0.045     9.0339    109.590     35.271  35.362613     7.0529      8.452   242.0645 1.3933e+02     2.6808     -0.049     -0.071    25.1193 0.0000e+00
     -0.037      0.056     9.0302    109.546     35.270  35.361580     7.0907      8.438   241.9223 1.2870e+02     2.7461     -0.038     -0.054    25.1207 0.0000e+00
     -0.022      0.067     9.0274    109.514     35.284  35.376356     7.0936      8.430   242.1065 1.1873e+02     2.7447     -0.022     -0.032    25.1216 0.0000e+00
     -0.002      0.076     9.0198    109.424     35.321  35.414230     7.0228      8.428   242.3982 1.1104e+02     2.7563     -0.003     -0.005    25.1226 0.0000e+00
      0.022      0.081     9.0092    109.296     35.345  35.438387     6.8965      8.429   242.3526 1.0498e+02     2.8561      0.023      0.032    25.1233 0.0000e+00
      0.047      0.081     9.0035    109.227     35.321  35.414352     6.8435      8.434   242.0709 1.0062e+02     2.9440      0.047      0.068    25.1239 0.0000e+00
      0.071      0.076     9.0029    109.220     35.284  35.377709     6.8517      8.439   241.9176 9.6997e+01     2.9343      0.070      0.102    25.1248 0.0000e+00
      0.092      0.069     9.0066    109.267     35.282  35.376460     6.8762      8.445   242.1341 9.4581e+01     2.8613      0.093      0.135    25.1257 0.0000e+00
      0.107      0.059     9.0159    109.381     35.304  35.399245     6.9280      8.450   242.1070 9.2639e+01     2.7626      0.106      0.153    25.1262 0.0000e+00
      0.117      0.050     9.0249    109.491     35.304  35.399121     6.9621      8.455   241.6756 9.1133e+01     2.6867      0.114      0.166    25.1260 0.0000e+00
      0.127      0.044     9.0305    109.559     35.280  35.374962     6.9679      8.459   241.4784 8.9654e+01     2.6760      0.124      0.181    25.1268 0.0000e+00
      0.137      0.039     9.0337    109.598     35.266  35.361227     6.9984      8.460   241.3576 8.8216e+01     2.6330      0.135      0.196    25.1277 0.0000e+00
      0.147      0.035     9.0315    109.571     35.265  35.360091     7.0549      8.459   241.1614 8.7256e+01     2.5025      0.145      0.210    25.1286 0.0000e+00
      0.155      0.032     9.0267    109.512     35.266  35.361227     7.0907      8.459   241.0851 8.6079e+01     2.4410      0.151      0.219    25.1292 0.0000e+00
      0.164      0.028     9.0239    109.478     35.280  35.374961     7.1005      8.462   241.4672 8.4826e+01     2.4696      0.161      0.234    25.1287 0.0000e+00
      0.172      0.027     9.0222    109.458     35.304  35.399109     7.0901      8.467   242.0824 8.3973e+01     2.4824      0.171      0.248    25.1282 0.0000e+00
      0.176      0.027     9.0203    109.434     35.305  35.399120     7.0111      8.469   242.6723 8.3536e+01     2.5347      0.174      0.252    25.1281 0.0000e+00
      0.179      0.029     9.0163    109.385     35.281  35.375086     6.8718      8.467   244.1254 8.2994e+01     2.6447      0.175      0.254    25.1282 0.0000e+00
      0.185      0.034     9.0083    109.286     35.269  35.362601     6.7930      8.464   245.2838 8.1825e+01     2.7134      0.180      0.260    25.1281 0.0000e+00
      0.195      0.040     8.9993    109.178     35.281  35.375211     6.7934      8.460   244.7186 8.0332e+01     2.7247      0.191      0.275    25.1284 0.0000e+00
      0.208      0.048     8.9968    109.147     35.306  35.400505     6.8307      8.457   243.6581 7.8542e+01     2.7198      0.202      0.293    25.1283 0.0000e+00
      0.223      0.056     9.0014    109.202     35.321  35.414354     6.8857      8.456   243.2163 7.6672e+01     2.7151      0.217      0.315    25.1275 0.0000e+00
      0.239      0.065     9.0094    109.298     35.322  35.415614     6.9074      8.456   244.3678 7.5064e+01     2.6987      0.235      0.340    25.1266 0.0000e+00
      0.254      0.077     9.0173    109.392     35.323  35.415728     6.9091      8.454   245.6217 7.3509e+01     2.6735      0.250      0.362    25.1268 0.0000e+00
      0.270      0.088     9.0208    109.433     35.324  35.415728     6.9151      8.454   245.2989 7.1740e+01     2.6553      0.264      0.382    25.1274 0.0000e+00
      0.291      0.097     9.0211    109.435     35.324  35.415614     6.9158      8.454   245.2820 6.8801e+01     2.6616      0.280      0.406    25.1269 0.0000e+00
      0.323      0.104     9.0201    109.423     35.323  35.414355     6.9088      8.454   246.1917 6.4876e+01     2.6883      0.315      0.455    25.1262 0.0000e+00
      0.360      0.107     9.0155    109.367     35.309  35.400507     6.8944      8.454   247.4365 6.1638e+01     2.7048      0.357      0.517    25.1251 0.0000e+00
      0.390      0.106     9.0056    109.245     35.284  35.375213     6.8804      8.453   248.1151 5.9131e+01     2.7079      0.383      0.557    25.1238 0.0000e+00
      0.416      0.100     8.9901    109.055     35.272  35.362613     6.8589      8.452   247.6854 5.6822e+01     2.6948      0.408      0.591    25.1234 0.0000e+00
      0.439      0.091     8.9723    108.838     35.286  35.375203     6.8359      8.451   247.6620 5.4843e+01     2.6998      0.432      0.626    25.1239 0.0000e+00
      0.460      0.081     8.9615    108.706     35.311  35.400393     6.8320      8.450   248.0908 5.3120e+01     2.7071      0.451      0.654    25.1236 0.0000e+00
      0.478      0.074     8.9609    108.699     35.324  35.413095     6.8668      8.448   247.7934 5.1651e+01     2.7526      0.470      0.681    25.1227 0.0000e+00
      0.495      0.068     8.9657    108.757     35.313  35.401746     6.9265      8.448   247.2494 5.0286e+01     2.8833      0.486      0.704    25.1221 0.0000e+00
      0.513      0.066     8.9737    108.852     35.302  35.390206     6.9562      8.449   247.7078 4.8967e+01     2.9442      0.502      0.730    25.1210 0.0000e+00
      0.529      0.068     8.9825    108.958     35.312  35.400610     6.9595      8.449   248.9476 4.7964e+01     2.9090      0.520      0.754    25.1202 0.0000e+00
      0.543      0.072     8.9885    109.031     35.312  35.400497     6.9753      8.450   249.9362 4.7047e+01     2.8850      0.531      0.770    25.1201 0.0000e+00
      0.558      0.077     8.9923    109.077     35.301  35.388843     7.1016      8.450   250.7985 4.5667e+01     2.8985      0.543      0.787    25.1200 0.0000e+00
      0.579      0.080     8.9947    109.106     35.299  35.386743     7.3283      8.450   251.8020 4.3869e+01     2.9193      0.566      0.821    25.1192 0.0000e+00
      0.606      0.080     8.9938    109.094     35.288  35.375099     7.4554      8.450   252.2618 4.2175e+01     2.9227      0.595      0.864    25.1187 0.0000e+00
      0.632      0.077     8.9886    109.030     35.288  35.375100     7.4718      8.451   251.7973 4.0853e+01     2.9092      0.621      0.900    25.1189 0.0000e+00
      0.654      0.071     8.9786    108.907     35.300  35.386753     7.4808      8.451   251.4343 3.9978e+01     2.9092      0.643      0.932    25.1191 0.0000e+00
      0.669      0.061     8.9672    108.768     35.302  35.388948     7.4809      8.450   250.8850 3.9468e+01     2.9532      0.658      0.953    25.1190 0.0000e+00
      0.679      0.052     8.9598    108.677     35.315  35.401643     7.4729      8.451   249.7151 3.8992e+01     2.9830      0.666      0.966    25.1183 0.0000e+00
      0.689      0.047     8.9566    108.638     35.326  35.413211     7.4762      8.451   249.1623 3.8464e+01     2.9646      0.676      0.980    25.1176 0.0000e+00
      0.699      0.046     8.9554    108.624     35.315  35.401768     7.4748      8.450   249.0193 3.7935e+01     2.9449      0.686      0.995    25.1173 0.0000e+00
      0.709      0.048     8.9539    108.606     35.304  35.390323     7.4652      8.449   248.6750 3.7274e+01     2.9279      0.694      1.007    25.1168 0.0000e+00
      0.722      0.052     8.9515    108.578     35.315  35.401882     7.4705      8.446   248.2681 3.6410e+01     2.9113      0.705      1.023    25.1165 0.0000e+00
      0.737      0.056     8.9499    108.558     35.328  35.414482     7.4741      8.443   247.9718 3.5503e+01     2.9272      0.722      1.049    25.1163 0.0000e+00
      0.754      0.058     8.9508    108.568     35.329  35.415627     7.3616      8.441   248.0179 3.4653e+01     2.8759      0.740      1.073    25.1162 0.0000e+00
      0.770      0.060     8.9544    108.611     35.329  35.415732     7.1493      8.438   248.3087 3.3805e+01     2.7483      0.755      1.095    25.1164 0.0000e+00
      0.785      0.061     8.9593    108.670     35.329  35.415741     7.0384      8.434   248.8213 3.3035e+01     2.6963      0.771      1.118    25.1171 0.0000e+00
      0.799      0.062     8.9641    108.728     35.329  35.415732     7.0322      8.430   249.2250 3.2380e+01     2.7055      0.784      1.138    25.1171 0.0000e+00
      0.814      0.063     8.9686    108.784     35.329  35.415617     7.0931      8.428   249.0605 3.1634e+01     2.7676      0.796      1.155    25.1164 0.0000e+00
      0.830      0.066     8.9727    108.834     35.328  35.414358     7.2131      8.428   249.0692 3.0777e+01     2.8674      0.813      1.180    25.1161 0.0000e+00
      0.848      0.069     8.9754    108.868     35.314  35.400508     7.2800      8.428   249.5891 2.9994e+01     2.9059      0.832      1.207    25.1159 0.0000e+00
      0.866      0.072     8.9763    108.879     35.289  35.375205     7.2869      8.427   250.1840 2.9276e+01     2.8964      0.849      1.231    25.1162 0.0000e+00
      0.884      0.073     8.9752    108.865     35.276  35.362502     7.2957      8.427   250.8416 2.8548e+01     2.8751      0.867      1.257    25.1168 0.0000e+00
      0.904      0.072     8.9716    108.820     35.288  35.373955     7.4792      8.427   251.0006 2.7782e+01     2.8307      0.886      1.286    25.1168 0.0000e+00
      0.924      0.071     8.9666    108.760     35.300  35.386639     7.8329      8.428   250.5575 2.7065e+01     2.7577      0.907      1.316    25.1167 0.0000e+00
      0.943      0.069     8.9635    108.721     35.302  35.388825     8.0249      8.429   250.0443 2.6496e+01     2.6935      0.926      1.343    25.1165 0.0000e+00
      0.960      0.067     8.9630    108.715     35.313  35.400382     8.0269      8.429   249.7868 2.5999e+01     2.6651      0.942      1.366    25.1162 0.0000e+00
      0.975      0.066     8.9640    108.728     35.312  35.399342     7.9206      8.427   250.1967 2.5508e+01     2.6895      0.957      1.388    25.1162 0.0000e+00
      0.990      0.066     8.9645    108.734     35.289  35.376245     7.7236      8.423   250.7836 2.4982e+01     2.7442      0.971      1.408    25.1163 0.0000e+00
      1.006      0.067     8.9627    108.712     35.289  35.375194     7.6109      8.421   251.0327 2.4384e+01     2.7464      0.985      1.429    25.1161 0.0000e+00
      1.024      0.068     8.9606    108.685     35.301  35.386638     7.5969      8.418   250.9721 2.3691e+01     2.7164      1.002      1.455    25.1162 0.0000e+00
      1.044      0.071     8.9590    108.665     35.302  35.387575     7.5636      8.416   250.5668 2.3010e+01     2.7174      1.025      1.487    25.1166 0.0000e+00
      1.063      0.074     8.9535    108.596     35.301  35.386516     7.5114      8.413   250.3479 2.2443e+01     2.7270      1.043      1.513    25.1167 0.0000e+00
      1.079      0.076     8.9445    108.487     35.288  35.373830     7.4898      8.410   250.5622 2.1868e+01     2.7115      1.057      1.531    25.1160 0.0000e+00
      1.098      0.076     8.9378    108.406     35.276  35.361231     7.4948      8.408   250.7488 2.1263e+01     2.6823      1.076      1.559    25.1153 0.0000e+00
      1.119      0.075     8.9333    108.351     35.276  35.361221     7.6089      8.407   250.7121 2.0692e+01     2.7397      1.097      1.591    25.1150 0.0000e+00
      1.140      0.075     8.9286    108.294     35.289  35.373716     7.8216      8.408   250.7202 2.0145e+01     2.8870      1.119      1.622    25.1145 0.0000e+00
      1.160      0.075     8.9257    108.258     35.300  35.385266     7.9248      8.410   250.8472 1.9642e+01     2.9370      1.139      1.652    25.1142 0.0000e+00
      1.178      0.074     8.9252    108.252     35.289  35.373830     7.9284      8.413   250.7850 1.9212e+01     2.8870      1.156      1.677    25.1142 0.0000e+00
      1.195      0.072     8.9242    108.238     35.279  35.362481     8.0221      8.415   250.4843 1.8831e+01     2.8305      1.172      1.698    25.1142 0.0000e+00
      1.212      0.071     8.9220    108.208     35.292  35.375081     8.2033      8.416   250.3953 1.8419e+01     2.7731      1.187      1.721    25.1142 0.0000e+00
      1.231      0.071     8.9191    108.171     35.317  35.399136     8.3002      8.416   250.7407 1.7991e+01     2.7431      1.208      1.752    25.1139 0.0000e+00
      1.250      0.073     8.9133    108.100     35.317  35.399241     8.3016      8.415   250.9604 1.7612e+01     2.7426      1.227      1.780    25.1134 0.0000e+00
      1.267      0.075     8.9053    108.004     35.294  35.376352     8.2940      8.413   250.9006 1.7232e+01     2.7351      1.243      1.803    25.1124 0.0000e+00
      1.286      0.077     8.8999    107.939     35.294  35.376465     8.2719      8.412   251.0503 1.6779e+01     2.7137      1.259      1.827    25.1112 0.0000e+00
      1.306      0.078     8.8992    107.931     35.318  35.400614     8.2454      8.409   251.3939 1.6282e+01     2.7283      1.280      1.857    25.1105 0.0000e+00
      1.327      0.078     8.9034    107.982     35.332  35.414245     8.2413      8.406   251.7001 1.5796e+01     2.7589      1.302      1.887    25.1103 0.0000e+00
      1.349      0.078     8.9116    108.080     35.332  35.414235     8.2407      8.404   251.9129 1.5347e+01     2.7487      1.323      1.919    25.1101 0.0000e+00
      1.369      0.077     8.9213    108.198     35.319  35.400499     8.2097      8.400   251.9881 1.4959e+01     2.7577      1.343      1.949    25.1104 0.0000e+00
      1.388      0.076     8.9306    108.310     35.294  35.375206     8.1526      8.395   251.9205 1.4616e+01     2.8369      1.361      1.974    25.1108 0.0000e+00
      1.406      0.075     8.9366    108.382     35.281  35.362494     8.1192      8.392   251.7840 1.4278e+01     2.9132      1.379      2.000    25.1107 0.0000e+00
      1.424      0.074     8.9355    108.369     35.292  35.373842     8.1192      8.392   251.5423 1.3925e+01     2.9468      1.396      2.024    25.1102 0.0000e+00
      1.443      0.074     8.9277    108.274     35.303  35.385372     8.1340      8.394   251.2353 1.3561e+01     2.9988      1.414      2.052    25.1099 0.0000e+00
      1.463      0.074     8.9206    108.186     35.293  35.374854     8.1597      8.396   251.1691 1.3218e+01     3.0852      1.434      2.081    25.1099 0.0000e+00
      1.482      0.075     8.9191    108.167     35.293  35.373718     8.1724      8.398   251.2587 1.2915e+01     3.1366      1.454      2.109    25.1099 0.0000e+00
      1.500      0.076     8.9232    108.218     35.291  35.371636     8.1680      8.398   251.2866 1.2639e+01     3.1324      1.472      2.135    25.1097 0.0000e+00
      1.518      0.077     8.9295    108.294     35.269  35.349682     8.1534      8.399   251.4199 1.2349e+01     3.0642      1.487      2.158    25.1094 0.0000e+00
      1.537      0.077     8.9342    108.350     35.282  35.362359     8.1238      8.401   251.4943 1.2013e+01     2.9529      1.507      2.185    25.1089 0.0000e+00
      1.559      0.076     8.9377    108.390     35.318  35.397866     8.1042      8.402   251.3252 1.1665e+01     2.9160      1.529      2.218    25.1085 0.0000e+00
      1.581      0.075     8.9399    108.412     35.320  35.397866     8.1096      8.403   251.5261 1.1359e+01     2.9236      1.551      2.250    25.1087 0.0000e+00
      1.601      0.074     8.9402    108.411     35.286  35.362359     8.1427      8.402   252.4606 1.1117e+01     2.8926      1.571      2.278    25.1087 0.0000e+00
      1.617      0.074     8.9375    108.376     35.274  35.349672     8.2021      8.399   253.3317 1.0921e+01     2.8762      1.585      2.300    25.1083 0.0000e+00
      1.633      0.074     8.9275    108.254     35.296  35.371512     8.2389      8.395   253.6269 1.0706e+01     2.8778      1.599      2.320    25.1074 0.0000e+00
      1.651      0.076     8.9059    107.989     35.298  35.372332     8.2384      8.390   253.6211 1.0438e+01     2.8822      1.618      2.347    25.1050 0.0000e+00
      1.671      0.080     8.8749    107.609     35.287  35.359597     8.2145      8.385   253.5203 1.0154e+01     2.8991      1.638      2.376    25.1018 0.0000e+00
      1.692      0.084     8.8434    107.224     35.273  35.344566     8.0235      8.382   253.4401 9.8770e+00     2.8680      1.658      2.405    25.1003 0.0000e+00
      1.715      0.087     8.8210    106.946     35.249  35.317632     7.6842      8.378   253.4246 9.5850e+00     2.7807      1.681      2.438    25.1006 0.0000e+00
      1.740      0.087     8.8112    106.811     35.225  35.288020     7.5029      8.373   253.5916 9.2937e+00     2.6979      1.707      2.476    25.0994 0.0000e+00
      1.763      0.085     8.8087    106.756     35.187  35.240606     7.4861      8.368   253.9106 9.0275e+00     2.6608      1.730      2.510    25.0961 0.0000e+00
      1.784      0.081     8.8055    106.685     35.147  35.188981     7.5268      8.365   254.4427 8.7750e+00     2.6673      1.750      2.538    25.0960 0.0000e+00
      1.805      0.075     8.7972    106.553     35.141  35.171964     7.6180      8.365   255.1208 8.5377e+00     2.6849      1.770      2.567    25.0934 0.0000e+00
      1.825      0.069     8.7827    106.353     35.139  35.161876     7.6699      8.365   255.5704 8.3242e+00     2.7205      1.790      2.596    25.0857 0.0000e+00
      1.842      0.062     8.7656    106.116     35.119  35.130521     7.6754      8.367   255.6624 8.1574e+00     2.7319      1.808      2.622    25.0738 0.0000e+00
      1.856      0.057     8.7481    105.861     35.114  35.110442     7.7312      8.369   255.2872 8.0369e+00     2.7013      1.821      2.641    25.0538 0.0000e+00
      1.867      0.052     8.7300    105.589     35.132  35.109637     7.8488      8.370   254.4759 7.9253e+00     2.6863      1.831      2.656    25.0357 0.0000e+00
      1.879      0.050     8.7115    105.309     35.164  35.120755     7.9126      8.371   253.6827 7.8016e+00     2.6721      1.842      2.672    25.0276 0.0000e+00
      1.892      0.052     8.6897    104.964     35.318  35.244847     7.9136      8.370   254.0423 7.6748e+00     2.6823      1.855      2.692    25.0150 0.0000e+00
      1.904      0.058     8.6630    104.475     35.794  35.657167     7.9064      8.362   255.8122 7.5662e+00     2.7788      1.867      2.709    24.9905 0.0000e+00
      1.916      0.067     8.6332    103.862     36.403  36.167647     7.8806      8.348   257.3584 7.4625e+00     2.8931      1.878      2.724    24.9621 0.0000e+00
      1.930      0.075     8.5971    103.168     36.735  36.398599     7.8599      8.333   257.7670 7.2965e+00     2.9348      1.890      2.741    24.9339 0.0000e+00
      1.953      0.080     8.5334    102.193     36.835  36.416709     7.8580      8.318   257.4827 7.0385e+00     2.9165      1.913      2.773    24.9090 0.0000e+00
      1.983      0.082     8.4050    100.496     36.869  36.386491     7.8858      8.303   257.3625 6.7808e+00     2.8864      1.948      2.825    24.8280 0.0000e+00
      2.009      0.082     8.1959     97.866     36.822  36.287241     7.9387      8.286   257.3456 6.6005e+00     2.8763      1.974      2.863    24.6705 0.0000e+00
      2.028      0.078     7.9397     94.694     36.750  36.169474     7.9742      8.268   257.1062 6.4682e+00     2.8849      1.989      2.885    24.5236 0.0000e+00
      2.044      0.071     7.6929     91.649     36.729  36.105935     7.9927      8.249   257.3937 6.3470e+00     2.8997      2.005      2.908    24.4178 0.0000e+00
      2.059      0.065     7.4900     89.154     36.749  36.090648     8.0052      8.228   257.9824 6.2176e+00     2.9024      2.020      2.929    24.3347 0.0000e+00
      2.074      0.063     7.3458     87.365     36.933  36.238686     8.1631      8.207   258.4589 6.0816e+00     2.8567      2.035      2.951    24.2654 0.0000e+00
      2.089      0.065     7.2673     86.320     37.250  36.498270     8.4768      8.185   258.9391 5.9413e+00     2.7743      2.049      2.971    24.2036 0.0000e+00
      2.106      0.067     7.2510     85.954     37.396  36.561165     8.6552      8.162   259.3149 5.7962e+00     2.7295      2.066      2.996    24.1403 0.0000e+00
      2.124      0.070     7.2874     86.189     37.351  36.427313     8.6661      8.139   259.8195 5.6677e+00     2.7420      2.083      3.021    24.0945 0.0000e+00
      2.142      0.073     7.3572     86.847     37.145  36.150242     8.5348      8.116   260.4802 5.5457e+00     2.8040      2.100      3.045    24.0658 0.0000e+00
      2.162      0.075     7.4341     87.612     36.867  35.815469     8.2995      8.091   260.9360 5.4120e+00     2.8691      2.121      3.076    24.0035 0.0000e+00
      2.181      0.076     7.5010     88.260     36.794  35.682717     8.1827      8.067   261.2866 5.2740e+00     2.8879      2.140      3.104    23.8840 0.0000e+00
      2.201      0.076     7.5545     88.757     36.926  35.751997     8.1789      8.044   261.7942 5.1409e+00     2.9089      2.158      3.129    23.7461 0.0000e+00
      2.222      0.074     7.6025     89.191     37.063  35.827252     8.2262      8.022   262.2555 5.0169e+00     2.9408      2.179      3.160    23.6482 0.0000e+00
      2.242      0.071     7.6480     89.581     37.131  35.830275     8.3137      8.004   262.3891 4.8988e+00     2.9373      2.200      3.190    23.5723 0.0000e+00
      2.260      0.066     7.6782     89.781     37.224  35.851979     8.3542      7.989   262.2921 4.7943e+00     2.8976      2.217      3.216    23.4805 0.0000e+00
      2.276      0.061     7.6755     89.581     37.349  35.899000     8.3486      7.975   262.3730 4.7095e+00     2.8879      2.232      3.238    23.4032 0.0000e+00
      2.291      0.056     7.6284     88.885     37.408  35.890523     8.2463      7.964   262.6789 4.6399e+00     3.0024      2.248      3.260    23.3327 0.0000e+00
      2.304      0.052     7.5373     87.731     37.437  35.876438     8.0457      7.954   262.8070 4.5884e+00     3.2144      2.261      3.279    23.2403 0.0000e+00
      2.315      0.051     7.4070     86.116     37.530  35.919205     7.9262      7.942   263.0616 4.5271e+00     3.3453      2.270      3.292    23.1606 0.0000e+00
      2.326      0.053     7.2497     84.077     37.680  35.962904     7.8860      7.927   263.9506 4.4450e+00     3.3645      2.279      3.306    23.0499 0.0000e+00
      2.338      0.056     7.0715     81.666     37.854  35.959996     7.6508      7.910   264.6935 4.3759e+00     3.5080      2.293      3.325    22.9464 0.0000e+00
      2.352      0.059     6.8517     78.760     38.036  35.947319     7.2244      7.892   264.9890 4.3066e+00     3.7981      2.306      3.344    22.9111 0.0000e+00
      2.369      0.061     6.5572     75.103     38.176  35.936409     6.9940      7.875   265.7167 4.1974e+00     3.9427      2.321      3.366    22.8771 0.0000e+00
      2.389      0.063     6.1833     70.638     38.237  35.891404     6.9788      7.857   266.8670 4.0779e+00     3.9439      2.344      3.399    22.7575 0.0000e+00
      2.407      0.065     5.7724     65.785     38.294  35.847698     6.9766      7.837   268.0553 4.0149e+00     3.9641      2.365      3.429    22.5044 0.0000e+00
      2.419      0.065     5.3754     61.117     38.533  35.979537     6.9776      7.817   269.1578 3.9564e+00     3.9745      2.372      3.440    22.2176 0.0000e+00
      2.433      0.064     5.0274     57.047     39.006  36.341902     6.9723      7.796   269.3560 3.8439e+00     3.9784      2.384      3.457    22.0365 0.0000e+00
      2.452      0.063     4.7551     53.865     39.501  36.735074     6.9576      7.773   268.5592 3.7410e+00     3.9797      2.404      3.489    21.9351 0.0000e+00
      2.471      0.061     4.5666     51.658     39.968  37.112329     6.9381      7.748   267.8695 3.6688e+00     3.9289      2.423      3.515    21.7976 0.0000e+00
      2.487      0.060     4.4336     50.080     40.629  37.663330     6.7560      7.724   267.6415 3.6056e+00     3.8833      2.439      3.538    21.6718 0.0000e+00
      2.502      0.056     4.2961     48.412     41.511  38.378357     6.4180      7.701   267.6961 3.5424e+00     3.9169      2.454      3.560    21.5803 0.0000e+00
      2.515      0.051     4.0982     46.025     42.373  39.023341     6.2340      7.679   267.9272 3.4791e+00     3.9690      2.466      3.578    21.4858 0.0000e+00
      2.527      0.047     3.8130     42.660     43.063  39.489575     6.2213      7.658   268.1131 3.4278e+00     3.9645      2.478      3.594    21.4207 0.0000e+00
      2.537      0.046     3.4223     38.169     43.576  39.822099     6.2652      7.636   268.2229 3.3842e+00     3.8928      2.489      3.610    21.3665 0.0000e+00
      2.547      0.047     2.9246     32.555     43.999  40.121067     6.3507      7.615   268.2216 3.3502e+00     3.8034      2.498      3.623    21.2468 0.0000e+00
      2.558      0.049     2.3544     26.169     44.494  40.499271     6.4005      7.593   268.2697 3.3241e+00     3.7688      2.508      3.638    21.0546 0.0000e+00
      2.570      0.053     1.7572     19.496     45.099  40.963801     6.3990      7.568   268.8903 3.2828e+00     3.7794      2.520      3.655    20.8332 0.0000e+00
      2.584      0.058     1.1858     13.133     45.837  41.543998     6.3043      7.538   269.7892 3.2180e+00     3.8408      2.534      3.675    20.6574 0.0000e+00
      2.599      0.063     0.6824      7.546     48.045  43.447700     6.1289      7.505   270.5342 3.1400e+00     3.9314      2.549      3.697    20.5865 0.0000e+00
      2.616      0.067     0.2691      2.972     53.453  48.220950     6.0242      7.470   271.1870 3.0593e+00     3.9590      2.565      3.720    20.5187 0.0000e+00
      2.636      0.070    -0.0326     -0.355     60.497  54.447400     5.9850      7.437   271.5728 2.9845e+00     3.9600      2.585      3.749    20.4080 0.0000e+00
      2.655      0.070    -0.2206     -2.420     67.086  60.245816     5.7564      7.407   272.0162 2.9189e+00     4.1273      2.605      3.778    20.3130 0.0000e+00
      2.674      0.069    -0.3187     -3.491     72.719  65.167279     5.3474      7.377   272.9338 2.8629e+00     4.4252      2.623      3.804    20.2213 0.0000e+00
      2.691      0.068    -0.3512     -3.841     76.372  68.282514     5.1197      7.349   273.8055 2.8084e+00     4.5717      2.640      3.829    20.1124 0.0000e+00
      2.707      0.065    -0.3321     -3.624     78.333  69.856952     5.0795      7.323   274.0383 2.7520e+00     4.5863      2.655      3.851    19.9998 0.0000e+00
      2.722      0.062    -0.2798     -3.047     79.775  70.968933     4.9998      7.300   274.0273 2.6946e+00     4.6621      2.670      3.872    19.9012 0.0000e+00
      2.738      0.059    -0.2141     -2.328     81.167  72.055093     4.8719      7.278   274.0165 2.6327e+00     4.7870      2.685      3.895    19.8114 0.0000e+00
      2.755      0.055    -0.1454     -1.578     82.812  73.380406     4.8013      7.254   273.7363 2.5725e+00     4.8449      2.702      3.919    19.7071 0.0000e+00
      2.770      0.051    -0.0791     -0.858     85.446  75.601495     4.7895      7.227   273.3922 2.5255e+00     4.8427      2.717      3.941    19.5844 0.0000e+00
      2.782      0.047    -0.0185     -0.201     89.807  79.370240     4.7762      7.196   273.1262 2.4997e+00     4.8222      2.729      3.958    19.4692 0.0000e+00
      2.792      0.045     0.0360      0.389     95.168  84.000222     4.7326      7.162   273.1008 2.4811e+00     4.8408      2.739      3.972    19.3815 0.0000e+00
      2.800      0.045     0.0842      0.909     99.288  87.460139     4.6746      7.131   273.4295 2.4525e+00     4.9462      2.746      3.983    19.2962 0.0000e+00
      2.809      0.048     0.1232      1.326    101.082  88.791923     4.6545      7.099   273.5734 2.4179e+00     5.0284      2.754      3.995    19.2280 0.0000e+00
      2.821      0.054     0.1549      1.662    102.888  90.104098     4.6737      7.062   273.3776 2.3748e+00     5.0407      2.765      4.011    19.1887 0.0000e+00
      2.835      0.062     0.1829      1.958    106.194  92.751411     4.8331      7.020   272.9543 2.3204e+00     5.1552      2.779      4.032    19.1441 0.0000e+00
      2.852      0.069     0.2036      2.176    108.777  94.810665     5.1115      6.977   271.0367 2.2624e+00     5.3760      2.797      4.056    19.0564 0.0000e+00
      2.872      0.074     0.2164      2.310    110.127  95.827786     5.2736      6.936   266.9701 2.1964e+00     5.4829      2.814      4.082    18.9185 0.0000e+00
      2.895      0.075     0.2247      2.395    112.338  97.594976     5.4791      6.901   262.2443 2.1193e+00     5.5316      2.840      4.118    18.7794 0.0000e+00
      2.917      0.073     0.2292      2.439    114.641  99.419631     7.5396      6.873   257.8643 2.0446e+00     6.0868      2.863      4.152    18.6593 0.0000e+00
      2.937      0.068     0.2313      2.458    114.200  98.837175    11.3019      6.851   253.7613 1.9889e+00     7.0998      2.880      4.177    18.5682 0.0000e+00
      2.953      0.062     0.2323      2.463    111.731  96.478077    13.3533      6.832   249.7184 1.9546e+00     7.6780      2.896      4.201    18.5036 0.0000e+00
      2.966      0.056     0.2321      2.456    111.592  96.127911    13.5036      6.816   245.7212 1.9220e+00     7.7985      2.909      4.220    18.4392 0.0000e+00
      2.977      0.052     0.2317      2.448    114.484  98.425735    13.0832      6.803   241.9113 1.8873e+00     7.9460      2.920      4.235    18.3618 0.0000e+00
      2.988      0.050     0.2321      2.449    117.871 101.195082    12.2857      6.792   238.0691 1.8633e+00     8.1497      2.931      4.250    18.2718 0.0000e+00
      3.001      0.050     0.2319      2.445    121.573 104.249607    11.8561      6.783   233.8533 1.8417e+00     8.2465      2.943      4.268    18.1710 0.0000e+00
      3.014      0.052     0.2300      2.421    125.750 107.696608    11.8033      6.775   229.2259 1.8096e+00     8.2006      2.956      4.287    18.0608 0.0000e+00
      3.027      0.057     0.2255      2.370    130.176 111.319020    11.5743      6.768   224.2792 1.7716e+00     7.7776      2.969      4.305    17.9736 0.0000e+00
      3.041      0.062     0.2200      2.309    133.039 113.555378    11.1548      6.762   219.5579 1.7309e+00     7.0080      2.983      4.325    17.9202 0.0000e+00
      3.057      0.067     0.2179      2.282    132.670 112.993363    10.9221      6.756   214.9885 1.6827e+00     6.5858      2.998      4.347    17.8739 0.0000e+00
      3.076      0.071     0.2184      2.283    131.038 111.346651    10.8930      6.752   209.4690 1.6244e+00     6.5182      3.015      4.373    17.8227 0.0000e+00
      3.097      0.074     0.2186      2.280    130.022 110.223646    10.7392      6.748   203.2417 1.5634e+00     6.0994      3.037      4.405    17.7611 0.0000e+00
      3.117      0.074     0.2182      2.272    129.640 109.616554    10.4499      6.744   196.9963 1.5182e+00     5.3070      3.058      4.436    17.6793 0.0000e+00
      3.136      0.070     0.2187      2.272    129.375 109.106575    10.2999      6.741   190.9153 1.4777e+00     4.8710      3.075      4.460    17.5799 0.0000e+00
      3.155      0.063     0.2207      2.288    129.466 108.966256    10.2767      6.739   185.2975 1.4209e+00     4.8564      3.094      4.488    17.4796 0.0000e+00
      3.174      0.055     0.2224      2.303    130.286 109.513514    10.1324      6.739   180.2659 1.3699e+00     4.7642      3.115      4.518    17.3870 0.0000e+00
      3.186      0.048     0.2211      2.287    130.304 109.411499     9.8871      6.740   175.8512 1.3476e+00     4.5499      3.126      4.534    17.2776 0.0000e+00
      3.194      0.043     0.2166      2.239    128.300 107.605015     9.7647      6.742   171.8427 1.3447e+00     4.4326      3.132      4.542    17.1494 0.0000e+00
      3.201      0.042     0.2106      2.173    126.731 106.095058     9.7461      6.744   167.7637 1.3431e+00     4.4133      3.140      4.555    17.0651 0.0000e+00
      3.208      0.044     0.2064      2.124    128.049 106.900460     9.6616      6.746   163.5297 1.3175e+00     4.3785      3.146      4.563    17.0258 0.0000e+00
      3.218      0.049     0.2055      2.110    128.778 107.206824     8.9089      6.746   159.4525 1.2660e+00     4.2253      3.153      4.573    16.9764 0.0000e+00
      3.233      0.057     0.2047      2.098    124.297 103.232514     7.5469      6.747   155.8076 1.2253e+00     3.9651      3.170      4.598    16.9392 0.0000e+00
      3.251      0.065     0.2035      2.081    118.100  97.852653     6.8043      6.749   152.7565 1.1950e+00     3.7958      3.188      4.624    16.8776 0.0000e+00
      3.269      0.074     0.2041      2.082    116.295  96.074870     6.7311      6.752   150.0087 1.1520e+00     3.7339      3.205      4.648    16.7373 0.0000e+00
      3.288      0.080     0.2060      2.095    117.728  96.904858     6.6064      6.754   147.4500 1.0973e+00     3.5834      3.224      4.675    16.6084 0.0000e+00
      3.308      0.085     0.2085      2.112    119.314  97.820685     6.3624      6.756   145.2216 1.0313e+00     3.3180      3.243      4.703    16.5193 0.0000e+00
      3.332      0.087     0.2125      2.146    121.047  98.864375     6.2164      6.759   143.1990 9.6653e-01     3.1498      3.266      4.738    16.4275 0.0000e+00
      3.357      0.087     0.2177      2.190    122.853  99.965355     6.1824      6.765   141.1481 9.1642e-01     3.1058      3.294      4.778    16.3189 0.0000e+00
      3.381      0.086     0.2217      2.225    124.180 100.681415     5.9612      6.771   138.9228 8.7736e-01     3.0312      3.317      4.811    16.1603 0.0000e+00
      3.402      0.082     0.2250      2.252    125.210 101.212860     5.5637      6.777   136.5988 8.4568e-01     2.9491      3.336      4.839    15.9820 0.0000e+00
      3.422      0.077     0.2295      2.293    126.230 101.802149     5.3549      6.783   134.3017 8.0944e-01     2.9372      3.356      4.867    15.8365 0.0000e+00
      3.441      0.071     0.2332      2.325    127.120 102.325331     5.3392      6.789   132.2276 7.7966e-01     2.9489      3.375      4.895    15.6838 0.0000e+00
      3.459      0.066     0.2331      2.320    127.867 102.758456     5.3380      6.793   130.5354 7.6271e-01     2.9378      3.393      4.921    15.5228 0.0000e+00
      3.475      0.061     0.2308      2.295    128.540 103.151056     5.3396      6.795   128.7267 7.3650e-01     2.9244      3.409      4.945    15.4041 0.0000e+00
      3.490      0.057     0.2258      2.244    129.392 103.694084     5.3406      6.797   126.4481 7.0940e-01     2.9399      3.424      4.966    15.3162 0.0000e+00
      3.502      0.055     0.2187      2.171    134.535 107.666867     5.3413      6.799   124.3220 6.9556e-01     2.9414      3.435      4.982    15.2405 0.0000e+00
      3.515      0.053     0.2137      2.119    167.629 133.973353     5.3393      6.801   122.4651 6.8970e-01     2.9129      3.446      4.998    15.1755 0.0000e+00
      3.528      0.051     0.2087      2.068    250.575 200.079883     5.3347      6.802   120.4300 6.8573e-01     2.9317      3.461      5.018    15.1195 0.0000e+00
      3.541      0.050     0.2006      1.987    344.870 275.181257     5.3317      6.802   118.3868 6.7745e-01     2.9852      3.472      5.036    15.0670 0.0000e+00
      3.555      0.047     0.1916      1.897    391.620 312.275128     5.3211      6.803   116.5178 6.6526e-01     3.0106      3.486      5.057    15.0123 0.0000e+00
      3.569      0.042     0.1840      1.820    386.031 307.645125     5.2431      6.803   114.6955 6.5905e-01     2.9946      3.501      5.079    14.9622 0.0000e+00
      3.579      0.036     0.1775      1.755    362.281 288.635301     5.1046      6.803   113.0447 6.5770e-01     2.9435      3.511      5.093    14.9285 0.0000e+00
      3.587      0.033     0.1742      1.722    351.036 279.661234     5.0354      6.803   112.3033 6.5580e-01     2.9115      3.518      5.103    14.8984 0.0000e+00
      3.593 -9.990e-29 -9.990e-29 -9.990e-29 -9.990e-29 -9.990e-29 -9.990e-29 -9.990e-29 -9.990e-29 6.5272e-01 -9.990e-29      3.524      5.111    14.8652 0.0000e+00
      3.597 -9.990e-29 -9.990e-29 -9.990e-29 -9.990e-29 -9.990e-29 -9.990e-29 -9.990e-29 -9.990e-29 6.4274e-01 -9.990e-29      3.528      5.117    14.8374 0.0000e+00
      3.599 -9.990e-29 -9.990e-29 -9.990e-29 -9.990e-29 -9.990e-29 -9.990e-29 -9.990e-29 -9.990e-29 6.2052e-01 -9.990e-29      3.530      5.119    14.8276 0.0000e+00
      3.599 -9.990e-29 -9.990e-29 -9.990e-29 -9.990e-29 -9.990e-29 -9.990e-29 -9.990e-29 -9.990e-29 6.0589e-01 -9.990e-29      3.530      5.120    14.8315 0.0000e+00
