* Sea-Bird SBE19plus  Data File:
* FileName = C:\DATA\072318_fcr50_0004.hex
* Software version 2.6.3.104 SB_Terminal.dll
* Temperature SN = 7809
* Conductivity SN = 7809
* System UpLoad Time = Jul 23 2018 15:33:58
* <ApplicationData>
* <Seaterm232>
* <SoftwareVersion>2.6.3.104</SoftwareVersion>
* <BuildDate>30-Jun-2017</BuildDate>
* </Seaterm232>
* </ApplicationData>
* cast   4 23 Jul 2018 14:18:10 samples 3223 to 3812, avg = 1, stop = mag switch
# nquan = 15
# nvalues = 403                         
# units = specified
# name 0 = depFM: Depth [fresh water, m]
# name 1 = dz/dtM: Descent Rate [m/s]
# name 2 = sbeox0Mg/L: Oxygen, SBE 43 [mg/l]
# name 3 = sbeox0PS: Oxygen, SBE 43 [% saturation]
# name 4 = specc: Specific Conductance [uS/cm]
# name 5 = c0uS/cm: Conductivity [uS/cm]
# name 6 = flECO-AFL: Fluorescence, WET Labs ECO-AFL/FL [mg/m^3]
# name 7 = ph: pH
# name 8 = orp: Oxidation Reduction Potential [mV]
# name 9 = par/sat/log: PAR/Logarithmic, Satlantic
# name 10 = turbWETntu0: Turbidity, WET Labs ECO [NTU]
# name 11 = prdM: Pressure, Strain Gauge [db]
# name 12 = prdE: Pressure, Strain Gauge [psi]
# name 13 = tv290C: Temperature [ITS-90, deg C]
# name 14 = flag:  0.000e+00
# span 0 =     -0.619,      2.088       
# span 1 =     -0.105,      0.126       
# span 2 =     6.5308,     9.2592       
# span 3 =     76.985,    111.998       
# span 4 =      0.132,     39.962       
# span 5 =   0.127097,  38.872077       
# span 6 =    -0.1952,     8.8020       
# span 7 =      6.239,      8.211       
# span 8 =   257.8735,   473.9774       
# span 9 = 5.2094e+00, 1.2913e+02       
# span 10 =    -0.2878,    49.4636      
# span 11 =     -0.608,      2.048      
# span 12 =     -0.881,      2.970      
# span 13 =    20.5430,    25.0479      
# span 14 = 0.0000e+00, 0.0000e+00      
# interval = seconds: 0.25
# start_time = Jul 23 2018 14:18:10 [Instrument's time stamp, header]
# bad_flag = -9.990e-29
# <Sensors count="9" >
#   <sensor Channel="1" >
#     <!-- Count, Temperature -->
#     <TemperatureSensor SensorID="58" >
#       <SerialNumber>7809</SerialNumber>
#       <CalibrationDate>09-Mar-18</CalibrationDate>
#       <A0>1.21093245e-003</A0>
#       <A1>2.84356597e-004</A1>
#       <A2>-1.94507398e-006</A2>
#       <A3>2.12806664e-007</A3>
#       <Slope>1.00000000</Slope>
#       <Offset>0.0000</Offset>
#     </TemperatureSensor>
#   </sensor>
#   <sensor Channel="2" >
#     <!-- Frequency 0, Conductivity -->
#     <ConductivitySensor SensorID="3" >
#       <SerialNumber>7809</SerialNumber>
#       <CalibrationDate>09-Mar-18</CalibrationDate>
#       <UseG_J>1</UseG_J>
#       <!-- Cell const and series R are applicable only for wide range sensors. -->
#       <SeriesR>0.0000</SeriesR>
#       <CellConst>2000.0000</CellConst>
#       <ConductivityType>0</ConductivityType>
#       <Coefficients equation="0" >
#         <A>0.00000000e+000</A>
#         <B>0.00000000e+000</B>
#         <C>0.00000000e+000</C>
#         <D>0.00000000e+000</D>
#         <M>0.0</M>
#         <CPcor>-9.57000000e-008</CPcor>
#       </Coefficients>
#       <Coefficients equation="1" >
#         <G>-1.00672082e+000</G>
#         <H>1.26906489e-001</H>
#         <I>-1.40584351e-004</I>
#         <J>2.47837121e-005</J>
#         <CPcor>-9.57000000e-008</CPcor>
#         <CTcor>3.2500e-006</CTcor>
#         <!-- WBOTC not applicable unless ConductivityType = 1. -->
#         <WBOTC>0.00000000e+000</WBOTC>
#       </Coefficients>
#       <Slope>1.00000000</Slope>
#       <Offset>0.00000</Offset>
#     </ConductivitySensor>
#   </sensor>
#   <sensor Channel="3" >
#     <!-- Count, Pressure, Strain Gauge -->
#     <PressureSensor SensorID="46" >
#       <SerialNumber>7809</SerialNumber>
#       <CalibrationDate>07-Mar-18</CalibrationDate>
#       <PA0>-4.08176359e-002</PA0>
#       <PA1>4.85188419e-004</PA1>
#       <PA2>-3.51168169e-012</PA2>
#       <PTEMPA0>-5.37806900e+001</PTEMPA0>
#       <PTEMPA1>5.36620721e+001</PTEMPA1>
#       <PTEMPA2>4.87214332e-002</PTEMPA2>
#       <PTCA0>5.25213435e+005</PTCA0>
#       <PTCA1>1.79532409e+000</PTCA1>
#       <PTCA2>-2.84353509e-001</PTCA2>
#       <PTCB0>2.51668750e+001</PTCB0>
#       <PTCB1>3.75000000e-004</PTCB1>
#       <PTCB2>0.00000000e+000</PTCB2>
#       <Offset>0.000000</Offset>
#     </PressureSensor>
#   </sensor>
#   <sensor Channel="4" >
#     <!-- A/D voltage 0, pH -->
#     <pH_Sensor SensorID="43" >
#       <SerialNumber>0363</SerialNumber>
#       <CalibrationDate>16-Mar-18</CalibrationDate>
#       <Slope>4.6194</Slope>
#       <Offset>2.5947</Offset>
#     </pH_Sensor>
#   </sensor>
#   <sensor Channel="5" >
#     <!-- A/D voltage 1, Oxidation Reduction Potential -->
#     <OxidationReductionPotentialSensor SensorID="41" >
#       <SerialNumber>0363</SerialNumber>
#       <CalibrationDate>16-Mar-18</CalibrationDate>
#       <B>2.499480</B>
#       <M>-0.496195</M>
#       <Offset>0.0</Offset>
#     </OxidationReductionPotentialSensor>
#   </sensor>
#   <sensor Channel="6" >
#     <!-- A/D voltage 2, Oxygen, SBE 43 -->
#     <OxygenSensor SensorID="38" >
#       <SerialNumber>0434</SerialNumber>
#       <CalibrationDate>13-Mar-18</CalibrationDate>
#       <Use2007Equation>1</Use2007Equation>
#       <CalibrationCoefficients equation="0" >
#         <!-- Coefficients for Owens-Millard equation. -->
#         <Boc>0.0000</Boc>
#         <Soc>0.0000e+000</Soc>
#         <offset>0.0000</offset>
#         <Pcor>0.00e+000</Pcor>
#         <Tcor>0.0000</Tcor>
#         <Tau>0.0</Tau>
#       </CalibrationCoefficients>
#       <CalibrationCoefficients equation="1" >
#         <!-- Coefficients for Sea-Bird equation - SBE calibration in 2007 and later. -->
#         <Soc>4.5718e-001</Soc>
#         <offset>-0.6113</offset>
#         <A>-4.0649e-003</A>
#         <B> 2.0945e-004</B>
#         <C>-3.3182e-006</C>
#         <D0> 2.5826e+000</D0>
#         <D1> 1.92634e-004</D1>
#         <D2>-4.64803e-002</D2>
#         <E> 3.6000e-002</E>
#         <Tau20> 1.2200</Tau20>
#         <H1>-3.3000e-002</H1>
#         <H2> 5.0000e+003</H2>
#         <H3> 1.4500e+003</H3>
#       </CalibrationCoefficients>
#     </OxygenSensor>
#   </sensor>
#   <sensor Channel="7" >
#     <!-- A/D voltage 3, PAR/Logarithmic, Satlantic -->
#     <PARLog_SatlanticSensor SensorID="76" >
#       <SerialNumber>1122</SerialNumber>
#       <CalibrationDate>22-Jun-2017</CalibrationDate>
#       <a0>9.6090e-001</a0>
#       <a1>8.0780e-001</a1>
#       <Im>1.3589e+000</Im>
#       <Multiplier>1.0000e+000</Multiplier>
#     </PARLog_SatlanticSensor>
#   </sensor>
#   <sensor Channel="8" >
#     <!-- A/D voltage 4, Fluorometer, WET Labs ECO-AFL/FL -->
#     <FluoroWetlabECO_AFL_FL_Sensor SensorID="20" >
#       <SerialNumber>FLNTURT-2496</SerialNumber>
#       <CalibrationDate>25-Jan-2017</CalibrationDate>
#       <ScaleFactor>5.30000000e+001</ScaleFactor>
#       <!-- Dark output -->
#       <Vblank>0.0560</Vblank>
#     </FluoroWetlabECO_AFL_FL_Sensor>
#   </sensor>
#   <sensor Channel="9" >
#     <!-- A/D voltage 5, Turbidity Meter, WET Labs, ECO-NTU -->
#     <TurbidityMeter SensorID="67" >
#       <SerialNumber>FLNTURT-2496</SerialNumber>
#       <CalibrationDate>25-Jan-2017</CalibrationDate>
#       <ScaleFactor>176.000000</ScaleFactor>
#       <!-- Dark output -->
#       <DarkVoltage>0.072000</DarkVoltage>
#     </TurbidityMeter>
#   </sensor>
# </Sensors>
# datcnv_date = Jul 23 2018 15:39:15, 7.26.7.114 [datcnv_vars = 14]
# datcnv_in = C:\DATA\072318_fcr10.hex C:\DATA\SBE19plusV2_7809.xmlcon
# datcnv_skipover = 0
# datcnv_ox_hysteresis_correction = yes
# datcnv_ox_tau_correction = yes
# filter_date = Jul 23 2018 15:39:39, 7.26.7.114
# filter_in = C:\DATA\072318_fcr10.cnv
# filter_low_pass_tc_A = 0.030
# filter_low_pass_tc_B = 0.150
# filter_low_pass_A_vars = prdM prdE tv290C
# filter_low_pass_B_vars = depFM dz/dtM sbeox0Mg/L sbeox0PS specc c0uS/cm flECO-AFL ph orp par/sat/log turbWETntu0
# alignctd_date = Jul 23 2018 15:40:00, 7.26.7.114
# alignctd_in = C:\DATA\072318_fcr10.cnv
# alignctd_adv = dz/dtM 1.000, sbeox0Mg/L 1.000, sbeox0PS 1.000, specc 1.000, c0uS/cm 1.000, flECO-AFL 1.000, ph 1.000, orp 1.000, turbWETntu0 1.000                                                                                 
# file_type = ascii
*END*
     -0.619 1.0768e-23     8.8311     98.182      0.575   0.523608    -0.1873      6.243   465.1316 9.5267e+01    -0.2554     -0.607     -0.880    20.5430 0.0000e+00
     -0.619 1.1845e-22     8.8319     98.192      0.562   0.512163    -0.1935      6.243   465.5104 9.7248e+01    -0.2848     -0.607     -0.881    20.5433 0.0000e+00
     -0.618 1.3029e-21     8.8331     98.206      0.576   0.524833    -0.1851      6.242   465.3839 9.9825e+01    -0.2840     -0.606     -0.880    20.5436 0.0000e+00
     -0.618 1.4332e-20     8.8336     98.211      0.604   0.549979    -0.1876      6.241   464.6344 1.0191e+02    -0.2460     -0.606     -0.879    20.5436 0.0000e+00
     -0.619 1.5765e-19     8.8336     98.211      0.618   0.562547    -0.1952      6.241   463.4171 1.0273e+02    -0.1915     -0.607     -0.880    20.5436 0.0000e+00
     -0.619 1.7342e-18     8.8329     98.203      0.604   0.549968    -0.1941      6.241   462.2813 1.0222e+02    -0.1743     -0.607     -0.880    20.5437 0.0000e+00
     -0.619 1.9076e-17     8.8319     98.192      0.576   0.524718    -0.1927      6.241   462.0859 9.8914e+01    -0.2208     -0.607     -0.880    20.5436 0.0000e+00
     -0.619 2.0984e-16     8.8321     98.194      0.560   0.510893    -0.1885      6.241   461.9150 9.3216e+01    -0.2666     -0.607     -0.880    20.5437 0.0000e+00
     -0.619 2.3082e-15     8.8326     98.199      0.559   0.509646    -0.1793      6.241   461.1623 9.0374e+01    -0.2702     -0.607     -0.880    20.5437 0.0000e+00
     -0.619 2.5390e-14     8.8328     98.201      0.559   0.509637    -0.1738      6.241   462.1056 9.1937e+01    -0.2642     -0.607     -0.880    20.5438 0.0000e+00
     -0.619 2.7929e-13     8.8334     98.208      0.560   0.510780    -0.1763      6.240   466.6948 9.4203e+01    -0.2547     -0.607     -0.880    20.5437 0.0000e+00
     -0.619 3.0722e-12     8.8331     98.205      0.574   0.523470    -0.1825      6.239   472.1669 9.5143e+01    -0.2469     -0.607     -0.881    20.5437 0.0000e+00
     -0.619 3.3794e-11     8.8327     98.200      0.589   0.536248    -0.1848      6.239   473.9774 9.5489e+01    -0.2302     -0.607     -0.880    20.5437 0.0000e+00
     -0.619 3.7174e-10     8.8330     98.204      0.591   0.538450    -0.1767      6.240   473.7019 9.6121e+01    -0.2055     -0.608     -0.881    20.5438 0.0000e+00
     -0.619 4.0891e-09     8.8330     98.205      0.604   0.550093    -0.1676      6.240   473.2236 9.7226e+01    -0.2232     -0.607     -0.881    20.5438 0.0000e+00
     -0.619 4.4980e-08     8.8331     98.206      0.604   0.550188    -0.1752      6.240   470.5170 9.8163e+01    -0.2612     -0.607     -0.881    20.5438 0.0000e+00
     -0.619 4.9478e-07     8.8324     98.198      0.593   0.539604    -0.1856      6.240   465.8415 9.8602e+01    -0.2680     -0.607     -0.880    20.5438 0.0000e+00
     -0.619      0.000     8.8313     98.186      0.603   0.548952    -0.1838      6.241   464.2735 9.8539e+01    -0.2446     -0.608     -0.881    20.5438 0.0000e+00
     -0.619      0.000     8.8315     98.188      0.589   0.536384    -0.1806      6.241   464.7216 9.6514e+01    -0.2223     -0.607     -0.880    20.5439 0.0000e+00
     -0.619      0.001     8.8319     98.193      0.565   0.514470    -0.1834      6.241   461.2791 9.1902e+01    -0.2122     -0.607     -0.880    20.5438 0.0000e+00
     -0.619      0.002     8.8317     98.191      0.590   0.537642    -0.1807      6.242   457.7546 8.6369e+01    -0.1831     -0.607     -0.881    20.5440 0.0000e+00
     -0.619      0.005     8.8318     98.194      0.618   0.562911    -0.1753      6.243   457.7276 8.2079e+01    -0.1761     -0.607     -0.880    20.5442 0.0000e+00
     -0.619      0.007     8.8318     98.195      0.622   0.566342    -0.1824      6.243   458.8012 8.0257e+01    -0.2187     -0.607     -0.880    20.5442 0.0000e+00
     -0.618      0.007     8.8316     98.194      0.636   0.579127    -0.1844      6.243   458.6901 8.0266e+01    -0.2402     -0.607     -0.880    20.5443 0.0000e+00
     -0.613      0.006     8.8325     98.206      0.649   0.590676    -0.1722      6.244   457.4171 8.0455e+01    -0.2234     -0.602     -0.872    20.5443 0.0000e+00
     -0.607      0.005     8.8344     98.230      0.636   0.579150    -0.1630      6.244   457.4332 8.0330e+01    -0.1979     -0.593     -0.860    20.5446 0.0000e+00
     -0.607      0.004     8.8356     98.245      0.621   0.566584    -0.1659      6.243   459.0567 8.0096e+01    -0.2073     -0.594     -0.861    20.5458 0.0000e+00
     -0.610      0.001     8.8356     98.247      0.620   0.565565    -0.1792      6.243   460.7854 7.9875e+01    -0.2448     -0.600     -0.871    20.5470 0.0000e+00
     -0.611     -0.001     8.8344     98.237      0.622   0.566832    -0.1861      6.243   461.9875 7.9390e+01    -0.2553     -0.600     -0.871    20.5481 0.0000e+00
     -0.610      0.001     8.8310     98.227      0.638   0.581912    -0.1766      6.244   461.2017 7.8825e+01    -0.2427     -0.597     -0.865    20.5487 0.0000e+00
     -0.611      0.008     8.8094     98.234      0.680   0.621063    -0.1743      6.254   440.5294 8.2487e+01    -0.2140     -0.597     -0.866    20.5509 0.0000e+00
     -0.614      0.016     8.7380     98.239      0.581   0.532916    -0.1851      6.290   405.0271 9.0824e+01    -0.1840     -0.604     -0.876    20.5504 0.0000e+00
     -0.611      0.023     8.6260     98.246      0.366   0.340481    -0.1885      6.349   391.6756 9.7392e+01    -0.1848     -0.604     -0.875    20.5524 0.0000e+00
     -0.599      0.027     8.5225     98.283      0.274   0.260107    -0.1874      6.394   389.9162 1.0086e+02    -0.2232     -0.588     -0.853    20.5496 0.0000e+00
     -0.584      0.028     8.4486     98.331      0.204   0.195259    -0.1895      6.431   379.7105 1.0449e+02    -0.2520     -0.572     -0.829    20.5676 0.0000e+00
     -0.574      0.028     8.3976     98.360      0.132   0.127097    -0.1868      6.492   373.0755 1.0892e+02    -0.2275     -0.561     -0.813    20.9950 0.0000e+00
     -0.569      0.025     8.3645     98.388      0.138   0.133484    -0.1827      6.581   371.7274 1.1190e+02    -0.2020     -0.556     -0.806    21.8265 0.0000e+00
     -0.567      0.019     8.3415     98.398      0.150   0.145668    -0.1860      6.691   370.3803 1.1269e+02    -0.2177     -0.557     -0.808    22.5027 0.0000e+00
     -0.565      0.014     8.3226     98.386      0.152   0.147593    -0.1890      6.805   369.0044 1.1283e+02    -0.2347     -0.555     -0.806    22.9589 0.0000e+00
     -0.561      0.011     8.3093     98.393      0.161   0.156756    -0.1825      6.904   368.4282 1.1292e+02    -0.2242     -0.550     -0.798    23.2871 0.0000e+00
     -0.556      0.010     8.3010     98.406      0.197   0.193049    -0.1715      6.980   367.9736 1.1306e+02    -0.2126     -0.544     -0.789    23.4936 0.0000e+00
     -0.554      0.010     8.2950     98.404      0.275   0.269356    -0.1760      7.046   367.2933 1.1370e+02    -0.2165     -0.542     -0.786    23.6330 0.0000e+00
     -0.554      0.010     8.2897     98.395      0.325   0.318455    -0.1915      7.116   366.6559 1.1468e+02    -0.2106     -0.543     -0.789    23.7430 0.0000e+00
     -0.553      0.010     8.2857     98.396      0.285   0.279418    -0.1940      7.190   366.0319 1.1530e+02    -0.2022     -0.544     -0.788    23.8374 0.0000e+00
     -0.550      0.009     8.2840     98.406      0.246   0.241243    -0.1867      7.259   365.2545 1.1551e+02    -0.2363     -0.539     -0.782    23.8944 0.0000e+00
     -0.545      0.009     8.2824     98.391      0.307   0.300748    -0.1867      7.315   364.4841 1.1547e+02    -0.2878     -0.533     -0.775    23.9263 0.0000e+00
     -0.541      0.009     8.2814     98.371      0.437   0.428197    -0.1845      7.355   364.2889 1.1464e+02    -0.2761     -0.528     -0.766    23.9518 0.0000e+00
     -0.540      0.008     8.2812     98.362      0.525   0.514002    -0.1690      7.385   364.2702 1.1306e+02    -0.2162     -0.529     -0.767    23.9827 0.0000e+00
     -0.541      0.006     8.2815     98.363      0.525   0.513865    -0.1646      7.435   364.2577 1.1212e+02    -0.1739     -0.532     -0.772    24.0011 0.0000e+00
     -0.540      0.004     8.2840     98.378      0.565   0.553355    -0.1781      7.520   364.8271 1.1220e+02    -0.1011     -0.531     -0.770    23.9999 0.0000e+00
     -0.537      0.004     8.2868     98.388      0.754   0.737832    -0.1756      7.617   365.4752 1.1285e+02    -0.0072     -0.526     -0.763    23.9915 0.0000e+00
     -0.535      0.005     8.2879     98.379      0.925   0.905419    -0.1609      7.700   365.5551 1.1370e+02     0.0159     -0.523     -0.759    23.9884 0.0000e+00
     -0.535      0.005     8.2886     98.373      0.951   0.930929    -0.1668      7.760   365.5346 1.1425e+02    -0.0053     -0.526     -0.762    23.9905 0.0000e+00
     -0.535      0.005     8.2896     98.369      1.004   0.982849    -0.1824      7.796   365.6580 1.1469e+02    -0.0495     -0.527     -0.764    23.9837 0.0000e+00
     -0.533      0.004     8.2915     98.370      1.178   1.152711    -0.1840      7.816   366.3590 1.1470e+02    -0.1216     -0.522     -0.758    23.9667 0.0000e+00
     -0.530      0.004     8.2940     98.374      1.366   1.335978    -0.1765      7.825   368.2458 1.1414e+02    -0.1751     -0.519     -0.753    23.9530 0.0000e+00
     -0.530      0.004     8.2952     98.366      1.520   1.486557    -0.1745      7.825   369.6291 1.1356e+02    -0.1784     -0.520     -0.754    23.9472 0.0000e+00
     -0.530      0.004     8.2967     98.363      1.613   1.578236    -0.1786      7.823   369.9201 1.1324e+02    -0.0998     -0.520     -0.755    23.9404 0.0000e+00
     -0.529      0.003     8.2992     98.376      1.657   1.620071    -0.1791      7.825   370.5598 1.1313e+02     0.0124     -0.519     -0.753    23.9275 0.0000e+00
     -0.528      0.003     8.3014     98.385      1.909   1.865556    -0.1722      7.828   371.5126 1.1292e+02     0.0492     -0.518     -0.752    23.9133 0.0000e+00
     -0.527      0.003     8.3023     98.377      3.160   3.087819    -0.1777      7.830   372.5781 1.1272e+02     0.0392     -0.517     -0.750    23.9000 0.0000e+00
     -0.526      0.004     8.3029     98.372      5.943   5.807142    -0.1907      7.833   374.0649 1.1260e+02     0.0441     -0.516     -0.748    23.8891 0.0000e+00
     -0.526      0.006     8.3032     98.376     10.372  10.135787    -0.1823      7.837   373.8299 1.1245e+02     0.0481     -0.516     -0.748    23.8809 0.0000e+00
     -0.525      0.008     8.3020     98.371     14.974  14.634295    -0.1775      7.837   370.5970 1.1254e+02     0.0252     -0.515     -0.747    23.8722 0.0000e+00
     -0.523      0.010     8.2999     98.363     17.122  16.736793    -0.1879      7.841   362.5954 1.1270e+02    -0.0186     -0.514     -0.745    23.8602 0.0000e+00
     -0.520      0.014     8.2980     98.368     17.416  17.029326    -0.1883      7.861   352.0238 1.1273e+02    -0.0245     -0.511     -0.740    23.8527 0.0000e+00
     -0.515      0.021     8.2962     98.389     17.732  17.346270    -0.1822      7.886   349.2923 1.1241e+02     0.0151     -0.505     -0.733    23.8519 0.0000e+00
     -0.511      0.027     8.2927     98.394     18.421  18.030372    -0.1787      7.896   353.4873 1.1159e+02     0.0340     -0.502     -0.728    23.8574 0.0000e+00
     -0.506      0.032     8.2888     98.378     22.211  21.746736    -0.1832      7.908   341.5722 1.1153e+02     0.1118     -0.499     -0.724    23.8679 0.0000e+00
     -0.495      0.037     8.2864     98.382     29.363  28.759238    -0.1808      7.951   303.0545 1.1268e+02     1.2611     -0.487     -0.707    23.8788 0.0000e+00
     -0.480      0.048     8.2809     98.412     34.090  33.423348    -0.0298      8.018   268.0665 1.1361e+02    13.8694     -0.469     -0.680    23.9048 0.0000e+00
     -0.470      0.067     8.2669     98.430     35.201  34.582686     0.2546      8.072   257.8735 1.1375e+02    36.9251     -0.458     -0.664    23.9375 0.0000e+00
     -0.462      0.090     8.2462     98.452     35.419  34.900871     0.4091      8.100   268.1750 1.1439e+02    49.3997     -0.456     -0.661    23.9503 0.0000e+00
     -0.445      0.110     8.2262     98.531     35.379  34.983964     0.5418      8.108   284.4693 1.1684e+02    49.4636     -0.445     -0.645    23.9490 0.0000e+00
     -0.409      0.123     8.2150     98.684     35.235  34.952343     2.0153      8.106   288.9170 1.1938e+02    37.6972     -0.408     -0.592    23.9968 0.0000e+00
     -0.358      0.126     8.2175     98.918     35.104  34.899825     4.7160      8.096   282.9757 1.1815e+02    15.9610     -0.349     -0.507    24.1001 0.0000e+00
     -0.308      0.120     8.2317     99.212     35.014  34.857245     6.1863      8.082   275.6146 1.1362e+02     4.0936     -0.294     -0.427    24.2472 0.0000e+00
     -0.274      0.103     8.2505     99.509     34.948  34.818704     6.3197      8.079   276.4030 1.1032e+02     3.0060     -0.262     -0.379    24.4438 0.0000e+00
     -0.257      0.078     8.2699     99.790     34.926  34.814972     6.3287      8.089   286.5712 1.0954e+02     2.9328     -0.250     -0.362    24.6120 0.0000e+00
     -0.250      0.051     8.2886    100.052     34.909  34.812152     6.3414      8.098   287.1367 1.0957e+02     2.9033     -0.246     -0.356    24.7201 0.0000e+00
     -0.245      0.031     8.3037    100.262     34.871  34.784621     6.3714      8.103   274.2063 1.0972e+02     2.8031     -0.240     -0.348    24.7813 0.0000e+00
     -0.241      0.019     8.3206    100.486     34.815  34.736191     6.3889      8.105   270.8195 1.0959e+02     2.6973     -0.236     -0.342    24.8121 0.0000e+00
     -0.237      0.014     8.3477    100.825     34.746  34.671233     6.3879      8.108   279.2260 1.0909e+02     2.6311     -0.232     -0.337    24.8368 0.0000e+00
     -0.233      0.010     8.3783    101.202     34.706  34.634410     6.3865      8.108   284.6474 1.0880e+02     2.6435     -0.228     -0.332    24.8571 0.0000e+00
     -0.231      0.008     8.3955    101.413     34.679  34.608560     6.3905      8.105   283.0243 1.0885e+02     2.6943     -0.226     -0.329    24.8717 0.0000e+00
     -0.229      0.006     8.3766    101.183     34.620  34.549249     6.3995      8.104   283.7785 1.0918e+02     2.6961     -0.225     -0.327    24.8813 0.0000e+00
     -0.229      0.004     8.3039    100.299     34.562  34.488939     6.4115      8.104   294.5406 1.0983e+02     2.6657     -0.225     -0.326    24.8874 0.0000e+00
     -0.229      0.004     8.1748     98.729     34.528  34.451027     6.4544      8.105   302.0720 1.1023e+02     2.6619     -0.224     -0.325    24.8915 0.0000e+00
     -0.229      0.004     7.9998     96.597     34.493  34.408442     6.5324      8.108   302.5662 1.0998e+02     2.6814     -0.225     -0.326    24.8937 0.0000e+00
     -0.228      0.005     7.7968     94.119     34.450  34.355144     6.5824      8.113   303.0968 1.0943e+02     2.6878     -0.224     -0.325    24.8918 0.0000e+00
     -0.226      0.006     7.5811     91.486     34.421  34.314731     6.5987      8.118   303.6702 1.0883e+02     2.6780     -0.222     -0.322    24.8886 0.0000e+00
     -0.223      0.006     7.3669     88.877     34.418  34.300895     6.6459      8.122   304.0787 1.0853e+02     2.6856     -0.220     -0.317    24.8835 0.0000e+00
     -0.221      0.006     7.1764     86.562     34.440  34.314885     6.7216      8.126   304.2500 1.0872e+02     2.6879     -0.217     -0.314    24.8735 0.0000e+00
     -0.220      0.005     7.0239     84.713     34.485  34.356837     6.7612      8.131   304.3643 1.0903e+02     2.6744     -0.216     -0.313    24.8571 0.0000e+00
     -0.219      0.004     6.9039     83.267     34.555  34.427014     6.7658      8.135   304.6001 1.0929e+02     2.6764     -0.215     -0.311    24.8381 0.0000e+00
     -0.219      0.003     6.8087     82.126     34.653  34.528211     6.7411      8.136   304.7785 1.0932e+02     2.6812     -0.214     -0.311    24.8234 0.0000e+00
     -0.218      0.003     6.7352     81.246     34.750  34.627636     6.6822      8.137   304.8002 1.0900e+02     2.6717     -0.214     -0.310    24.8114 0.0000e+00
     -0.217      0.003     6.6819     80.609     34.796  34.676383     6.6426      8.138   304.6906 1.0865e+02     2.6522     -0.213     -0.309    24.8056 0.0000e+00
     -0.216      0.004     6.6439     80.154     34.790  34.672984     6.6391      8.135   304.3991 1.0841e+02     2.6594     -0.212     -0.307    24.8083 0.0000e+00
     -0.216      0.005     6.6118     79.773     34.764  34.650059     6.6489      8.124   304.2019 1.0831e+02     2.6969     -0.212     -0.307    24.8137 0.0000e+00
     -0.215      0.005     6.5814     79.417     34.763  34.653281     6.6509      8.109   304.2843 1.0823e+02     2.7102     -0.212     -0.307    24.8187 0.0000e+00
     -0.213      0.004     6.5553     79.112     34.817  34.711941     6.6439      8.104   304.5355 1.0819e+02     2.6976     -0.209     -0.304    24.8224 0.0000e+00
     -0.210      0.003     6.5405     78.942     34.889  34.787655     6.6469      8.107   304.3137 1.0840e+02     2.6665     -0.206     -0.299    24.8251 0.0000e+00
     -0.209      0.003     6.5453     79.004     34.906  34.806511     6.6515      8.109   301.7753 1.0857e+02     2.6699     -0.204     -0.296    24.8286 0.0000e+00
     -0.209      0.005     6.5812     79.434     34.850  34.749371     6.6352      8.110   291.8260 1.0865e+02     2.7691     -0.204     -0.296    24.8354 0.0000e+00
     -0.210      0.010     6.6586     80.360     34.773  34.668452     6.5962      8.119   277.1976 1.0895e+02     2.8588     -0.206     -0.299    24.8442 0.0000e+00
     -0.211      0.020     6.7700     81.698     34.698  34.590344     6.5657      8.129   269.8813 1.0901e+02     2.9000     -0.209     -0.303    24.8502 0.0000e+00
     -0.208      0.033     6.8974     83.236     34.610  34.503664     6.5603      8.128   270.9919 1.0799e+02     2.9317     -0.206     -0.299    24.8518 0.0000e+00
     -0.198      0.046     7.0241     84.770     34.550  34.446159     6.5682      8.119   274.9660 1.0537e+02     2.9371     -0.196     -0.285    24.8510 0.0000e+00
     -0.182      0.056     7.1311     86.062     34.570  34.466712     6.5788      8.108   276.6334 1.0126e+02     2.9349     -0.182     -0.263    24.8440 0.0000e+00
     -0.160      0.059     7.2066     86.969     34.667  34.561616     6.5777      8.098   274.0299 9.6421e+01     2.9345     -0.157     -0.228    24.8362 0.0000e+00
     -0.137      0.058     7.2515     87.505     34.750  34.640862     6.5735      8.098   275.4088 9.2272e+01     2.9323     -0.131     -0.190    24.8389 0.0000e+00
     -0.119      0.053     7.2675     87.688     34.776  34.662646     6.5475      8.115   283.3247 9.0027e+01     2.9383     -0.115     -0.165    24.8442 0.0000e+00
     -0.110      0.049     7.2558     87.528     34.820  34.697967     6.4923      8.138   289.0353 9.0734e+01     2.9465     -0.106     -0.154    24.8458 0.0000e+00
     -0.106      0.045     7.2203     87.087     34.877  34.750312     6.4664      8.149   289.4758 9.3144e+01     2.9410     -0.105     -0.152    24.8410 0.0000e+00
     -0.101      0.041     7.1638     86.412     34.912  34.787387     6.4635      8.149   287.5325 9.4674e+01     2.9012     -0.102     -0.148    24.8381 0.0000e+00
     -0.088      0.036     7.0958     85.612     34.944  34.828646     6.4574      8.146   285.0698 9.6157e+01     2.8313     -0.089     -0.129    24.8353 0.0000e+00
     -0.070      0.026     7.0343     84.894     34.974  34.868068     6.4570      8.142   280.6936 9.8915e+01     2.7679     -0.068     -0.098    24.8185 0.0000e+00
     -0.055      0.014     6.9945     84.432     34.980  34.882947     6.4590      8.142   273.6814 1.0165e+02     2.7150     -0.049     -0.072    24.8064 0.0000e+00
     -0.052      0.001     6.9879     84.364     34.972  34.881516     6.4644      8.152   271.3549 1.0307e+02     2.6803     -0.046     -0.066    24.8117 0.0000e+00
     -0.062     -0.010     7.0296     84.878     34.937  34.850778     6.4660      8.164   279.4082 1.0426e+02     2.6833     -0.058     -0.083    24.8283 0.0000e+00
     -0.078     -0.017     7.1302     86.098     34.849  34.765374     6.4778      8.174   290.6917 1.0495e+02     2.7516     -0.079     -0.114    24.8455 0.0000e+00
     -0.088     -0.018     7.2747     87.848     34.757  34.674654     6.5072      8.179   295.2437 1.0293e+02     2.8649     -0.092     -0.132    24.8566 0.0000e+00
     -0.090     -0.015     7.4292     89.717     34.724  34.643157     6.5172      8.183   293.4067 9.8152e+01     2.9246     -0.090     -0.130    24.8646 0.0000e+00
     -0.086     -0.008     7.5601     91.300     34.782  34.702142     6.5165      8.188   288.0964 9.3284e+01     2.9238     -0.083     -0.122    24.8712 0.0000e+00
     -0.084     -0.002     7.6454     92.332     34.895  34.816169     6.5261      8.194   282.2314 9.0679e+01     2.8551     -0.080     -0.117    24.8745 0.0000e+00
     -0.085      0.002     7.6777     92.725     34.956  34.878505     6.5320      8.199   283.5810 8.9770e+01     2.7646     -0.082     -0.119    24.8755 0.0000e+00
     -0.088      0.003     7.6594     92.508     34.961  34.884172     6.5325      8.203   290.9921 8.9697e+01     2.7460     -0.087     -0.126    24.8774 0.0000e+00
     -0.088      0.004     7.5955     91.741     34.959  34.884697     6.5234      8.205   294.9189 9.0247e+01     2.7213     -0.088     -0.128    24.8789 0.0000e+00
     -0.086      0.005     7.4923     90.499     34.957  34.884857     6.4767      8.206   294.2359 9.0723e+01     2.6799     -0.085     -0.123    24.8810 0.0000e+00
     -0.082      0.007     7.3624     88.938     34.955  34.886110     6.4089      8.206   287.9823 9.0674e+01     2.6729     -0.080     -0.116    24.8824 0.0000e+00
     -0.079      0.010     7.2234     87.269     34.964  34.899853     6.3840      8.205   277.2108 9.0359e+01     2.6668     -0.077     -0.111    24.8839 0.0000e+00
     -0.077      0.014     7.0949     85.729     34.984  34.923986     6.3962      8.204   271.1172 9.0102e+01     2.6673     -0.075     -0.109    24.8872 0.0000e+00
     -0.076      0.019     6.9967     84.550     34.980  34.923829     6.4282      8.205   269.8009 8.9578e+01     2.6785     -0.075     -0.109    24.8904 0.0000e+00
     -0.074      0.028     6.9412     83.885     34.952  34.897959     6.4855      8.205   268.6954 8.7618e+01     2.6809     -0.075     -0.108    24.8947 0.0000e+00
     -0.067      0.039     6.9324     83.780     34.918  34.865273     6.5285      8.201   267.6446 8.3464e+01     2.6959     -0.067     -0.098    24.9020 0.0000e+00
     -0.054      0.050     6.9692     84.220     34.837  34.782704     6.5350      8.192   267.1621 7.4139e+01     2.7380     -0.054     -0.079    24.9098 0.0000e+00
     -0.039      0.060     7.0436     85.107     34.721  34.661845     6.5089      8.178   268.2817 6.1094e+01     2.7938     -0.040     -0.057    24.9141 0.0000e+00
     -0.020      0.065     7.1387     86.247     34.675  34.610820     6.4701      8.165   270.0827 5.4371e+01     2.8514     -0.020     -0.030    24.9172 0.0000e+00
      0.002      0.065     7.2338     87.392     34.739  34.673918     6.4525      8.156   269.5797 5.3716e+01     2.8850      0.003      0.003    24.9196 0.0000e+00
      0.023      0.059     7.3112     88.329     34.854  34.789566     6.4524      8.149   267.2758 5.3325e+01     2.8946      0.025      0.036    24.9179 0.0000e+00
      0.039      0.049     7.3622     88.949     34.929  34.865772     6.4502      8.145   266.1462 5.5148e+01     2.9062      0.041      0.060    24.9082 0.0000e+00
      0.049      0.038     7.3856     89.235     34.959  34.896618     6.4617      8.145   265.9882 5.8430e+01     2.8734      0.049      0.071    24.8990 0.0000e+00
      0.054      0.028     7.3824     89.199     34.969  34.908439     6.4908      8.150   265.5381 6.0971e+01     2.7725      0.053      0.078    24.8987 0.0000e+00
      0.058      0.020     7.3516     88.828     34.942  34.881664     6.5074      8.159   264.9194 6.3086e+01     2.6933      0.056      0.083    24.9005 0.0000e+00
      0.060      0.015     7.2912     88.090     34.891  34.826959     6.5159      8.167   264.5304 6.4049e+01     2.7096      0.058      0.085    24.9029 0.0000e+00
      0.062      0.014     7.2053     87.039     34.824  34.755154     6.5382      8.176   264.5341 6.4944e+01     2.7856      0.060      0.087    24.9047 0.0000e+00
      0.066      0.014     7.1051     85.822     34.784  34.712182     6.5657      8.186   264.7056 6.6253e+01     2.8501      0.065      0.094    24.9072 0.0000e+00
      0.070      0.014     7.0014     84.567     34.826  34.752009     6.5735      8.193   264.7968 6.7621e+01     2.9093      0.070      0.100    24.9109 0.0000e+00
      0.074      0.015     6.9077     83.433     34.867  34.792064     6.5673      8.198   264.8632 6.9730e+01     2.9520      0.073      0.105    24.9036 0.0000e+00
      0.078      0.016     6.8432     82.650     34.828  34.751859     6.5826      8.195   264.8203 7.1088e+01     2.9393      0.078      0.112    24.8924 0.0000e+00
      0.080      0.014     6.8174     82.324     34.793  34.710515     6.6207      8.186   264.5364 7.2298e+01     2.9082      0.079      0.112    24.8899 0.0000e+00
      0.084      0.009     6.8209     82.348     34.828  34.736804     6.6424      8.179   264.1838 7.3876e+01     2.8815      0.081      0.117    24.8882 0.0000e+00
      0.090      0.001     6.8375     82.539     34.847  34.752107     6.6516      8.175   263.9128 7.4828e+01     2.8598      0.090      0.131    24.8865 0.0000e+00
      0.094     -0.012     6.8544     82.744     34.800  34.704989     6.6955      8.175   263.9270 7.6669e+01     2.8290      0.096      0.139    24.8876 0.0000e+00
      0.091     -0.030     6.8612     82.826     34.707  34.611737     6.7603      8.176   264.1826 7.9219e+01     2.7844      0.092      0.133    24.8776 0.0000e+00
      0.081     -0.053     6.8492     82.679     34.609  34.513859     6.7917      8.177   264.4218 8.2121e+01     2.7778      0.082      0.118    24.8591 0.0000e+00
      0.066     -0.077     6.8157     82.267     34.573  34.474331     6.7897      8.182   264.5818 8.5635e+01     2.7807      0.067      0.096    24.8548 0.0000e+00
      0.043     -0.097     6.7649     81.628     34.625  34.514914     6.7272      8.189   264.6558 9.1862e+01     2.7578      0.045      0.065    24.8590 0.0000e+00
      0.012     -0.105     6.7043     80.873     34.745  34.623409     6.6050      8.194   264.8002 1.0543e+02     2.7450      0.017      0.025    24.8554 0.0000e+00
     -0.028     -0.101     6.6503     80.214     34.832  34.706319     6.5351      8.195   265.0370 1.1837e+02     2.7173     -0.028     -0.041    24.8568 0.0000e+00
     -0.067     -0.087     6.6208     79.860     34.817  34.691628     6.5248      8.197   265.1090 1.2023e+02     2.6678     -0.071     -0.103    24.8586 0.0000e+00
     -0.091     -0.067     6.6170     79.825     34.757  34.636330     6.5177      8.200   264.9831 1.1770e+02     2.6644     -0.095     -0.138    24.8330 0.0000e+00
     -0.099     -0.043     6.6260     79.951     34.722  34.609391     6.5588      8.203   264.9769 1.1665e+02     2.7688     -0.101     -0.146    24.8118 0.0000e+00
     -0.096     -0.021     6.6347     80.072     34.724  34.619992     6.6544      8.208   265.2065 1.1632e+02     2.8919     -0.093     -0.135    24.8123 0.0000e+00
     -0.093     -0.006     6.6363     80.101     34.737  34.637492     6.7180      8.211   265.2650 1.1633e+02     2.9318     -0.089     -0.131    24.8114 0.0000e+00
     -0.092      0.002     6.6288     80.016     34.728  34.630428     6.7314      8.210   264.9959 1.1618e+02     2.9467     -0.091     -0.132    24.8178 0.0000e+00
     -0.092      0.003     6.6125     79.823     34.694  34.598100     6.7519      8.208   264.7910 1.1655e+02     2.9187     -0.090     -0.130    24.8336 0.0000e+00
     -0.092      0.002     6.5925     79.580     34.660  34.564212     6.8000      8.209   264.7668 1.1700e+02     2.8672     -0.090     -0.131    24.8459 0.0000e+00
     -0.091      0.000     6.5754     79.367     34.638  34.538285     6.8449      8.211   264.7892 1.1740e+02     2.9043     -0.090     -0.130    24.8520 0.0000e+00
     -0.090     -0.001     6.5647     79.227     34.643  34.538681     6.8624      8.211   264.9753 1.1784e+02     2.9400     -0.089     -0.128    24.8552 0.0000e+00
     -0.090     -0.001     6.5624     79.188     34.679  34.569001     6.8833      8.211   265.2969 1.1821e+02     2.8413     -0.088     -0.128    24.8572 0.0000e+00
     -0.091     -0.001     6.5704     79.274     34.702  34.587278     6.9317      8.209   265.4942 1.1870e+02     2.7181     -0.089     -0.129    24.8573 0.0000e+00
     -0.093     -0.001     6.5863     79.458     34.687  34.569113     6.9701      8.208   265.5533 1.1917e+02     2.7011     -0.092     -0.133    24.8522 0.0000e+00
     -0.094     -0.001     6.6037     79.661     34.662  34.539915     6.9797      8.208   265.5820 1.1967e+02     2.7280     -0.093     -0.135    24.8432 0.0000e+00
     -0.093      0.000     6.6161     79.801     34.678  34.551827     6.9464      8.208   265.4961 1.2010e+02     2.7680     -0.090     -0.131    24.8348 0.0000e+00
     -0.092      0.001     6.6222     79.867     34.843  34.713138     6.8798      8.208   265.2897 1.2047e+02     2.8498     -0.089     -0.130    24.8287 0.0000e+00
     -0.092      0.001     6.6382     80.062     35.159  35.029365     6.8448      8.208   265.0654 1.2089e+02     2.9233     -0.090     -0.131    24.8236 0.0000e+00
     -0.092      0.001     6.7133     81.002     35.378  35.262851     6.8448      8.208   264.9350 1.2136e+02     2.9548     -0.090     -0.130    24.8184 0.0000e+00
     -0.092      0.000     6.9146     83.497     35.398  35.313031     6.8159      8.208   264.9180 1.2172e+02     2.9568     -0.090     -0.130    24.8121 0.0000e+00
     -0.091 -4.951e-07     7.2602     87.741     35.373  35.318534     6.7440      8.209   264.9454 1.2188e+02     2.9465     -0.089     -0.129    24.8073 0.0000e+00
     -0.091     -0.000     7.6959     93.055     35.363  35.329434     6.7022      8.209   265.0945 1.2202e+02     2.9219     -0.089     -0.129    24.8006 0.0000e+00
     -0.091     -0.000     8.1487     98.558     35.341  35.317814     6.7056      8.209   265.3445 1.2214e+02     2.9035     -0.091     -0.131    24.8188 0.0000e+00
     -0.091     -0.001     8.5581    103.523     35.323  35.305095     6.6928      8.206   265.4724 1.2224e+02     2.8770     -0.090     -0.131    24.8763 0.0000e+00
     -0.090     -0.002     8.8852    107.487     35.318  35.302700     6.6580      8.200   265.2647 1.2226e+02     2.7848     -0.089     -0.129    24.9244 0.0000e+00
     -0.090     -0.005     9.1137    110.250     35.304  35.288851     6.6342      8.192   264.9843 1.2243e+02     2.7035     -0.089     -0.129    24.9495 0.0000e+00
     -0.091     -0.007     9.2349    111.711     35.282  35.264693     6.6247      8.186   264.8351 1.2318e+02     2.6879     -0.089     -0.129    24.9644 0.0000e+00
     -0.094     -0.008     9.2592    111.998     35.284  35.264692     6.6263      8.182   264.6653 1.2413e+02     2.6871     -0.091     -0.131    24.9709 0.0000e+00
     -0.099     -0.008     9.2157    111.472     35.308  35.288829     6.6816      8.179   264.6522 1.2518e+02     2.6950     -0.096     -0.140    24.9736 0.0000e+00
     -0.104     -0.006     9.1383    110.545     35.318  35.302459     6.7782      8.172   264.7623 1.2659e+02     2.7224     -0.102     -0.149    24.9727 0.0000e+00
     -0.106     -0.004     9.0555    109.559     35.313  35.302448     6.8302      8.162   264.7918 1.2763e+02     2.7433     -0.105     -0.152    24.9694 0.0000e+00
     -0.105     -0.001     8.9831    108.703     35.293  35.288703     6.8312      8.156   264.7515 1.2747e+02     2.7343     -0.105     -0.151    24.9651 0.0000e+00
     -0.101      0.002     8.9253    108.019     35.262  35.263314     6.8000      8.155   264.7048 1.2697e+02     2.7663     -0.098     -0.142    24.9643 0.0000e+00
     -0.100      0.006     8.8793    107.474     35.244  35.249569     6.7465      8.157   264.8289 1.2729e+02     2.8544     -0.096     -0.139    24.9695 0.0000e+00
     -0.101      0.009     8.8433    107.042     35.243  35.249559     6.7177      8.158   265.1330 1.2764e+02     2.9144     -0.101     -0.146    24.9785 0.0000e+00
     -0.100      0.010     8.8158    106.709     35.257  35.263197     6.7093      8.155   265.3713 1.2726e+02     2.9428     -0.100     -0.145    24.9887 0.0000e+00
     -0.095      0.010     8.7950    106.454     35.282  35.287424     6.6821      8.150   265.3873 1.2696e+02     2.8926     -0.094     -0.136    24.9974 0.0000e+00
     -0.090      0.009     8.7790    106.260     35.283  35.288403     6.6543      8.148   265.2397 1.2722e+02     2.7964     -0.088     -0.127    25.0028 0.0000e+00
     -0.085      0.008     8.7662    106.108     35.269  35.275030     6.6586      8.151   265.0498 1.2748e+02     2.7562     -0.082     -0.119    25.0048 0.0000e+00
     -0.083      0.006     8.7553    105.980     35.244  35.252777     6.6691      8.159   264.8981 1.2728e+02     2.7115     -0.080     -0.116    25.0033 0.0000e+00
     -0.085      0.004     8.7427    105.834     35.199  35.209897     6.7085      8.168   264.9537 1.2703e+02     2.7136     -0.083     -0.121    25.0016 0.0000e+00
     -0.088      0.003     8.7234    105.612     35.186  35.201226     6.7942      8.173   265.2932 1.2713e+02     2.8423     -0.087     -0.126    25.0008 0.0000e+00
     -0.088      0.003     8.6980    105.314     35.193  35.211461     6.8414      8.173   265.5611 1.2715e+02     2.9554     -0.087     -0.127    25.0030 0.0000e+00
     -0.085      0.004     8.6751    105.043     35.186  35.206615     6.8477      8.168   265.5251 1.2693e+02     2.9522     -0.084     -0.121    25.0059 0.0000e+00
     -0.081      0.005     8.6626    104.893     35.185  35.206160     6.8514      8.164   265.3736 1.2698e+02     2.8948     -0.080     -0.115    25.0083 0.0000e+00
     -0.079      0.005     8.6611    104.872     35.185  35.205963     6.8591      8.166   265.2784 1.2714e+02     2.8418     -0.077     -0.112    25.0149 0.0000e+00
     -0.078      0.004     8.6706    104.984     35.185  35.204227     6.8859      8.173   265.3207 1.2715e+02     2.7997     -0.076     -0.110    25.0211 0.0000e+00
     -0.079      0.002     8.6893    105.211     35.166  35.185171     6.9088      8.182   265.4546 1.2714e+02     2.7517     -0.078     -0.113    25.0241 0.0000e+00
     -0.080      0.002     8.7124    105.495     35.146  35.166121     6.9152      8.189   265.5210 1.2715e+02     2.6879     -0.080     -0.115    25.0248 0.0000e+00
     -0.080      0.003     8.7343    105.767     35.142  35.164455     6.9085      8.194   265.4350 1.2718e+02     2.6698     -0.079     -0.114    25.0225 0.0000e+00
     -0.079      0.005     8.7488    105.948     35.140  35.165027     6.9014      8.196   265.2749 1.2715e+02     2.7163     -0.078     -0.112    25.0205 0.0000e+00
     -0.076      0.006     8.7508    105.972     35.148  35.173046     6.9022      8.194   265.2201 1.2724e+02     2.7318     -0.075     -0.109    25.0200 0.0000e+00
     -0.073      0.006     8.7409    105.851     35.173  35.197888     6.8998      8.189   265.3751 1.2743e+02     2.7041     -0.072     -0.104    25.0219 0.0000e+00
     -0.071      0.006     8.7268    105.677     35.188  35.211312     6.8728      8.181   265.6865 1.2754e+02     2.6867     -0.070     -0.101    25.0269 0.0000e+00
     -0.071      0.006     8.7159    105.543     35.186  35.208310     6.8147      8.175   265.9737 1.2768e+02     2.6738     -0.069     -0.100    25.0304 0.0000e+00
     -0.071      0.006     8.7114    105.488     35.203  35.225113     6.7856      8.170   266.0085 1.2767e+02     2.6698     -0.070     -0.101    25.0303 0.0000e+00
     -0.070      0.006     8.7128    105.504     35.201  35.223916     6.7968      8.169   265.7625 1.2733e+02     2.6694     -0.069     -0.099    25.0287 0.0000e+00
     -0.067      0.007     8.7167    105.553     35.171  35.193832     6.8306      8.172   265.4948 1.2710e+02     2.6684     -0.066     -0.094    25.0272 0.0000e+00
     -0.064      0.009     8.7211    105.608     35.156  35.178976     6.8811      8.177   265.3529 1.2714e+02     2.6891     -0.063     -0.091    25.0261 0.0000e+00
     -0.063      0.013     8.7274    105.686     35.147  35.171326     6.9027      8.184   265.2524 1.2727e+02     2.7054     -0.062     -0.090    25.0257 0.0000e+00
     -0.062      0.018     8.7344    105.775     35.139  35.164861     6.9078      8.191   265.2252 1.2751e+02     2.7134     -0.061     -0.089    25.0256 0.0000e+00
     -0.058      0.025     8.7375    105.819     35.137  35.164324     6.9143      8.195   265.2821 1.2774e+02     2.7863     -0.059     -0.085    25.0261 0.0000e+00
     -0.052      0.033     8.7348    105.795     35.134  35.164842     6.9078      8.192   265.0791 1.2913e+02     2.8841     -0.052     -0.076    25.0270 0.0000e+00
     -0.042      0.042     8.7288    105.730     35.137  35.171126     6.9030      8.181   264.5781 1.2788e+02     2.8894     -0.042     -0.062    25.0275 0.0000e+00
     -0.029      0.048     8.7218    105.650     35.141  35.176786     6.9030      8.172   264.0427 1.1886e+02     2.8495     -0.030     -0.043    25.0293 0.0000e+00
     -0.013      0.052     8.7148    105.567     35.134  35.169766     6.9165      8.171   263.5097 1.0840e+02     2.8602     -0.013     -0.019    25.0329 0.0000e+00
      0.003      0.053     8.7122    105.534     35.114  35.149765     6.9471      8.171   263.2100 1.0226e+02     2.8965      0.005      0.008    25.0373 0.0000e+00
      0.018      0.053     8.7159    105.578     35.090  35.125512     6.9698      8.166   263.3442 9.8752e+01     2.8911      0.019      0.027    25.0422 0.0000e+00
      0.029      0.050     8.7215    105.645     35.095  35.130614     6.9796      8.148   263.6702 9.6096e+01     2.8556      0.028      0.041    25.0455 0.0000e+00
      0.041      0.042     8.7260    105.700     35.113  35.147933     6.9730      8.125   263.7965 9.3578e+01     2.8337      0.039      0.057    25.0461 0.0000e+00
      0.055      0.032     8.7315    105.767     35.109  35.144344     6.9454      8.113   263.5805 9.1558e+01     2.7790      0.054      0.078    25.0454 0.0000e+00
      0.066      0.023     8.7369    105.831     35.116  35.150743     6.9115      8.120   263.2090 9.0688e+01     2.6826      0.067      0.098    25.0446 0.0000e+00
      0.071      0.017     8.7398    105.866     35.127  35.161780     6.8949      8.135   263.0915 9.1298e+01     2.6456      0.072      0.105    25.0441 0.0000e+00
      0.068      0.015     8.7392    105.860     35.116  35.150753     6.8916      8.148   263.1916 9.2230e+01     2.6667      0.068      0.097    25.0442 0.0000e+00
      0.064      0.016     8.7342    105.801     35.109  35.144458     6.8720      8.152   262.9571 9.2617e+01     2.7246      0.061      0.088    25.0441 0.0000e+00
      0.065      0.021     8.7286    105.734     35.113  35.149191     6.8507      8.156   262.5788 9.1725e+01     2.8264      0.061      0.089    25.0434 0.0000e+00
      0.074      0.030     8.7254    105.697     35.108  35.144458     6.8538      8.164   262.4037 8.8906e+01     2.8903      0.071      0.101    25.0429 0.0000e+00
      0.088      0.041     8.7239    105.680     35.114  35.150753     6.8550      8.169   262.2166 8.6328e+01     2.9170      0.087      0.126    25.0436 0.0000e+00
      0.100      0.051     8.7232    105.673     35.124  35.161781     6.8832      8.170   262.0373 8.4547e+01     2.9370      0.099      0.144    25.0446 0.0000e+00
      0.112      0.059     8.7250    105.695     35.113  35.150753     6.9652      8.171   261.9561 8.1821e+01     2.9181      0.107      0.156    25.0453 0.0000e+00
      0.128      0.064     8.7285    105.738     35.107  35.144458     7.0196      8.177   262.0100 7.8749e+01     2.9017      0.125      0.181    25.0459 0.0000e+00
      0.146      0.066     8.7314    105.772     35.112  35.149192     7.0262      8.182   262.0860 7.6160e+01     2.9219      0.143      0.208    25.0466 0.0000e+00
      0.166      0.066     8.7327    105.787     35.107  35.144468     6.9715      8.184   261.9284 7.3422e+01     2.9174      0.163      0.237    25.0474 0.0000e+00
      0.186      0.064     8.7316    105.772     35.114  35.150857     6.8555      8.187   261.7396 7.0660e+01     2.8789      0.184      0.267    25.0479 0.0000e+00
      0.203      0.060     8.7291    105.742     35.127  35.162926     6.7902      8.192   261.8673 6.8394e+01     2.8829      0.200      0.291    25.0478 0.0000e+00
      0.217      0.057     8.7266    105.712     35.127  35.163351     6.7981      8.195   262.1823 6.6830e+01     2.9053      0.214      0.311    25.0475 0.0000e+00
      0.227      0.056     8.7246    105.688     35.120  35.155998     6.9042      8.195   262.3649 6.5625e+01     2.8749      0.223      0.323    25.0472 0.0000e+00
      0.236      0.056     8.7249    105.692     35.101  35.137530     7.0898      8.192   262.5272 6.3988e+01     2.8822      0.230      0.334    25.0466 0.0000e+00
      0.250      0.057     8.7279    105.727     35.095  35.130615     7.1855      8.187   262.7674 6.2009e+01     2.9619      0.243      0.353    25.0462 0.0000e+00
      0.269      0.057     8.7320    105.775     35.100  35.135907     7.1983      8.184   263.0318 5.9993e+01     2.9842      0.263      0.382    25.0462 0.0000e+00
      0.288      0.056     8.7367    105.831     35.102  35.137997     7.2068      8.184   263.4013 5.8117e+01     2.9384      0.283      0.410    25.0461 0.0000e+00
      0.303      0.055     8.7404    105.876     35.121  35.155897     7.1513      8.185   263.7936 5.6677e+01     2.8974      0.300      0.434    25.0463 0.0000e+00
      0.315      0.053     8.7414    105.886     35.127  35.161772     7.0409      8.185   264.0751 5.5506e+01     2.8843      0.310      0.450    25.0464 0.0000e+00
      0.325      0.051     8.7394    105.861     35.111  35.145500     6.9759      8.182   264.2240 5.4399e+01     2.9020      0.317      0.460    25.0455 0.0000e+00
      0.335      0.050     8.7337    105.792     35.116  35.149714     6.9620      8.181   264.4753 5.3216e+01     2.9284      0.329      0.476    25.0443 0.0000e+00
      0.348      0.050     8.7252    105.688     35.116  35.149203     6.9286      8.181   264.8764 5.1715e+01     2.9294      0.341      0.494    25.0440 0.0000e+00
      0.363      0.052     8.7166    105.583     35.106  35.139321     6.8658      8.182   265.2022 5.0160e+01     2.9140      0.356      0.517    25.0438 0.0000e+00
      0.378      0.056     8.7091    105.492     35.123  35.157269     6.8367      8.181   265.5749 4.8877e+01     2.9255      0.371      0.540    25.0432 0.0000e+00
      0.391      0.057     8.7016    105.401     35.142  35.175652     6.8427      8.176   265.8550 4.7665e+01     2.9455      0.382      0.556    25.0429 0.0000e+00
      0.404      0.057     8.6938    105.306     35.137  35.171023     6.8746      8.173   265.8359 4.6361e+01     2.9418      0.395      0.574    25.0427 0.0000e+00
      0.421      0.056     8.6880    105.236     35.130  35.164822     6.9371      8.175   265.8599 4.4897e+01     2.9427      0.412      0.597    25.0422 0.0000e+00
      0.438      0.053     8.6879    105.235     35.130  35.164197     6.9741      8.178   266.0593 4.3535e+01     2.9562      0.431      0.625    25.0423 0.0000e+00
      0.453      0.050     8.6946    105.315     35.130  35.163457     6.9824      8.182   266.2675 4.2611e+01     2.9521      0.446      0.647    25.0426 0.0000e+00
      0.463      0.046     8.7044    105.433     35.123  35.155885     7.0461      8.185   266.3986 4.1867e+01     2.9542      0.455      0.659    25.0423 0.0000e+00
      0.472      0.042     8.7133    105.540     35.103  35.136157     7.1559      8.187   266.5262 4.1130e+01     2.9516      0.463      0.672    25.0420 0.0000e+00
      0.481      0.040     8.7222    105.647     35.083  35.115492     7.2072      8.185   266.6061 4.0477e+01     2.8894      0.471      0.684    25.0420 0.0000e+00
      0.490      0.039     8.7304    105.745     35.064  35.096588     7.2067      8.182   266.5046 3.9742e+01     2.8433      0.480      0.696    25.0415 0.0000e+00
      0.501      0.039     8.7320    105.762     35.067  35.098149     7.1964      8.182   266.3309 3.8801e+01     2.8825      0.491      0.712    25.0412 0.0000e+00
      0.514      0.040     8.7237    105.659     35.104  35.134366     7.1749      8.184   266.2264 3.7928e+01     2.9361      0.505      0.733    25.0410 0.0000e+00
      0.525      0.041     8.7067    105.452     35.124  35.153365     7.1571      8.185   266.2738 3.7357e+01     2.9427      0.517      0.749    25.0404 0.0000e+00
      0.532      0.043     8.6887    105.234     35.108  35.137291     7.1469      8.186   266.3015 3.6905e+01     2.9013      0.522      0.757    25.0396 0.0000e+00
      0.540      0.045     8.6796    105.125     35.100  35.130584     7.1433      8.189   266.3035 3.6254e+01     2.8630      0.528      0.766    25.0386 0.0000e+00
      0.552      0.048     8.6770    105.096     35.105  35.135791     7.1506      8.192   266.4695 3.5323e+01     2.9365      0.540      0.784    25.0371 0.0000e+00
      0.567      0.053     8.6761    105.085     35.105  35.136728     7.1615      8.194   266.5880 3.4358e+01     3.0885      0.557      0.808    25.0355 0.0000e+00
      0.582      0.057     8.6782    105.112     35.110  35.141917     7.1645      8.196   266.5312 3.3511e+01     3.1439      0.571      0.829    25.0356 0.0000e+00
      0.597      0.059     8.6840    105.183     35.103  35.135002     7.1600      8.197   266.5581 3.2716e+01     3.1174      0.585      0.849    25.0372 0.0000e+00
      0.613      0.060     8.6935    105.300     35.084  35.116638     7.1716      8.194   266.7409 3.1978e+01     3.1346      0.602      0.873    25.0382 0.0000e+00
      0.629      0.059     8.7066    105.460     35.078  35.110438     7.2033      8.187   266.7619 3.1318e+01     3.1695      0.618      0.896    25.0383 0.0000e+00
      0.644      0.056     8.7217    105.642     35.091  35.123567     7.2222      8.183   266.7265 3.0620e+01     3.1734      0.631      0.915    25.0390 0.0000e+00
      0.659      0.053     8.7355    105.807     35.116  35.148331     7.2155      8.185   266.9157 2.9910e+01     3.1508      0.646      0.937    25.0402 0.0000e+00
      0.674      0.052     8.7441    105.910     35.124  35.155780     7.2052      8.187   267.2426 2.9458e+01     3.1094      0.664      0.963    25.0411 0.0000e+00
      0.684      0.052     8.7480    105.957     35.119  35.150120     7.2078      8.187   267.5815 2.9163e+01     3.1002      0.672      0.975    25.0411 0.0000e+00
      0.693      0.052     8.7497    105.977     35.111  35.143410     7.2189      8.186   267.8300 2.8697e+01     3.1313      0.676      0.982    25.0404 0.0000e+00
      0.706      0.052     8.7493    105.973     35.106  35.138175     7.2300      8.184   267.8374 2.8061e+01     3.1497      0.690      1.001    25.0398 0.0000e+00
      0.723      0.051     8.7420    105.886     35.118  35.150340     7.2320      8.182   267.4998 2.7384e+01     3.1390      0.709      1.028    25.0389 0.0000e+00
      0.740      0.050     8.7244    105.674     35.131  35.163460     7.2235      8.178   267.1891 2.6787e+01     3.1551      0.727      1.055    25.0385 0.0000e+00
      0.754      0.048     8.7013    105.394     35.137  35.169764     7.2101      8.178   267.1777 2.6377e+01     3.1913      0.741      1.075    25.0392 0.0000e+00
      0.764      0.046     8.6801    105.138     35.130  35.163044     7.1995      8.179   267.1899 2.6135e+01     3.1807      0.750      1.088    25.0398 0.0000e+00
      0.771      0.046     8.6661    104.969     35.113  35.145720     7.1689      8.177   267.2509 2.5912e+01     3.1484      0.756      1.097    25.0404 0.0000e+00
      0.779      0.048     8.6594    104.886     35.118  35.150861     7.1153      8.164   267.4000 2.5579e+01     3.1369      0.763      1.106    25.0404 0.0000e+00
      0.790      0.052     8.6574    104.862     35.129  35.161690     7.0938      8.145   267.3578 2.5084e+01     3.1636      0.773      1.120    25.0405 0.0000e+00
      0.807      0.056     8.6591    104.882     35.117  35.149612     7.1020      8.131   267.1706 2.4444e+01     3.1656      0.789      1.144    25.0407 0.0000e+00
      0.827      0.058     8.6629    104.925     35.101  35.131862     7.1035      8.127   267.1146 2.3831e+01     3.1314      0.812      1.177    25.0405 0.0000e+00
      0.845      0.059     8.6672    104.975     35.107  35.137636     7.1121      8.133   267.2831 2.3401e+01     3.1469      0.832      1.207    25.0409 0.0000e+00
      0.858      0.059     8.6726    105.037     35.126  35.155902     7.1330      8.143   267.5736 2.3059e+01     3.1691      0.842      1.221    25.0407 0.0000e+00
      0.869      0.057     8.6807    105.134     35.133  35.162149     7.1445      8.148   267.7872 2.2636e+01     3.1254      0.850      1.233    25.0398 0.0000e+00
      0.883      0.052     8.6890    105.233     35.121  35.149644     7.1510      8.149   267.7157 2.2088e+01     3.0774      0.864      1.254    25.0387 0.0000e+00
      0.898      0.049     8.6920    105.268     35.104  35.131752     7.2300      8.150   267.6549 2.1537e+01     3.0464      0.882      1.279    25.0371 0.0000e+00
      0.913      0.047     8.6900    105.242     35.109  35.136376     7.3824      8.154   267.8254 2.1137e+01     2.9636      0.896      1.300    25.0356 0.0000e+00
      0.924      0.044     8.6879    105.217     35.115  35.142037     7.4670      8.158   267.8849 2.0879e+01     2.9007      0.907      1.316    25.0350 0.0000e+00
      0.933      0.039     8.6880    105.218     35.109  35.136678     7.4720      8.162   267.8587 2.0660e+01     2.9262      0.915      1.327    25.0347 0.0000e+00
      0.941      0.035     8.6880    105.220     35.108  35.135097     7.4520      8.167   267.9387 2.0407e+01     2.9671      0.922      1.338    25.0335 0.0000e+00
      0.950      0.032     8.6867    105.204     35.096  35.122923     7.4189      8.171   267.9918 2.0139e+01     2.9675      0.931      1.351    25.0323 0.0000e+00
      0.959      0.031     8.6847    105.180     35.089  35.116515     7.4118      8.172   268.0703 1.9909e+01     2.9315      0.940      1.364    25.0324 0.0000e+00
      0.966      0.031     8.6846    105.178     35.093  35.121145     7.4117      8.171   268.1992 1.9739e+01     2.8970      0.947      1.374    25.0335 0.0000e+00
      0.972      0.032     8.6875    105.214     35.088  35.115381     7.3449      8.168   268.1740 1.9615e+01     2.9480      0.953      1.382    25.0338 0.0000e+00
      0.978      0.033     8.6916    105.264     35.083  35.110336     7.2293      8.165   268.1091 1.9454e+01     3.0594      0.959      1.391    25.0330 0.0000e+00
      0.987      0.036     8.6933    105.285     35.096  35.123672     7.1623      8.164   268.1034 1.9210e+01     3.0841      0.966      1.402    25.0332 0.0000e+00
      0.998      0.040     8.6890    105.235     35.121  35.149590     7.1587      8.163   268.1051 1.8945e+01     3.0637      0.978      1.419    25.0336 0.0000e+00
      1.009      0.046     8.6802    105.129     35.140  35.169630     7.2412      8.158   268.1296 1.8709e+01     3.0881      0.989      1.436    25.0337 0.0000e+00
      1.019      0.052     8.6731    105.044     35.146  35.175414     7.3880      8.151   268.2274 1.8434e+01     3.1037      0.999      1.449    25.0334 0.0000e+00
      1.031      0.058     8.6719    105.030     35.126  35.155999     7.4637      8.146   268.4271 1.8038e+01     3.0999      1.009      1.464    25.0337 0.0000e+00
      1.048      0.062     8.6766    105.088     35.095  35.125454     7.4669      8.145   268.5660 1.7548e+01     3.1030      1.025      1.488    25.0348 0.0000e+00
      1.068      0.065     8.6831    105.166     35.094  35.123684     7.4720      8.146   268.5305 1.7043e+01     3.1115      1.047      1.519    25.0353 0.0000e+00
      1.089      0.065     8.6856    105.196     35.105  35.134608     7.5256      8.148   268.4273 1.6603e+01     3.1410      1.068      1.551    25.0364 0.0000e+00
      1.106      0.064     8.6797    105.124     35.101  35.130490     7.6187      8.150   268.5233 1.6268e+01     3.1853      1.086      1.575    25.0373 0.0000e+00
      1.119      0.061     8.6675    104.974     35.108  35.137410     7.6606      8.150   268.8308 1.6014e+01     3.1894      1.097      1.592    25.0372 0.0000e+00
      1.131      0.057     8.6551    104.824     35.126  35.154756     7.6561      8.146   269.0475 1.5765e+01     3.1603      1.109      1.608    25.0368 0.0000e+00
      1.145      0.053     8.6439    104.686     35.122  35.149664     7.6280      8.142   269.1641 1.5481e+01     3.1378      1.123      1.627    25.0364 0.0000e+00
      1.160      0.049     8.6340    104.565     35.112  35.139356     7.5692      8.139   269.2080 1.5211e+01     3.1321      1.138      1.650    25.0364 0.0000e+00
      1.175      0.044     8.6242    104.446     35.129  35.157161     7.5334      8.136   269.2347 1.5041e+01     3.1522      1.154      1.674    25.0356 0.0000e+00
      1.187      0.039     8.6141    104.325     35.146  35.174384     7.5261      8.136   269.3148 1.4948e+01     3.1673      1.165      1.690    25.0345 0.0000e+00
      1.195      0.034     8.6131    104.311     35.130  35.157043     7.4623      8.139   269.3163 1.4857e+01     3.1617      1.172      1.700    25.0338 0.0000e+00
      1.200      0.029     8.6254    104.459     35.111  35.138044     7.3405      8.141   269.1667 1.4789e+01     3.1452      1.177      1.708    25.0334 0.0000e+00
      1.205      0.027     8.6437    104.679     35.109  35.135234     7.2756      8.142   268.8831 1.4739e+01     3.1205      1.182      1.714    25.0335 0.0000e+00
      1.211      0.027     8.6611    104.887     35.098  35.123061     7.2844      8.143   268.6405 1.4670e+01     3.1071      1.187      1.722    25.0335 0.0000e+00
      1.217      0.031     8.6756    105.062     35.093  35.117902     7.3743      8.144   268.4697 1.4588e+01     3.1055      1.193      1.730    25.0328 0.0000e+00
      1.224      0.037     8.6869    105.201     35.111  35.136378     7.5169      8.148   268.4537 1.4456e+01     3.1002      1.200      1.740    25.0319 0.0000e+00
      1.234      0.045     8.6949    105.300     35.130  35.155898     7.5837      8.151   268.7051 1.4229e+01     3.1050      1.209      1.754    25.0315 0.0000e+00
      1.246      0.054     8.6987    105.348     35.136  35.163348     7.5932      8.147   268.8412 1.3964e+01     3.1329      1.222      1.773    25.0300 0.0000e+00
      1.261      0.060     8.6979    105.338     35.136  35.162941     7.6512      8.141   268.7227 1.3666e+01     3.1629      1.235      1.792    25.0289 0.0000e+00
      1.279      0.064     8.6953    105.307     35.124  35.150976     7.7425      8.139   268.6489 1.3293e+01     3.1629      1.253      1.817    25.0304 0.0000e+00
      1.300      0.066     8.6934    105.283     35.119  35.145722     7.7869      8.139   268.6382 1.2951e+01     3.1323      1.277      1.852    25.0318 0.0000e+00
      1.319      0.066     8.6911    105.254     35.136  35.162933     7.7926      8.140   268.5926 1.2718e+01     3.0983      1.296      1.879    25.0326 0.0000e+00
      1.334      0.064     8.6872    105.206     35.142  35.168508     7.7938      8.141   268.6133 1.2518e+01     3.0872      1.309      1.897    25.0333 0.0000e+00
      1.349      0.059     8.6794    105.111     35.124  35.149605     7.7648      8.141   268.8025 1.2308e+01     3.1205      1.323      1.919    25.0329 0.0000e+00
      1.364      0.054     8.6644    104.929     35.099  35.124935     7.7075      8.141   268.9871 1.2105e+01     3.1340      1.338      1.941    25.0324 0.0000e+00
      1.378      0.049     8.6446    104.687     35.099  35.124320     7.6712      8.142   269.0391 1.1926e+01     3.1293      1.352      1.960    25.0321 0.0000e+00
      1.390      0.045     8.6243    104.441     35.117  35.142164     7.6572      8.144   269.0867 1.1796e+01     3.1549      1.363      1.977    25.0314 0.0000e+00
      1.400      0.042     8.6062    104.221     35.125  35.150124     7.5925      8.144   269.0471 1.1720e+01     3.1679      1.374      1.992    25.0312 0.0000e+00
      1.409      0.039     8.5932    104.064     35.132  35.157048     7.4780      8.144   268.9906 1.1649e+01     3.1647      1.383      2.005    25.0311 0.0000e+00
      1.418      0.037     8.5902    104.027     35.137  35.162358     7.4123      8.143   269.0918 1.1541e+01     3.1469      1.390      2.016    25.0304 0.0000e+00
      1.428      0.037     8.5975    104.115     35.126  35.150810     7.4047      8.142   269.0663 1.1430e+01     3.1355      1.400      2.030    25.0299 0.0000e+00
      1.437      0.037     8.6122    104.292     35.120  35.144458     7.3942      8.141   268.8534 1.1333e+01     3.1500      1.410      2.045    25.0298 0.0000e+00
      1.446      0.038     8.6325    104.537     35.125  35.149073     7.3685      8.141   268.7554 1.1219e+01     3.1692      1.418      2.056    25.0298 0.0000e+00
      1.456      0.039     8.6512    104.761     35.120  35.143089     7.3511      8.141   268.8277 1.1083e+01     3.1546      1.428      2.069    25.0295 0.0000e+00
      1.466      0.040     8.6596    104.860     35.114  35.135627     7.3491      8.141   268.9528 1.0946e+01     3.1252      1.438      2.085    25.0292 0.0000e+00
      1.476      0.042     8.6591    104.852     35.101  35.122358     7.3996      8.141   269.0638 1.0808e+01     3.1500      1.446      2.098    25.0289 0.0000e+00
      1.487      0.045     8.6553    104.807     35.088  35.109707     7.4940      8.139   269.0516 1.0647e+01     3.1796      1.457      2.113    25.0280 0.0000e+00
      1.498      0.049     8.6518    104.763     35.088  35.109704     7.5344      8.134   269.0622 1.0475e+01     3.1777      1.469      2.131    25.0266 0.0000e+00
      1.510      0.053     8.6506    104.746     35.101  35.122312     7.5294      8.126   269.1930 1.0316e+01     3.1573      1.481      2.149    25.0258 0.0000e+00
      1.524      0.057     8.6514    104.754     35.115  35.135102     7.4980      8.116   269.3427 1.0130e+01     3.1167      1.493      2.165    25.0250 0.0000e+00
      1.539      0.061     8.6526    104.768     35.118  35.137311     7.4302      8.108   269.5814 9.9215e+00     3.1136      1.509      2.189    25.0242 0.0000e+00
      1.556      0.062     8.6536    104.778     35.130  35.149016     7.3899      8.102   269.6691 9.7434e+00     3.1504      1.527      2.215    25.0237 0.0000e+00
      1.574      0.062     8.6572    104.817     35.132  35.149589     7.3876      8.101   269.5426 9.5620e+00     3.1648      1.543      2.238    25.0231 0.0000e+00
      1.592      0.060     8.6638    104.890     35.130  35.144236     7.4022      8.102   269.5146 9.3610e+00     3.1659      1.561      2.264    25.0227 0.0000e+00
      1.608      0.058     8.6689    104.941     35.137  35.147807     7.4190      8.102   269.5895 9.1873e+00     3.1641      1.579      2.290    25.0222 0.0000e+00
      1.622      0.057     8.6685    104.918     35.125  35.129244     7.4161      8.099   269.6737 9.0652e+00     3.1427      1.592      2.308    25.0206 0.0000e+00
      1.632      0.057     8.6614    104.796     35.120  35.110343     7.4143      8.094   269.7583 8.9432e+00     3.1206      1.600      2.320    25.0184 0.0000e+00
      1.644      0.056     8.6482    104.590     35.136  35.109815     7.4243      8.090   269.7513 8.7644e+00     3.1100      1.611      2.335    25.0150 0.0000e+00
      1.660      0.054     8.6249    104.271     35.162  35.122831     7.5547      8.090   269.6760 8.5558e+00     3.1070      1.627      2.359    25.0106 0.0000e+00
      1.679      0.053     8.5805    103.717     35.187  35.140667     7.8150      8.092   269.6224 8.3735e+00     3.0836      1.647      2.389    25.0036 0.0000e+00
      1.694      0.051     8.5133    102.896     35.184  35.134892     7.9613      8.096   269.5330 8.2373e+00     3.0719      1.662      2.413    24.9833 0.0000e+00
      1.704      0.048     8.4383    101.979     35.170  35.116525     7.9726      8.097   269.4550 8.1423e+00     3.1188      1.672      2.425    24.9545 0.0000e+00
      1.713      0.045     8.3696    101.131     35.169  35.109144     7.9702      8.094   269.5400 8.0604e+00     3.1006      1.680      2.436    24.9338 0.0000e+00
      1.723      0.044     8.3091    100.386     35.175  35.109156     7.9598      8.084   269.7006 7.9632e+00     2.9740      1.689      2.450    24.9263 0.0000e+00
      1.733      0.044     8.2546     99.716     35.186  35.116671     7.9581      8.070   269.7616 7.8722e+00     2.8702      1.699      2.464    24.9262 0.0000e+00
      1.744      0.045     8.2084     99.149     35.209  35.136481     7.9680      8.059   269.8475 7.7695e+00     2.8521      1.708      2.478    24.9194 0.0000e+00
      1.757      0.048     8.1733     98.721     35.233  35.158109     7.9598      8.051   270.0518 7.6325e+00     2.9079      1.723      2.498    24.9077 0.0000e+00
      1.772      0.051     8.1456     98.378     35.266  35.187604     7.9318      8.040   270.2532 7.5496e+00     2.9647      1.741      2.525    24.9003 0.0000e+00
      1.784      0.055     8.1213     98.048     35.332  35.239014     7.9057      8.025   270.3892 7.5209e+00     2.9593      1.750      2.538    24.8945 0.0000e+00
      1.794      0.056     8.0999     97.722     35.391  35.271521     7.8831      8.009   270.4904 7.4338e+00     2.9345      1.756      2.547    24.8897 0.0000e+00
      1.809      0.055     8.0803     97.421     35.408  35.263002     7.7227      7.993   270.6170 7.2830e+00     2.9393      1.772      2.570    24.8883 0.0000e+00
      1.829      0.053     8.0621     97.163     35.423  35.263007     7.4184      7.979   270.6293 7.1393e+00     2.9559      1.794      2.601    24.8907 0.0000e+00
      1.846      0.048     8.0458     96.951     35.437  35.271563     7.2455      7.969   270.4669 7.0384e+00     2.9522      1.812      2.628    24.8716 0.0000e+00
      1.858      0.043     8.0311     96.769     35.407  35.239410     7.2224      7.963   270.3745 6.9670e+00     2.9249      1.823      2.645    24.8238 0.0000e+00
      1.866      0.038     8.0184     96.624     35.356  35.191843     7.2131      7.958   270.4590 6.9062e+00     2.9008      1.831      2.655    24.7832 0.0000e+00
      1.871      0.033     8.0076     96.513     35.361  35.204606     7.2156      7.953   270.5423 6.8421e+00     2.9355      1.835      2.662    24.7640 0.0000e+00
      1.876      0.030     7.9966     96.391     35.419  35.266692     7.2240      7.949   270.4348 6.7612e+00     3.0082      1.839      2.668    24.7591 0.0000e+00
      1.883      0.030     7.9857     96.255     35.462  35.307327     7.2235      7.946   270.2780 6.6712e+00     3.0475      1.846      2.678    24.7549 0.0000e+00
      1.893      0.034     7.9809     96.185     35.539  35.378307     7.2455      7.942   270.1949 6.5830e+00     3.0753      1.856      2.692    24.7577 0.0000e+00
      1.902      0.041     7.9857     96.212     35.791  35.616733     7.4999      7.934   270.1176 6.5010e+00     3.1615      1.866      2.707    24.7746 0.0000e+00
      1.911      0.051     7.9965     96.261     36.176  35.966841     7.9563      7.921   270.0316 6.4180e+00     3.2962      1.874      2.718    24.7825 0.0000e+00
      1.921      0.061     8.0090     96.263     36.517  36.244707     8.2052      7.906   270.0169 6.2789e+00     3.3609      1.881      2.728    24.7772 0.0000e+00
      1.936      0.069     8.0192     96.189     36.791  36.435386     8.2302      7.890   270.1110 6.0696e+00     3.3333      1.896      2.750    24.7689 0.0000e+00
      1.960      0.074     8.0233     96.027     37.066  36.620581     8.2491      7.874   270.0513 5.8633e+00     3.2681      1.922      2.788    24.7625 0.0000e+00
      1.986      0.075     8.0201     95.761     37.377  36.832109     8.2779      7.862   269.8968 5.6991e+00     3.1824      1.950      2.828    24.7225 0.0000e+00
      2.009      0.071     8.0064     95.347     37.680  37.023538     8.2934      7.854   269.9633 5.5789e+00     3.1213      1.972      2.860    24.6299 0.0000e+00
      2.028      0.062     7.9735     94.744     37.906  37.156248     8.2989      7.848   270.0823 5.4986e+00     3.1098      1.991      2.887    24.5147 0.0000e+00
      2.041      0.051     7.9168     93.949     38.099  37.293079     8.3992      7.843   270.2167 5.4548e+00     3.0737      2.004      2.906    24.3940 0.0000e+00
      2.050      0.040     7.8411     92.960     38.321  37.470864     8.5969      7.840   270.3842 5.4327e+00     2.9596      2.011      2.916    24.2778 0.0000e+00
      2.057      0.032     7.7501     91.774     38.623  37.717597     8.7037      7.835   270.3860 5.4009e+00     2.8892      2.017      2.925    24.1188 0.0000e+00
      2.062      0.026     7.6411     90.385     39.012  38.052748     8.7262      7.829   270.4106 5.3639e+00     2.9250      2.023      2.933    23.9771 0.0000e+00
      2.068      0.022     7.5132     88.804     39.412  38.410158     8.7676      7.822   270.5958 5.3307e+00     2.9646      2.027      2.940    23.9338 0.0000e+00
      2.074      0.018     7.3657     86.994     39.780  38.735393     8.7997      7.815   270.8188 5.2983e+00     2.9415      2.034      2.950    23.8940 0.0000e+00
      2.079      0.015     7.1851     84.781     39.962  38.872077     8.8020      7.808   270.8698 5.2826e+00     2.8893      2.040      2.959    23.8194 0.0000e+00
      2.082      0.012     6.9514     81.966     39.910  38.792102     8.7946      7.802   270.5235 5.2718e+00     2.8833      2.042      2.962    23.7537 0.0000e+00
      2.084      0.009     6.6750     78.687     39.847  38.721353     8.7923      7.797   270.1593 5.2539e+00     2.8992      2.044      2.964    23.7249 0.0000e+00
      2.086      0.008     6.5308     76.985     39.842  38.715502     8.7928      7.794   270.0793 5.2352e+00     2.8980      2.045      2.966    23.6909 0.0000e+00
      2.087 -9.990e-29 -9.990e-29 -9.990e-29 -9.990e-29 -9.990e-29 -9.990e-29 -9.990e-29 -9.990e-29 5.2166e+00 -9.990e-29      2.046      2.968    23.6233 0.0000e+00
      2.087 -9.990e-29 -9.990e-29 -9.990e-29 -9.990e-29 -9.990e-29 -9.990e-29 -9.990e-29 -9.990e-29 5.2094e+00 -9.990e-29      2.047      2.969    23.5833 0.0000e+00
      2.088 -9.990e-29 -9.990e-29 -9.990e-29 -9.990e-29 -9.990e-29 -9.990e-29 -9.990e-29 -9.990e-29 5.2126e+00 -9.990e-29      2.048      2.970    23.5798 0.0000e+00
      2.088 -9.990e-29 -9.990e-29 -9.990e-29 -9.990e-29 -9.990e-29 -9.990e-29 -9.990e-29 -9.990e-29 5.2150e+00 -9.990e-29      2.048      2.970    23.5808 0.0000e+00
