* Sea-Bird SBE19plus  Data File:
* FileName = C:\DATA\073018_fcr50_0002.hex
* Software version 2.6.3.104 SB_Terminal.dll
* Temperature SN = 7809
* Conductivity SN = 7809
* System UpLoad Time = Jul 30 2018 16:26:04
* <ApplicationData>
* <Seaterm232>
* <SoftwareVersion>2.6.3.104</SoftwareVersion>
* <BuildDate>30-Jun-2017</BuildDate>
* </Seaterm232>
* </ApplicationData>
* cast   2 26 Jul 2018 19:31:27 samples 894 to 1576, avg = 1, stop = mag switch
# nquan = 15
# nvalues = 523                         
# units = specified
# name 0 = depFM: Depth [fresh water, m]
# name 1 = dz/dtM: Descent Rate [m/s]
# name 2 = sbeox0Mg/L: Oxygen, SBE 43 [mg/l]
# name 3 = sbeox0PS: Oxygen, SBE 43 [% saturation]
# name 4 = specc: Specific Conductance [uS/cm]
# name 5 = c0uS/cm: Conductivity [uS/cm]
# name 6 = flECO-AFL: Fluorescence, WET Labs ECO-AFL/FL [mg/m^3]
# name 7 = ph: pH
# name 8 = orp: Oxidation Reduction Potential [mV]
# name 9 = par/sat/log: PAR/Logarithmic, Satlantic
# name 10 = turbWETntu0: Turbidity, WET Labs ECO [NTU]
# name 11 = prdM: Pressure, Strain Gauge [db]
# name 12 = prdE: Pressure, Strain Gauge [psi]
# name 13 = tv290C: Temperature [ITS-90, deg C]
# name 14 = flag:  0.000e+00
# span 0 =     -0.551,      9.678       
# span 1 =     -0.053,      0.224       
# span 2 =     0.7957,    11.2927       
# span 3 =      7.486,    142.527       
# span 4 =      3.000,     50.206       
# span 5 =   3.553398,  41.392829       
# span 6 =    -0.6302,     5.5829       
# span 7 =      6.295,      9.025       
# span 8 = -1240.7455,   305.8039       
# span 9 = 1.2499e-01, 2.3484e+03       
# span 10 =    -0.7756,    12.1312      
# span 11 =     -0.541,      9.491      
# span 12 =     -0.785,     13.766      
# span 13 =    11.7956,    34.2287      
# span 14 = 0.0000e+00, 0.0000e+00      
# interval = seconds: 0.25
# start_time = Jul 26 2018 19:31:27 [Instrument's time stamp, header]
# bad_flag = -9.990e-29
# <Sensors count="9" >
#   <sensor Channel="1" >
#     <!-- Count, Temperature -->
#     <TemperatureSensor SensorID="58" >
#       <SerialNumber>7809</SerialNumber>
#       <CalibrationDate>09-Mar-18</CalibrationDate>
#       <A0>1.21093245e-003</A0>
#       <A1>2.84356597e-004</A1>
#       <A2>-1.94507398e-006</A2>
#       <A3>2.12806664e-007</A3>
#       <Slope>1.00000000</Slope>
#       <Offset>0.0000</Offset>
#     </TemperatureSensor>
#   </sensor>
#   <sensor Channel="2" >
#     <!-- Frequency 0, Conductivity -->
#     <ConductivitySensor SensorID="3" >
#       <SerialNumber>7809</SerialNumber>
#       <CalibrationDate>09-Mar-18</CalibrationDate>
#       <UseG_J>1</UseG_J>
#       <!-- Cell const and series R are applicable only for wide range sensors. -->
#       <SeriesR>0.0000</SeriesR>
#       <CellConst>2000.0000</CellConst>
#       <ConductivityType>0</ConductivityType>
#       <Coefficients equation="0" >
#         <A>0.00000000e+000</A>
#         <B>0.00000000e+000</B>
#         <C>0.00000000e+000</C>
#         <D>0.00000000e+000</D>
#         <M>0.0</M>
#         <CPcor>-9.57000000e-008</CPcor>
#       </Coefficients>
#       <Coefficients equation="1" >
#         <G>-1.00672082e+000</G>
#         <H>1.26906489e-001</H>
#         <I>-1.40584351e-004</I>
#         <J>2.47837121e-005</J>
#         <CPcor>-9.57000000e-008</CPcor>
#         <CTcor>3.2500e-006</CTcor>
#         <!-- WBOTC not applicable unless ConductivityType = 1. -->
#         <WBOTC>0.00000000e+000</WBOTC>
#       </Coefficients>
#       <Slope>1.00000000</Slope>
#       <Offset>0.00000</Offset>
#     </ConductivitySensor>
#   </sensor>
#   <sensor Channel="3" >
#     <!-- Count, Pressure, Strain Gauge -->
#     <PressureSensor SensorID="46" >
#       <SerialNumber>7809</SerialNumber>
#       <CalibrationDate>07-Mar-18</CalibrationDate>
#       <PA0>-4.08176359e-002</PA0>
#       <PA1>4.85188419e-004</PA1>
#       <PA2>-3.51168169e-012</PA2>
#       <PTEMPA0>-5.37806900e+001</PTEMPA0>
#       <PTEMPA1>5.36620721e+001</PTEMPA1>
#       <PTEMPA2>4.87214332e-002</PTEMPA2>
#       <PTCA0>5.25213435e+005</PTCA0>
#       <PTCA1>1.79532409e+000</PTCA1>
#       <PTCA2>-2.84353509e-001</PTCA2>
#       <PTCB0>2.51668750e+001</PTCB0>
#       <PTCB1>3.75000000e-004</PTCB1>
#       <PTCB2>0.00000000e+000</PTCB2>
#       <Offset>0.000000</Offset>
#     </PressureSensor>
#   </sensor>
#   <sensor Channel="4" >
#     <!-- A/D voltage 0, pH -->
#     <pH_Sensor SensorID="43" >
#       <SerialNumber>0363</SerialNumber>
#       <CalibrationDate>16-Mar-18</CalibrationDate>
#       <Slope>4.6194</Slope>
#       <Offset>2.5947</Offset>
#     </pH_Sensor>
#   </sensor>
#   <sensor Channel="5" >
#     <!-- A/D voltage 1, Oxidation Reduction Potential -->
#     <OxidationReductionPotentialSensor SensorID="41" >
#       <SerialNumber>0363</SerialNumber>
#       <CalibrationDate>16-Mar-18</CalibrationDate>
#       <B>2.499480</B>
#       <M>-0.496195</M>
#       <Offset>0.0</Offset>
#     </OxidationReductionPotentialSensor>
#   </sensor>
#   <sensor Channel="6" >
#     <!-- A/D voltage 2, Oxygen, SBE 43 -->
#     <OxygenSensor SensorID="38" >
#       <SerialNumber>0434</SerialNumber>
#       <CalibrationDate>13-Mar-18</CalibrationDate>
#       <Use2007Equation>1</Use2007Equation>
#       <CalibrationCoefficients equation="0" >
#         <!-- Coefficients for Owens-Millard equation. -->
#         <Boc>0.0000</Boc>
#         <Soc>0.0000e+000</Soc>
#         <offset>0.0000</offset>
#         <Pcor>0.00e+000</Pcor>
#         <Tcor>0.0000</Tcor>
#         <Tau>0.0</Tau>
#       </CalibrationCoefficients>
#       <CalibrationCoefficients equation="1" >
#         <!-- Coefficients for Sea-Bird equation - SBE calibration in 2007 and later. -->
#         <Soc>4.5718e-001</Soc>
#         <offset>-0.6113</offset>
#         <A>-4.0649e-003</A>
#         <B> 2.0945e-004</B>
#         <C>-3.3182e-006</C>
#         <D0> 2.5826e+000</D0>
#         <D1> 1.92634e-004</D1>
#         <D2>-4.64803e-002</D2>
#         <E> 3.6000e-002</E>
#         <Tau20> 1.2200</Tau20>
#         <H1>-3.3000e-002</H1>
#         <H2> 5.0000e+003</H2>
#         <H3> 1.4500e+003</H3>
#       </CalibrationCoefficients>
#     </OxygenSensor>
#   </sensor>
#   <sensor Channel="7" >
#     <!-- A/D voltage 3, PAR/Logarithmic, Satlantic -->
#     <PARLog_SatlanticSensor SensorID="76" >
#       <SerialNumber>1122</SerialNumber>
#       <CalibrationDate>22-Jun-2017</CalibrationDate>
#       <a0>9.6090e-001</a0>
#       <a1>8.0780e-001</a1>
#       <Im>1.3589e+000</Im>
#       <Multiplier>1.0000e+000</Multiplier>
#     </PARLog_SatlanticSensor>
#   </sensor>
#   <sensor Channel="8" >
#     <!-- A/D voltage 4, Fluorometer, WET Labs ECO-AFL/FL -->
#     <FluoroWetlabECO_AFL_FL_Sensor SensorID="20" >
#       <SerialNumber>FLNTURT-2496</SerialNumber>
#       <CalibrationDate>25-Jan-2017</CalibrationDate>
#       <ScaleFactor>5.30000000e+001</ScaleFactor>
#       <!-- Dark output -->
#       <Vblank>0.0560</Vblank>
#     </FluoroWetlabECO_AFL_FL_Sensor>
#   </sensor>
#   <sensor Channel="9" >
#     <!-- A/D voltage 5, Turbidity Meter, WET Labs, ECO-NTU -->
#     <TurbidityMeter SensorID="67" >
#       <SerialNumber>FLNTURT-2496</SerialNumber>
#       <CalibrationDate>25-Jan-2017</CalibrationDate>
#       <ScaleFactor>176.000000</ScaleFactor>
#       <!-- Dark output -->
#       <DarkVoltage>0.072000</DarkVoltage>
#     </TurbidityMeter>
#   </sensor>
# </Sensors>
# datcnv_date = Jul 30 2018 17:58:12, 7.26.7.114 [datcnv_vars = 14]
# datcnv_in = C:\DATA\073018_fcr50.hex C:\DATA\SBE19plusV2_7809.xmlcon
# datcnv_skipover = 0
# datcnv_ox_hysteresis_correction = yes
# datcnv_ox_tau_correction = yes
# filter_date = Jul 30 2018 17:58:36, 7.26.7.114
# filter_in = C:\DATA\073018_fcr50.cnv
# filter_low_pass_tc_A = 0.030
# filter_low_pass_tc_B = 0.150
# filter_low_pass_A_vars = prdM prdE tv290C
# filter_low_pass_B_vars = depFM dz/dtM sbeox0Mg/L sbeox0PS specc c0uS/cm flECO-AFL ph orp par/sat/log turbWETntu0
# alignctd_date = Jul 30 2018 17:59:03, 7.26.7.114
# alignctd_in = C:\DATA\073018_fcr50.cnv
# alignctd_adv = dz/dtM 1.000, sbeox0Mg/L 1.000, sbeox0PS 1.000, specc 1.000, c0uS/cm 1.000, flECO-AFL 1.000, ph 1.000, orp 1.000, turbWETntu0 1.000                                                                                 
# file_type = ascii
*END*
     -0.551 -4.313e-20     7.2350    102.798      3.000   3.553398    -0.1952      6.775 -1113.9165 2.2865e+03    -0.3516     -0.540     -0.783    34.2285 0.0000e+00
     -0.551 -3.921e-21     7.2353    102.801      3.021   3.579136    -0.1894      6.739 -1122.9143 2.2310e+03    -0.3661     -0.540     -0.783    34.2284 0.0000e+00
     -0.551 -3.565e-22     7.2358    102.807      3.046   3.608679    -0.1778      6.697 -1137.5860 2.2208e+03    -0.3576     -0.540     -0.783    34.2287 0.0000e+00
     -0.551 -3.241e-23     7.2355    102.802      3.087   3.656917    -0.1746      6.652 -1174.8133 2.2339e+03    -0.4623     -0.540     -0.784    34.2284 0.0000e+00
     -0.551 -2.946e-24     7.2364    102.811      3.193   3.781870    -0.1779      6.598 -1218.2869 2.2486e+03    -0.6862     -0.540     -0.784    34.2279 0.0000e+00
     -0.551 -2.678e-25     7.2378    102.827      3.305   3.914503    -0.1811      6.578 -1238.7038 2.3053e+03    -0.7756     -0.540     -0.783    34.2275 0.0000e+00
     -0.551 -2.434e-26     7.2375    102.820      3.370   3.992179    -0.1860      6.594 -1240.5599 2.3388e+03    -0.7189     -0.540     -0.784    34.2269 0.0000e+00
     -0.551 -2.197e-27     7.2370    102.810      3.397   4.023436    -0.2098      6.628 -1240.7286 2.3334e+03    -0.5193     -0.540     -0.784    34.2267 0.0000e+00
     -0.551 -2.183e-29     7.2376    102.817      3.410   4.038751    -0.2473      6.661 -1240.7439 2.3484e+03    -0.1633     -0.541     -0.784    34.2244 0.0000e+00
     -0.551 1.9548e-27     7.2381    102.823      3.420   4.050511    -0.2636      6.681 -1240.7454 2.3338e+03     0.0760     -0.540     -0.784    34.2207 0.0000e+00
     -0.551 2.1702e-26     7.2380    102.821      3.410   4.038783    -0.2508      6.693 -1240.7455 1.8463e+03     0.1163     -0.540     -0.784    34.2190 0.0000e+00
     -0.551 2.3874e-25     7.2385    102.823      3.398   4.023783    -0.2204      6.698 -1240.7455 1.0767e+03    -0.1045     -0.540     -0.784    34.2183 0.0000e+00
     -0.551 2.6262e-24     7.2386    102.818      3.374   3.995990    -0.1906      6.701 -1240.7455 1.1486e+03    -0.5183     -0.541     -0.785    34.2174 0.0000e+00
     -0.551 2.8888e-23     7.2386    102.812      3.341   3.956421    -0.1848      6.706 -1240.7455 1.5019e+03    -0.7363     -0.540     -0.784    34.2173 0.0000e+00
     -0.551 3.1777e-22     7.2400    102.823      3.315   3.925880    -0.1967      6.707 -1240.7455 1.4409e+03    -0.7568     -0.540     -0.783    34.2168 0.0000e+00
     -0.551 3.4955e-21     7.2416    102.834      3.277   3.880394    -0.2142      6.702 -1240.7455 1.7262e+03    -0.6748     -0.540     -0.784    34.2140 0.0000e+00
     -0.551 3.8450e-20     7.2422    102.834      3.252   3.850395    -0.2403      6.699 -1240.7455 1.6683e+03    -0.4768     -0.541     -0.783    34.2100 0.0000e+00
     -0.551 4.2295e-19     7.2428    102.837      3.277   3.880259    -0.2543      6.704 -1240.7455 8.4079e+02    -0.3161     -0.540     -0.784    34.2065 0.0000e+00
     -0.551 4.6524e-18     7.2438    102.847      3.315   3.924381    -0.2461      6.713 -1240.7455 3.3373e+02    -0.2576     -0.541     -0.784    34.2013 0.0000e+00
     -0.551 5.1177e-17     7.2443    102.851      3.329   3.939932    -0.2238      6.721 -1240.7455 2.7003e+02    -0.2875     -0.541     -0.784    34.1936 0.0000e+00
     -0.551 5.6295e-16     7.2436    102.840      3.330   3.941448    -0.1963      6.723 -1240.7455 2.6084e+02    -0.3424     -0.540     -0.783    34.1875 0.0000e+00
     -0.551 6.1924e-15     7.2427    102.828      3.331   3.942711    -0.1798      6.724 -1240.7455 2.6313e+02    -0.3717     -0.540     -0.783    34.1849 0.0000e+00
     -0.550 6.8116e-14     7.2423    102.822      3.341   3.955198    -0.1716      6.724 -1240.7455 2.6587e+02    -0.3982     -0.539     -0.782    34.1830 0.0000e+00
     -0.550 7.4928e-13     7.2418    102.814      3.350   3.965586    -0.1706      6.724 -1240.7455 2.6854e+02    -0.3878     -0.540     -0.783    34.1811 0.0000e+00
     -0.550 8.2421e-12     7.2414    102.807      3.330   3.941477    -0.1776      6.723 -1240.7455 3.0788e+02    -0.3383     -0.540     -0.783    34.1810 0.0000e+00
     -0.550 9.0663e-11     7.2413    102.803      3.310   3.917379    -0.1815      6.721 -1240.7455 7.5536e+02    -0.3182     -0.539     -0.782    34.1817 0.0000e+00
     -0.550 9.9729e-10     7.2417    102.805      3.319   3.927891    -0.1813      6.716 -1240.7454 1.1361e+03    -0.3585     -0.539     -0.782    34.1815 0.0000e+00
     -0.550 1.0970e-08     7.2426    102.814      3.330   3.941745    -0.1842      6.703 -1240.7443 6.6546e+02    -0.3985     -0.539     -0.782    34.1808 0.0000e+00
     -0.550 1.2067e-07     7.2439    102.829      3.344   3.958049    -0.1893      6.693 -1240.7323 1.7451e+02    -0.3743     -0.539     -0.782    34.1787 0.0000e+00
     -0.550      0.000     7.2451    102.840      3.378   3.998172    -0.1881      6.696 -1240.6003 1.4251e+02    -0.3404     -0.539     -0.782    34.1785 0.0000e+00
     -0.550      0.000     7.2451    102.835      3.419   4.046351    -0.1883      6.714 -1239.1485 4.0196e+02    -0.3546     -0.539     -0.782    34.1763 0.0000e+00
     -0.549      0.000     7.2442    102.819      3.516   4.160047    -0.1914      6.737 -1223.1783 8.0529e+02    -0.3932     -0.539     -0.781    34.1749 0.0000e+00
     -0.549      0.002     7.2450    102.808      4.331   5.119178    -0.1882      6.771 -1047.5058 8.4900e+02    -0.3499     -0.539     -0.781    34.1706 0.0000e+00
     -0.550      0.009     7.2620    102.813      9.207  10.822951    -0.1772      6.913  -555.4053 8.2956e+02    -0.1976     -0.539     -0.782    34.1706 0.0000e+00
     -0.550      0.029     7.3344    102.861     19.243  22.364061    -0.1687      7.222    -4.3593 8.3909e+02    -0.1071     -0.539     -0.782    34.1621 0.0000e+00
     -0.549      0.059     7.4682    102.960     29.536  33.790237    -0.1865      7.609   252.3173 4.9140e+02    -0.1415     -0.538     -0.780    34.1701 0.0000e+00
     -0.544      0.097     7.6059    103.059     35.756  40.281319    -0.3099      7.994   289.1750 2.1520e+02    -0.3076     -0.540     -0.784    34.1555 0.0000e+00
     -0.518      0.142     7.7197    103.136     37.238  41.392829    -0.5121      8.309   287.4455 2.3100e+02    -0.5595     -0.521     -0.756    34.1776 0.0000e+00
     -0.466      0.184     7.8301    103.244     36.705  40.241986    -0.6183      8.496   282.4272 5.9102e+02    -0.6850     -0.457     -0.663    33.6970 0.0000e+00
     -0.404      0.212     7.9425    103.455     36.517  39.518125    -0.6302      8.580   276.6820 1.2659e+03    -0.6654     -0.396     -0.575    32.3768 0.0000e+00
     -0.335      0.224     8.0432    103.775     36.578  39.183942    -0.5724      8.635   272.3569 1.7926e+03    -0.2006     -0.336     -0.488    31.2826 0.0000e+00
     -0.259      0.221     8.1267    104.165     36.779  39.123274     0.1534      8.700   270.5711 2.1206e+03     1.1210     -0.248     -0.359    30.5871 0.0000e+00
     -0.197      0.207     8.1972    104.625     37.045  39.228885     1.4830      8.753   270.7493 2.2875e+03     2.4652     -0.182     -0.263    29.7894 0.0000e+00
     -0.160      0.188     8.2558    105.118     37.224  39.317025     2.2054      8.781   270.7258 2.3169e+03     2.9594     -0.158     -0.228    29.0350 0.0000e+00
     -0.126      0.167     8.3015    105.563     37.319  39.362896     2.2618      8.794   269.1682 2.3295e+03     3.0072     -0.128     -0.187    28.4958 0.0000e+00
     -0.084      0.148     8.3372    105.933     37.449  39.465765     2.3027      8.792   266.5428 2.2888e+03     3.0740     -0.080     -0.117    28.1362 0.0000e+00
     -0.043      0.134     8.3637    106.208     37.668  39.671290     2.3968      8.779   264.3648 1.8318e+03     3.1870     -0.039     -0.057    27.9049 0.0000e+00
     -0.009      0.123     8.3720    106.283     37.695  39.687687     2.4530      8.778   262.6232 9.4421e+02     3.2445     -0.007     -0.011    27.7834 0.0000e+00
      0.020      0.109     8.3136    105.540     37.371  39.346324     2.4579      8.793   261.4886 4.8614e+02     3.2199      0.020      0.029    27.7221 0.0000e+00
      0.047      0.092     8.1831    103.887     37.076  39.038223     2.4293      8.805   260.8846 5.2941e+02     3.1035      0.048      0.070    27.6855 0.0000e+00
      0.068      0.070     8.1262    103.152     36.935  38.884980     2.3640      8.808   259.2783 4.9577e+02     2.9045      0.071      0.102    27.6450 0.0000e+00
      0.082      0.044     8.2256    104.358     36.780  38.700574     2.3306      8.811   257.1240 5.4003e+02     2.7976      0.079      0.115    27.6320 0.0000e+00
      0.097      0.016     8.3888    106.343     36.705  38.587412     2.3379      8.814   255.5724 7.7263e+02     2.7885      0.096      0.139    27.6360 0.0000e+00
      0.105     -0.008     8.5472    108.278     36.741  38.596724     2.3699      8.816   253.7677 9.2986e+02     2.7944      0.114      0.164    27.6406 0.0000e+00
      0.092     -0.027     8.6973    110.171     36.769  38.622526     2.4238      8.821   251.8231 1.0334e+03     2.8070      0.096      0.140    27.6423 0.0000e+00
      0.068     -0.038     8.8561    112.244     36.830  38.708785     2.4472      8.827   251.0749 1.1747e+03     2.8200      0.061      0.089    27.6110 0.0000e+00
      0.049     -0.042     9.0221    114.442     37.018  38.940868     2.4502      8.830   250.6581 1.3312e+03     2.8291      0.046      0.067    27.5542 0.0000e+00
      0.038     -0.038     9.1372    115.989     37.179  39.141552     2.4970      8.830   249.7958 1.5423e+03     2.8246      0.037      0.054    27.5062 0.0000e+00
      0.032     -0.027     9.1520    116.239     37.120  39.102282     2.5800      8.830   249.2524 1.6731e+03     2.7965      0.029      0.041    27.4985 0.0000e+00
      0.030     -0.016     9.0892    115.484     36.984  38.974345     2.6271      8.830   247.7870 1.6581e+03     2.7644      0.029      0.043    27.5390 0.0000e+00
      0.030     -0.008     8.9967    114.353     36.926  38.928860     2.6349      8.830   244.8982 1.6741e+03     2.7719      0.031      0.046    27.5929 0.0000e+00
      0.028     -0.007     8.8850    112.971     36.917  38.933547     2.6284      8.835   242.8893 1.6978e+03     2.7956      0.027      0.040    27.6394 0.0000e+00
      0.028     -0.011     8.7408    111.154     36.883  38.903983     2.6033      8.845   242.4258 1.6509e+03     2.8062      0.025      0.038    27.6680 0.0000e+00
      0.030     -0.019     8.5637    108.903     36.808  38.825536     2.5886      8.855   242.4775 1.6651e+03     2.8087      0.031      0.045    27.6833 0.0000e+00
      0.028     -0.028     8.3853    106.638     36.793  38.810961     2.5888      8.861   241.3639 1.7401e+03     2.7959      0.031      0.045    27.7058 0.0000e+00
      0.017     -0.036     8.2404    104.802     36.832  38.854815     2.5782      8.862   238.6832 1.7781e+03     2.7735      0.019      0.028    27.7297 0.0000e+00
      0.000     -0.045     8.1239    103.326     36.883  38.911064     2.5251      8.861   236.4795 1.7851e+03     2.7810     -0.002     -0.002    27.7366 0.0000e+00
     -0.015     -0.052     8.0069    101.840     36.950  38.982804     2.4339      8.861   235.7134 1.7764e+03     2.7959     -0.017     -0.024    27.7315 0.0000e+00
     -0.025     -0.053     7.8805    100.232     36.989  39.023378     2.3847      8.863   235.6148 1.7647e+03     2.7702     -0.024     -0.034    27.7352 0.0000e+00
     -0.039     -0.048     7.7663     98.785     37.044  39.083987     2.3901      8.867   235.6310 1.7593e+03     2.7757     -0.036     -0.052    27.7408 0.0000e+00
     -0.056     -0.039     7.6870     97.814     37.146  39.207358     2.3974      8.865   235.7374 1.7594e+03     2.8320     -0.055     -0.081    27.7421 0.0000e+00
     -0.071     -0.029     7.6401     97.282     37.215  39.307973     2.4002      8.856   235.2668 1.7608e+03     2.8407     -0.073     -0.106    27.7445 0.0000e+00
     -0.077     -0.024     7.6021     96.893     37.214  39.347563     2.3963      8.850   233.7273 1.7584e+03     2.7893     -0.079     -0.115    27.7435 0.0000e+00
     -0.074     -0.021     7.5661     96.584     37.172  39.368446     2.3959      8.851   232.0935 1.7530e+03     2.7598     -0.073     -0.106    27.7386 0.0000e+00
     -0.069     -0.020     7.5569     96.641     37.102  39.369981     2.4505      8.857   231.2580 1.7518e+03     2.7893     -0.063     -0.093    27.7614 0.0000e+00
     -0.071     -0.021     7.5933     97.239     37.044  39.366239     2.5418      8.865   231.4551 1.7519e+03     2.8100     -0.067     -0.096    27.8049 0.0000e+00
     -0.083     -0.022     7.6543     98.096     37.033  39.386823     2.5809      8.874   231.9816 1.7564e+03     2.7968     -0.082     -0.119    27.8427 0.0000e+00
     -0.098     -0.020     7.7019     98.740     37.058  39.428310     2.5739      8.881   231.6002 1.7699e+03     2.7818     -0.098     -0.142    27.9418 0.0000e+00
     -0.108     -0.013     7.7175     98.960     37.106  39.486677     2.5585      8.885   230.3714 1.7814e+03     2.7515     -0.109     -0.157    28.0654 0.0000e+00
     -0.111     -0.001     7.7052     98.855     37.116  39.520746     2.5330      8.885   229.1707 1.7880e+03     2.7351     -0.112     -0.162    28.1385 0.0000e+00
     -0.106      0.012     7.6757     98.614     37.063  39.522604     2.5225      8.885   229.5587 1.7902e+03     2.7362     -0.107     -0.154    28.1805 0.0000e+00
     -0.096      0.025     7.6318     98.239     36.975  39.509240     2.5234      8.885   231.1904 1.7881e+03     2.7346     -0.094     -0.137    28.1953 0.0000e+00
     -0.086      0.039     7.5769     97.659     36.902  39.486362     2.4701      8.879   231.6058 1.7845e+03     2.8069     -0.084     -0.122    28.1972 0.0000e+00
     -0.078      0.052     7.5211     96.956     36.908  39.500202     2.3742      8.870   230.6230 1.7774e+03     2.9382     -0.076     -0.110    28.2104 0.0000e+00
     -0.069      0.062     7.4711     96.250     36.979  39.549529     2.3291      8.863   229.4600 1.7699e+03     3.0103     -0.071     -0.103    28.2945 0.0000e+00
     -0.052      0.069     7.4241     95.554     37.040  39.574454     2.3287      8.858   228.9015 1.7640e+03     3.0069     -0.057     -0.082    28.4399 0.0000e+00
     -0.026      0.071     7.3724     94.804     37.050  39.547372     2.3236      8.853   229.5484 1.7525e+03     2.9585     -0.025     -0.036    28.5228 0.0000e+00
      0.001      0.068     7.3161     94.012     37.011  39.476157     2.3137      8.853   230.8288 1.6874e+03     2.9142      0.005      0.006    28.5189 0.0000e+00
      0.022      0.059     7.2750     93.410     36.983  39.412219     2.3103      8.858   231.1325 1.5856e+03     2.9282      0.024      0.035    28.4761 0.0000e+00
      0.035      0.045     7.2751     93.313     37.021  39.409577     2.3193      8.865   230.4673 1.5719e+03     2.9757      0.036      0.053    28.4112 0.0000e+00
      0.041      0.028     7.3152     93.722     37.098  39.444132     2.3298      8.875   229.8413 1.6216e+03     2.9700      0.042      0.062    28.3588 0.0000e+00
      0.043      0.012     7.3684     94.304     37.144  39.448757     2.3732      8.883   229.1553 1.6405e+03     2.8589      0.042      0.062    28.3260 0.0000e+00
      0.044      0.000     7.4176     94.847     37.136  39.401901     2.4578      8.884   228.4544 1.6480e+03     2.7609      0.043      0.063    28.2850 0.0000e+00
      0.044     -0.009     7.4705     95.452     37.091  39.322262     2.5079      8.885   228.4215 1.6438e+03     2.7623      0.045      0.065    28.2203 0.0000e+00
      0.039     -0.014     7.5420     96.303     37.047  39.248194     2.5191      8.891   228.7584 1.6442e+03     2.7839      0.038      0.056    28.1527 0.0000e+00
      0.032     -0.015     7.6420     97.518     37.032  39.205174     2.5570      8.900   228.6554 1.6984e+03     2.8397      0.032      0.046    28.0943 0.0000e+00
      0.026     -0.015     7.7689     99.079     37.034  39.183260     2.6164      8.908   227.3490 1.7591e+03     2.9486      0.027      0.039    28.0377 0.0000e+00
      0.021     -0.013     7.9029    100.737     37.045  39.173786     2.6402      8.915   225.6968 1.7768e+03     3.0016      0.019      0.028    27.9998 0.0000e+00
      0.018     -0.008     8.0279    102.287     37.043  39.154130     2.6423      8.920   225.5422 1.7802e+03     2.9918      0.017      0.024    27.9645 0.0000e+00
      0.018     -0.003     8.1467    103.765     37.040  39.136164     2.6694      8.922   225.9088 1.7872e+03     2.9833      0.018      0.026    27.9266 0.0000e+00
      0.019      0.001     8.2593    105.168     37.062  39.147144     2.7017      8.923   226.1728 1.7901e+03     2.9905      0.019      0.027    27.8947 0.0000e+00
      0.021      0.003     8.3555    106.367     37.083  39.159797     2.7114      8.923   226.7544 1.7913e+03     3.0172      0.020      0.029    27.8645 0.0000e+00
      0.022      0.004     8.4267    107.253     37.093  39.162075     2.7044      8.922   225.8861 1.8255e+03     3.0315      0.022      0.032    27.8415 0.0000e+00
      0.024      0.004     8.4682    107.768     37.110  39.174666     2.6900      8.918   223.5893 1.9240e+03     3.0414      0.023      0.034    27.8229 0.0000e+00
      0.025      0.003     8.4796    107.909     37.121  39.184967     2.6752      8.913   222.3870 1.9718e+03     3.0448      0.024      0.035    27.8063 0.0000e+00
      0.026      0.000     8.4695    107.783     37.096  39.159555     2.6634      8.912   222.5343 1.9357e+03     3.0120      0.025      0.037    27.7920 0.0000e+00
      0.026     -0.002     8.4539    107.588     37.058  39.121540     2.6574      8.913   222.9615 1.9662e+03     3.0108      0.025      0.037    27.7807 0.0000e+00
      0.025     -0.002     8.4456    107.488     37.042  39.106533     2.6582      8.914   222.4755 2.0253e+03     3.0000      0.024      0.036    27.7733 0.0000e+00
      0.023     -0.002     8.4473    107.519     37.037  39.105168     2.6724      8.916   220.9608 2.0373e+03     2.9116      0.022      0.033    27.7712 0.0000e+00
      0.021     -0.001     8.4525    107.599     37.032  39.105041     2.7005      8.917   219.9619 2.0413e+03     2.8270      0.019      0.029    27.7736 0.0000e+00
      0.021      0.001     8.4532    107.621     37.028  39.105008     2.7125      8.917   219.8620 2.0435e+03     2.7710      0.019      0.028    27.7771 0.0000e+00
      0.022      0.003     8.4452    107.527     37.025  39.104788     2.7081      8.917   220.1835 2.0359e+03     2.7536      0.023      0.032    27.7788 0.0000e+00
      0.025      0.003     8.4302    107.338     37.022  39.102383     2.7112      8.917   220.7517 1.9956e+03     2.8300      0.025      0.036    27.7834 0.0000e+00
      0.027      0.003     8.4122    107.109     36.997  39.075920     2.7136      8.918   221.0536 1.8946e+03     2.9628      0.026      0.038    27.7921 0.0000e+00
      0.027      0.002     8.3913    106.842     36.962  39.038957     2.7094      8.918   220.6493 1.7791e+03     3.0164      0.027      0.039    27.7997 0.0000e+00
      0.027      0.000     8.3643    106.496     36.961  39.036656     2.7057      8.918   219.9078 1.7844e+03     2.9902      0.027      0.039    27.8031 0.0000e+00
      0.026     -0.001     8.3246    105.990     36.971  39.048102     2.7246      8.918   219.1442 1.8999e+03     2.9808      0.026      0.036    27.8040 0.0000e+00
      0.024     -0.001     8.2656    105.241     36.973  39.050278     2.7638      8.918   218.7301 1.9736e+03     2.9953      0.024      0.034    27.8044 0.0000e+00
      0.024     -0.001     8.1869    104.240     36.984  39.062972     2.7839      8.921   219.8906 2.0106e+03     3.0124      0.023      0.034    27.8025 0.0000e+00
      0.024      0.000     8.0983    103.106     36.997  39.074523     2.7848      8.923   221.8182 2.0295e+03     3.0044      0.023      0.034    27.8014 0.0000e+00
      0.025      0.001     8.0178    102.067     36.992  39.062868     2.7369      8.925   221.9037 1.9813e+03     2.9284      0.024      0.036    27.8018 0.0000e+00
      0.026      0.002     7.9591    101.304     36.985  39.049113     2.6463      8.925   221.0966 1.8946e+03     2.8267      0.025      0.036    27.8028 0.0000e+00
      0.026      0.002     7.9253    100.863     36.976  39.035263     2.5996      8.925   220.7489 1.8155e+03     2.7818      0.025      0.037    27.8051 0.0000e+00
      0.027      0.002     7.9103    100.666     36.966  39.022463     2.5949      8.924   221.1415 1.7769e+03     2.7817      0.026      0.038    27.8023 0.0000e+00
      0.027      0.001     7.9029    100.572     36.965  39.021405     2.5890      8.921   222.6603 1.7666e+03     2.8256      0.026      0.038    27.7924 0.0000e+00
      0.027      0.000     7.8895    100.407     36.964  39.022474     2.5826      8.918   223.5388 1.7549e+03     2.9158      0.026      0.038    27.7823 0.0000e+00
      0.028     -0.001     7.8570    100.007     36.971  39.035389     2.5822      8.917   223.4180 1.7449e+03     2.9869      0.027      0.039    27.7763 0.0000e+00
      0.028     -0.002     7.7972     99.262     36.979  39.050511     2.5841      8.919   222.8344 1.7498e+03     3.0142      0.027      0.039    27.7737 0.0000e+00
      0.027     -0.003     7.7139     98.215     36.999  39.078251     2.5874      8.921   222.1605 1.7938e+03     3.0021      0.027      0.039    27.7738 0.0000e+00
      0.026     -0.003     7.6189     97.020     37.030  39.116684     2.5946      8.921   222.4125 1.8607e+03     2.9625      0.026      0.037    27.7765 0.0000e+00
      0.023     -0.003     7.5164     95.736     37.037  39.134020     2.5976      8.921   222.8703 1.8943e+03     2.9626      0.023      0.032    27.7847 0.0000e+00
      0.022     -0.002     7.4102     94.413     37.051  39.160812     2.5962      8.921   222.8768 1.8979e+03     3.0032      0.021      0.030    27.7959 0.0000e+00
      0.022     -0.001     7.3061     93.118     37.062  39.186515     2.5959      8.922   222.8353 1.9010e+03     3.0269      0.021      0.031    27.8026 0.0000e+00
      0.023      0.000     7.2080     91.898     37.053  39.190677     2.6216      8.922   222.6272 1.9088e+03     3.0043      0.023      0.033    27.8087 0.0000e+00
      0.024      0.001     7.1197     90.798     37.061  39.211154     2.6774      8.923   221.5646 1.9394e+03     2.9436      0.024      0.034    27.8216 0.0000e+00
      0.024      0.001     7.0427     89.839     37.082  39.243525     2.7100      8.923   220.2267 2.0025e+03     2.9338      0.024      0.035    27.8402 0.0000e+00
      0.024      0.001     6.9757     89.001     37.094  39.264437     2.7124      8.922   220.0448 2.0668e+03     2.9783      0.024      0.035    27.8601 0.0000e+00
      0.024      0.001     6.9130     88.216     37.095  39.273415     2.6971      8.922   220.7413 2.1027e+03     2.9926      0.024      0.035    27.8786 0.0000e+00
      0.024      0.001     6.8518     87.447     37.104  39.288545     2.6630      8.922   221.5061 2.1205e+03     2.9846      0.024      0.035    27.8951 0.0000e+00
      0.025      0.001     6.7919     86.694     37.129  39.320321     2.6401      8.921   220.7750 2.1308e+03     3.0033      0.024      0.035    27.9092 0.0000e+00
      0.025      0.001     6.7329     85.952     37.143  39.339966     2.6409      8.920   218.5267 2.1178e+03     3.0361      0.025      0.036    27.9207 0.0000e+00
      0.026      0.001     6.6773     85.253     37.133  39.335477     2.6360      8.919   217.2938 2.0949e+03     3.1071      0.025      0.036    27.9295 0.0000e+00
      0.026      0.001     6.6272     84.624     37.123  39.329577     2.6174      8.917   217.5699 2.0994e+03     3.1892      0.025      0.037    27.9367 0.0000e+00
      0.026      0.001     6.5812     84.047     37.120  39.332173     2.6086      8.917   218.2513 2.1134e+03     3.2050      0.025      0.036    27.9439 0.0000e+00
      0.026      0.001     6.5402     83.536     37.147  39.366879     2.6035      8.916   218.0476 2.0969e+03     3.2067      0.025      0.036    27.9513 0.0000e+00
      0.026      0.001     6.5081     83.139     37.202  39.431552     2.6297      8.915   216.9993 2.0372e+03     3.1491      0.025      0.037    27.9585 0.0000e+00
      0.026      0.000     6.4850     82.858     37.240  39.478807     2.6953      8.913   216.2455 1.9661e+03     3.0270      0.026      0.037    27.9653 0.0000e+00
      0.027     -0.001     6.4702     82.685     37.247  39.493507     2.7261      8.913   215.7307 1.9379e+03     2.9520      0.026      0.038    27.9725 0.0000e+00
      0.027     -0.002     6.4647     82.630     37.228  39.482240     2.7168      8.914   215.5925 1.9695e+03     2.9437      0.026      0.038    27.9803 0.0000e+00
      0.026     -0.002     6.4669     82.675     37.208  39.469665     2.7123      8.915   215.9512 2.0262e+03     2.9870      0.026      0.037    27.9895 0.0000e+00
      0.025     -0.002     6.4720     82.756     37.199  39.468530     2.7170      8.915   216.2831 2.0554e+03     3.0178      0.024      0.036    27.9994 0.0000e+00
      0.023     -0.002     6.4742     82.801     37.191  39.468539     2.7185      8.914   216.3355 2.0603e+03     3.0113      0.022      0.034    28.0096 0.0000e+00
      0.023     -0.002     6.4741     82.816     37.185  39.469788     2.7123      8.913   215.9825 2.0623e+03     3.0007      0.022      0.032    28.0202 0.0000e+00
      0.023     -0.001     6.4755     82.847     37.191  39.483647     2.7060      8.913   215.4575 2.0606e+03     2.9806      0.022      0.032    28.0320 0.0000e+00
      0.023      0.000     6.4760     82.870     37.208  39.509050     2.7070      8.913   215.0636 2.0588e+03     3.0130      0.023      0.033    28.0440 0.0000e+00
      0.023      0.001     6.4731     82.848     37.214  39.522806     2.7152      8.913   215.9517 2.0584e+03     3.1478      0.023      0.034    28.0549 0.0000e+00
      0.024      0.001     6.4688     82.807     37.207  39.522919     2.7224      8.912   217.9362 2.0574e+03     3.2378      0.024      0.035    28.0651 0.0000e+00
      0.024      0.001     6.4633     82.749     37.189  39.510431     2.7203      8.911   218.6667 2.0549e+03     3.2150      0.023      0.034    28.0754 0.0000e+00
      0.024      0.001     6.4562     82.671     37.172  39.498888     2.7087      8.910   217.9007 2.0478e+03     3.1780      0.024      0.034    28.0860 0.0000e+00
      0.025      0.001     6.4508     82.617     37.175  39.510431     2.7007      8.909   216.8474 1.9850e+03     3.1864      0.023      0.034    28.0964 0.0000e+00
      0.026      0.000     6.4467     82.580     37.179  39.522936     2.7064      8.907   217.2885 1.8956e+03     3.2249      0.026      0.036    28.1063 0.0000e+00
      0.026     -0.000     6.4413     82.527     37.171  39.523040     2.7139      8.905   219.1904 1.8979e+03     3.2166      0.027      0.037    28.1149 0.0000e+00
      0.025     -0.001     6.4353     82.466     37.153  39.511697     2.7273      8.905   220.1403 1.9451e+03     3.1771      0.025      0.036    28.1232 0.0000e+00
      0.024     -0.001     6.4284     82.393     37.147  39.512869     2.7482      8.906   219.8255 1.9581e+03     3.1746      0.024      0.035    28.1332 0.0000e+00
      0.024     -0.001     6.4191     82.288     37.164  39.537221     2.7642      8.906   219.2557 1.9580e+03     3.1874      0.024      0.035    28.1447 0.0000e+00
      0.024     -0.001     6.4082     82.162     37.171  39.552019     2.7833      8.906   219.0152 1.9589e+03     3.2093      0.024      0.034    28.1567 0.0000e+00
      0.024     -0.001     6.3967     82.028     37.176  39.564724     2.7957      8.907   219.0690 1.9604e+03     3.2258      0.023      0.033    28.1677 0.0000e+00
      0.024      0.000     6.3837     81.876     37.169  39.563787     2.7849      8.908   219.2176 1.9605e+03     3.2042      0.023      0.034    28.1774 0.0000e+00
      0.024 -1.863e-08     6.3700     81.713     37.140  39.540692     2.7719      8.909   219.5220 1.9615e+03     3.1923      0.023      0.034    28.1869 0.0000e+00
      0.024 -2.049e-07     6.3563     81.551     37.133  39.539641     2.7764      8.909   219.8241 1.9635e+03     3.2038      0.024      0.034    28.1963 0.0000e+00
      0.024 -2.051e-07     6.3411     81.368     37.137  39.551086     2.8123      8.909   219.9451 1.9644e+03     3.1296      0.024      0.034    28.2058 0.0000e+00
      0.024 -2.028e-08     6.3258     81.184     37.132  39.552019     2.8751      8.909   218.8341 1.9657e+03     2.9365      0.024      0.034    28.2155 0.0000e+00
      0.024 -1.990e-08     6.3118     81.018     37.126  39.550931     2.9102      8.911   217.1456 1.9677e+03     2.7910      0.024      0.035    28.2250 0.0000e+00
      0.024 -2.004e-07     6.2957     80.822     37.108  39.537944     2.9064      8.911   216.9966 1.9676e+03     2.7440      0.024      0.034    28.2338 0.0000e+00
      0.024 -3.700e-07     6.2777     80.600     37.088  39.522068     2.9021      8.912   217.5482 1.9669e+03     2.7348      0.023      0.034    28.2427 0.0000e+00
      0.024 -2.372e-07     6.2602     80.385     37.049  39.486044     2.9050      8.913   218.0498 1.9672e+03     2.8017      0.024      0.035    28.2516 0.0000e+00
      0.024 -4.277e-07     6.2416     80.146     36.808  39.229464     2.9043      8.913   217.4695 1.9674e+03     2.9117      0.023      0.034    28.2605 0.0000e+00
      0.024     -0.000     6.2492     80.176     36.410  38.770457     2.9021      8.913   215.3495 1.9670e+03     2.9653      0.024      0.034    28.2677 0.0000e+00
      0.024     -0.000     6.4212     82.134     36.277  38.510455     2.9064      8.914   214.2706 1.9667e+03     2.9614      0.024      0.035    28.2762 0.0000e+00
      0.024     -0.001     6.9309     88.255     36.436  38.499803     2.9284      8.915   214.4055 1.9673e+03     3.0169      0.024      0.035    28.2817 0.0000e+00
      0.024     -0.001     7.7587     98.434     36.595  38.514310     2.9569      8.916   214.9157 1.9690e+03     3.1480      0.024      0.035    28.2906 0.0000e+00
      0.024     -0.001     8.7052    110.210     36.663  38.495022     2.9668      8.917   215.7934 1.9711e+03     3.2048      0.024      0.034    28.2882 0.0000e+00
      0.023     -0.000     9.6004    121.400     36.677  38.457047     2.9655      8.917   215.6396 1.9729e+03     3.1847      0.023      0.033    28.1154 0.0000e+00
      0.023 -4.064e-08    10.3489    130.759     36.690  38.436262     2.9684      8.917   214.2609 1.9742e+03     3.1492      0.022      0.032    27.7983 0.0000e+00
      0.023 -4.470e-07    10.8875    137.487     36.711  38.434262     2.9745      8.917   213.2343 1.9745e+03     3.0802      0.022      0.032    27.5792 0.0000e+00
      0.024      0.000    11.1980    141.362     36.723  38.432822     2.9746      8.916   213.0358 1.9745e+03     3.0223      0.023      0.033    27.4749 0.0000e+00
      0.025      0.000    11.2927    142.527     36.718  38.418831     2.9697      8.913   213.1510 1.9745e+03     2.9981      0.024      0.035    27.4137 0.0000e+00
      0.025     -0.001    11.2118    141.484     36.699  38.392150     2.9335      8.906   213.8525 1.9798e+03     3.0323      0.024      0.035    27.3707 0.0000e+00
      0.024     -0.002    11.0381    139.281     36.675  38.364323     2.8677      8.899   214.8062 2.0028e+03     3.1302      0.024      0.035    27.3344 0.0000e+00
      0.023     -0.002    10.8526    136.926     36.653  38.336496     2.8360      8.896   214.8736 2.0319e+03     3.2053      0.024      0.034    27.3192 0.0000e+00
      0.022     -0.002    10.6951    134.911     36.635  38.309811     2.8349      8.894   214.1508 2.0438e+03     3.2074      0.021      0.030    27.3099 0.0000e+00
      0.021     -0.001    10.5706    133.316     36.629  38.295772     2.8181      8.893   213.2087 2.0445e+03     3.1870      0.019      0.028    27.2976 0.0000e+00
      0.021     -0.001    10.4752    132.099     36.631  38.293805     2.7888      8.892   212.6883 2.0453e+03     3.2026      0.020      0.029    27.2974 0.0000e+00
      0.022      0.000    10.4095    131.264     36.626  38.286024     2.7750      8.892   213.9679 2.0462e+03     3.2121      0.021      0.031    27.2938 0.0000e+00
      0.022      0.002    10.3683    130.747     36.606  38.265223     2.7792      8.894   216.3771 2.0452e+03     3.2106      0.022      0.032    27.2776 0.0000e+00
      0.023      0.002    10.3374    130.368     36.571  38.232884     2.7752      8.896   216.7800 2.0432e+03     3.2155      0.022      0.032    27.2668 0.0000e+00
      0.023      0.002    10.3104    130.033     36.550  38.212669     2.7456      8.899   215.5704 2.0447e+03     3.2109      0.022      0.032    27.2625 0.0000e+00
      0.024      0.002    10.2909    129.779     36.551  38.211399     2.7158      8.902   215.1738 2.0517e+03     3.2149      0.023      0.033    27.2589 0.0000e+00
      0.025      0.002    10.2819    129.651     36.561  38.217524     2.7175      8.905   216.0281 2.0725e+03     3.2030      0.024      0.035    27.2589 0.0000e+00
      0.025      0.002    10.2790    129.609     36.568  38.223179     2.7296      8.907   217.5546 2.1035e+03     3.1893      0.025      0.036    27.2668 0.0000e+00
      0.025      0.002    10.2752    129.565     36.560  38.216250     2.7051      8.909   218.4871 2.1086e+03     3.2019      0.026      0.037    27.2724 0.0000e+00
      0.025      0.001    10.2723    129.537     36.540  38.197276     2.6611      8.911   218.6133 2.0808e+03     3.2333      0.025      0.036    27.2653 0.0000e+00
      0.026      0.001    10.2735    129.549     36.528  38.184360     2.6481      8.912   218.2197 2.0408e+03     3.2631      0.025      0.036    27.2567 0.0000e+00
      0.026      0.002    10.2754    129.554     36.536  38.187143     2.6575      8.913   217.4284 1.9574e+03     3.2573      0.026      0.037    27.2545 0.0000e+00
      0.026      0.002    10.2725    129.488     36.527  38.167379     2.6739      8.914   217.1329 1.8303e+03     3.2247      0.026      0.037    27.2571 0.0000e+00
      0.027      0.003    10.2637    129.342     36.507  38.135967     2.6911      8.916   217.4005 1.7363e+03     3.1741      0.026      0.038    27.2632 0.0000e+00
      0.028      0.003    10.2561    129.207     36.508  38.124967     2.6999      8.918   217.4808 1.6918e+03     3.1643      0.027      0.040    27.2637 0.0000e+00
      0.029      0.003    10.2568    129.169     36.496  38.097902     2.7054      8.919   217.5872 1.6643e+03     3.1971      0.028      0.041    27.2543 0.0000e+00
      0.030      0.003    10.2669    129.242     36.479  38.062818     2.7031      8.917   217.9129 1.6516e+03     3.2049      0.029      0.042    27.2398 0.0000e+00
      0.031      0.003    10.2794    129.342     36.515  38.081915     2.6994      8.911   217.0307 1.6471e+03     3.1977      0.030      0.044    27.2250 0.0000e+00
      0.032      0.002    10.2850    129.370     36.582  38.138180     2.7064      8.901   215.0072 1.6437e+03     3.2018      0.031      0.045    27.2085 0.0000e+00
      0.033      0.000    10.2848    129.370     36.613  38.171335     2.7146      8.893   214.0971 1.6455e+03     3.2241      0.032      0.047    27.1875 0.0000e+00
      0.034     -0.002    10.2881    129.441     36.598  38.165152     2.7162      8.890   214.7162 1.6505e+03     3.2533      0.034      0.050    27.1660 0.0000e+00
      0.033     -0.003    10.2986    129.587     36.558  38.126964     2.7158      8.893   215.6955 1.6722e+03     3.2504      0.033      0.048    27.1373 0.0000e+00
      0.030     -0.003    10.3102    129.711     36.530  38.090792     2.7194      8.898   214.9252 1.7666e+03     3.2193      0.029      0.042    27.1109 0.0000e+00
      0.027     -0.002    10.3152    129.726     36.501  38.045428     2.7225      8.903   212.5433 1.9272e+03     3.2120      0.026      0.038    27.1160 0.0000e+00
      0.026      0.002    10.3168    129.686     36.436  37.959624     2.7351      8.906   211.2458 1.9467e+03     3.2238      0.024      0.036    27.1386 0.0000e+00
      0.027      0.007    10.3216    129.670     36.382  37.879184     2.7619      8.906   211.3687 1.7773e+03     3.2388      0.026      0.038    27.1459 0.0000e+00
      0.030      0.014    10.3273    129.641     36.370  37.835143     2.7716      8.906   211.6207 1.6519e+03     3.2417      0.028      0.041    27.1351 0.0000e+00
      0.034      0.022    10.3285    129.562     36.372  37.808241     2.7700      8.900   211.1092 1.6294e+03     3.2287      0.032      0.047    27.1106 0.0000e+00
      0.041      0.031    10.3277    129.490     36.390  37.807983     2.7610      8.880   210.0022 1.6260e+03     3.2343      0.040      0.058    27.0862 0.0000e+00
      0.049      0.039    10.3279    129.450     36.426  37.831998     2.6435      8.858   208.7330 1.6096e+03     3.2479      0.047      0.068    27.0569 0.0000e+00
      0.059      0.045    10.3292    129.414     36.454  37.844473     2.4420      8.847   207.7230 1.5735e+03     3.2413      0.054      0.079    27.0071 0.0000e+00
      0.075      0.049    10.3338    129.410     36.460  37.831731     2.3378      8.848   207.1688 1.6224e+03     3.2144      0.072      0.105    26.9605 0.0000e+00
      0.092      0.051    10.3446    129.503     36.448  37.804956     2.3310      8.858   206.6777 1.7460e+03     3.1969      0.094      0.136    26.9374 0.0000e+00
      0.105      0.052    10.3619    129.701     36.424  37.774830     2.3599      8.874   207.2052 1.6781e+03     3.2440      0.105      0.152    26.9256 0.0000e+00
      0.115      0.053    10.3838    129.954     36.379  37.721594     2.4106      8.891   208.4700 1.4532e+03     3.3268      0.113      0.163    26.9025 0.0000e+00
      0.126      0.054    10.4059    130.163     36.349  37.669492     2.4381      8.904   208.4625 1.3172e+03     3.3742      0.123      0.179    26.8706 0.0000e+00
      0.140      0.058    10.4201    130.209     36.373  37.653056     2.4449      8.914   208.0616 1.2951e+03     3.3887      0.135      0.197    26.8496 0.0000e+00
      0.155      0.066    10.4234    130.087     36.419  37.649864     2.4369      8.924   207.9243 1.2923e+03     3.3194      0.152      0.220    26.8474 0.0000e+00
      0.172      0.076    10.4219    129.922     36.444  37.630810     2.4068      8.935   207.5765 1.2679e+03     3.2081      0.168      0.244    26.8463 0.0000e+00
      0.191      0.084    10.4253    129.852     36.461  37.613190     2.3839      8.944   208.7609 1.2327e+03     3.2018      0.186      0.269    26.8221 0.0000e+00
      0.215      0.088    10.4393    129.940     36.501  37.627360     2.3900      8.949   211.1460 1.1496e+03     3.2433      0.209      0.304    26.7589 0.0000e+00
      0.242      0.088    10.4639    130.182     36.505  37.611508     2.4254      8.955   212.3230 1.0666e+03     3.2217      0.236      0.343    26.6788 0.0000e+00
      0.271      0.086    10.4959    130.532     36.458  37.548545     2.4818      8.962   212.1514 1.0265e+03     3.1857      0.266      0.386    26.6168 0.0000e+00
      0.295      0.083    10.5297    130.903     36.427  37.501335     2.5290      8.968   211.6522 9.9351e+02     3.2039      0.294      0.426    26.5690 0.0000e+00
      0.310      0.079    10.5591    131.213     36.429  37.485370     2.5460      8.974   212.3962 9.5411e+02     3.2287      0.305      0.443    26.5330 0.0000e+00
      0.323      0.075    10.5777    131.373     36.447  37.482539     2.5495      8.979   214.3499 9.0340e+02     3.1501      0.313      0.455    26.5060 0.0000e+00
      0.341      0.074    10.5826    131.334     36.462  37.467073     2.5714      8.984   215.7430 8.7157e+02     3.0164      0.334      0.484    26.4895 0.0000e+00
      0.362      0.074    10.5763    131.154     36.452  37.425378     2.5895      8.985   216.4209 8.8075e+02     2.9854      0.354      0.514    26.4691 0.0000e+00
      0.383      0.075    10.5689    130.979     36.413  37.359514     2.5846      8.984   216.6953 8.6310e+02     3.0197      0.375      0.544    26.4440 0.0000e+00
      0.404      0.076    10.5696    130.894     36.389  37.305958     2.5859      8.984   216.7382 7.9557e+02     3.0346      0.398      0.578    26.4224 0.0000e+00
      0.423      0.076    10.5755    130.835     36.409  37.286006     2.6513      8.985   216.4229 7.5568e+02     3.0735      0.416      0.603    26.3719 0.0000e+00
      0.439      0.075    10.5823    130.764     36.415  37.245264     2.7781      8.988   215.8939 7.5518e+02     3.1544      0.431      0.625    26.3230 0.0000e+00
      0.456      0.074    10.5934    130.740     36.414  37.194429     2.8504      8.993   216.1934 7.4868e+02     3.2193      0.445      0.645    26.2960 0.0000e+00
      0.476      0.072    10.6098    130.785     36.446  37.179503     2.8547      8.997   217.1190 7.1426e+02     3.2475      0.466      0.675    26.2615 0.0000e+00
      0.498      0.072    10.6255    130.854     36.496  37.191781     2.9309      9.002   217.8790 6.8543e+02     3.2816      0.492      0.712    26.2031 0.0000e+00
      0.517      0.071    10.6371    130.928     36.540  37.215765     3.0827      9.005   216.9504 6.7215e+02     3.3575      0.508      0.737    26.1317 0.0000e+00
      0.532      0.069    10.6480    131.032     36.549  37.215352     3.1646      9.007   214.4087 6.5692e+02     3.4325      0.522      0.757    26.0674 0.0000e+00
      0.548      0.068    10.6627    131.206     36.523  37.186771     3.1765      9.009   213.5621 6.4458e+02     3.4563      0.538      0.780    25.9934 0.0000e+00
      0.566      0.069    10.6817    131.414     36.470  37.124300     3.2087      9.010   214.6304 6.3353e+02     3.4309      0.555      0.805    25.9370 0.0000e+00
      0.583      0.074    10.6985    131.529     36.406  37.031755     3.2598      9.011   215.5373 6.2597e+02     3.3389      0.572      0.830    25.9139 0.0000e+00
      0.599      0.080    10.7070    131.499     36.374  36.957136     3.2788      9.012   216.0956 6.1456e+02     3.2290      0.586      0.850    25.9008 0.0000e+00
      0.619      0.085    10.7068    131.375     36.374  36.920801     3.2741      9.012   215.5297 5.9033e+02     3.1707      0.604      0.875    25.9039 0.0000e+00
      0.645      0.089    10.6959    131.163     36.386  36.910008     3.2767      9.012   213.9443 5.6049e+02     3.1522      0.632      0.917    25.9050 0.0000e+00
      0.672      0.092    10.6737    130.852     36.378  36.890119     3.2822      9.013   213.2737 5.3676e+02     3.1584      0.659      0.957    25.8622 0.0000e+00
      0.697      0.093    10.6458    130.492     36.365  36.870885     3.2850      9.015   213.4444 5.1950e+02     3.1537      0.683      0.992    25.7925 0.0000e+00
      0.721      0.091    10.6217    130.162     36.372  36.868030     3.2928      9.018   213.9430 5.0319e+02     3.1264      0.709      1.028    25.7395 0.0000e+00
      0.742      0.088    10.6097    129.951     36.380  36.855578     3.3762      9.022   214.7435 4.8497e+02     3.1338      0.726      1.053    25.7090 0.0000e+00
      0.763      0.085    10.6086    129.859     36.395  36.847357     3.5222      9.022   214.9484 4.6677e+02     3.1823      0.748      1.084    25.6934 0.0000e+00
      0.785      0.085    10.6119    129.820     36.404  36.832107     3.5964      9.020   214.5276 4.5224e+02     3.2241      0.772      1.118    25.6927 0.0000e+00
      0.806      0.087    10.6156    129.777     36.334  36.734686     3.6020      9.017   214.3016 4.3871e+02     3.2422      0.790      1.146    25.6831 0.0000e+00
      0.826      0.090    10.6175    129.689     36.194  36.558754     3.6084      9.017   214.3669 4.2434e+02     3.2492      0.809      1.173    25.6492 0.0000e+00
      0.849      0.092    10.6190    129.576     36.096  36.420046     3.6460      9.018   214.3701 4.0899e+02     3.3082      0.831      1.205    25.6143 0.0000e+00
      0.874      0.093    10.6224    129.483     36.109  36.391536     3.7079      9.021   215.1152 3.9259e+02     3.4067      0.856      1.241    25.5840 0.0000e+00
      0.900      0.093    10.6247    129.402     36.155  36.404544     3.7414      9.023   216.4927 3.7583e+02     3.4327      0.882      1.280    25.5488 0.0000e+00
      0.927      0.091    10.6191    129.265     36.158  36.386706     3.7565      9.025   216.9149 3.6009e+02     3.4085      0.910      1.321    25.5001 0.0000e+00
      0.950      0.088    10.6051    129.056     36.149  36.366393     3.8530      9.025   216.3485 3.4772e+02     3.3899      0.934      1.355    25.4433 0.0000e+00
      0.970      0.085    10.5843    128.776     36.140  36.349501     4.0265      9.025   215.5812 3.3731e+02     3.3904      0.952      1.381    25.3829 0.0000e+00
      0.989      0.083    10.5612    128.462     36.110  36.309492     4.1270      9.025   215.3803 3.2743e+02     3.4147      0.971      1.409    25.3324 0.0000e+00
      1.008      0.082    10.5437    128.209     36.077  36.263780     4.1489      9.025   216.5869 3.1778e+02     3.4086      0.989      1.434    25.3062 0.0000e+00
      1.028      0.082    10.5324    128.024     36.069  36.241455     4.2082      9.025   218.5548 3.0570e+02     3.3472      1.006      1.458    25.2938 0.0000e+00
      1.052      0.082    10.5206    127.835     36.072  36.230096     4.3108      9.025   219.4716 2.9239e+02     3.2828      1.032      1.496    25.2837 0.0000e+00
      1.077      0.081    10.5044    127.600     36.044  36.189949     4.3783      9.024   219.1530 2.8185e+02     3.2703      1.058      1.534    25.2711 0.0000e+00
      1.097      0.080    10.4865    127.342     36.004  36.137165     4.4001      9.020   218.5746 2.7358e+02     3.2579      1.076      1.561    25.2540 0.0000e+00
      1.114      0.080    10.4710    127.095     35.985  36.100060     4.4729      9.015   218.5874 2.6590e+02     3.2242      1.093      1.585    25.2317 0.0000e+00
      1.132      0.079    10.4605    126.897     35.966  36.058898     4.6156      9.011   219.2214 2.5811e+02     3.2292      1.110      1.610    25.2108 0.0000e+00
      1.151      0.079    10.4526    126.737     35.947  36.020587     4.7012      9.010   219.7014 2.4905e+02     3.2271      1.128      1.635    25.1964 0.0000e+00
      1.173      0.079    10.4387    126.520     35.959  36.017947     4.7174      9.011   219.9173 2.3906e+02     3.1979      1.150      1.667    25.1825 0.0000e+00
      1.196      0.080    10.4227    126.289     35.980  36.026967     4.7384      9.011   219.8535 2.2961e+02     3.1814      1.173      1.702    25.1563 0.0000e+00
      1.218      0.083    10.4148    126.161     35.965  36.002579     4.7618      9.008   219.6173 2.2176e+02     3.1803      1.196      1.734    25.1216 0.0000e+00
      1.236      0.085    10.4163    126.153     35.948  35.977148     4.7713      9.006   219.4699 2.1507e+02     3.1852      1.212      1.759    25.0938 0.0000e+00
      1.254      0.087    10.4238    126.226     35.950  35.973557     4.7693      9.007   219.3628 2.0722e+02     3.1797      1.227      1.780    25.0737 0.0000e+00
      1.277      0.089    10.4327    126.322     35.939  35.959154     4.7651      9.007   219.4410 1.9780e+02     3.1745      1.251      1.813    25.0588 0.0000e+00
      1.305      0.093    10.4365    126.355     35.914  35.930047     4.7761      9.005   219.5554 1.8909e+02     3.1222      1.281      1.859    25.0458 0.0000e+00
      1.330      0.097    10.4324    126.277     35.869  35.875699     4.8016      9.003   219.6266 1.8227e+02     3.0357      1.306      1.895    25.0331 0.0000e+00
      1.352      0.100    10.4267    126.159     35.818  35.810205     4.8152      9.001   219.7863 1.7555e+02     3.0132      1.324      1.921    25.0249 0.0000e+00
      1.376      0.100    10.4232    126.053     35.801  35.773374     4.8211      9.000   219.5928 1.6775e+02     3.0338      1.348      1.955    25.0214 0.0000e+00
      1.404      0.100    10.4172    125.913     35.796  35.747958     4.8644      9.000   219.1800 1.5999e+02     3.0713      1.378      1.999    25.0178 0.0000e+00
      1.432      0.101    10.4039    125.693     35.761  35.693438     4.9438      8.997   219.0971 1.5281e+02     3.1300      1.404      2.037    25.0063 0.0000e+00
      1.458      0.103    10.3818    125.370     35.706  35.622327     4.9904      8.990   219.2795 1.4675e+02     3.1650      1.432      2.076    24.9857 0.0000e+00
      1.482      0.104    10.3531    124.961     35.690  35.586868     5.0048      8.984   219.5782 1.4169e+02     3.1892      1.455      2.109    24.9559 0.0000e+00
      1.506      0.103    10.3251    124.556     35.706  35.582285     5.0442      8.978   219.6976 1.3601e+02     3.2695      1.475      2.139    24.9242 0.0000e+00
      1.534      0.100    10.3032    124.231     35.710  35.566875     5.1085      8.972   219.6043 1.3001e+02     3.3727      1.504      2.182    24.8996 0.0000e+00
      1.563      0.093    10.2861    123.976     35.686  35.527571     5.1397      8.970   219.6543 1.2510e+02     3.3995      1.535      2.226    24.8783 0.0000e+00
      1.590      0.083    10.2700    123.744     35.658  35.488165     5.1269      8.970   219.7010 1.2085e+02     3.3494      1.559      2.261    24.8506 0.0000e+00
      1.613      0.069    10.2522    123.509     35.647  35.471530     5.1009      8.970   219.6518 1.1753e+02     3.2252      1.584      2.297    24.8178 0.0000e+00
      1.630      0.054    10.2278    123.214     35.629  35.453477     5.0733      8.970   219.7480 1.1643e+02     3.0877      1.603      2.324    24.7930 0.0000e+00
      1.637      0.046    10.1945    122.810     35.573  35.396935     5.0596      8.969   220.0900 1.1649e+02     3.0601      1.607      2.331    24.7710 0.0000e+00
      1.639      0.046    10.1575    122.335     35.482  35.296052     5.0645      8.965   220.6035 1.1647e+02     3.0444      1.608      2.332    24.7527 0.0000e+00
      1.642      0.053    10.1224    121.839     35.395  35.186498     5.0868      8.957   221.0520 1.1558e+02     2.9888      1.607      2.330    24.7443 0.0000e+00
      1.652      0.063    10.0901    121.347     35.329  35.088625     5.1173      8.948   221.6414 1.1268e+02     2.9988      1.615      2.342    24.7454 0.0000e+00
      1.675      0.077    10.0561    120.829     35.212  34.938388     5.1386      8.935   222.4809 1.0771e+02     3.0121      1.639      2.377    24.7512 0.0000e+00
      1.707      0.092    10.0151    120.202     35.018  34.703855     5.1429      8.917   222.9425 1.0262e+02     2.9673      1.675      2.430    24.7398 0.0000e+00
      1.736      0.102     9.9654    119.389     34.922  34.539530     5.1320      8.898   222.7484 9.9357e+01     2.9458      1.707      2.476    24.7045 0.0000e+00
      1.759      0.103     9.9036    118.386     34.942  34.475898     5.1079      8.884   222.5435 9.6022e+01     2.9654      1.721      2.495    24.6552 0.0000e+00
      1.786      0.099     9.8320    117.306     34.916  34.378985     5.0811      8.870   222.8744 9.1484e+01     2.9909      1.748      2.534    24.6031 0.0000e+00
      1.818      0.095     9.7650    116.231     34.947  34.320438     5.0748      8.853   223.3075 8.8339e+01     3.0093      1.790      2.596    24.5632 0.0000e+00
      1.839      0.092     9.7088    115.136     35.108  34.339552     5.0781      8.834   223.8222 8.6948e+01     3.0053      1.807      2.620    24.4613 0.0000e+00
      1.854      0.090     9.6669    114.195     35.273  34.355802     5.0840      8.816   224.6236 8.4710e+01     3.0332      1.812      2.629    24.3076 0.0000e+00
      1.877      0.090     9.6741    113.919     35.430  34.389677     5.1085      8.794   224.8240 8.1470e+01     3.1328      1.839      2.668    24.2315 0.0000e+00
      1.902      0.094     9.7682    114.636     35.605  34.431371     5.1362      8.763   224.7820 7.8868e+01     3.2030      1.868      2.709    24.1409 0.0000e+00
      1.924      0.103     9.9367    116.155     35.741  34.415113     5.1523      8.723   225.5782 7.6578e+01     3.2108      1.886      2.735    23.9002 0.0000e+00
      1.948      0.111    10.1430    118.145     35.849  34.383446     5.1837      8.682   226.7928 7.3739e+01     3.1967      1.907      2.768    23.6619 0.0000e+00
      1.979      0.114    10.3689    120.445     35.939  34.365880     5.2497      8.644   228.7129 7.0224e+01     3.1845      1.938      2.811    23.5408 0.0000e+00
      2.015      0.115    10.6032    122.895     35.989  34.329614     5.3064      8.605   231.0696 6.6579e+01     3.2164      1.976      2.867    23.3636 0.0000e+00
      2.050      0.116    10.8274    125.225     36.070  34.325948     5.3266      8.564   231.8847 6.3817e+01     3.2455      2.015      2.923    23.1266 0.0000e+00
      2.077      0.119    11.0210    127.185     36.219  34.384963     5.3568      8.518   231.5996 6.1788e+01     3.1709      2.039      2.956    22.9357 0.0000e+00
      2.100      0.124    11.1686    128.559     36.413  34.471372     5.4133      8.463   232.0113 5.9733e+01     3.0471      2.057      2.984    22.7927 0.0000e+00
      2.126      0.130    11.2589    129.164     36.627  34.544834     5.4498      8.407   233.0770 5.7432e+01     3.0006      2.083      3.022    22.6941 0.0000e+00
      2.158      0.133    11.2765    128.900     36.805  34.574302     5.4676      8.358   234.1590 5.4532e+01     2.9740      2.112      3.063    22.5764 0.0000e+00
      2.200      0.132    11.2072    127.758     36.916  34.573402     5.5087      8.318   235.1134 5.0891e+01     2.7251      2.152      3.121    22.4650 0.0000e+00
      2.249      0.129    11.0474    125.768     36.996  34.597320     5.5616      8.284   236.2705 4.7657e+01     2.2802      2.210      3.205    22.3527 0.0000e+00
      2.288      0.129    10.8159    123.021     37.115  34.672864     5.5829      8.249   237.2228 4.6039e+01     2.0505      2.254      3.268    22.1592 0.0000e+00
      2.307      0.132    10.5519    119.790     37.250  34.724525     5.5738      8.212   237.5076 4.5421e+01     2.0841      2.265      3.285    21.9460 0.0000e+00
      2.321      0.136    10.2843    116.420     37.356  34.713690     5.5433      8.179   237.8206 4.4175e+01     2.0759      2.270      3.293    21.7893 0.0000e+00
      2.351      0.140    10.0170    113.083     37.489  34.732256     5.2506      8.151   238.5122 4.1490e+01     1.8909      2.296      3.330    21.7400 0.0000e+00
      2.400      0.148     9.7390    109.701     37.679  34.821813     4.7093      8.123   240.1060 3.8226e+01     1.6778      2.352      3.411    21.7361 0.0000e+00
      2.453      0.158     9.4458    106.196     37.851  34.907123     4.4113      8.097   242.2921 3.5688e+01     1.6050      2.412      3.499    21.6270 0.0000e+00
      2.498      0.161     9.1513    102.704     37.958  34.937875     4.3674      8.073   243.3485 3.3888e+01     1.5912      2.452      3.556    21.4510 0.0000e+00
      2.535      0.154     8.8703     99.389     38.028  34.939451     4.1971      8.052   242.8119 3.2185e+01     1.4806      2.484      3.604    21.3056 0.0000e+00
      2.573      0.140     8.6074     96.300     38.076  34.926096     3.8959      8.033   241.9992 3.0570e+01     1.2750      2.524      3.660    21.1997 0.0000e+00
      2.608      0.130     8.3554     93.355     38.109  34.903362     3.7312      8.013   242.4702 2.9310e+01     1.1494      2.559      3.711    21.1050 0.0000e+00
      2.638      0.127     8.1062     90.450     38.183  34.918594     3.7032      7.987   244.8923 2.8320e+01     1.1216      2.589      3.755    21.0134 0.0000e+00
      2.665      0.133     7.8720     87.683     38.328  34.983155     3.5382      7.954   248.1405 2.7470e+01     1.0609      2.614      3.791    20.9332 0.0000e+00
      2.690      0.144     7.6714     85.226     38.512  35.048667     3.2256      7.922   249.7372 2.6584e+01     0.9644      2.635      3.822    20.8557 0.0000e+00
      2.724      0.155     7.5018     83.026     38.706  35.075356     3.0476      7.896   249.8287 2.5420e+01     0.9015      2.667      3.868    20.7860 0.0000e+00
      2.769      0.164     7.3384     80.840     38.883  35.051566     3.0132      7.875   249.7636 2.4095e+01     0.8802      2.713      3.934    20.7297 0.0000e+00
      2.823      0.169     7.1559     78.470     39.041  35.014856     2.8829      7.855   249.5525 2.2875e+01     0.8591      2.766      4.012    20.6481 0.0000e+00
      2.878      0.170     6.9345     75.713     39.230  35.012374     2.6588      7.834   249.9434 2.1925e+01     0.7993      2.828      4.101    20.5203 0.0000e+00
      2.922      0.167     6.6667     72.426     39.464  35.021329     2.5368      7.812   251.3065 2.1267e+01     0.7373      2.872      4.165    20.3280 0.0000e+00
      2.954      0.164     6.3690     68.786     39.699  34.995831     2.5096      7.790   252.6973 2.0638e+01     0.6898      2.894      4.199    20.0600 0.0000e+00
      2.988      0.164     6.0549     64.975     39.945  34.957860     2.4039      7.770   253.4238 1.9918e+01     0.6515      2.927      4.246    19.8275 0.0000e+00
      3.027      0.166     5.7281     61.045     40.243  34.943011     2.2243      7.750   253.5512 1.9227e+01     0.6712      2.968      4.306    19.6421 0.0000e+00
      3.071      0.171     5.4008     57.145     40.571  34.942980     2.1301      7.732   253.5495 1.8510e+01     0.7139      3.007      4.361    19.3825 0.0000e+00
      3.121      0.173     5.0786     53.373     40.900  34.957122     2.1284      7.714   253.2313 1.7772e+01     0.7407      3.059      4.437    19.0785 0.0000e+00
      3.175      0.169     4.7679     49.817     41.203  34.986618     2.1206      7.696   252.7155 1.7146e+01     0.7507      3.117      4.523    18.7650 0.0000e+00
      3.221      0.163     4.4885     46.671     41.499  35.045244     2.0366      7.679   253.0772 1.6628e+01     0.7433      3.162      4.586    18.4172 0.0000e+00
      3.258      0.157     4.2423     43.913     41.846  35.157550     1.8932      7.661   254.1629 1.6212e+01     0.7426      3.197      4.637    18.0540 0.0000e+00
      3.289      0.150     4.0148     41.345     42.222  35.264407     1.8121      7.643   255.0014 1.5872e+01     0.7428      3.225      4.678    17.7108 0.0000e+00
      3.320      0.142     3.7983     38.886     42.577  35.320637     1.7999      7.626   254.0961 1.5462e+01     0.7153      3.253      4.717    17.4364 0.0000e+00
      3.359      0.136     3.5935     36.591     42.924  35.392458     1.7363      7.610   252.2502 1.4966e+01     0.6844      3.292      4.774    17.2122 0.0000e+00
      3.403      0.134     3.4032     34.513     43.248  35.497302     1.6041      7.592   252.2999 1.4530e+01     0.7051      3.340      4.844    17.0199 0.0000e+00
      3.439      0.137     3.2237     32.591     43.494  35.571735     1.5337      7.569   254.2668 1.4227e+01     0.7524      3.378      4.899    16.7808 0.0000e+00
      3.466      0.144     3.0477     30.719     43.754  35.657036     1.5377      7.542   256.7597 1.3959e+01     0.7373      3.399      4.928    16.4610 0.0000e+00
      3.492      0.153     2.8712     28.826     44.171  35.829756     1.5233      7.516   258.3509 1.3605e+01     0.7053      3.421      4.960    16.1944 0.0000e+00
      3.529      0.160     2.6914     26.878     44.666  36.008258     1.4884      7.494   258.1040 1.3150e+01     0.7010      3.456      5.013    16.0235 0.0000e+00
      3.578      0.166     2.5113     24.934     45.081  36.099859     1.4752      7.476   256.9585 1.2620e+01     0.6860      3.505      5.085    15.8871 0.0000e+00
      3.633      0.170     2.3434     23.148     45.441  36.174701     1.4827      7.460   256.6314 1.2102e+01     0.7064      3.565      5.170    15.7610 0.0000e+00
      3.685      0.170     2.1894     21.539     45.862  36.341185     1.4685      7.439   257.4185 1.1687e+01     0.7949      3.618      5.248    15.5846 0.0000e+00
      3.726      0.169     2.0376     19.979     46.354  36.587985     1.4328      7.414   258.4737 1.1381e+01     0.9022      3.657      5.303    15.3134 0.0000e+00
      3.759      0.168     1.8838     18.403     46.919  36.871620     1.4178      7.388   259.1514 1.1120e+01     0.9652      3.687      5.347    15.0212 0.0000e+00
      3.792      0.168     1.7236     16.755     47.574  37.165795     1.4158      7.365   259.9332 1.0814e+01     0.9773      3.715      5.388    14.7808 0.0000e+00
      3.833      0.171     1.5603     15.079     48.222  37.412854     1.3809      7.344   260.7860 1.0425e+01     0.9577      3.754      5.444    14.6054 0.0000e+00
      3.885      0.172     1.4101     13.552     48.735  37.571442     1.3181      7.324   260.9446 1.0006e+01     0.9410      3.810      5.526    14.4699 0.0000e+00
      3.939      0.171     1.2737     12.189     48.958  37.558272     1.2813      7.305   261.0767 9.6354e+00     0.9282      3.867      5.608    14.3201 0.0000e+00
      3.987      0.168     1.1447     10.919     48.908  37.380470     1.2760      7.283   261.5224 9.3427e+00     0.9245      3.913      5.675    14.0782 0.0000e+00
      4.027      0.164     1.0252      9.752     48.836  37.200321     1.2177      7.257   263.1495 9.1229e+00     1.0494      3.952      5.732    13.7792 0.0000e+00
      4.058      0.162     0.9207      8.730     48.882  37.095265     1.1003      7.232   265.6077 8.9233e+00     1.2792      3.980      5.771    13.5217 0.0000e+00
      4.090      0.161     0.8396      7.931     49.059  37.063024     1.0327      7.210   266.7231 8.6515e+00     1.3829      4.006      5.810    13.3354 0.0000e+00
      4.133      0.157     0.7957      7.486     49.283  37.064425     1.0160      7.193   266.6541 8.3099e+00     1.3271      4.048      5.873    13.2066 0.0000e+00
      4.185      0.153     0.8072      7.573     49.418  37.048485     0.9997      7.178   266.4952 7.9641e+00     1.3064      4.104      5.952    13.0908 0.0000e+00
      4.236      0.152     0.8953      8.385     49.438  36.997215     0.9552      7.160   267.0392 7.6975e+00     1.5286      4.159      6.033    12.9528 0.0000e+00
      4.271      0.155     1.0845     10.135     49.492  36.952695     0.8817      7.138   269.0157 7.5674e+00     1.8778      4.196      6.087    12.7765 0.0000e+00
      4.293      0.160     1.3822     12.878     49.666  36.954802     0.8376      7.114   271.4640 7.4665e+00     2.0497      4.207      6.102    12.5778 0.0000e+00
      4.320      0.162     1.7649     16.400     49.839  36.959012     0.8256      7.093   272.5495 7.2626e+00     2.1117      4.227      6.130    12.4529 0.0000e+00
      4.365      0.162     2.1970     20.379     49.932  36.939935     0.8111      7.078   272.3320 6.9759e+00     2.5053      4.276      6.202    12.4286 0.0000e+00
      4.425      0.162     2.6476     24.535     49.963  36.914632     0.7815      7.065   271.9325 6.6789e+00     3.2081      4.341      6.295    12.3538 0.0000e+00
      4.484      0.164     3.0916     28.637     49.979  36.907135     0.7613      7.050   272.5369 6.4493e+00     3.5888      4.405      6.389    12.1952 0.0000e+00
      4.524      0.165     3.4987     32.402     50.001  36.912793     0.7589      7.032   273.8751 6.3329e+00     3.7208      4.445      6.448    12.0603 0.0000e+00
      4.545      0.162     3.8392     35.545     50.029  36.919507     0.7075      7.016   274.5191 6.2202e+00     4.8039      4.455      6.461    11.9734 0.0000e+00
      4.570      0.157     4.0982     37.930     50.055  36.924763     0.6091      7.004   274.4723 5.9967e+00     6.7359      4.472      6.485    11.9277 0.0000e+00
      4.617      0.154     4.2800     39.603     50.053  36.912796     0.5522      6.995   274.5138 5.7069e+00     7.7627      4.522      6.559    11.9172 0.0000e+00
      4.674      0.156     4.4005     40.713     50.046  36.901862     0.5339      6.983   275.0212 5.4482e+00     7.9109      4.589      6.655    11.9128 0.0000e+00
      4.722      0.161     4.4741     41.390     50.075  36.919613     0.4885      6.968   275.1866 5.2611e+00     8.6193      4.637      6.726    11.8956 0.0000e+00
      4.756      0.164     4.5075     41.698     50.101  36.936835     0.4261      6.952   275.0506 5.1261e+00     9.8891      4.666      6.767    11.8791 0.0000e+00
      4.785      0.165     4.5059     41.680     50.081  36.919495     0.4056      6.937   275.5278 4.9830e+00    10.5676      4.690      6.802    11.8698 0.0000e+00
      4.821      0.165     4.4834     41.470     50.059  36.900542     0.4144      6.924   275.9662 4.7755e+00    10.5985      4.723      6.849    11.8635 0.0000e+00
      4.867      0.165     4.4534     41.189     50.060  36.898251     0.4125      6.913   276.2210 4.5115e+00    10.5979      4.769      6.918    11.8614 0.0000e+00
      4.922      0.166     4.4200     40.877     50.056  36.891795     0.3833      6.901   276.3717 4.2199e+00    10.7431      4.826      7.000    11.8599 0.0000e+00
      4.974      0.170     4.3836     40.537     50.052  36.886006     0.3378      6.886   276.2402 3.9662e+00    11.0112      4.884      7.082    11.8569 0.0000e+00
      5.014      0.175     4.3426     40.155     50.064  36.891781     0.3209      6.869   276.5241 3.8141e+00    11.1852      4.924      7.141    11.8548 0.0000e+00
      5.042      0.175     4.3013     39.771     50.076  36.898086     0.3260      6.855   277.0507 3.6808e+00    11.2284      4.942      7.168    11.8518 0.0000e+00
      5.077      0.165     4.2625     39.412     50.078  36.898701     0.3257      6.845   277.6171 3.4117e+00    11.2286      4.967      7.204    11.8475 0.0000e+00
      5.136      0.151     4.2263     39.079     50.075  36.899221     0.3272      6.838   278.2963 3.0450e+00    11.2191      5.033      7.299    11.8449 0.0000e+00
      5.197      0.140     4.1977     38.815     50.080  36.904371     0.3345      6.832   278.2070 2.8228e+00    11.2043      5.113      7.414    11.8424 0.0000e+00
      5.231      0.132     4.1787     38.640     50.072  36.897442     0.3410      6.822   277.7422 2.7809e+00    11.2032      5.139      7.453    11.8379 0.0000e+00
      5.242      0.127     4.1663     38.525     50.047  36.878976     0.3413      6.809   278.0108 2.7261e+00    11.2659      5.137      7.450    11.8359 0.0000e+00
      5.257      0.125     4.1580     38.447     50.040  36.871678     0.3380      6.797   278.6151 2.6220e+00    11.3825      5.154      7.475    11.8415 0.0000e+00
      5.281      0.128     4.1537     38.403     50.047  36.872728     0.3379      6.788   279.1983 2.4743e+00    11.4538      5.174      7.504    11.8438 0.0000e+00
      5.320      0.137     4.1497     38.363     50.078  36.891663     0.3399      6.782   279.5553 2.2268e+00    11.4559      5.209      7.555    11.8410 0.0000e+00
      5.375      0.147     4.1431     38.299     50.107  36.910035     0.3349      6.776   279.5768 1.9844e+00    11.4991      5.276      7.651    11.8418 0.0000e+00
      5.425      0.153     4.1356     38.229     50.101  36.904268     0.3233      6.769   279.8017 1.8389e+00    11.6111      5.327      7.727    11.8410 0.0000e+00
      5.459      0.156     4.1294     38.170     50.077  36.885468     0.3190      6.760   280.2962 1.7329e+00    11.6804      5.354      7.766    11.8351 0.0000e+00
      5.487      0.154     4.1261     38.138     50.063  36.873302     0.3290      6.751   280.6513 1.6338e+00    11.6660      5.381      7.803    11.8301 0.0000e+00
      5.519      0.149     4.1241     38.118     50.081  36.884218     0.3425      6.743   280.9122 1.5189e+00    11.6814      5.406      7.842    11.8276 0.0000e+00
      5.562      0.147     4.1241     38.114     50.094  36.890400     0.3537      6.738   281.4715 1.3664e+00    11.7743      5.449      7.904    11.8265 0.0000e+00
      5.610      0.147     4.1259     38.129     50.090  36.884520     0.3547      6.732   282.3370 1.2282e+00    11.8437      5.506      7.986    11.8266 0.0000e+00
      5.650      0.150     4.1260     38.129     50.080  36.876645     0.3451      6.723   283.1170 1.1338e+00    11.8485      5.545      8.042    11.8249 0.0000e+00
      5.682      0.154     4.1259     38.129     50.054  36.858705     0.3472      6.711   283.5892 1.0509e+00    11.8639      5.571      8.080    11.8219 0.0000e+00
      5.713      0.156     4.1266     38.136     50.052  36.858194     0.3530      6.699   283.8301 9.7097e-01    11.9073      5.601      8.123    11.8180 0.0000e+00
      5.749      0.156     4.1248     38.121     50.068  36.870464     0.3410      6.689   284.0501 8.9813e-01    11.9152      5.636      8.174    11.8144 0.0000e+00
      5.794      0.156     4.1211     38.086     50.083  36.880005     0.3227      6.682   284.3573 8.0908e-01    11.8984      5.681      8.239    11.8139 0.0000e+00
      5.844      0.152     4.1177     38.055     50.124  36.910027     0.3147      6.677   284.7913 7.2023e-01    11.8875      5.731      8.313    11.8155 0.0000e+00
      5.890      0.147     4.1152     38.033     50.129  36.915817     0.3180      6.670   285.5988 6.7480e-01    11.8755      5.781      8.384    11.8176 0.0000e+00
      5.926      0.145     4.1127     38.012     50.084  36.886476     0.3259      6.659   286.5493 6.5109e-01    11.8741      5.817      8.437    11.8180 0.0000e+00
      5.951      0.148     4.1093     37.982     50.064  36.872920     0.3272      6.645   286.9050 6.2489e-01    11.8707      5.837      8.467    11.8166 0.0000e+00
      5.973      0.153     4.1058     37.948     50.074  36.878969     0.3156      6.635   286.6290 5.8638e-01    11.8348      5.853      8.489    11.8154 0.0000e+00
      6.008      0.156     4.1028     37.918     50.101  36.896074     0.2969      6.630   286.3097 5.2640e-01    11.8060      5.881      8.529    11.8174 0.0000e+00
      6.064      0.159     4.0995     37.884     50.096  36.889144     0.2841      6.625   286.5721 4.7637e-01    11.8279      5.943      8.621    11.8223 0.0000e+00
      6.125      0.165     4.0976     37.864     50.059  36.858705     0.2796      6.618   287.5642 4.5590e-01    11.8550      6.016      8.725    11.8241 0.0000e+00
      6.170      0.176     4.0981     37.868     50.043  36.845678     0.2711      6.606   288.4974 4.3798e-01    11.8597      6.057      8.786    11.8219 0.0000e+00
      6.195      0.187     4.0977     37.864     50.062  36.858694     0.2826      6.594   288.8218 4.1643e-01    11.8851      6.075      8.811    11.8184 0.0000e+00
      6.221      0.189     4.0973     37.859     50.104  36.889018     0.3171      6.586   288.9058 3.9876e-01    11.9180      6.090      8.832    11.8148 0.0000e+00
      6.274      0.186     4.0994     37.879     50.110  36.894679     0.3301      6.582   289.1684 3.6275e-01    11.9210      6.140      8.905    11.8119 0.0000e+00
      6.351      0.187     4.1024     37.910     50.063  36.863612     0.3291      6.576   289.7594 3.1420e-01    11.8909      6.232      9.039    11.8105 0.0000e+00
      6.419      0.195     4.1050     37.939     50.013  36.831036     0.3323      6.566   290.3730 2.8529e-01    11.8901      6.310      9.152    11.8110 0.0000e+00
      6.456      0.203     4.1064     37.951     49.997  36.818445     0.3324      6.555   290.4787 2.8577e-01    12.0034      6.340      9.194    11.8100 0.0000e+00
      6.477      0.202     4.1070     37.953     50.029  36.838433     0.3307      6.550   290.4342 2.7587e-01    12.1008      6.343      9.199    11.8087 0.0000e+00
      6.517      0.194     4.1096     37.973     50.094  36.882109     0.3300      6.548   290.6959 2.4543e-01    12.0904      6.375      9.246    11.8142 0.0000e+00
      6.589      0.188     4.1118     37.992     50.123  36.901829     0.3146      6.547   290.8043 2.3248e-01    12.0606      6.461      9.370    11.8212 0.0000e+00
      6.664      0.185     4.1093     37.969     50.103  36.886283     0.2830      6.547   290.7976 2.1623e-01    12.0457      6.548      9.496    11.8191 0.0000e+00
      6.714      0.184     4.1045     37.924     50.100  36.884723     0.2692      6.542   291.2181 1.9350e-01    12.0318      6.591      9.560    11.8134 0.0000e+00
      6.743      0.183     4.1000     37.884     50.096  36.882963     0.2766      6.531   291.8441 1.8946e-01    12.0150      6.614      9.593    11.8098 0.0000e+00
      6.768      0.183     4.0961     37.848     50.071  36.865003     0.2803      6.520   292.6025 1.8558e-01    12.0261      6.635      9.624    11.8072 0.0000e+00
      6.802      0.188     4.0928     37.818     50.063  36.858160     0.2766      6.511   293.5901 1.6805e-01    12.0436      6.661      9.660    11.8066 0.0000e+00
      6.857      0.195     4.0898     37.789     50.073  36.863749     0.2691      6.507   294.4068 1.4608e-01    12.0433      6.714      9.737    11.8083 0.0000e+00
      6.932      0.202     4.0878     37.770     50.078  36.869041     0.2631      6.502   294.9059 1.3272e-01    12.0537      6.799      9.861    11.8100 0.0000e+00
      7.003      0.208     4.0874     37.768     50.061  36.858626     0.2688      6.493   294.9783 1.2937e-01    12.0779      6.879      9.976    11.8101 0.0000e+00
      7.051      0.210     4.0884     37.777     50.070  36.864874     0.2913      6.484   294.7653 1.2964e-01    12.0914      6.924     10.043    11.8085 0.0000e+00
      7.080      0.203     4.0927     37.815     50.096  36.881049     0.3246      6.480   294.6541 1.3002e-01    12.0650      6.938     10.063    11.8063 0.0000e+00
      7.119      0.187     4.0979     37.860     50.077  36.863619     0.3396      6.480   294.9248 1.2769e-01    12.0325      6.968     10.108    11.8079 0.0000e+00
      7.183      0.171     4.1005     37.884     50.052  36.844705     0.3353      6.480   295.8009 1.2534e-01    12.0341      7.045     10.219    11.8119 0.0000e+00
      7.247      0.163     4.1021     37.901     50.046  36.842943     0.3282      6.475   296.8153 1.2514e-01    12.0538      7.118     10.324    11.8113 0.0000e+00
      7.288      0.165     4.1036     37.918     50.040  36.842318     0.3091      6.466   297.1230 1.2509e-01    12.0576      7.155     10.378    11.8070 0.0000e+00
      7.308      0.170     4.1049     37.929     50.034  36.837150     0.2791      6.458   296.5101 1.2506e-01    12.0500      7.169     10.397    11.8035 0.0000e+00
      7.325      0.173     4.1034     37.914     50.047  36.843985     0.2595      6.453   295.8579 1.2508e-01    12.0530      7.173     10.404    11.8021 0.0000e+00
      7.368      0.176     4.0970     37.852     50.075  36.861425     0.2736      6.452   295.8620 1.2517e-01    12.0635      7.210     10.458    11.8060 0.0000e+00
      7.439      0.181     4.0901     37.787     50.071  36.857431     0.3120      6.452   296.2156 1.2518e-01    12.0848      7.296     10.582    11.8120 0.0000e+00
      7.510      0.186     4.0863     37.752     50.071  36.859211     0.3371      6.449   296.8636 1.2514e-01    12.0973      7.374     10.696    11.8103 0.0000e+00
      7.559      0.189     4.0822     37.717     50.101  36.882956     0.3391      6.444   297.6738 1.2514e-01    12.0629      7.418     10.758    11.8060 0.0000e+00
      7.589      0.184     4.0786     37.685     50.110  36.890406     0.3355      6.439   297.2359 1.2520e-01    12.0346      7.443     10.794    11.8032 0.0000e+00
      7.618      0.176     4.0782     37.680     50.105  36.885768     0.3399      6.434   295.6999 1.2522e-01    12.0607      7.464     10.825    11.8014 0.0000e+00
      7.661      0.170     4.0797     37.692     50.114  36.890402     0.3462      6.433   295.1052 1.2513e-01    12.0732      7.506     10.886    11.8029 0.0000e+00
      7.717      0.169     4.0837     37.728     50.105  36.882905     0.3379      6.432   295.8960 1.2505e-01    12.0632      7.569     10.977    11.8059 0.0000e+00
      7.772      0.169     4.0895     37.781     50.073  36.858640     0.3229      6.427   297.2591 1.2509e-01    12.0618      7.627     11.062    11.8069 0.0000e+00
      7.817      0.171     4.0925     37.809     50.062  36.851132     0.3021      6.419   297.3036 1.2517e-01    12.0561      7.670     11.124    11.8055 0.0000e+00
      7.849      0.170     4.0921     37.807     50.067  36.855652     0.2705      6.413   295.8324 1.2517e-01    12.0554      7.700     11.167    11.8040 0.0000e+00
      7.879      0.164     4.0916     37.803     50.058  36.849762     0.2621      6.410   295.0444 1.2516e-01    12.0833      7.721     11.198    11.8025 0.0000e+00
      7.922      0.158     4.0906     37.793     50.049  36.843448     0.2736      6.409   295.4334 1.2519e-01    12.0890      7.760     11.255    11.8014 0.0000e+00
      7.978      0.159     4.0867     37.759     50.047  36.842830     0.2909      6.405   296.4914 1.2523e-01    12.0634      7.828     11.354    11.8019 0.0000e+00
      8.026      0.169     4.0824     37.720     50.044  36.842300     0.3238      6.396   297.4260 1.2519e-01    12.0787      7.881     11.431    11.8043 0.0000e+00
      8.055      0.183     4.0812     37.709     50.037  36.837037     0.3413      6.387   297.5278 1.2516e-01    12.1222      7.900     11.457    11.8046 0.0000e+00
      8.083      0.193     4.0830     37.724     50.047  36.842717     0.3370      6.383   297.1196 1.2516e-01    12.1312      7.918     11.484    11.8037 0.0000e+00
      8.133      0.197     4.0863     37.752     50.056  36.847447     0.3180      6.383   296.7929 1.2511e-01    12.0956      7.965     11.553    11.8051 0.0000e+00
      8.205      0.202     4.0892     37.778     50.035  36.830700     0.2761      6.383   296.8472 1.2506e-01    12.0579      8.046     11.671    11.8078 0.0000e+00
      8.278      0.210     4.0903     37.788     50.035  36.830805     0.2537      6.378   297.1733 1.2508e-01    12.0422      8.127     11.788    11.8084 0.0000e+00
      8.330      0.217     4.0907     37.791     50.060  36.848718     0.2677      6.372   298.1549 1.2512e-01    12.0575      8.177     11.859    11.8054 0.0000e+00
      8.365      0.213     4.0914     37.797     50.072  36.856694     0.2798      6.367   299.0794 1.2517e-01    12.0908      8.201     11.894    11.8026 0.0000e+00
      8.408      0.200     4.0918     37.801     50.083  36.863719     0.2712      6.366   298.7147 1.2519e-01    12.1087      8.234     11.944    11.8012 0.0000e+00
      8.470      0.190     4.0902     37.786     50.091  36.870129     0.2555      6.366   298.3907 1.2515e-01    12.0917      8.304     12.045    11.8017 0.0000e+00
      8.535      0.189     4.0867     37.755     50.090  36.870660     0.2555      6.363   298.4312 1.2511e-01    12.0677      8.380     12.153    11.8025 0.0000e+00
      8.583      0.191     4.0835     37.726     50.088  36.870141     0.2801      6.358   298.0007 1.2512e-01    12.0629      8.424     12.218    11.8011 0.0000e+00
      8.615      0.189     4.0815     37.707     50.079  36.863855     0.3144      6.354   298.9504 1.2517e-01    12.0646      8.446     12.250    11.7994 0.0000e+00
      8.652      0.180     4.0785     37.680     50.073  36.858175     0.3301      6.352   301.3960 1.2525e-01    12.0581      8.477     12.295    11.8000 0.0000e+00
      8.705      0.176     4.0766     37.662     50.083  36.864996     0.3314      6.349   302.7900 1.2525e-01    12.0442      8.535     12.379    11.8022 0.0000e+00
      8.762      0.181     4.0778     37.672     50.107  36.882804     0.3309      6.345   303.1585 1.2520e-01    12.0488      8.599     12.472    11.8035 0.0000e+00
      8.807      0.192     4.0795     37.687     50.107  36.882899     0.3142      6.340   302.8397 1.2520e-01    12.0530      8.641     12.533    11.8036 0.0000e+00
      8.843      0.199     4.0826     37.716     50.085  36.866141     0.2866      6.336   302.7207 1.2515e-01    12.0635      8.667     12.571    11.8020 0.0000e+00
      8.889      0.201     4.0861     37.747     50.092  36.870776     0.2731      6.333   304.2159 1.2509e-01    12.0847      8.709     12.631    11.8006 0.0000e+00
      8.949      0.205     4.0872     37.756     50.100  36.875406     0.2786      6.330   305.6024 1.2507e-01    12.0656      8.776     12.727    11.8011 0.0000e+00
      9.014      0.211     4.0877     37.761     50.078  36.858582     0.2989      6.325   305.8039 1.2506e-01    12.0458      8.845     12.829    11.8012 0.0000e+00
      9.068      0.213     4.0892     37.775     50.078  36.857947     0.3247      6.323   305.2769 1.2506e-01    12.0593      8.897     12.903    11.8010 0.0000e+00
      9.116      0.203     4.0902     37.785     50.091  36.867727     0.3334      6.323   304.3919 1.2511e-01    12.0458      8.935     12.959    11.8002 0.0000e+00
      9.170      0.185     4.0894     37.777     50.068  36.849767     0.3312      6.324   303.7081 1.2516e-01    12.0039      8.990     13.038    11.7988 0.0000e+00
      9.225      0.170     4.0893     37.775     50.043  36.831382     0.3164      6.324   303.8058 1.2520e-01    12.0104      9.054     13.130    11.7983 0.0000e+00
      9.268      0.164     4.0918     37.798     50.049  36.836013     0.2827      6.320   304.5403 1.2520e-01    12.0648      9.095     13.192    11.7982 0.0000e+00
      9.295      0.165     4.0953     37.829     50.058  36.842235     0.2722      6.314   305.0183 1.2516e-01    12.0810      9.116     13.221    11.7980 0.0000e+00
      9.320      0.165     4.1003     37.876     50.060  36.843079     0.2815      6.309   305.2824 1.2515e-01    12.0538      9.136     13.249    11.7976 0.0000e+00
      9.360      0.162     4.1042     37.911     50.065  36.846213     0.2757      6.308   305.1529 1.2515e-01    12.0411      9.171     13.301    11.7966 0.0000e+00
      9.418      0.162     4.1032     37.902     50.110  36.880124     0.2669      6.307   303.6238 1.2510e-01    12.0496      9.236     13.394    11.7965 0.0000e+00
      9.478      0.162     4.1013     37.887     50.183  36.935464     0.2673      6.305   301.5937 1.2510e-01    12.0656      9.305     13.496    11.7963 0.0000e+00
      9.518      0.156     4.1006     37.881     50.192  36.943564     0.2711      6.303   301.5146 1.2512e-01    12.0814      9.341     13.549    11.7962 0.0000e+00
      9.542      0.139     4.0966     37.844     50.152  36.914539     0.2757      6.302   302.7536 1.2516e-01    12.0878      9.353     13.566    11.7956 0.0000e+00
      9.572      0.115     4.0906     37.790     50.133  36.902167     0.2768      6.301   303.1512 1.2519e-01    12.0818      9.383     13.608    11.7957 0.0000e+00
      9.608      0.094     4.0876     37.764     50.157  36.921037     0.2666      6.303   301.6760 1.2513e-01    12.0701      9.428     13.674    11.7986 0.0000e+00
      9.634      0.078     4.0826     37.719     50.197  36.952098     0.2632      6.304   299.2859 1.2506e-01    12.0683      9.454     13.711    11.8001 0.0000e+00
      9.647      0.063     4.0748     37.648     50.206  36.960078     0.2723      6.305   298.4295 1.2508e-01    12.0906      9.461     13.722    11.7996 0.0000e+00
      9.656      0.046     4.0710     37.614     50.195  36.953998     0.2668      6.305   298.5494 1.2510e-01    12.0956      9.469     13.734    11.8009 0.0000e+00
      9.665      0.030     4.0683     37.594     50.171  36.942126     0.2606      6.305   298.9285 1.2511e-01    12.0683      9.478     13.746    11.8029 0.0000e+00
      9.671      0.019     4.0633     37.556     50.161  36.943593     0.2702      6.305   299.8300 1.2514e-01    12.0650      9.485     13.756    11.8041 0.0000e+00
      9.674      0.013     4.0597     37.531     50.186  36.971738     0.2817      6.304   299.2969 1.2509e-01    12.0867      9.488     13.762    11.8052 0.0000e+00
      9.676      0.008     4.0587     37.529     50.166  36.964807     0.2809      6.304   297.3003 1.2507e-01    12.0862      9.489     13.763    11.8065 0.0000e+00
      9.676      0.004     4.0587     37.537     50.098  36.923325     0.2697      6.304   296.3395 1.2513e-01    12.0593      9.489     13.762    11.8118 0.0000e+00
      9.676      0.002     4.0597     37.554     50.073  36.914890     0.2657      6.303   296.7136 1.2516e-01    12.0665      9.489     13.763    11.8224 0.0000e+00
      9.676      0.001     4.0610     37.574     50.075  36.926354     0.2688      6.302   297.2632 1.2513e-01    12.1121      9.489     13.763    11.8324 0.0000e+00
      9.676      0.000     4.0628     37.596     50.078  36.934893     0.2706      6.301   297.5647 1.2505e-01    12.1221      9.490     13.764    11.8399 0.0000e+00
      9.676 5.7943e-08     4.0655     37.624     50.099  36.954618     0.2695      6.301   297.5201 1.2499e-01    12.0955      9.489     13.763    11.8482 0.0000e+00
      9.676 6.3737e-07     4.0685     37.657     50.117  36.974261     0.2645      6.302   296.9813 1.2508e-01    12.0651      9.489     13.763    11.8580 0.0000e+00
      9.677      0.000     4.0718     37.696     50.115  36.981816     0.2645      6.302   296.4717 1.2515e-01    12.0306      9.490     13.764    11.8692 0.0000e+00
      9.677      0.000     4.0756     37.740     50.102  36.982450     0.2883      6.300   296.1762 1.2509e-01    12.0137      9.490     13.764    11.8756 0.0000e+00
      9.677      0.001     4.0798     37.787     50.087  36.981929     0.3225      6.299   295.8175 1.2508e-01    12.0135      9.490     13.764    11.8777 0.0000e+00
      9.677      0.001     4.0810     37.805     50.067  36.975528     0.3377      6.299   296.6087 1.2509e-01    12.0277      9.490     13.764    11.8838 0.0000e+00
      9.677      0.001     4.0815     37.814     50.053  36.968598     0.3342      6.298   298.2571 1.2511e-01    12.0631      9.490     13.765    11.8941 0.0000e+00
      9.677      0.001     4.0846     37.842     50.045  36.961673     0.3269      6.298   298.7985 1.2513e-01    12.0751      9.490     13.765    11.9039 0.0000e+00
      9.677      0.000     4.0850     37.842     50.043  36.955320     0.3226      6.297   298.3366 1.2511e-01    12.0511      9.490     13.765    11.9145 0.0000e+00
      9.677 1.8640e-08     4.0828     37.814     50.054  36.955311     0.3194      6.296   297.7484 1.2512e-01    12.0474      9.490     13.765    11.9249 0.0000e+00
      9.678 2.0504e-07     4.0832     37.809     50.077  36.961560     0.3156      6.295   298.5703 1.2514e-01    12.0609      9.491     13.765    11.9286 0.0000e+00
      9.678 3.7591e-07     4.0844     37.816     50.092  36.967332     0.3138      6.295   299.6701 1.2512e-01    12.0620      9.491     13.765    11.9273 0.0000e+00
      9.678 -9.990e-29 -9.990e-29 -9.990e-29 -9.990e-29 -9.990e-29 -9.990e-29 -9.990e-29 -9.990e-29 1.2510e-01 -9.990e-29      9.491     13.765    11.9227 0.0000e+00
      9.678 -9.990e-29 -9.990e-29 -9.990e-29 -9.990e-29 -9.990e-29 -9.990e-29 -9.990e-29 -9.990e-29 1.2508e-01 -9.990e-29      9.491     13.766    11.9140 0.0000e+00
      9.678 -9.990e-29 -9.990e-29 -9.990e-29 -9.990e-29 -9.990e-29 -9.990e-29 -9.990e-29 -9.990e-29 1.2507e-01 -9.990e-29      9.491     13.765    11.9003 0.0000e+00
      9.678 -9.990e-29 -9.990e-29 -9.990e-29 -9.990e-29 -9.990e-29 -9.990e-29 -9.990e-29 -9.990e-29 1.2508e-01 -9.990e-29      9.491     13.766    11.8918 0.0000e+00
