* Sea-Bird SBE19plus  Data File:
* FileName = C:\DATA\0772919_fcr_0003.hex
* Software version 2.8.0.119
* Temperature SN = 7809
* Conductivity SN = 7809
* System UpLoad Time = Jul 29 2019 16:12:15
* <ApplicationData>
* <Seaterm232>
* <SoftwareVersion>2.8.0.119</SoftwareVersion>
* <BuildDate>07-Nov-2018</BuildDate>
* </Seaterm232>
* </ApplicationData>
* <InstrumentState>
* <HardwareData DeviceType='SBE19plus' SerialNumber='01907809'>
*
*    <Manufacturer>Sea-Bird Electronics, Inc.</Manufacturer>
*
*    <FirmwareVersion>3.1.8</FirmwareVersion>
*
*    <FirmwareDate>Mar  9 2016 16:22:29</FirmwareDate>
*
*    <CommandSetVersion>1.4</CommandSetVersion>
*
*    <PCBAssembly PCBSerialNum='120721' AssemblyNum='41054J'/>
*
*    <PCBAssembly PCBSerialNum='120715' AssemblyNum='41967A'/>
*
*    <PCBAssembly PCBSerialNum='116699' AssemblyNum='41606'/>
*
*    <PCBAssembly PCBSerialNum='120719' AssemblyNum='41059D'/>
*
*    <MfgDate>28-Apr-2017</MfgDate>
*
*    <InternalSensors>
*
*       <Sensor id='Main Temperature'>
*
*          <type>temperature0</type>
*
*          <SerialNumber>01907809</SerialNumber>
*
*       </Sensor>
*
*       <Sensor id='Main Conductivity'>
*
*          <type>conductivity-0</type>
*
*          <SerialNumber>01907809</SerialNumber>
*
*       </Sensor>
*
*       <Sensor id='Main Pressure'>
*
*          <type>strain-0</type>
*
*          <SerialNumber>10586018</SerialNumber>
*
*       </Sensor>
*
*    </InternalSensors>
*
*    <ExternalSensors>
*
*       <Sensor id='volt 0'>
*
*          <type>pH</type>
*
*          <SerialNumber>27-0363</SerialNumber>
*
*       </Sensor>
*
*       <Sensor id='volt 1'>
*
*          <type>ORP</type>
*
*          <SerialNumber>27-0363</SerialNumber>
*
*       </Sensor>
*
*       <Sensor id='volt 2'>
*
*          <type>OXY</type>
*
*          <SerialNumber>43-0434</SerialNumber>
*
*       </Sensor>
*
*       <Sensor id='volt 3'>
*
*          <type>PAR</type>
*
*          <SerialNumber>1122</SerialNumber>
*
*       </Sensor>
*
*       <Sensor id='volt 4'>
*
*          <type>ECO AFL/FL</type>
*
*          <SerialNumber>FLNTURT-2496</SerialNumber>
*
*       </Sensor>
*
*       <Sensor id='volt 5'>
*
*          <type>ECO-NTU</type>
*
*          <SerialNumber>FLNTURT-2496</SerialNumber>
*
*       </Sensor>
*
*       <Sensor id='serial'>
*
*          <type>not assigned</type>
*
*          <SerialNumber>not assigned</SerialNumber>
*
*       </Sensor>
*
*    </ExternalSensors>
*
* </HardwareData>
* <StatusData DeviceType='SBE19plus' SerialNumber='01907809'>
*
*    <DateTime>2019-07-29T16:10:52</DateTime>
*
*    <LoggingState>not logging</LoggingState>
*
*    <EventSummary numEvents='0'/>
*
*    <Power>
*
*       <vMain>12.3</vMain>
*
*       <vLith>9.0</vLith>
*
*       <iMain>63.1</iMain>
*
*       <iPump>39.9</iPump>
*
*       <iExt01>19.0</iExt01>
*
*       <iExt2345>36.2</iExt2345>
*
*    </Power>
*
*    <MemorySummary>
*
*       <Bytes>44160</Bytes>
*
*       <Samples>1920</Samples>
*
*       <SamplesFree>2858868</SamplesFree>
*
*       <SampleLength>23</SampleLength>
*
*       <Profiles>4</Profiles>
*
*    </MemorySummary>
*
* </StatusData>
* <ConfigurationData DeviceType='SBE19plus' SerialNumber='01907809'>
*
*    <ProfileMode>
*
*       <ScansToAverage>1</ScansToAverage>
*
*       <MinimumCondFreq>5</MinimumCondFreq>
*
*       <PumpDelay>45</PumpDelay>
*
*       <AutoRun>no</AutoRun>
*
*       <IgnoreSwitch>no</IgnoreSwitch>
*
*    </ProfileMode>
*
*    <Battery>
*
*       <Type>alkaline</Type>
*
*       <CutOff>7.5</CutOff>
*
*    </Battery>
*
*    <DataChannels>
*
*       <ExtVolt0>yes</ExtVolt0>
*
*       <ExtVolt1>yes</ExtVolt1>
*
*       <ExtVolt2>yes</ExtVolt2>
*
*       <ExtVolt3>yes</ExtVolt3>
*
*       <ExtVolt4>yes</ExtVolt4>
*
*       <ExtVolt5>yes</ExtVolt5>
*
*       <SBE38>no</SBE38>
*
*       <WETLABS>no</WETLABS>
*
*       <OPTODE>no</OPTODE>
*
*       <SBE63>no</SBE63>
*
*       <SeaFET>no</SeaFET>
*
*       <GTD>no</GTD>
*
*    </DataChannels>
*
*    <EchoCharacters>yes</EchoCharacters>
*
*    <OutputExecutedTag>yes</OutputExecutedTag>
*
*    <OutputFormat>raw HEX</OutputFormat>
*
* </ConfigurationData>
* <CalibrationCoefficients DeviceType='SBE19plus' SerialNumber='01907809'>
*
*    <Calibration format='TEMP1' id='Main Temperature'>
*
*       <SerialNum>01907809</SerialNum>
*
*       <CalDate>24-Mar-19</CalDate>
*
*       <TA0>1.217923e-03</TA0>
*
*       <TA1>2.816693e-04</TA1>
*
*       <TA2>-1.603333e-06</TA2>
*
*       <TA3>1.984146e-07</TA3>
*
*       <TOFFSET>0.000000e+00</TOFFSET>
*
*    </Calibration>
*
*    <Calibration format='WBCOND0' id='Main Conductivity'>
*
*       <SerialNum>01907809</SerialNum>
*
*       <CalDate>24-Mar-19</CalDate>
*
*       <G>-1.005893e+00</G>
*
*       <H>1.268163e-01</H>
*
*       <I>-1.515604e-04</I>
*
*       <J>2.671373e-05</J>
*
*       <CPCOR>-9.570000e-08</CPCOR>
*
*       <CTCOR>3.250000e-06</CTCOR>
*
*       <CSLOPE>1.000000e+00</CSLOPE>
*
*    </Calibration>
*
*    <Calibration format='STRAIN0' id='Main Pressure'>
*
*       <SerialNum>10586018</SerialNum>
*
*       <CalDate>11-Mar-19</CalDate>
*
*       <PA0>4.565618e-02</PA0>
*
*       <PA1>4.850951e-04</PA1>
*
*       <PA2>-2.883271e-12</PA2>
*
*       <PTCA0>5.252467e+05</PTCA0>
*
*       <PTCA1>1.223042e+01</PTCA1>
*
*       <PTCA2>-3.567450e-01</PTCA2>
*
*       <PTCB0>2.516687e+01</PTCB0>
*
*       <PTCB1>3.750000e-04</PTCB1>
*
*       <PTCB2>0.000000e+00</PTCB2>
*
*       <PTEMPA0>-5.487846e+01</PTEMPA0>
*
*       <PTEMPA1>5.537568e+01</PTEMPA1>
*
*       <PTEMPA2>-5.867271e-01</PTEMPA2>
*
*       <POFFSET>7.140000e-01</POFFSET>
*
*       <PRANGE>1.600000e+02</PRANGE>
*
*    </Calibration>
*
*    <Calibration format='VOLT0' id='Volt 0'>
*
*       <OFFSET>-4.920000e-02</OFFSET>
*
*       <SLOPE>1.248122e+00</SLOPE>
*
*    </Calibration>
*
*    <Calibration format='VOLT0' id='Volt 1'>
*
*       <OFFSET>-4.784000e-02</OFFSET>
*
*       <SLOPE>1.248871e+00</SLOPE>
*
*    </Calibration>
*
*    <Calibration format='VOLT0' id='Volt 2'>
*
*       <OFFSET>-4.864632e-02</OFFSET>
*
*       <SLOPE>1.248714e+00</SLOPE>
*
*    </Calibration>
*
*    <Calibration format='VOLT0' id='Volt 3'>
*
*       <OFFSET>-4.743790e-02</OFFSET>
*
*       <SLOPE>1.248571e+00</SLOPE>
*
*    </Calibration>
*
*    <Calibration format='VOLT0' id='Volt 4'>
*
*       <OFFSET>-4.671263e-02</OFFSET>
*
*       <SLOPE>1.248951e+00</SLOPE>
*
*    </Calibration>
*
*    <Calibration format='VOLT0' id='Volt 5'>
*
*       <OFFSET>-4.871053e-02</OFFSET>
*
*       <SLOPE>1.249136e+00</SLOPE>
*
*    </Calibration>
*
*    <Calibration format='FREQ0' id='external frequency channel'>
*
*       <EXTFREQSF>1.000014e+00</EXTFREQSF>
*
*    </Calibration>
*
* </CalibrationCoefficients>
* <EventCounters DeviceType='SBE19plus' SerialNumber='01907809'>
*
*    <EventSummary numEvents='0'/>
*
* </EventCounters></InstrumentState>
* <Headers>
*
* cast   3 29 Jul 2019 11:44:43 samples 758 to 1255, avg = 1, stop = mag switch
*
# nquan = 18
# nvalues = 413                         
# units = specified
# name 0 = depFM: Depth [fresh water, m]
# name 1 = tv290C: Temperature [ITS-90, deg C]
# name 2 = sbeox0Mg/L: Oxygen, SBE 43 [mg/l]
# name 3 = sbeox0PS: Oxygen, SBE 43 [% saturation]
# name 4 = c0uS/cm: Conductivity [uS/cm]
# name 5 = specc: Specific Conductance [uS/cm]
# name 6 = ph: pH
# name 7 = orp: Oxidation Reduction Potential [mV]
# name 8 = flECO-AFL: Fluorescence, WET Labs ECO-AFL/FL [mg/m^3]
# name 9 = turbWETntu0: Turbidity, WET Labs ECO [NTU]
# name 10 = sal00: Salinity, Practical [PSU]
# name 11 = dz/dtM: Descent Rate [m/s]
# name 12 = prdM: Pressure, Strain Gauge [db]
# name 13 = prdE: Pressure, Strain Gauge [psi]
# name 14 = scan: Scan Count
# name 15 = par/sat/log: PAR/Logarithmic, Satlantic
# name 16 = density00: Density [density, kg/m^3]
# name 17 = flag:  0.000e+00
# span 0 =     -0.543,      5.467       
# span 1 =    11.4281,    26.3715       
# span 2 =    -0.0649,    10.7587       
# span 3 =     -0.648,    127.432       
# span 4 =   3.779947,  51.466189       
# span 5 =      3.785,     66.034       
# span 6 =      7.120,      8.645       
# span 7 =  -197.0589,   438.0722       
# span 8 =    -1.3538,    35.5234       
# span 9 =    -0.6575,   918.5023       
# span 10 =     0.0121,     0.0336      
# span 11 =     -0.015,      0.202      
# span 12 =     -0.532,      5.361      
# span 13 =     -0.772,      7.775      
# span 14 =          1,        413      
# span 15 = 5.7353e-01, 2.0891e+03      
# span 16 =   996.7048,   999.6057      
# span 17 = 0.0000e+00, 0.0000e+00      
# interval = seconds: 0.25
# start_time = Jul 29 2019 11:44:43 [Instrument's time stamp, header]
# bad_flag = -9.990e-29
# <Sensors count="9" >
#   <sensor Channel="1" >
#     <!-- Count, Temperature -->
#     <TemperatureSensor SensorID="58" >
#       <SerialNumber>7809</SerialNumber>
#       <CalibrationDate>24-Mar-19</CalibrationDate>
#       <A0>1.21792325e-003</A0>
#       <A1>2.81669265e-004</A1>
#       <A2>-1.60333336e-006</A2>
#       <A3>1.98414625e-007</A3>
#       <Slope>1.00000000</Slope>
#       <Offset>0.0000</Offset>
#     </TemperatureSensor>
#   </sensor>
#   <sensor Channel="2" >
#     <!-- Frequency 0, Conductivity -->
#     <ConductivitySensor SensorID="3" >
#       <SerialNumber>7809</SerialNumber>
#       <CalibrationDate>24-Mar-19</CalibrationDate>
#       <UseG_J>1</UseG_J>
#       <!-- Cell const and series R are applicable only for wide range sensors. -->
#       <SeriesR>0.0000</SeriesR>
#       <CellConst>2000.0000</CellConst>
#       <ConductivityType>0</ConductivityType>
#       <Coefficients equation="0" >
#         <A>0.00000000e+000</A>
#         <B>0.00000000e+000</B>
#         <C>0.00000000e+000</C>
#         <D>0.00000000e+000</D>
#         <M>0.0</M>
#         <CPcor>-9.57000000e-008</CPcor>
#       </Coefficients>
#       <Coefficients equation="1" >
#         <G>-1.00589325e+000</G>
#         <H>1.26816302e-001</H>
#         <I>-1.51560448e-004</I>
#         <J>2.67137274e-005</J>
#         <CPcor>-9.57000000e-008</CPcor>
#         <CTcor>3.2500e-006</CTcor>
#         <!-- WBOTC not applicable unless ConductivityType = 1. -->
#         <WBOTC>0.00000000e+000</WBOTC>
#       </Coefficients>
#       <Slope>1.00000000</Slope>
#       <Offset>0.00000</Offset>
#     </ConductivitySensor>
#   </sensor>
#   <sensor Channel="3" >
#     <!-- Count, Pressure, Strain Gauge -->
#     <PressureSensor SensorID="46" >
#       <SerialNumber>7809</SerialNumber>
#       <CalibrationDate>11-Mar-19</CalibrationDate>
#       <PA0>4.56561833e-002</PA0>
#       <PA1>4.85095118e-004</PA1>
#       <PA2>-2.88327090e-012</PA2>
#       <PTEMPA0>-5.48784562e+001</PTEMPA0>
#       <PTEMPA1>5.53756816e+001</PTEMPA1>
#       <PTEMPA2>-5.86727098e-001</PTEMPA2>
#       <PTCA0>5.25246745e+005</PTCA0>
#       <PTCA1>1.22304214e+001</PTCA1>
#       <PTCA2>-3.56745036e-001</PTCA2>
#       <PTCB0>2.51668750e+001</PTCB0>
#       <PTCB1>3.75000000e-004</PTCB1>
#       <PTCB2>0.00000000e+000</PTCB2>
#       <Offset>0.000000</Offset>
#     </PressureSensor>
#   </sensor>
#   <sensor Channel="4" >
#     <!-- A/D voltage 0, Oxygen, SBE 43 -->
#     <OxygenSensor SensorID="38" >
#       <SerialNumber>0434</SerialNumber>
#       <CalibrationDate>13-Apr-19</CalibrationDate>
#       <Use2007Equation>1</Use2007Equation>
#       <CalibrationCoefficients equation="0" >
#         <!-- Coefficients for Owens-Millard equation. -->
#         <Boc>0.0000</Boc>
#         <Soc>0.0000e+000</Soc>
#         <offset>0.0000</offset>
#         <Pcor>0.00e+000</Pcor>
#         <Tcor>0.0000</Tcor>
#         <Tau>0.0</Tau>
#       </CalibrationCoefficients>
#       <CalibrationCoefficients equation="1" >
#         <!-- Coefficients for Sea-Bird equation - SBE calibration in 2007 and later. -->
#         <Soc>4.2007e-001</Soc>
#         <offset>-0.6109</offset>
#         <A>-4.3656e-003</A>
#         <B> 1.7017e-004</B>
#         <C>-2.5341e-006</C>
#         <D0> 2.5826e+000</D0>
#         <D1> 1.92634e-004</D1>
#         <D2>-4.64803e-002</D2>
#         <E> 3.6000e-002</E>
#         <Tau20> 1.1800</Tau20>
#         <H1>-3.3000e-002</H1>
#         <H2> 5.0000e+003</H2>
#         <H3> 1.4500e+003</H3>
#       </CalibrationCoefficients>
#     </OxygenSensor>
#   </sensor>
#   <sensor Channel="5" >
#     <!-- A/D voltage 1, PAR/Logarithmic, Satlantic -->
#     <PARLog_SatlanticSensor SensorID="76" >
#       <SerialNumber>1122</SerialNumber>
#       <CalibrationDate>08-May-2019</CalibrationDate>
#       <a0>9.7456e-001</a0>
#       <a1>8.1640e-001</a1>
#       <Im>1.3589e+000</Im>
#       <Multiplier>1.0000e+000</Multiplier>
#     </PARLog_SatlanticSensor>
#   </sensor>
#   <sensor Channel="6" >
#     <!-- A/D voltage 2, pH -->
#     <pH_Sensor SensorID="43" >
#       <SerialNumber>0363</SerialNumber>
#       <CalibrationDate>15-Apr-19</CalibrationDate>
#       <Slope>4.5952</Slope>
#       <Offset>2.5370</Offset>
#     </pH_Sensor>
#   </sensor>
#   <sensor Channel="7" >
#     <!-- A/D voltage 3, Oxidation Reduction Potential -->
#     <OxidationReductionPotentialSensor SensorID="41" >
#       <SerialNumber>0363</SerialNumber>
#       <CalibrationDate>15-Apr-19</CalibrationDate>
#       <B>2.499480</B>
#       <M>-0.496195</M>
#       <Offset>0.0</Offset>
#     </OxidationReductionPotentialSensor>
#   </sensor>
#   <sensor Channel="8" >
#     <!-- A/D voltage 4, Fluorometer, WET Labs ECO-AFL/FL -->
#     <FluoroWetlabECO_AFL_FL_Sensor SensorID="20" >
#       <SerialNumber>FLNTURT-2496</SerialNumber>
#       <CalibrationDate>08-May-2019</CalibrationDate>
#       <ScaleFactor>5.00000000e+001</ScaleFactor>
#       <!-- Dark output -->
#       <Vblank>0.0550</Vblank>
#     </FluoroWetlabECO_AFL_FL_Sensor>
#   </sensor>
#   <sensor Channel="9" >
#     <!-- A/D voltage 5, Turbidity Meter, WET Labs, ECO-NTU -->
#     <TurbidityMeter SensorID="67" >
#       <SerialNumber>FLNTURT-2496</SerialNumber>
#       <CalibrationDate>08-May-2019</CalibrationDate>
#       <ScaleFactor>189.000000</ScaleFactor>
#       <!-- Dark output -->
#       <DarkVoltage>0.071000</DarkVoltage>
#     </TurbidityMeter>
#   </sensor>
# </Sensors>
# datcnv_date = Jul 29 2019 16:17:40, 7.26.7.129 [datcnv_vars = 17]
# datcnv_in = C:\DATA\0772919_fcr30.hex C:\DATA\SBE19plusV2_7809.xmlcon
# datcnv_skipover = 0
# datcnv_ox_hysteresis_correction = yes
# datcnv_ox_tau_correction = yes
# filter_date = Jul 29 2019 16:17:58, 7.26.7.129
# filter_in = C:\DATA\0772919_fcr30.cnv
# filter_low_pass_tc_A = 0.030
# filter_low_pass_tc_B = 0.150
# filter_low_pass_A_vars = tv290C c0uS/cm par/sat/log density00
# filter_low_pass_B_vars = prdM prdE
# alignctd_date = Jul 29 2019 16:18:22, 7.26.7.129
# alignctd_in = C:\DATA\0772919_fcr30.cnv
# alignctd_adv = tv290C 0.500, sbeox0Mg/L 3.000, sbeox0PS 3.000                                                                                                                                                                      
# file_type = ascii
*END*
     -0.542    24.5801     7.3009     88.138   3.779947      3.785      7.131   438.0722    -0.1102    -0.0951     0.0121 -2.105e-16     -0.532     -0.771          1 1.8162e+02   997.1615 0.0000e+00
     -0.542    24.5819     7.2766     88.101   3.886198      3.953      7.134    25.8446    -0.1026    -0.0519     0.0122      0.000     -0.532     -0.771          2 1.9520e+02   997.1608 0.0000e+00
     -0.541    24.5831     7.2385     88.095   4.284532      4.262      7.120    68.0554    -0.1254    -0.0951     0.0123      0.000     -0.531     -0.771          3 1.9005e+02   997.1602 0.0000e+00
     -0.542    24.5837     7.2020     88.052   4.231004      4.374      7.132    70.6675    -0.1941    -0.6142     0.0123      0.000     -0.531     -0.771          4 1.8455e+02   997.1597 0.0000e+00
     -0.542    24.5847     7.1730     88.014   4.455790      4.318      7.126    76.9897    -0.1827    -0.4845     0.0123      0.000     -0.532     -0.771          5 1.7379e+02   997.1594 0.0000e+00
     -0.543    24.5856     7.1494     87.995   4.063964      4.374      7.132    80.0940    -0.1827    -0.6575     0.0123      0.000     -0.532     -0.772          6 2.7899e+02   997.1591 0.0000e+00
     -0.543    24.6277     7.1297     87.999   6.405158      5.921      7.135    79.7154    -0.2017    -0.6142     0.0127     -0.000     -0.532     -0.772          7 4.2426e+02   997.1595 0.0000e+00
     -0.542    24.7205     7.1230     88.095  10.301269     11.094      7.142    78.5797    -1.3195     7.3743     0.0144     -0.000     -0.532     -0.771          8 5.6661e+02   997.1602 0.0000e+00
     -0.542    24.7863     7.1199     88.172   7.589820      7.152      7.151    77.8226    -1.3347     7.4897     0.0131     -0.000     -0.532     -0.771          9 7.1501e+02   997.1489 0.0000e+00
     -0.543    24.8163     7.1302     88.394   6.257712      6.493      7.169    75.2104    -1.3538     7.2734     0.0129     -0.000     -0.532     -0.770         10 8.4025e+02   997.1251 0.0000e+00
     -0.542    24.8645     7.1506     88.708   9.088389      8.977      7.182    73.2040    -1.3538     7.3311     0.0137     -0.000     -0.527     -0.764         11 1.0703e+03   997.1090 0.0000e+00
     -0.528    25.0234     7.1862     89.185   5.635529      6.117      7.140  -197.0589    -1.3385     7.3599     0.0128      0.004     -0.508     -0.737         12 1.1126e+03   997.1007 0.0000e+00
     -0.483    25.2966     7.2370     89.795   5.820189      4.853      7.441   152.0606     0.7786   918.4302     0.0125      0.018     -0.467     -0.677         13 1.2106e+03   997.0887 0.0000e+00
     -0.417    25.5496     7.2893     90.423  22.980718     23.491      7.761   183.9364     0.7786   918.4157     0.0191      0.046     -0.406     -0.588         14 1.4293e+03   997.0530 0.0000e+00
     -0.339    25.7452     7.3344     90.979  36.538079     36.458      8.006   183.8229     0.7634   918.5023     0.0243      0.086     -0.340     -0.493         15 1.5795e+03   996.9869 0.0000e+00
     -0.284    25.9157     7.3751     91.476  37.280849     36.803      8.181   186.8893     0.7825   918.4734     0.0245      0.128     -0.287     -0.416         16 1.6368e+03   996.9215 0.0000e+00
     -0.254    26.0688     7.4064     91.876  37.343218     36.824      8.285   188.8957     2.1405    15.0601     0.0246      0.160     -0.251     -0.365         17 1.7205e+03   996.8703 0.0000e+00
     -0.231    26.1809     7.4459     92.376  37.586504     36.895      8.364   187.2679     2.1481    15.0889     0.0247      0.179     -0.222     -0.322         18 1.7094e+03   996.8254 0.0000e+00
     -0.195    26.2547     7.5036     93.064  37.570710     36.783      8.420   186.0564     2.1291    15.1033     0.0247      0.188     -0.182     -0.265         19 1.8474e+03   996.7848 0.0000e+00
     -0.131    26.3120     7.5902     94.092  37.510976     36.648      8.438   183.3686     2.1329    15.0456     0.0246      0.190     -0.127     -0.184         20 1.5329e+03   996.7551 0.0000e+00
     -0.064    26.3514     7.7396     95.916  37.334792     36.405      8.457   185.4129     4.4332     2.5581     0.0246      0.188     -0.061     -0.089         21 5.1750e+02   996.7356 0.0000e+00
      0.010    26.3715     7.8753     97.584  37.256487     36.309      8.469   187.3436     4.4370     2.3995     0.0245      0.190      0.001      0.001         22 7.0189e+02   996.7205 0.0000e+00
      0.055    26.3613     7.9715     98.768  37.163861     36.174      8.477   188.2900     4.4484     2.4139     0.0245      0.192      0.050      0.071         23 1.1400e+03   996.7100 0.0000e+00
      0.086    26.3478     8.0235     99.412  37.094417     36.103      8.479   188.5929     4.4446     2.4860     0.0245      0.197      0.085      0.123         24 1.4968e+03   996.7048 0.0000e+00
      0.120    26.3453     8.0164     99.327  37.105819     36.112      8.478   184.0500     4.7269     2.8898     0.0245      0.202      0.119      0.173         25 2.0891e+03   996.7077 0.0000e+00
      0.155    26.3415     7.9447     98.439  37.208946     36.230      8.478   160.9949     4.7269     2.8032     0.0245      0.199      0.161      0.234         26 1.4828e+03   996.7116 0.0000e+00
      0.224    26.3479     7.8287     97.001  37.321708     36.340      8.476   149.8649     4.7460     2.8177     0.0246      0.195      0.210      0.305         27 7.6744e+02   996.7126 0.0000e+00
      0.259    26.3537     7.7012     95.425  37.321117     36.343      8.476   148.2749     4.7346     2.8032     0.0246      0.182      0.246      0.358         28 6.3867e+02   996.7137 0.0000e+00
      0.271    26.3371     7.5679     93.780  37.328223     36.339      8.474   147.7070     4.7346     2.8177     0.0246      0.163      0.263      0.382         29 4.2506e+02   996.7121 0.0000e+00
      0.276    26.3105     7.4590     92.438  37.401769     36.416      8.474   146.9878     4.5781     2.5149     0.0246      0.142      0.270      0.392         30 3.0803e+02   996.7106 0.0000e+00
      0.280    26.2942     7.3745     91.395  37.466676     36.482      8.477   147.0256     4.6048     2.5293     0.0246      0.123      0.275      0.400         31 5.0136e+02   996.7151 0.0000e+00
      0.287    26.2862     7.2997     90.474  37.454905     36.502      8.476   147.0256     4.6048     2.6446     0.0246      0.103      0.281      0.409         32 7.7606e+02   996.7222 0.0000e+00
      0.294    26.2821     7.2292     89.604  37.386795     36.431      8.478   146.8742     4.6163     2.5004     0.0246      0.080      0.290      0.421         33 8.1140e+02   996.7266 0.0000e+00
      0.307    26.2820     7.1643     88.798  37.373632     36.437      8.475   147.0635     4.5057     2.5004     0.0246      0.058      0.301      0.437         34 7.9755e+02   996.7288 0.0000e+00
      0.320    26.2831     7.0936     87.918  37.382383     36.440      8.478   147.1013     4.5019     2.5870     0.0246      0.038      0.312      0.453         35 7.0976e+02   996.7300 0.0000e+00
      0.328    26.2833     7.0349     87.191  37.316638     36.385      8.479   147.1392     4.4980     2.5870     0.0246      0.032      0.320      0.463         36 9.5026e+02   996.7300 0.0000e+00
      0.330    26.2836     7.0069     86.847  37.277637     36.330      8.475   147.1770     4.5057     2.6014     0.0245      0.032      0.322      0.467         37 1.1246e+03   996.7297 0.0000e+00
      0.327    26.2857     7.0338     87.187  37.253102     36.330      8.473   147.1392     4.5705     2.6014     0.0245      0.030      0.319      0.463         38 8.8705e+02   996.7297 0.0000e+00
      0.320    26.2896     7.1194     88.257  37.228628     36.275      8.474   147.4420     4.5667     2.6014     0.0245      0.024      0.314      0.456         39 7.5497e+02   996.7295 0.0000e+00
      0.314    26.2935     7.2545     89.944  37.308095     36.383      8.473   147.5935     4.5629     2.6158     0.0246      0.015      0.309      0.447         40 8.2458e+02   996.7290 0.0000e+00
      0.310    26.2971     7.3973     91.726  37.332020     36.380      8.474   147.7828     4.5553     2.7311     0.0246      0.005      0.305      0.441         41 1.1819e+03   996.7279 0.0000e+00
      0.307    26.3004     7.5414     93.522  37.317395     36.377      8.475   147.8585     4.5820     2.6446     0.0246     -0.005      0.301      0.436         42 1.1180e+03   996.7268 0.0000e+00
      0.304    26.3020     7.6750     95.181  37.326293     36.375      8.477   148.0856     4.5553     2.5870     0.0246     -0.012      0.299      0.433         43 8.0256e+02   996.7259 0.0000e+00
      0.303    26.3011     7.7808     96.493  37.320944     36.372      8.476   148.3128     4.5476     2.5437     0.0246     -0.015      0.297      0.431         44 7.1733e+02   996.7250 0.0000e+00
      0.302    26.2996     7.8560     97.424  37.264779     36.317      8.478   148.3128     4.5705     2.6302     0.0245     -0.015      0.297      0.431         45 8.9438e+02   996.7245 0.0000e+00
      0.303    26.2998     7.8983     97.945  37.277648     36.317      8.479   148.5778     4.5972     2.6879     0.0245     -0.012      0.297      0.431         46 1.0381e+03   996.7247 0.0000e+00
      0.303    26.3019     7.9139     98.138  37.304930     36.373      8.481   148.8428     4.6277     2.7311     0.0246     -0.008      0.297      0.431         47 9.3253e+02   996.7251 0.0000e+00
      0.302    26.3054     7.9192     98.200  37.230826     36.264      8.481   149.2213     4.6125     2.5870     0.0245     -0.005      0.297      0.430         48 7.2035e+02   996.7252 0.0000e+00
      0.301    26.3108     7.9259     98.279  37.251327     36.317      8.481   149.2213     4.5896     2.6446     0.0245     -0.003      0.296      0.429         49 6.2117e+02   996.7246 0.0000e+00
      0.301    26.3183     7.9361     98.402  37.220146     36.260      8.481   149.2971     4.6239     2.5293     0.0245     -0.002      0.295      0.428         50 7.1109e+02   996.7237 0.0000e+00
      0.300    26.3256     7.9450     98.512  37.210356     36.256      8.483   149.4485     4.5972     2.6879     0.0245     -0.001      0.295      0.428         51 8.6942e+02   996.7222 0.0000e+00
      0.300    26.3308     7.9514     98.593  37.263507     36.305      8.483   149.8649     4.5896     2.5870     0.0245     -0.001      0.295      0.428         52 8.7044e+02   996.7201 0.0000e+00
      0.302    26.3328     7.9505     98.583  37.272541     36.300      8.487   149.9785     4.5820     2.5581     0.0245     -0.001      0.296      0.429         53 8.1842e+02   996.7182 0.0000e+00
      0.303    26.3320     7.9462     98.531  37.258381     36.296      8.484   150.2813     4.5896     2.5149     0.0245     -0.000      0.298      0.431         54 1.0690e+03   996.7168 0.0000e+00
      0.303    26.3309     7.9320     98.357  37.221853     36.241      8.488   150.5463     4.5705     2.6014     0.0245      0.000      0.298      0.432         55 1.0196e+03   996.7162 0.0000e+00
      0.304    26.3298     7.9035     98.005  37.199455     36.241      8.489   150.6978     4.5820     2.6446     0.0245      0.001      0.297      0.431         56 9.0283e+02   996.7164 0.0000e+00
      0.302    26.3286     7.8733     97.629  37.226984     36.242      8.489   150.9628     4.5438     2.6158     0.0245      0.001      0.296      0.430         57 8.4669e+02   996.7167 0.0000e+00
      0.302    26.3271     7.8408     97.221  37.246865     36.297      8.488   150.9249     4.5629     2.5870     0.0245      0.001      0.296      0.430         58 7.6295e+02   996.7170 0.0000e+00
      0.301    26.3248     7.8134     96.875  37.174716     36.189      8.491   150.8113     4.7193     2.5437     0.0245      0.001      0.296      0.429         59 7.2462e+02   996.7173 0.0000e+00
      0.301    26.3230     7.8005     96.711  37.198232     36.245      8.492   151.3792     4.7307     2.5293     0.0245     -0.000      0.296      0.429         60 6.1091e+02   996.7177 0.0000e+00
      0.302    26.3228     7.7963     96.657  37.217598     36.246      8.494   151.4171     4.7269     2.6879     0.0245     -0.001      0.296      0.430         61 5.8472e+02   996.7184 0.0000e+00
      0.303    26.3233     7.8055     96.772  37.209885     36.248      8.496   151.4928     4.7040     2.5725     0.0245     -0.001      0.297      0.431         62 5.8519e+02   996.7189 0.0000e+00
      0.303    26.3240     7.8233     96.994  37.207832     36.248      8.497   151.8335     4.7841     2.6158     0.0245     -0.000      0.298      0.432         63 6.1240e+02   996.7189 0.0000e+00
      0.304    26.3250     7.8395     97.194  37.160885     36.193      8.498   152.2121     4.7651     2.5437     0.0245      0.000      0.298      0.432         64 7.8177e+02   996.7188 0.0000e+00
      0.304    26.3260     7.8505     97.329  37.209040     36.247      8.499   152.0985     4.7651     2.6158     0.0245      0.001      0.298      0.432         65 6.5051e+02   996.7186 0.0000e+00
      0.304    26.3265     7.8460     97.272  37.207174     36.246      8.500   152.3635     4.7803     2.5149     0.0245      0.001      0.298      0.432         66 6.0711e+02   996.7182 0.0000e+00
      0.303    26.3260     7.8235     96.994  37.163206     36.191      8.503   152.5528     4.7002     2.4860     0.0245      0.001      0.297      0.431         67 7.4858e+02   996.7180 0.0000e+00
      0.302    26.3232     7.7847     96.512  37.204486     36.245      8.504   152.5528     4.7460     2.5581     0.0245      0.001      0.296      0.430         68 5.7781e+02   996.7179 0.0000e+00
      0.302    26.3197     7.7308     95.842  37.215074     36.245      8.507   152.7421     4.7193     2.5870     0.0245     -0.000      0.296      0.429         69 6.1888e+02   996.7181 0.0000e+00
      0.301    26.3174     7.6701     95.086  37.150030     36.193      8.509   152.8935     4.7536     2.6302     0.0245     -0.001      0.295      0.428         70 6.2858e+02   996.7188 0.0000e+00
      0.300    26.3165     7.6102     94.339  37.166892     36.196      8.510   152.8556     4.8986     2.4283     0.0245     -0.002      0.295      0.427         71 4.8401e+02   996.7197 0.0000e+00
      0.300    26.3168     7.5511     93.602  37.194091     36.251      8.512   153.1963     4.8986     2.3562     0.0245     -0.002      0.294      0.427         72 6.2700e+02   996.7203 0.0000e+00
      0.300    26.3172     7.4868     92.800  37.116181     36.143      8.512   153.5371     4.8986     2.4716     0.0245     -0.002      0.294      0.427         73 7.3746e+02   996.7206 0.0000e+00
      0.300    26.3168     7.4384     92.194  37.145309     36.197      8.513   153.8021     4.9062     2.3707     0.0245     -0.002      0.294      0.427         74 5.8049e+02   996.7205 0.0000e+00
      0.300    26.3162     7.3897     91.584  37.157841     36.197      8.516   154.1806     4.9062     2.3707     0.0245     -0.002      0.294      0.427         75 5.3222e+02   996.7204 0.0000e+00
      0.301    26.3159     7.3407     90.970  37.100584     36.143      8.515   154.0292     4.8452     2.6302     0.0245     -0.001      0.295      0.428         76 5.7467e+02   996.7205 0.0000e+00
      0.301    26.3160     7.2991     90.442  37.098024     36.143      8.517   154.1049     4.8681     2.5870     0.0245     -0.000      0.295      0.429         77 5.0754e+02   996.7206 0.0000e+00
      0.301    26.3154     7.2516     89.845  37.101758     36.144      8.518   154.2185     4.8223     2.6158     0.0245      0.000      0.295      0.429         78 5.0130e+02   996.7207 0.0000e+00
      0.301    26.3142     7.1884     89.060  37.095939     36.144      8.518   154.8242     4.8719     2.6014     0.0245      0.001      0.295      0.429         79 6.2447e+02   996.7207 0.0000e+00
      0.302    26.3122     7.1336     88.379  37.105265     36.144      8.519   154.8621     4.8871     2.3851     0.0245      0.001      0.295      0.429         80 6.1121e+02   996.7209 0.0000e+00
      0.301    26.3097     7.0874     87.809  37.149421     36.199      8.519   154.9756     4.8910     2.5437     0.0245      0.001      0.295      0.428         81 5.3236e+02   996.7212 0.0000e+00
      0.300    26.3073     7.0539     87.391  37.159530     36.201      8.520   155.0892     4.8871     2.3130     0.0245      0.001      0.294      0.427         82 5.3636e+02   996.7218 0.0000e+00
      0.300    26.3044     7.0262     87.044  37.092686     36.148      8.523   155.3164     4.8795     2.5004     0.0245     -0.000      0.294      0.427         83 6.3761e+02   996.7224 0.0000e+00
      0.300    26.3007     6.9954     86.662  37.114067     36.150      8.526   155.5814     5.3258     2.3707     0.0245     -0.001      0.294      0.426         84 6.2479e+02   996.7230 0.0000e+00
      0.299    26.2971     6.9685     86.329  37.132924     36.206      8.524   155.8085     5.3106     2.3851     0.0245     -0.001      0.293      0.425         85 5.3991e+02   996.7238 0.0000e+00
      0.298    26.2924     6.9444     86.031  37.069220     36.100      8.521   156.1114     5.3144     2.4572     0.0244     -0.002      0.292      0.424         86 5.8529e+02   996.7248 0.0000e+00
      0.297    26.2849     6.9299     85.854  37.015535     36.103      8.524   156.2628     5.2991     2.4428     0.0244     -0.002      0.290      0.420         87 5.6608e+02   996.7258 0.0000e+00
      0.291    26.2802     6.9180     85.706  36.814480     35.861      8.524   156.2249     5.2686     2.3851     0.0243     -0.004      0.285      0.413         88 4.5538e+02   996.7270 0.0000e+00
      0.283    26.2784     6.9005     85.488  36.726732     35.812      8.524   156.2249     5.2686     2.4572     0.0243     -0.007      0.279      0.404         89 5.0261e+02   996.7289 0.0000e+00
      0.278    26.2774     6.8763     85.183  36.739485     35.815      8.525   156.2628     5.2610     2.4139     0.0243     -0.010      0.276      0.400         90 6.7828e+02   996.7301 0.0000e+00
      0.282    26.2784     6.8543     84.901  36.828246     35.898      8.523   156.7928     5.2572     2.4860     0.0244     -0.011      0.279      0.404         91 5.0593e+02   996.7306 0.0000e+00
      0.292    26.2772     6.8220     84.498  36.971889     36.062      8.525   156.7171     5.1389     2.3995     0.0244     -0.009      0.285      0.414         92 4.5659e+02   996.7310 0.0000e+00
      0.298    26.2749     6.7753     83.920  36.797805     35.871      8.523   157.0956     5.1237     2.5149     0.0243     -0.004      0.289      0.419         93 6.2960e+02   996.7307 0.0000e+00
      0.293    26.2747     6.7424     83.509  36.630004     35.708      8.526   157.1335     5.1618     2.4860     0.0243     -0.001      0.289      0.419         94 4.9352e+02   996.7309 0.0000e+00
      0.293    26.2748     6.7358     83.414  36.736191     35.819      8.524   157.0956     5.1465     2.2986     0.0243      0.002      0.291      0.421         95 5.0895e+02   996.7315 0.0000e+00
      0.302    26.2754     6.7521     83.614  36.873100     35.955      8.524   157.2849     5.1275     2.4283     0.0244      0.008      0.297      0.430         96 5.3948e+02   996.7317 0.0000e+00
      0.311    26.2765     6.7693     83.850  36.844876     35.928      8.521   157.3985     5.4288     2.5725     0.0244      0.013      0.305      0.443         97 4.1741e+02   996.7318 0.0000e+00
      0.321    26.2763     6.7909     84.118  36.800952     35.873      8.524   158.0042     5.4517     2.6158     0.0243      0.018      0.314      0.456         98 4.5783e+02   996.7316 0.0000e+00
      0.329    26.2756     6.8085     84.301  36.838859     35.926      8.522   157.6635     5.4288     2.5725     0.0244      0.020      0.323      0.467         99 5.4557e+02   996.7313 0.0000e+00
      0.336    26.2721     6.8184     84.417  36.797701     35.872      8.522   158.5342     5.4365     2.6014     0.0243      0.022      0.329      0.477        100 4.6187e+02   996.7315 0.0000e+00
      0.342    26.2664     6.8019     84.216  36.792903     35.873      8.518   158.3071     5.4822     2.6158     0.0243      0.026      0.332      0.482        101 3.9351e+02   996.7317 0.0000e+00
      0.339    26.2641     6.7843     83.997  36.696656     35.793      8.519   158.4585     5.4822     2.6014     0.0243      0.027      0.332      0.482        102 3.5853e+02   996.7326 0.0000e+00
      0.333    26.2641     6.7635     83.740  36.591498     35.661      8.519   158.3449     5.4899     2.6014     0.0243      0.023      0.333      0.484        103 4.6277e+02   996.7340 0.0000e+00
      0.348    26.2617     6.7439     83.501  36.716330     35.826      8.515   159.3671     5.5051     2.6302     0.0243      0.019      0.348      0.505        104 6.6125e+02   996.7347 0.0000e+00
      0.384    26.2535     6.7238     83.246  36.867287     35.935      8.509   160.0864     5.4403     2.6014     0.0244      0.025      0.377      0.546        105 5.5955e+02   996.7349 0.0000e+00
      0.421    26.2525     6.7081     83.051  36.966696     36.073      8.505   160.6542     5.4327     2.5293     0.0244      0.038      0.406      0.589        106 4.7749e+02   996.7358 0.0000e+00
      0.436    26.2672     6.7054     83.014  36.800065     35.888      8.502   160.8435     5.4403     2.6302     0.0243      0.051      0.422      0.613        107 4.6691e+02   996.7380 0.0000e+00
      0.435    26.2664     6.7255     83.250  36.570867     35.671      8.503   161.0328     5.4136     2.5149     0.0243      0.058      0.423      0.615        108 4.4602e+02   996.7382 0.0000e+00
      0.424    26.2461     6.7626     83.707  36.511060     35.606      8.508   160.8814     5.0130     2.6735     0.0242      0.059      0.420      0.610        109 4.4261e+02   996.7342 0.0000e+00
      0.428    26.2398     6.8075     84.262  36.578146     35.660      8.514   161.2599     4.9940     2.6735     0.0243      0.056      0.425      0.617        110 4.6661e+02   996.7344 0.0000e+00
      0.449    26.2425     6.8638     84.953  36.665188     35.785      8.516   161.6385     5.0054     2.5870     0.0243      0.052      0.441      0.640        111 4.8057e+02   996.7399 0.0000e+00
      0.471    26.2414     6.9218     85.661  36.758358     35.843      8.520   162.0928     5.0397     2.5581     0.0243      0.045      0.463      0.671        112 4.9821e+02   996.7418 0.0000e+00
      0.497    26.2424     6.9848     86.433  36.788182     35.923      8.520   162.6228     5.4327     2.4139     0.0244      0.041      0.486      0.704        113 4.8575e+02   996.7412 0.0000e+00
      0.515    26.2435     7.0466     87.192  36.716976     35.787      8.523   162.7742     5.4555     2.5149     0.0243      0.043      0.506      0.734        114 4.3742e+02   996.7416 0.0000e+00
      0.536    26.2403     7.0950     87.784  36.817340     35.951      8.525   163.0014     5.4212     2.3418     0.0244      0.054      0.527      0.765        115 4.8276e+02   996.7414 0.0000e+00
      0.562    26.2399     7.1355     88.273  36.811458     35.895      8.528   163.0771     5.4136     2.4139     0.0243      0.070      0.551      0.799        116 4.8308e+02   996.7412 0.0000e+00
      0.586    26.2373     7.1793     88.802  36.842835     35.952      8.531   163.0014     5.4136     2.4428     0.0244      0.083      0.577      0.837        117 4.7242e+02   996.7422 0.0000e+00
      0.618    26.2296     7.2101     89.172  36.985735     36.088      8.534   163.8342     5.4555     2.6014     0.0244      0.091      0.605      0.877        118 4.8689e+02   996.7425 0.0000e+00
      0.644    26.2275     7.2366     89.484  36.989241     36.090      8.535   164.0992     5.4403     2.7023     0.0244      0.095      0.631      0.915        119 4.5017e+02   996.7433 0.0000e+00
      0.667    26.2268     7.2537     89.676  36.986650     36.096      8.537   164.2885     5.4670     2.6302     0.0244      0.097      0.654      0.948        120 4.4481e+02   996.7455 0.0000e+00
      0.688    26.2230     7.2516     89.642  36.988963     36.097      8.540   164.6671     5.4327     2.5581     0.0244      0.097      0.675      0.979        121 4.5844e+02   996.7462 0.0000e+00
      0.709    26.2174     7.2166     89.208  36.986364     36.098      8.542   164.7428     5.7416     2.5149     0.0244      0.098      0.696      1.009        122 4.3411e+02   996.7464 0.0000e+00
      0.731    26.2121     7.1591     88.495  36.989887     36.100      8.542   164.8564     5.7607     2.6014     0.0244      0.096      0.716      1.039        123 4.4226e+02   996.7476 0.0000e+00
      0.751    26.2083     7.0814     87.531  36.925310     36.050      8.547   165.0835     5.7340     2.5437     0.0244      0.093      0.736      1.067        124 4.3924e+02   996.7491 0.0000e+00
      0.767    26.2036     7.0064     86.599  36.859286     35.972      8.550   164.9700     5.7340     2.6302     0.0244      0.088      0.755      1.095        125 4.1996e+02   996.7506 0.0000e+00
      0.792    26.1961     6.9341     85.701  36.983153     36.111      8.554   165.5757     5.7226     2.7456     0.0244      0.084      0.777      1.128        126 4.3260e+02   996.7518 0.0000e+00
      0.818    26.1886     6.8755     84.968  37.037879     36.168      8.556   165.6135     5.7340     2.6158     0.0244      0.083      0.802      1.164        127 4.1682e+02   996.7531 0.0000e+00
      0.843    26.1821     6.8427     84.550  36.998628     36.119      8.558   165.6892     5.7264     2.6158     0.0244      0.085      0.830      1.203        128 4.1716e+02   996.7552 0.0000e+00
      0.877    26.1719     6.8359     84.447  37.091273     36.234      8.559   166.4842     5.7035     2.6446     0.0245      0.090      0.861      1.248        129 3.9576e+02   996.7574 0.0000e+00
      0.912    26.1606     6.8508     84.615  37.159670     36.293      8.559   166.3707     5.9209     2.6446     0.0245      0.097      0.891      1.293        130 3.7812e+02   996.7594 0.0000e+00
      0.940    26.1554     6.8785     84.948  37.032055     36.191      8.558   166.6735     5.9209     2.5725     0.0244      0.104      0.915      1.329        131 3.9090e+02   996.7621 0.0000e+00
      0.950    26.1542     6.9143     85.377  36.864836     36.008      8.561   166.9007     5.9019     2.5725     0.0244      0.105      0.930      1.350        132 3.7991e+02   996.7651 0.0000e+00
      0.958    26.1529     6.9364     85.632  36.775075     35.957      8.564   166.7871     5.9019     2.5581     0.0243      0.101      0.940      1.365        133 3.8750e+02   996.7665 0.0000e+00
      0.970    26.1507     6.9706     86.032  36.758509     35.903      8.567   166.8250     6.2566     2.3274     0.0243      0.092      0.953      1.384        134 3.8772e+02   996.7669 0.0000e+00
      0.990    26.1478     6.9871     86.208  36.855818     36.041      8.572   167.2414     6.2643     2.3851     0.0244      0.083      0.973      1.411        135 3.8354e+02   996.7674 0.0000e+00
      1.017    26.1443     7.0020     86.365  36.920691     36.069      8.575   167.7714     6.2681     2.3995     0.0244      0.076      0.996      1.444        136 3.6895e+02   996.7681 0.0000e+00
      1.039    26.1390     7.0068     86.399  36.974127     36.153      8.576   167.3171     6.2833     2.5149     0.0244      0.071      1.019      1.477        137 3.6010e+02   996.7690 0.0000e+00
      1.060    26.1302     7.0029     86.328  36.996764     36.156      8.577   167.6957     6.2643     2.3995     0.0244      0.069      1.041      1.509        138 3.5030e+02   996.7701 0.0000e+00
      1.086    26.1184     6.9932     86.194  36.981425     36.160      8.577   168.0364     6.1193     2.5149     0.0244      0.073      1.065      1.544        139 3.3809e+02   996.7716 0.0000e+00
      1.111    26.1084     6.9674     85.864  36.993219     36.166      8.577   167.9607     6.1422     2.4860     0.0244      0.082      1.088      1.578        140 3.3181e+02   996.7741 0.0000e+00
      1.131    26.1018     6.9493     85.633  37.041362     36.229      8.577   168.5285     6.1422     2.4139     0.0244      0.088      1.109      1.609        141 3.2713e+02   996.7773 0.0000e+00
      1.152    26.0932     6.9182     85.246  37.040060     36.236      8.582   168.6043     6.1689     2.5293     0.0244      0.090      1.130      1.639        142 3.2336e+02   996.7800 0.0000e+00
      1.176    26.0817     6.8842     84.822  37.054116     36.240      8.581   169.1721     6.2261     2.4139     0.0244      0.090      1.153      1.673        143 3.1549e+02   996.7819 0.0000e+00
      1.200    26.0675     6.8466     84.353  37.083144     36.301      8.584   169.0964     6.2070     2.3851     0.0245      0.090      1.178      1.708        144 3.1249e+02   996.7843 0.0000e+00
      1.225    26.0498     6.8250     84.070  37.063211     36.255      8.583   169.4371     6.1994     2.4139     0.0244      0.091      1.203      1.746        145 2.9692e+02   996.7875 0.0000e+00
      1.256    26.0329     6.8254     84.041  37.138200     36.374      8.585   169.5128     6.2147     2.3851     0.0245      0.093      1.232      1.787        146 2.8815e+02   996.7915 0.0000e+00
      1.286    26.0168     6.8655     84.498  37.108369     36.332      8.590   169.4371     6.6267     2.6879     0.0245      0.096      1.261      1.829        147 2.8312e+02   996.7963 0.0000e+00
      1.314    26.0021     6.9293     85.259  37.041071     36.289      8.595   169.8535     6.6572     2.5437     0.0245      0.101      1.289      1.869        148 2.6939e+02   996.8009 0.0000e+00
      1.343    25.9927     7.0043     86.173  37.044149     36.301      8.601   170.0050     6.6190     2.5004     0.0245      0.106      1.315      1.907        149 2.5954e+02   996.8053 0.0000e+00
      1.364    25.9856     7.0409     86.617  37.045279     36.312      8.609   169.8157     6.6038     2.6446     0.0245      0.107      1.337      1.939        150 2.5750e+02   996.8093 0.0000e+00
      1.385    25.9808     7.0636     86.869  37.039673     36.318      8.615   169.4750     7.4201     2.5725     0.0245      0.106      1.357      1.968        151 2.5078e+02   996.8119 0.0000e+00
      1.401    25.9779     7.0585     86.760  36.932589     36.214      8.622   169.7021     7.4049     2.3995     0.0244      0.102      1.372      1.990        152 2.4965e+02   996.8137 0.0000e+00
      1.411    25.9746     7.0373     86.455  36.852560     36.135      8.628   169.9293     7.4049     2.4139     0.0244      0.093      1.384      2.008        153 2.4856e+02   996.8151 0.0000e+00
      1.424    25.9705     7.0011     85.964  36.842920     36.137      8.632   169.7021     7.3896     2.4283     0.0244      0.082      1.397      2.026        154 2.4042e+02   996.8159 0.0000e+00
      1.437    25.9596     6.9522     85.324  36.855683     36.139      8.638   169.5885     7.3210     2.4283     0.0244      0.072      1.413      2.049        155 2.3888e+02   996.8169 0.0000e+00
      1.462    25.9377     6.9111     84.796  36.984853     36.279      8.642   170.2321     7.3362     2.4572     0.0244      0.067      1.437      2.083        156 2.2737e+02   996.8182 0.0000e+00
      1.495    25.9136     6.8727     84.333  37.037795     36.342      8.643   170.1564     7.3248     2.4283     0.0245      0.067      1.467      2.128        157 2.2015e+02   996.8211 0.0000e+00
      1.530    25.8984     6.8386     83.929  36.997251     36.303      8.644   170.9514     7.3553     2.5004     0.0244      0.075      1.500      2.175        158 2.1285e+02   996.8271 0.0000e+00
      1.563    25.8926     6.8089     83.575  36.976050     36.320      8.641   171.6328     7.3057     2.3851     0.0244      0.085      1.530      2.219        159 2.0500e+02   996.8337 0.0000e+00
      1.587    25.8881     6.7756     83.165  36.916015     36.248      8.641   171.4814     8.7629     2.6735     0.0244      0.096      1.555      2.255        160 2.0173e+02   996.8378 0.0000e+00
      1.607    25.8711     6.7601     82.948  36.894160     36.252      8.645   172.3521     8.7706     2.6446     0.0244      0.104      1.577      2.286        161 1.9623e+02   996.8394 0.0000e+00
      1.629    25.8425     6.7600     82.896  36.914347     36.255      8.641   172.7685     8.7629     2.6446     0.0244      0.108      1.598      2.317        162 1.9137e+02   996.8406 0.0000e+00
      1.651    25.8136     6.7809     83.078  36.861262     36.240      8.641   173.0714     8.7706     2.6158     0.0244      0.107      1.619      2.347        163 1.8682e+02   996.8453 0.0000e+00
      1.671    25.7846     6.8121     83.401  36.871327     36.234      8.638   173.3364    11.4561     2.7023     0.0244      0.101      1.639      2.377        164 1.8316e+02   996.8530 0.0000e+00
      1.691    25.7586     6.8481     83.830  36.872199     36.308      8.635   173.9800    11.4218     2.9042     0.0244      0.093      1.659      2.406        165 1.7845e+02   996.8606 0.0000e+00
      1.712    25.7448     6.8729     84.130  36.830558     36.220      8.634   173.7907    11.4409     2.9186     0.0244      0.086      1.678      2.434        166 1.7418e+02   996.8684 0.0000e+00
      1.729    25.7483     6.8811     84.230  36.863895     36.348      8.633   173.8286    11.4294     2.7311     0.0244      0.082      1.695      2.457        167 1.7180e+02   996.8753 0.0000e+00
      1.742    25.7582     6.8689     84.077  36.830723     36.248      8.631   174.2071    13.7946     2.8465     0.0244      0.078      1.708      2.477        168 1.6923e+02   996.8791 0.0000e+00
      1.754    25.7650     6.8388     83.689  36.782941     36.273      8.628   174.4721    13.8137     2.7600     0.0244      0.073      1.720      2.495        169 1.6727e+02   996.8781 0.0000e+00
      1.766    25.7638     6.7925     83.086  36.715915     36.128      8.629   174.8886    13.8060     2.8321     0.0243      0.068      1.734      2.515        170 1.6426e+02   996.8755 0.0000e+00
      1.785    25.7464     6.7779     82.679  36.765959     36.233      8.628   174.9264    13.8289     2.9186     0.0244      0.064      1.753      2.542        171 1.5911e+02   996.8739 0.0000e+00
      1.812    25.7125     6.9366     83.962  36.809563     36.234      8.625   175.6078    16.0834     2.7744     0.0244      0.064      1.777      2.577        172 1.5396e+02   996.8743 0.0000e+00
      1.838    25.6637     7.4447     89.457  36.839458     36.302      8.622   175.6078    16.1140     2.6446     0.0244      0.067      1.803      2.615        173 1.4910e+02   996.8791 0.0000e+00
      1.866    25.6261     8.1113     96.988  36.876939     36.353      8.618   176.2514    16.1063     2.8898     0.0244      0.073      1.828      2.652        174 1.4419e+02   996.8881 0.0000e+00
      1.889    25.6168     8.8206    105.148  36.792575     36.306      8.611   176.4786    16.0720     2.8609     0.0244      0.080      1.850      2.683        175 1.4083e+02   996.9010 0.0000e+00
      1.903    25.6162     9.4934    112.928  36.796297     36.334      8.609   177.1221    20.2492     3.0051     0.0244      0.085      1.866      2.706        176 1.3850e+02   996.9109 0.0000e+00
      1.917    25.6144    10.0550    119.418  36.783417     36.339      8.608   177.6900    20.2682     2.9474     0.0244      0.087      1.878      2.724        177 1.3610e+02   996.9134 0.0000e+00
      1.926    25.6133    10.4589    124.027  36.690069     36.230      8.604   177.7657    20.2720     3.0051     0.0243      0.083      1.889      2.740        178 1.3422e+02   996.9136 0.0000e+00
      1.936    25.5980    10.7138    126.940  36.675390     36.231      8.602   177.8036    20.2301     2.9907     0.0243      0.074      1.900      2.755        179 1.3151e+02   996.9141 0.0000e+00
      1.951    25.5780    10.7587    127.432  36.831322     36.370      8.597   177.9550    21.9315     2.9763     0.0244      0.065      1.913      2.775        180 1.2845e+02   996.9144 0.0000e+00
      1.966    25.4142    10.6430    126.010  36.703462     36.297      8.591   178.2578    21.9162     2.9474     0.0243      0.058      1.928      2.796        181 1.2607e+02   996.9185 0.0000e+00
      1.980    25.0090    10.4690    123.849  36.064023     35.624      8.590   178.9014    21.9124     2.9474     0.0241      0.052      1.943      2.818        182 1.2288e+02   996.9237 0.0000e+00
      1.999    24.6078    10.2849    121.494  35.611996     35.315      8.584   180.1507    21.9200     3.0916     0.0239      0.052      1.960      2.843        183 1.1974e+02   996.9664 0.0000e+00
      2.017    24.3464    10.0991    119.183  35.576966     35.557      8.584   179.9993    21.9429     3.0628     0.0239      0.055      1.978      2.869        184 1.1700e+02   997.0711 0.0000e+00
      2.035    24.1779     9.8993    116.752  35.574389     35.868      8.584   180.6807    24.8612     2.7311     0.0239      0.059      1.997      2.896        185 1.1375e+02   997.1734 0.0000e+00
      2.056    24.0669     9.6991    114.315  35.437586     35.892      8.585   181.1729    24.8726     2.7888     0.0238      0.064      2.017      2.925        186 1.1027e+02   997.2391 0.0000e+00
      2.078    23.9787     9.5185    112.144  35.362116     35.954      8.575   181.4000    24.8459     2.7167     0.0238      0.070      2.039      2.957        187 1.0653e+02   997.2812 0.0000e+00
      2.103    23.9004     9.3812    110.500  35.372065     36.038      8.571   181.8921    24.8383     2.7600     0.0238      0.074      2.061      2.989        188 1.0344e+02   997.3089 0.0000e+00
      2.124    23.8534     9.2707    109.180  35.306732     36.044      8.563   182.0814    26.8372     3.1061     0.0238      0.078      2.082      3.019        189 1.0117e+02   997.3307 0.0000e+00
      2.141    23.8355     9.1919    108.230  35.324936     36.103      8.560   182.9143    26.8258     3.0628     0.0238      0.081      2.100      3.045        190 9.9158e+01   997.3501 0.0000e+00
      2.157    23.8150     9.1426    107.608  35.408712     36.252      8.554   183.1036    26.8563     2.9763     0.0239      0.080      2.117      3.070        191 9.6658e+01   997.3618 0.0000e+00
      2.178    23.7694     9.1366    107.466  35.380295     36.207      8.552   183.9743    26.8258     2.9763     0.0238      0.080      2.137      3.100        192 9.3093e+01   997.3662 0.0000e+00
      2.204    23.6951     9.1591    107.612  35.360313     36.223      8.545   184.7693    27.0318     2.7600     0.0238      0.081      2.161      3.134        193 8.9600e+01   997.3714 0.0000e+00
      2.228    23.6416     9.1915    107.853  35.374328     36.255      8.539   185.8293    27.0280     2.7888     0.0238      0.082      2.184      3.168        194 8.7203e+01   997.3827 0.0000e+00
      2.249    23.6078     9.2326    108.153  35.362877     36.313      8.534   186.3972    27.0204     2.9474     0.0238      0.082      2.206      3.199        195 8.4611e+01   997.4009 0.0000e+00
      2.272    23.5736     9.2451    108.130  35.374593     36.352      8.525   186.3972    27.0013     2.7888     0.0238      0.083      2.227      3.229        196 8.2129e+01   997.4140 0.0000e+00
      2.290    23.5527     9.2741    108.322  35.359774     36.377      8.517   187.7222    27.0814     2.5725     0.0238      0.084      2.244      3.254        197 8.0784e+01   997.4224 0.0000e+00
      2.302    23.5401     9.2620    107.956  35.322073     36.346      8.507   189.3122    27.0509     2.5870     0.0238      0.083      2.257      3.273        198 7.9585e+01   997.4306 0.0000e+00
      2.312    23.5309     9.2335    107.330  35.302996     36.361      8.502   190.1072    27.0738     2.6735     0.0238      0.079      2.267      3.289        199 7.8400e+01   997.4357 0.0000e+00
      2.323    23.5196     9.1799    106.459  35.264994     36.313      8.496   190.6750    27.0623     2.5437     0.0238      0.071      2.277      3.303        200 7.7437e+01   997.4388 0.0000e+00
      2.331    23.5001     9.1230    105.560  35.250841     36.320      8.490   191.4700    27.0699     2.5149     0.0238      0.062      2.287      3.318        201 7.6457e+01   997.4411 0.0000e+00
      2.343    23.4635     9.0459    104.359  35.261348     36.328      8.485   192.1136    27.4705     2.7744     0.0238      0.054      2.300      3.335        202 7.4788e+01   997.4440 0.0000e+00
      2.361    23.4067     8.9698    103.161  35.192657     36.285      8.481   192.6057    27.5201     2.7311     0.0238      0.050      2.317      3.359        203 7.2631e+01   997.4487 0.0000e+00
      2.381    23.3360     8.8846    101.917  35.158540     36.254      8.477   192.9843    27.5201     2.8898     0.0238      0.049      2.336      3.388        204 7.0605e+01   997.4576 0.0000e+00
      2.404    23.2482     8.7953    100.694  35.185294     36.356      8.472   193.1357    27.5010     2.8609     0.0238      0.053      2.358      3.420        205 6.8172e+01   997.4715 0.0000e+00
      2.428    23.1658     8.7265     99.743  35.159388     36.350      8.467   193.4386    30.0683     2.7744     0.0238      0.061      2.380      3.453        206 6.6176e+01   997.4887 0.0000e+00
      2.449    23.0930     8.6836     99.064  35.131550     36.417      8.464   193.3629    30.0340     2.9042     0.0238      0.069      2.402      3.484        207 6.4524e+01   997.5097 0.0000e+00
      2.470    22.9829     8.6526     98.483  35.160713     36.480      8.456   193.5900    30.0493     2.7744     0.0238      0.076      2.422      3.513        208 6.2606e+01   997.5295 0.0000e+00
      2.490    22.8409     8.6494     98.207  35.300931     36.708      8.454   193.7036    30.0493     2.8032     0.0238      0.081      2.440      3.540        209 6.1351e+01   997.5469 0.0000e+00
      2.505    22.7180     8.6434     98.010  35.312687     36.792      8.447   194.0065    32.0406     2.7600     0.0238      0.082      2.457      3.565        210 6.0295e+01   997.5732 0.0000e+00
      2.523    22.5981     8.6204     97.789  35.264668     36.845      8.441   194.6122    32.0062     2.7888     0.0238      0.081      2.477      3.592        211 5.8366e+01   997.6068 0.0000e+00
      2.549    22.4444     8.6213     97.863  35.360754     37.056      8.436   194.7258    31.9986     2.7311     0.0239      0.080      2.500      3.625        212 5.6324e+01   997.6358 0.0000e+00
      2.574    22.2829     8.6184     97.931  35.489503     37.266      8.428   194.8393    32.0291     2.7311     0.0239      0.080      2.522      3.657        213 5.5219e+01   997.6640 0.0000e+00
      2.589    22.1483     8.6254     97.929  35.578637     37.505      8.422   194.8015    33.3109     2.8177     0.0240      0.079      2.538      3.682        214 5.4338e+01   997.6998 0.0000e+00
      2.603    22.0456     8.6146     97.573  35.575867     37.604      8.419   194.9529    33.3147     2.8321     0.0240      0.077      2.552      3.702        215 5.3269e+01   997.7371 0.0000e+00
      2.617    21.9600     8.5693     96.937  35.552291     37.711      8.414   195.6343    33.3071     2.7888     0.0240      0.075      2.566      3.721        216 5.2515e+01   997.7680 0.0000e+00
      2.629    21.8614     8.4155     95.145  35.578408     37.794      8.408   195.9372    33.3071     2.8465     0.0240      0.071      2.580      3.741        217 5.1471e+01   997.7915 0.0000e+00
      2.645    21.7426     8.1660     91.933  35.602683     37.921      8.408   196.3536    35.5196     2.7888     0.0240      0.068      2.595      3.763        218 5.0003e+01   997.8111 0.0000e+00
      2.664    21.6165     7.8446     87.750  35.581393     37.941      8.403   196.8079    35.5234     2.8032     0.0240      0.065      2.612      3.788        219 4.8957e+01   997.8334 0.0000e+00
      2.680    21.5524     7.5204     83.670  35.575321     38.068      8.399   197.5650    35.5234     2.8753     0.0240      0.061      2.629      3.812        220 4.7930e+01   997.8603 0.0000e+00
      2.697    21.5667     7.1130     78.834  35.491763     38.051      8.398   198.3979    35.4700     2.7456     0.0240      0.060      2.645      3.837        221 4.6698e+01   997.8885 0.0000e+00
      2.715    21.6070     6.6720     73.738  35.566898     38.197      8.395   199.1172    34.9932     2.8177     0.0240      0.062      2.663      3.863        222 4.5538e+01   997.9029 0.0000e+00
      2.735    21.6523     6.2094     68.463  35.452212     38.089      8.392   199.6093    34.6995     2.7600     0.0240      0.065      2.683      3.892        223 4.4059e+01   997.8998 0.0000e+00
      2.759    21.6133     5.7385     63.111  35.693754     38.212      8.383   200.1393    34.6613     2.6446     0.0240      0.069      2.706      3.924        224 4.2459e+01   997.8909 0.0000e+00
      2.783    21.4902     5.3639     58.823  36.481285     39.186      8.375   200.3286    34.6995     2.7600     0.0245      0.074      2.727      3.956        225 4.1426e+01   997.8812 0.0000e+00
      2.800    21.4295     5.0471     55.177  36.427986     39.012      8.368   200.7072    34.6880     2.7888     0.0244      0.077      2.746      3.983        226 4.0516e+01   997.8900 0.0000e+00
      2.818    21.3899     4.6713     50.920  36.115705     38.875      8.364   201.5779    32.5289     2.6158     0.0243      0.078      2.764      4.009        227 3.9263e+01   997.9174 0.0000e+00
      2.838    21.1785     4.2574     46.306  36.366168     39.110      8.357   202.3351    32.5212     2.6014     0.0244      0.079      2.784      4.037        228 3.8082e+01   997.9310 0.0000e+00
      2.860    20.8517     3.9221     42.588  36.679387     39.586      8.350   202.1079    32.5250     2.6302     0.0245      0.080      2.804      4.067        229 3.7000e+01   997.9400 0.0000e+00
      2.880    20.5769     3.7252     40.390  36.614997     39.591      8.344   202.2215    32.5479     2.4860     0.0245      0.080      2.823      4.094        230 3.6066e+01   997.9865 0.0000e+00
      2.896    20.3807     3.6839     39.886  36.742749     40.088      8.336   202.5622    27.7223     2.3562     0.0246      0.078      2.840      4.119        231 3.5351e+01   998.0576 0.0000e+00
      2.912    20.2385     3.7274     40.295  36.787265     40.361      8.332   202.9029    27.7146     2.5437     0.0246      0.075      2.856      4.143        232 3.4504e+01   998.1165 0.0000e+00
      2.930    20.1179     3.7947     40.949  36.648640     40.350      8.329   203.5086    27.7185     2.4860     0.0246      0.073      2.875      4.169        233 3.3452e+01   998.1579 0.0000e+00
      2.952    19.9910     3.8987     41.967  37.093183     41.001      8.322   203.5844    27.7146     2.3851     0.0248      0.074      2.897      4.202        234 3.2331e+01   998.1880 0.0000e+00
      2.981    19.8466     4.0282     43.228  37.893731     41.976      8.317   204.0765    18.1015     1.7073     0.0252      0.076      2.926      4.243        235 3.0794e+01   998.2136 0.0000e+00
      3.018    19.6912     4.2061     45.019  37.904793     42.188      8.310   205.7801    18.1167     1.7073     0.0252      0.082      2.957      4.289        236 2.9208e+01   998.2401 0.0000e+00
      3.049    19.5466     4.3615     46.632  36.842402     41.016      8.302   206.4994    18.1015     1.8660     0.0247      0.090      2.985      4.329        237 2.8376e+01   998.2695 0.0000e+00
      3.065    19.4361     4.4403     47.435  36.311598     40.628      8.299   206.6129    18.1053     1.7794     0.0245      0.095      3.003      4.356        238 2.7997e+01   998.3011 0.0000e+00
      3.075    19.3524     4.4136     47.083  36.579844     41.043      8.291   207.9001    15.4464     1.4910     0.0246      0.097      3.017      4.376        239 2.7427e+01   998.3306 0.0000e+00
      3.090    19.2789     4.3481     46.296  36.775360     41.396      8.284   208.3922    15.4616     1.4622     0.0247      0.094      3.031      4.396        240 2.6811e+01   998.3529 0.0000e+00
      3.105    19.2074     4.2379     45.015  36.749946     41.411      8.278   208.5815    15.4655     1.5631     0.0247      0.088      3.044      4.416        241 2.6441e+01   998.3698 0.0000e+00
      3.117    19.1323     4.0640     43.053  36.552245     41.291      8.273   209.2629    15.4769     1.4910     0.0246      0.079      3.058      4.436        242 2.5849e+01   998.3844 0.0000e+00
      3.135    19.0429     3.7959     40.133  36.339826     41.072      8.270   209.2629    16.9723     1.5199     0.0245      0.069      3.078      4.464        243 2.4846e+01   998.3986 0.0000e+00
      3.164    18.9200     3.4451     36.384  35.917843     40.732      8.263   209.3387    16.9380     1.4189     0.0243      0.064      3.103      4.501        244 2.3879e+01   998.4134 0.0000e+00
      3.193    18.7674     3.0786     32.478  35.684611     40.433      8.259   211.0422    16.9418     1.5055     0.0242      0.067      3.128      4.538        245 2.3070e+01   998.4310 0.0000e+00
      3.214    18.6421     2.7418     28.879  36.333787     41.406      8.254   210.8908    16.9799     1.4766     0.0246      0.074      3.148      4.566        246 2.2775e+01   998.4553 0.0000e+00
      3.223    18.5860     2.4506     25.760  36.562109     41.772      8.248   211.2694    16.9723     1.4910     0.0247      0.077      3.158      4.581        247 2.2836e+01   998.4851 0.0000e+00
      3.224    18.5452     2.2336     23.427  36.259937     41.512      8.243   211.5722    13.7221     1.8371     0.0245      0.074      3.165      4.591        248 2.2471e+01   998.5093 0.0000e+00
      3.238    18.4746     2.0750     21.705  36.561718     41.946      8.239   212.1401    13.7374     1.7362     0.0247      0.070      3.177      4.608        249 2.1938e+01   998.5201 0.0000e+00
      3.258    18.3817     1.9950     20.793  37.046009     42.531      8.236   212.1779    13.7336     1.6785     0.0249      0.067      3.195      4.634        250 2.1499e+01   998.5282 0.0000e+00
      3.278    18.2650     1.9689     20.442  37.465047     43.082      8.233   212.9351    13.7412     1.8083     0.0251      0.062      3.215      4.663        251 2.0955e+01   998.5419 0.0000e+00
      3.299    18.1366     1.9868     20.557  37.433161     43.175      8.231   213.2001     8.8926     1.6064     0.0251      0.059      3.236      4.693        252 2.0410e+01   998.5596 0.0000e+00
      3.322    18.0396     2.0356     21.008  37.026466     42.742      8.222   213.0108     8.8850     1.5343     0.0249      0.060      3.255      4.721        253 2.0146e+01   998.5815 0.0000e+00
      3.335    17.9840     2.0902     21.540  37.022870     42.936      8.221   213.2380     8.8774     1.4910     0.0249      0.063      3.270      4.743        254 1.9885e+01   998.6057 0.0000e+00
      3.348    17.9304     2.0947     21.573  37.170971     43.162      8.214   213.5408     8.8659     1.5199     0.0250      0.068      3.283      4.762        255 1.9607e+01   998.6239 0.0000e+00
      3.360    17.8535     2.0337     20.935  37.197840     43.282      8.210   213.3894     7.5537     1.7218     0.0250      0.070      3.295      4.778        256 1.9405e+01   998.6343 0.0000e+00
      3.370    17.7569     1.8987     19.518  37.048736     43.140      8.205   213.9194     7.5422     1.7362     0.0250      0.066      3.307      4.795        257 1.9122e+01   998.6441 0.0000e+00
      3.385    17.6500     1.6994     17.439  36.615661     42.729      8.202   214.2980     7.5231     1.7362     0.0248      0.061      3.324      4.820        258 1.8744e+01   998.6582 0.0000e+00
      3.412    17.5169     1.4907     15.291  36.432863     42.564      8.200   214.6387     7.5270     1.6785     0.0247      0.060      3.350      4.858        259 1.8223e+01   998.6759 0.0000e+00
      3.451    17.3436     1.2599     12.907  36.209398     42.508      8.196   215.2822     7.5193     1.7506     0.0246      0.065      3.383      4.906        260 1.7782e+01   998.6954 0.0000e+00
      3.484    17.1582     1.0043     10.271  35.619524     41.818      8.191   216.0394     7.5346     1.7218     0.0243      0.075      3.414      4.951        261 1.7432e+01   998.7194 0.0000e+00
      3.508    16.9957     0.7572      7.724  35.774198     42.255      8.188   216.6451     7.5498     1.7362     0.0244      0.087      3.437      4.985        262 1.7264e+01   998.7505 0.0000e+00
      3.522    16.8733     0.5254      5.339  36.520782     43.302      8.185   217.7051     7.5002     1.6929     0.0248      0.094      3.452      5.007        263 1.7231e+01   998.7836 0.0000e+00
      3.531    16.8015     0.3414      3.456  36.794573     43.836      8.177   218.6894     6.4474     1.8083     0.0249      0.095      3.462      5.022        264 1.7084e+01   998.8122 0.0000e+00
      3.540    16.7711     0.2016      2.035  37.033849     44.164      8.176   218.8030     6.4588     1.6208     0.0250      0.091      3.471      5.034        265 1.6988e+01   998.8336 0.0000e+00
      3.547    16.7487     0.0933      0.940  36.963961     44.308      8.172   219.0301     6.4512     1.8227     0.0251      0.080      3.480      5.048        266 1.6906e+01   998.8460 0.0000e+00
      3.559    16.6798     0.0133      0.134  37.237217     44.405      8.169   219.2573     6.4550     1.7362     0.0251      0.066      3.491      5.063        267 1.6655e+01   998.8513 0.0000e+00
      3.573    16.6040    -0.0507     -0.508  38.560954     46.336      8.165   218.7273     6.4512     1.7073     0.0259      0.053      3.502      5.078        268 1.6552e+01   998.8558 0.0000e+00
      3.578    16.5736    -0.0649     -0.648  38.813823     46.476      8.160   219.4087     6.9471     1.7362     0.0260      0.043      3.510      5.090        269 1.6584e+01   998.8677 0.0000e+00
      3.583    16.5190    -0.0592     -0.591  38.404419     46.200      8.157   219.4087     6.9204     1.6785     0.0258      0.037      3.520      5.105        270 1.6261e+01   998.8804 0.0000e+00
      3.606    16.4364    -0.0397     -0.396  39.070487     46.896      8.155   219.9387     6.9242     1.8371     0.0261      0.039      3.540      5.135        271 1.5805e+01   998.8859 0.0000e+00
      3.640    16.3161    -0.0201     -0.199  38.963017     47.099      8.151   220.0523     6.9471     1.7939     0.0262      0.047      3.573      5.181        272 1.5278e+01   998.8952 0.0000e+00
      3.684    16.1349     0.0087      0.086  38.627113     46.346      8.143   220.5444     6.5199     1.6785     0.0258      0.063      3.610      5.235        273 1.4682e+01   998.9092 0.0000e+00
      3.717    15.9614     0.0467      0.460  41.593130     50.436      8.133   221.0365     6.5122     1.6497     0.0275      0.080      3.641      5.281        274 1.4401e+01   998.9307 0.0000e+00
      3.736    15.8314     0.0784      0.772  45.024314     54.735      8.126   222.5887     6.5008     1.7362     0.0294      0.092      3.662      5.312        275 1.4193e+01   998.9620 0.0000e+00
      3.751    15.7211     0.1252      1.233  46.363166     56.605      8.122   222.8537     6.4970     1.7362     0.0301      0.100      3.679      5.336        276 1.3887e+01   998.9910 0.0000e+00
      3.769    15.6065     0.1836      1.804  46.449406     56.921      8.115   223.1944     4.6621     2.1688     0.0302      0.105      3.697      5.362        277 1.3588e+01   999.0122 0.0000e+00
      3.791    15.4688     0.2686      2.629  45.569346     55.908      8.112   224.7087     4.6697     2.1255     0.0297      0.104      3.719      5.393        278 1.3280e+01   999.0296 0.0000e+00
      3.817    15.3430     0.3899      3.805  43.722758     53.933      8.103   224.4816     4.6659     2.2409     0.0288      0.098      3.743      5.428        279 1.2950e+01   999.0471 0.0000e+00
      3.842    15.2671     0.5170      5.035  42.225179     51.976      8.098   224.4437     4.6468     2.2553     0.0279      0.091      3.768      5.464        280 1.2553e+01   999.0683 0.0000e+00
      3.868    15.1696     0.6227      6.056  41.177946     51.277      8.091   225.1251     3.5405     3.2791     0.0276      0.086      3.792      5.499        281 1.2201e+01   999.0876 0.0000e+00
      3.888    15.0106     0.6902      6.712  38.504786     47.623      8.084   225.1251     3.5520     3.2503     0.0260      0.086      3.812      5.530        282 1.1953e+01   999.0983 0.0000e+00
      3.907    14.8451     0.7064      6.872  36.245046     45.202      8.076   225.0116     3.5176     3.1349     0.0249      0.088      3.831      5.556        283 1.1685e+01   999.1125 0.0000e+00
      3.924    14.6964     0.6613      6.430  35.158175     43.847      8.070   225.2387     3.5291     3.2503     0.0242      0.088      3.849      5.582        284 1.1379e+01   999.1363 0.0000e+00
      3.944    14.6511     0.5812      5.645  33.723057     42.419      8.064   224.6708     5.0016     5.9756     0.0236      0.087      3.868      5.610        285 1.1023e+01   999.1606 0.0000e+00
      3.965    14.6689     0.4741      4.598  33.408381     41.872      8.063   224.7844     5.0512     6.0621     0.0233      0.084      3.887      5.638        286 1.0684e+01   999.1826 0.0000e+00
      3.982    14.5588     0.3702      3.584  34.453461     43.653      8.056   225.0116     5.0245     6.0044     0.0240      0.080      3.905      5.663        287 1.0390e+01   999.1898 0.0000e+00
      3.998    14.3901     0.2756      2.663  34.230038     43.019      8.051   225.0116     5.0092     6.0765     0.0238      0.076      3.922      5.688        288 1.0032e+01   999.1872 0.0000e+00
      4.017    14.2575     0.1993      1.923  34.486482     43.575      8.045   225.9958     4.9978     5.9323     0.0240      0.073      3.940      5.714        289 9.5912e+00   999.2035 0.0000e+00
      4.036    14.1586     0.1585      1.527  39.083526     49.428      8.041   226.5637     4.9901     6.9561     0.0264      0.072      3.956      5.737        290 9.2426e+00   999.2300 0.0000e+00
      4.048    14.1024     0.1314      1.264  45.611055     58.317      8.035   225.5794     4.9482     6.9129     0.0302      0.071      3.966      5.752        291 9.0784e+00   999.2518 0.0000e+00
      4.049    14.0939     0.1265      1.216  45.482300     58.282      8.027   225.2766     4.9825     6.9706     0.0302      0.064      3.969      5.757        292 9.0558e+00   999.2659 0.0000e+00
      4.047    14.1108     0.1230      1.182  41.437191     52.616      8.021   224.0273     4.9711     6.8696     0.0277      0.054      3.971      5.761        293 8.8630e+00   999.2720 0.0000e+00
      4.056    14.0899     0.1208      1.160  43.263222     55.415      8.017   222.6265     4.0174     8.9172     0.0289      0.045      3.981      5.774        294 8.4572e+00   999.2741 0.0000e+00
      4.076    14.0402     0.1196      1.149  48.546491     61.995      8.010   221.3394     4.0288     8.9028     0.0318      0.040      4.000      5.802        295 8.0123e+00   999.2740 0.0000e+00
      4.106    13.9712     0.1209      1.161  51.466189     66.034      8.006   221.7180     4.0174     8.9172     0.0336      0.042      4.027      5.842        296 7.3499e+00   999.2783 0.0000e+00
      4.141    13.8825     0.1235      1.186  50.779015     64.937      8.005   221.4530     4.0593     8.9749     0.0331      0.050      4.057      5.884        297 6.8351e+00   999.2852 0.0000e+00
      4.164    13.8021     0.1279      1.226  49.520212     63.544      8.007   219.5601     4.1547     7.9511     0.0324      0.061      4.081      5.918        298 6.6251e+00   999.2943 0.0000e+00
      4.178    13.7341     0.1361      1.302  49.177531     63.225      8.003   219.4087     4.1242     7.9511     0.0323      0.072      4.098      5.943        299 6.4256e+00   999.3066 0.0000e+00
      4.194    13.6670     0.1377      1.316  48.536598     62.562      7.999   220.6958     4.1547     8.0665     0.0319      0.082      4.115      5.968        300 6.1437e+00   999.3174 0.0000e+00
      4.216    13.6058     0.1389      1.326  47.560128     61.375      7.990   220.4687     4.1394     8.0665     0.0314      0.089      4.134      5.996        301 5.8618e+00   999.3263 0.0000e+00
      4.237    13.5628     0.1451      1.385  46.864123     60.576      7.982   220.9230     3.6626     6.6966     0.0310      0.089      4.154      6.024        302 5.6138e+00   999.3353 0.0000e+00
      4.253    13.5374     0.1439      1.373  46.734145     60.530      7.968   220.8851     3.6359     6.6822     0.0310      0.084      4.170      6.048        303 5.4546e+00   999.3436 0.0000e+00
      4.267    13.5344     0.1488      1.421  46.921339     60.813      7.953   221.1880     3.6550     6.6245     0.0311      0.076      4.184      6.069        304 5.3113e+00   999.3494 0.0000e+00
      4.281    13.5446     0.1481      1.416  47.135257     61.181      7.944   224.1408     3.6359     6.7254     0.0312      0.069      4.199      6.090        305 5.1400e+00   999.3530 0.0000e+00
      4.298    13.5425     0.1453      1.391  47.149916     61.148      7.937   222.3615     3.3460     5.8891     0.0312      0.067      4.217      6.115        306 4.9468e+00   999.3535 0.0000e+00
      4.319    13.5159     0.1462      1.399  46.992053     60.987      7.922   223.7244     3.3460     5.8170     0.0311      0.068      4.237      6.145        307 4.6054e+00   999.3522 0.0000e+00
      4.344    13.4491     0.1377      1.316  46.886946     60.772      7.913   223.1566     3.3612     5.7305     0.0311      0.069      4.260      6.178        308 4.3669e+00   999.3525 0.0000e+00
      4.367    13.3647     0.1426      1.360  47.251075     61.358      7.907   221.9451     3.3612     5.7881     0.0313      0.071      4.281      6.210        309 4.2185e+00   999.3563 0.0000e+00
      4.387    13.2976     0.1445      1.374  47.517415     61.791      7.896   221.0365     3.3498     5.6872     0.0315      0.074      4.299      6.236        310 4.0749e+00   999.3655 0.0000e+00
      4.399    13.2510     0.1433      1.359  47.563681     61.968      7.892   220.2794     3.7809     5.1825     0.0315      0.076      4.310      6.251        311 4.0538e+00   999.3767 0.0000e+00
      4.400    13.2273     0.1452      1.373  47.579020     62.145      7.881   220.2037     3.7885     5.0960     0.0316      0.073      4.314      6.256        312 4.0937e+00   999.3855 0.0000e+00
      4.397    13.2333     0.1476      1.393  47.409412     61.933      7.873   219.5601     3.7694     5.1393     0.0314      0.064      4.312      6.254        313 4.1214e+00   999.3916 0.0000e+00
      4.394    13.2723     0.1533      1.447  47.418961     62.040      7.865   219.0680     3.7770     5.0960     0.0315      0.050      4.310      6.251        314 4.1325e+00   999.3946 0.0000e+00
      4.394    13.3227     0.1494      1.410  47.418891     61.998      7.858   218.4244     3.1591     4.8364     0.0315      0.034      4.309      6.250        315 4.1552e+00   999.3937 0.0000e+00
      4.395    13.3597     0.1480      1.396  47.379845     61.894      7.853   217.0994     3.1819     4.9230     0.0314      0.019      4.310      6.252        316 4.1290e+00   999.3886 0.0000e+00
      4.399    13.3703     0.1489      1.405  47.437880     61.888      7.845   216.4937     3.1629     4.8364     0.0315      0.009      4.315      6.259        317 4.0752e+00   999.3821 0.0000e+00
      4.408    13.3293     0.1428      1.347  47.494897     61.898      7.840   215.6987     3.1552     4.8797     0.0315      0.004      4.325      6.274        318 3.9954e+00   999.3774 0.0000e+00
      4.425    13.2208     0.1382      1.304  47.694340     62.139      7.832   215.3580     2.6059     5.0095     0.0316      0.009      4.343      6.300        319 3.8419e+00   999.3761 0.0000e+00
      4.453    13.0899     0.1344      1.268  47.901323     62.492      7.830   215.1308     2.6021     5.0239     0.0317      0.022      4.372      6.340        320 3.6314e+00   999.3817 0.0000e+00
      4.496    12.9623     0.1359      1.281  47.178042     61.760      7.822   215.8122     2.6288     5.0527     0.0314      0.042      4.409      6.395        321 3.3140e+00   999.3957 0.0000e+00
      4.540    12.8394     0.1326      1.249  45.243990     59.368      7.815   215.0930     2.6135     5.1393     0.0303      0.068      4.448      6.452        322 3.1496e+00   999.4120 0.0000e+00
      4.571    12.7651     0.1338      1.260  43.726100     57.543      7.806   214.9037     6.3787     6.9561     0.0294      0.091      4.480      6.497        323 3.0683e+00   999.4277 0.0000e+00
      4.593    12.7475     0.1318      1.242  43.760043     57.807      7.800   214.6387     6.3825     7.0282     0.0295      0.108      4.503      6.530        324 2.9194e+00   999.4433 0.0000e+00
      4.610    12.7520     0.1286      1.213  43.956613     58.253      7.796   214.0708     6.3635     6.8840     0.0296      0.116      4.520      6.555        325 2.8575e+00   999.4527 0.0000e+00
      4.622    12.7488     0.1301      1.226  43.866919     58.020      7.790   213.7680     6.4054     6.9417     0.0295      0.116      4.533      6.575        326 2.7822e+00   999.4549 0.0000e+00
      4.636    12.7360     0.1287      1.211  43.723451     58.012      7.787   213.4651     4.8986     7.8357     0.0295      0.107      4.545      6.592        327 2.7541e+00   999.4544 0.0000e+00
      4.647    12.7257     0.1292      1.214  43.571879     57.573      7.786   213.0865     4.8833     7.7925     0.0293      0.091      4.557      6.609        328 2.7153e+00   999.4548 0.0000e+00
      4.658    12.7258     0.1320      1.238  43.640502     57.964      7.782   212.7837     4.9062     7.8069     0.0295      0.074      4.569      6.627        329 2.6271e+00   999.4564 0.0000e+00
      4.675    12.7212     0.1345      1.260  42.926563     56.794      7.781   212.5187     4.8910     7.7348     0.0290      0.061      4.584      6.649        330 2.5640e+00   999.4574 0.0000e+00
      4.690    12.6896     0.1328      1.243  41.910883     55.610      7.776   212.1022     1.9650     7.8213     0.0285      0.055      4.599      6.670        331 2.4919e+00   999.4571 0.0000e+00
      4.702    12.6537     0.1315      1.230  41.050734     54.355      7.774   211.5722     1.9765     7.8790     0.0279      0.053      4.611      6.687        332 2.4600e+00   999.4573 0.0000e+00
      4.712    12.6493     0.1225      1.145  41.180876     54.589      7.770   211.4587     1.9269     7.7204     0.0280      0.051      4.621      6.702        333 2.4105e+00   999.4613 0.0000e+00
      4.722    12.6799     0.1271      1.188  41.660002     55.419      7.769   211.2315     1.9345     7.7348     0.0283      0.050      4.630      6.715        334 2.3872e+00   999.4660 0.0000e+00
      4.729    12.7040     0.1208      1.130  41.284485     54.722      7.768   211.1937     1.9269     7.8069     0.0280      0.048      4.637      6.726        335 2.3874e+00   999.4664 0.0000e+00
      4.735    12.6848     0.1196      1.117  41.084983     54.602      7.761   210.8529     1.6560     8.7875     0.0280      0.045      4.646      6.739        336 2.3167e+00   999.4625 0.0000e+00
      4.751    12.6284     0.1219      1.138  40.070452     53.121      7.761   210.8151     1.6484     8.7298     0.0274      0.042      4.660      6.758        337 2.2511e+00   999.4592 0.0000e+00
      4.768    12.5473     0.1310      1.222  38.604790     51.185      7.760   210.6258     1.6408     8.6577     0.0265      0.042      4.675      6.780        338 2.1936e+00   999.4610 0.0000e+00
      4.781    12.4639     0.1402      1.307  37.662709     50.074      7.760   210.2851     1.6217     8.7298     0.0260      0.043      4.688      6.798        339 2.1664e+00   999.4675 0.0000e+00
      4.790    12.4061     0.1605      1.497  37.093479     49.327      7.760   209.7929     1.2669    10.3448     0.0256      0.044      4.698      6.813        340 2.1563e+00   999.4771 0.0000e+00
      4.799    12.3736     0.1856      1.732  37.446057     49.998      7.761   209.5279     1.2822    10.4313     0.0259      0.045      4.708      6.828        341 2.0950e+00   999.4874 0.0000e+00
      4.814    12.3533     0.2065      1.925  37.549975     50.223      7.760   209.6415     1.2822    10.3304     0.0260      0.047      4.720      6.847        342 2.0486e+00   999.4946 0.0000e+00
      4.828    12.3347     0.2400      2.236  36.816008     49.221      7.762   209.4144     1.2402    10.3160     0.0255      0.049      4.733      6.865        343 2.0347e+00   999.4982 0.0000e+00
      4.838    12.3292     0.2688      2.501  36.373839     48.686      7.757   210.3229     1.3470    12.3059     0.0253      0.049      4.746      6.884        344 2.0052e+00   999.5004 0.0000e+00
      4.854    12.3281     0.3032      2.818  36.529530     48.898      7.757   210.2094     1.3013    12.4068     0.0254      0.048      4.761      6.905        345 1.9300e+00   999.5027 0.0000e+00
      4.873    12.2993     0.3478      3.230  36.325901     48.719      7.758   209.9444     1.3470    12.3636     0.0253      0.050      4.778      6.930        346 1.8479e+00   999.5033 0.0000e+00
      4.890    12.2530     0.4000      3.714  35.678933     47.708      7.760   209.8308     1.3356    12.4357     0.0249      0.053      4.793      6.951        347 1.8049e+00   999.5034 0.0000e+00
      4.898    12.2172     0.4819      4.474  35.319497     47.410      7.759   209.9065     1.2326    14.6130     0.0247      0.055      4.803      6.966        348 1.7877e+00   999.5066 0.0000e+00
      4.904    12.2127     0.5859      5.437  35.439663     47.468      7.760   210.1337     1.2135    14.5554     0.0247      0.055      4.810      6.976        349 1.7800e+00   999.5122 0.0000e+00
      4.912    12.2301     0.7090      6.576  35.677582     48.041      7.760   210.6637     1.2250    14.6130     0.0249      0.051      4.820      6.990        350 1.7380e+00   999.5165 0.0000e+00
      4.928    12.2340     0.8295      7.694  35.705016     47.858      7.763   211.0044     1.2250    14.6563     0.0249      0.049      4.834      7.011        351 1.6987e+00   999.5171 0.0000e+00
      4.948    12.2105     0.9344      8.665  35.524060     47.835      7.761   211.0422     1.1868    15.8099     0.0249      0.049      4.851      7.036        352 1.6555e+00   999.5150 0.0000e+00
      4.963    12.1731     1.0291      9.538  35.043388     46.929      7.762   210.7772     1.1945    15.7234     0.0245      0.049      4.867      7.059        353 1.5988e+00   999.5144 0.0000e+00
      4.978    12.1199     1.1010     10.197  34.702974     46.735      7.760   211.6101     1.2021    15.7378     0.0244      0.050      4.883      7.081        354 1.5670e+00   999.5171 0.0000e+00
      4.997    12.0597     1.1535     10.679  34.258603     45.992      7.764   211.8751     1.2326    15.8387     0.0240      0.054      4.899      7.106        355 1.5390e+00   999.5214 0.0000e+00
      5.013    12.0268     1.2008     11.108  33.877717     45.683      7.761   212.1022     1.1945    15.7234     0.0239      0.059      4.915      7.128        356 1.4855e+00   999.5275 0.0000e+00
      5.026    12.0190     1.2534     11.586  33.932440     45.720      7.764   212.1022     1.0266    16.9779     0.0239      0.063      4.928      7.148        357 1.4322e+00   999.5345 0.0000e+00
      5.038    12.0097     1.3185     12.182  34.101629     46.100      7.763   212.3672     1.0228    16.9923     0.0240      0.063      4.939      7.164        358 1.4254e+00   999.5384 0.0000e+00
      5.048    11.9933     1.3996     12.926  34.082028     45.996      7.762   212.5565     1.0037    17.0067     0.0240      0.059      4.949      7.178        359 1.4113e+00   999.5393 0.0000e+00
      5.055    11.9791     1.4991     13.839  33.927208     45.857      7.762   212.7458     1.0381    17.1077     0.0239      0.054      4.957      7.189        360 1.4195e+00   999.5404 0.0000e+00
      5.059    11.9741     1.6010     14.771  33.909089     45.802      7.761   213.0865     1.1868    17.9584     0.0239      0.049      4.962      7.198        361 1.4252e+00   999.5423 0.0000e+00
      5.066    11.9697     1.7216     15.870  33.956423     45.933      7.759   213.4272     1.1983    17.9296     0.0239      0.042      4.972      7.211        362 1.3629e+00   999.5440 0.0000e+00
      5.084    11.9417     1.8289     16.846  33.779412     45.674      7.761   213.5408     1.2097    17.8287     0.0238      0.039      4.988      7.235        363 1.2960e+00   999.5446 0.0000e+00
      5.109    11.9096     1.9402     17.866  33.418219     45.188      7.761   214.2222     1.2173    17.9296     0.0236      0.041      5.009      7.265        364 1.2400e+00   999.5450 0.0000e+00
      5.130    11.8932     2.0530     18.914  33.309559     45.071      7.762   214.1087     1.1754    18.7083     0.0235      0.047      5.028      7.293        365 1.1954e+00   999.5483 0.0000e+00
      5.143    11.8613     2.1767     20.055  33.233128     45.037      7.760   214.1844     1.1372    18.5929     0.0235      0.052      5.043      7.313        366 1.1883e+00   999.5519 0.0000e+00
      5.153    11.8265     2.3002     21.191  33.009622     44.713      7.761   214.3737     1.1601    18.4775     0.0234      0.057      5.053      7.329        367 1.1812e+00   999.5537 0.0000e+00
      5.163    11.8072     2.4417     22.483  32.935839     44.679      7.760   214.5630     1.1563    18.5208     0.0233      0.060      5.063      7.344        368 1.1398e+00   999.5574 0.0000e+00
      5.173    11.7881     2.5595     23.543  32.939763     44.720      7.757   214.7144     1.2250    18.1459     0.0233      0.060      5.074      7.359        369 1.1273e+00   999.5613 0.0000e+00
      5.185    11.7699     2.6590     24.436  32.767710     44.516      7.758   215.3580     1.2097    18.1315     0.0232      0.057      5.087      7.378        370 1.0894e+00   999.5634 0.0000e+00
      5.204    11.7440     2.7515     25.271  32.527730     44.198      7.758   215.6987     1.2250    18.1026     0.0231      0.053      5.104      7.401        371 1.0328e+00   999.5655 0.0000e+00
      5.222    11.7082     2.8127     25.830  32.349519     43.992      7.760   215.5094     1.1868    18.0882     0.0230      0.051      5.120      7.425        372 1.0040e+00   999.5676 0.0000e+00
      5.235    11.6726     2.8685     26.343  32.248753     43.870      7.755   215.8880     0.9122    16.8481     0.0229      0.051      5.132      7.444        373 9.5735e-01   999.5705 0.0000e+00
      5.245    11.6633     2.9388     26.972  32.238328     43.914      7.758   216.1530     0.9198    17.0211     0.0229      0.053      5.142      7.458        374 9.4542e-01   999.5744 0.0000e+00
      5.251    11.6806     2.9942     27.455  32.362507     44.108      7.755   216.1530     0.9236    16.7760     0.0230      0.052      5.152      7.472        375 9.2628e-01   999.5785 0.0000e+00
      5.265    11.6846     3.0404     27.863  32.331263     44.122      7.753   215.9637     0.9274    16.7760     0.0230      0.052      5.164      7.490        376 8.9776e-01   999.5796 0.0000e+00
      5.281    11.6786     3.0922     28.332  32.129070     43.754      7.753   216.2287     0.8893    16.8914     0.0229      0.052      5.179      7.511        377 8.7952e-01   999.5777 0.0000e+00
      5.295    11.6565     3.1519     28.877  32.080801     43.753      7.755   216.3422     0.9160    15.7666     0.0229      0.050      5.193      7.532        378 8.5449e-01   999.5772 0.0000e+00
      5.311    11.6134     3.2200     29.498  31.946890     43.529      7.752   216.7587     0.9236    15.6801     0.0228      0.049      5.208      7.552        379 8.1324e-01   999.5779 0.0000e+00
      5.325    11.5729     3.2999     30.232  31.792026     43.366      7.753   216.9101     0.9312    15.7810     0.0227      0.050      5.221      7.572        380 7.7788e-01   999.5803 0.0000e+00
      5.335    11.5464     3.3672     30.852  31.680955     43.265      7.750   216.9480     0.9045    15.6080     0.0226      0.052      5.233      7.590        381 7.7901e-01   999.5851 0.0000e+00
      5.349    11.5420     3.4211     31.344  31.699957     43.313      7.751   217.2130     0.7710    14.6130     0.0226      0.054      5.247      7.610        382 7.4244e-01   999.5896 0.0000e+00
      5.366    11.5416     3.4728     31.813  31.738765     43.459      7.749   217.3265     0.7901    14.5698     0.0227      0.056      5.263      7.633        383 6.9107e-01   999.5925 0.0000e+00
      5.386    11.5154     3.5090     32.141  31.543783     43.120      7.749   217.2130     0.7825    14.6275     0.0225      0.057      5.281      7.659        384 6.6915e-01   999.5930 0.0000e+00
      5.405    11.4755     3.5246     32.286  31.379670     42.967      7.748   217.2887     0.7939    14.4977     0.0225      0.059      5.298      7.684        385 6.3701e-01   999.5930 0.0000e+00
      5.418    11.4505     3.5175     32.229  31.291180     42.807      7.744   217.0615     0.7863    13.0557     0.0224      0.060      5.311      7.703        386 6.2587e-01   999.5960 0.0000e+00
      5.426    11.4416     3.4991     32.086  31.328006     42.970      7.743   217.3265     0.7977    13.0845     0.0224      0.060      5.321      7.718        387 6.2160e-01   999.6004 0.0000e+00
      5.436    11.4381     3.4605     31.766  31.363482     42.998      7.745   216.9480     0.7596    12.9980     0.0224      0.058      5.330      7.731        388 6.0414e-01   999.6031 0.0000e+00
      5.443    11.4346     3.4247     31.453  31.335926     43.009      7.741   217.7808     0.8130    13.0990     0.0224      0.055      5.337      7.740        389 6.1188e-01   999.6040 0.0000e+00
      5.446    11.4371     3.3908     31.141  31.362303     43.013      7.740   217.5537     0.7367    11.9454     0.0224      0.048      5.341      7.746        390 6.0177e-01   999.6045 0.0000e+00
      5.450    11.4419     3.3561     30.814  31.389914     43.094      7.734   217.6672     0.7176    11.9886     0.0225      0.040      5.343      7.750        391 5.9497e-01   999.6048 0.0000e+00
      5.451    11.4404     3.3172     30.447  31.390450     43.053      7.733   217.4780     0.7176    11.8589     0.0225      0.031      5.345      7.753        392 6.1886e-01   999.6046 0.0000e+00
      5.453    11.4332     3.2710     30.024  31.450521     43.162      7.733   217.5537     0.7558    11.9886     0.0225      0.023      5.347      7.756        393 6.1577e-01   999.6041 0.0000e+00
      5.454    11.4281     3.2225     29.589  31.463299     43.164      7.729   217.4022     0.8816    11.6282     0.0225      0.017      5.349      7.758        394 5.9297e-01   999.6043 0.0000e+00
      5.457    11.4303     3.1676     29.085  31.463434     43.172      7.728   217.7051     0.9122    11.6714     0.0225      0.013      5.351      7.760        395 5.9063e-01   999.6051 0.0000e+00
      5.457    11.4417     3.1230     28.674  31.509611     43.255      7.725   217.8565     0.8969    11.7002     0.0225      0.010      5.352      7.762        396 5.9450e-01   999.6057 0.0000e+00
      5.458    11.4769     3.0724     28.227  31.465091     43.175      7.723   218.0837     0.9007    11.6137     0.0225      0.007      5.353      7.764        397 5.8543e-01   999.6054 0.0000e+00
      5.460    11.5222     3.0284     27.853  31.578094     43.316      7.723   218.2730     0.9007    11.6858     0.0226      0.007      5.355      7.766        398 5.9609e-01   999.6043 0.0000e+00
      5.461    11.5445     2.9891     27.534  31.694888     43.465      7.717   218.2730     0.7710    12.1905     0.0227      0.006      5.356      7.768        399 5.9346e-01   999.6005 0.0000e+00
      5.462    11.5438     2.9565     27.286  31.704902     43.372      7.715   218.4244     0.7825    12.2049     0.0226      0.006      5.357      7.769        400 5.7353e-01   999.5956 0.0000e+00
      5.463    11.5311     2.9160     26.967  31.802646     43.537      7.713   218.2730     0.8015    12.2049     0.0227      0.005      5.357      7.770        401 5.9529e-01   999.5932 0.0000e+00
      5.463    11.5187 -9.990e-29 -9.990e-29  31.839897     43.538      7.713   218.1215     0.8092    12.1328     0.0227      0.004      5.358      7.771        402 5.9076e-01   999.5933 0.0000e+00
      5.463    11.5209 -9.990e-29 -9.990e-29  31.865947     43.630      7.709   217.7808     0.9160    12.3347     0.0227      0.004      5.358      7.772        403 6.1149e-01   999.5947 0.0000e+00
      5.465    11.5347 -9.990e-29 -9.990e-29  31.888749     43.645      7.706   218.1215     0.9007    12.4068     0.0227      0.003      5.359      7.773        404 6.1381e-01   999.5961 0.0000e+00
      5.465    11.5337 -9.990e-29 -9.990e-29  31.841152     43.604      7.703   217.8944     0.8893    12.3347     0.0227      0.003      5.360      7.773        405 5.7625e-01   999.5958 0.0000e+00
      5.466    11.5347 -9.990e-29 -9.990e-29  31.895550     43.625      7.704   218.1973     0.9007    12.3491     0.0227      0.003      5.360      7.774        406 5.8838e-01   999.5943 0.0000e+00
      5.466    11.5583 -9.990e-29 -9.990e-29  32.087710     43.931      7.701   218.1215     0.9694    11.9021     0.0229      0.002      5.360      7.774        407 6.0454e-01   999.5946 0.0000e+00
      5.466    11.6102 -9.990e-29 -9.990e-29  32.253854     44.124      7.698   217.8944     0.9694    11.9021     0.0230      0.002      5.360      7.774        408 5.9863e-01   999.5945 0.0000e+00
      5.466    11.6707 -9.990e-29 -9.990e-29  32.399890     44.321      7.696   219.1437     0.9694    11.7723     0.0231      0.002      5.360      7.774        409 5.9899e-01   999.5921 0.0000e+00
      5.466    11.7652 -9.990e-29 -9.990e-29  32.646703     44.568      7.692   219.4087     1.0113    11.8877     0.0232      0.001      5.360      7.774        410 6.0267e-01   999.5865 0.0000e+00
      5.466    11.8373 -9.990e-29 -9.990e-29  32.805950     44.753      7.692   219.9008     1.7819    12.6375     0.0233      0.001      5.361      7.775        411 5.9448e-01   999.5799 0.0000e+00
      5.466 -9.990e-29 -9.990e-29 -9.990e-29  32.912806     44.727      7.691   219.9008     1.7743    12.6664     0.0233      0.001      5.361      7.775        412 6.0759e-01   999.5695 0.0000e+00
      5.467 -9.990e-29 -9.990e-29 -9.990e-29  33.017402     44.845      7.687   220.5065     1.7362    12.5078     0.0234      0.000      5.361      7.775        413 6.1723e-01   999.5615 0.0000e+00
