* Sea-Bird SBE19plus  Data File:
* FileName = C:\DATA\0772919_fcr_0001.hex
* Software version 2.8.0.119
* Temperature SN = 7809
* Conductivity SN = 7809
* System UpLoad Time = Jul 29 2019 16:11:48
* <ApplicationData>
* <Seaterm232>
* <SoftwareVersion>2.8.0.119</SoftwareVersion>
* <BuildDate>07-Nov-2018</BuildDate>
* </Seaterm232>
* </ApplicationData>
* <InstrumentState>
* <HardwareData DeviceType='SBE19plus' SerialNumber='01907809'>
*
*    <Manufacturer>Sea-Bird Electronics, Inc.</Manufacturer>
*
*    <FirmwareVersion>3.1.8</FirmwareVersion>
*
*    <FirmwareDate>Mar  9 2016 16:22:29</FirmwareDate>
*
*    <CommandSetVersion>1.4</CommandSetVersion>
*
*    <PCBAssembly PCBSerialNum='120721' AssemblyNum='41054J'/>
*
*    <PCBAssembly PCBSerialNum='120715' AssemblyNum='41967A'/>
*
*    <PCBAssembly PCBSerialNum='116699' AssemblyNum='41606'/>
*
*    <PCBAssembly PCBSerialNum='120719' AssemblyNum='41059D'/>
*
*    <MfgDate>28-Apr-2017</MfgDate>
*
*    <InternalSensors>
*
*       <Sensor id='Main Temperature'>
*
*          <type>temperature0</type>
*
*          <SerialNumber>01907809</SerialNumber>
*
*       </Sensor>
*
*       <Sensor id='Main Conductivity'>
*
*          <type>conductivity-0</type>
*
*          <SerialNumber>01907809</SerialNumber>
*
*       </Sensor>
*
*       <Sensor id='Main Pressure'>
*
*          <type>strain-0</type>
*
*          <SerialNumber>10586018</SerialNumber>
*
*       </Sensor>
*
*    </InternalSensors>
*
*    <ExternalSensors>
*
*       <Sensor id='volt 0'>
*
*          <type>pH</type>
*
*          <SerialNumber>27-0363</SerialNumber>
*
*       </Sensor>
*
*       <Sensor id='volt 1'>
*
*          <type>ORP</type>
*
*          <SerialNumber>27-0363</SerialNumber>
*
*       </Sensor>
*
*       <Sensor id='volt 2'>
*
*          <type>OXY</type>
*
*          <SerialNumber>43-0434</SerialNumber>
*
*       </Sensor>
*
*       <Sensor id='volt 3'>
*
*          <type>PAR</type>
*
*          <SerialNumber>1122</SerialNumber>
*
*       </Sensor>
*
*       <Sensor id='volt 4'>
*
*          <type>ECO AFL/FL</type>
*
*          <SerialNumber>FLNTURT-2496</SerialNumber>
*
*       </Sensor>
*
*       <Sensor id='volt 5'>
*
*          <type>ECO-NTU</type>
*
*          <SerialNumber>FLNTURT-2496</SerialNumber>
*
*       </Sensor>
*
*       <Sensor id='serial'>
*
*          <type>not assigned</type>
*
*          <SerialNumber>not assigned</SerialNumber>
*
*       </Sensor>
*
*    </ExternalSensors>
*
* </HardwareData>
* <StatusData DeviceType='SBE19plus' SerialNumber='01907809'>
*
*    <DateTime>2019-07-29T16:10:52</DateTime>
*
*    <LoggingState>not logging</LoggingState>
*
*    <EventSummary numEvents='0'/>
*
*    <Power>
*
*       <vMain>12.3</vMain>
*
*       <vLith>9.0</vLith>
*
*       <iMain>63.1</iMain>
*
*       <iPump>39.9</iPump>
*
*       <iExt01>19.0</iExt01>
*
*       <iExt2345>36.2</iExt2345>
*
*    </Power>
*
*    <MemorySummary>
*
*       <Bytes>44160</Bytes>
*
*       <Samples>1920</Samples>
*
*       <SamplesFree>2858868</SamplesFree>
*
*       <SampleLength>23</SampleLength>
*
*       <Profiles>4</Profiles>
*
*    </MemorySummary>
*
* </StatusData>
* <ConfigurationData DeviceType='SBE19plus' SerialNumber='01907809'>
*
*    <ProfileMode>
*
*       <ScansToAverage>1</ScansToAverage>
*
*       <MinimumCondFreq>5</MinimumCondFreq>
*
*       <PumpDelay>45</PumpDelay>
*
*       <AutoRun>no</AutoRun>
*
*       <IgnoreSwitch>no</IgnoreSwitch>
*
*    </ProfileMode>
*
*    <Battery>
*
*       <Type>alkaline</Type>
*
*       <CutOff>7.5</CutOff>
*
*    </Battery>
*
*    <DataChannels>
*
*       <ExtVolt0>yes</ExtVolt0>
*
*       <ExtVolt1>yes</ExtVolt1>
*
*       <ExtVolt2>yes</ExtVolt2>
*
*       <ExtVolt3>yes</ExtVolt3>
*
*       <ExtVolt4>yes</ExtVolt4>
*
*       <ExtVolt5>yes</ExtVolt5>
*
*       <SBE38>no</SBE38>
*
*       <WETLABS>no</WETLABS>
*
*       <OPTODE>no</OPTODE>
*
*       <SBE63>no</SBE63>
*
*       <SeaFET>no</SeaFET>
*
*       <GTD>no</GTD>
*
*    </DataChannels>
*
*    <EchoCharacters>yes</EchoCharacters>
*
*    <OutputExecutedTag>yes</OutputExecutedTag>
*
*    <OutputFormat>raw HEX</OutputFormat>
*
* </ConfigurationData>
* <CalibrationCoefficients DeviceType='SBE19plus' SerialNumber='01907809'>
*
*    <Calibration format='TEMP1' id='Main Temperature'>
*
*       <SerialNum>01907809</SerialNum>
*
*       <CalDate>24-Mar-19</CalDate>
*
*       <TA0>1.217923e-03</TA0>
*
*       <TA1>2.816693e-04</TA1>
*
*       <TA2>-1.603333e-06</TA2>
*
*       <TA3>1.984146e-07</TA3>
*
*       <TOFFSET>0.000000e+00</TOFFSET>
*
*    </Calibration>
*
*    <Calibration format='WBCOND0' id='Main Conductivity'>
*
*       <SerialNum>01907809</SerialNum>
*
*       <CalDate>24-Mar-19</CalDate>
*
*       <G>-1.005893e+00</G>
*
*       <H>1.268163e-01</H>
*
*       <I>-1.515604e-04</I>
*
*       <J>2.671373e-05</J>
*
*       <CPCOR>-9.570000e-08</CPCOR>
*
*       <CTCOR>3.250000e-06</CTCOR>
*
*       <CSLOPE>1.000000e+00</CSLOPE>
*
*    </Calibration>
*
*    <Calibration format='STRAIN0' id='Main Pressure'>
*
*       <SerialNum>10586018</SerialNum>
*
*       <CalDate>11-Mar-19</CalDate>
*
*       <PA0>4.565618e-02</PA0>
*
*       <PA1>4.850951e-04</PA1>
*
*       <PA2>-2.883271e-12</PA2>
*
*       <PTCA0>5.252467e+05</PTCA0>
*
*       <PTCA1>1.223042e+01</PTCA1>
*
*       <PTCA2>-3.567450e-01</PTCA2>
*
*       <PTCB0>2.516687e+01</PTCB0>
*
*       <PTCB1>3.750000e-04</PTCB1>
*
*       <PTCB2>0.000000e+00</PTCB2>
*
*       <PTEMPA0>-5.487846e+01</PTEMPA0>
*
*       <PTEMPA1>5.537568e+01</PTEMPA1>
*
*       <PTEMPA2>-5.867271e-01</PTEMPA2>
*
*       <POFFSET>7.140000e-01</POFFSET>
*
*       <PRANGE>1.600000e+02</PRANGE>
*
*    </Calibration>
*
*    <Calibration format='VOLT0' id='Volt 0'>
*
*       <OFFSET>-4.920000e-02</OFFSET>
*
*       <SLOPE>1.248122e+00</SLOPE>
*
*    </Calibration>
*
*    <Calibration format='VOLT0' id='Volt 1'>
*
*       <OFFSET>-4.784000e-02</OFFSET>
*
*       <SLOPE>1.248871e+00</SLOPE>
*
*    </Calibration>
*
*    <Calibration format='VOLT0' id='Volt 2'>
*
*       <OFFSET>-4.864632e-02</OFFSET>
*
*       <SLOPE>1.248714e+00</SLOPE>
*
*    </Calibration>
*
*    <Calibration format='VOLT0' id='Volt 3'>
*
*       <OFFSET>-4.743790e-02</OFFSET>
*
*       <SLOPE>1.248571e+00</SLOPE>
*
*    </Calibration>
*
*    <Calibration format='VOLT0' id='Volt 4'>
*
*       <OFFSET>-4.671263e-02</OFFSET>
*
*       <SLOPE>1.248951e+00</SLOPE>
*
*    </Calibration>
*
*    <Calibration format='VOLT0' id='Volt 5'>
*
*       <OFFSET>-4.871053e-02</OFFSET>
*
*       <SLOPE>1.249136e+00</SLOPE>
*
*    </Calibration>
*
*    <Calibration format='FREQ0' id='external frequency channel'>
*
*       <EXTFREQSF>1.000014e+00</EXTFREQSF>
*
*    </Calibration>
*
* </CalibrationCoefficients>
* <EventCounters DeviceType='SBE19plus' SerialNumber='01907809'>
*
*    <EventSummary numEvents='0'/>
*
* </EventCounters></InstrumentState>
* <Headers>
*
* cast   1 29 Jul 2019 11:20:30 samples 1 to 361, avg = 1, stop = mag switch
*
# nquan = 18
# nvalues = 238                         
# units = specified
# name 0 = depFM: Depth [fresh water, m]
# name 1 = tv290C: Temperature [ITS-90, deg C]
# name 2 = sbeox0Mg/L: Oxygen, SBE 43 [mg/l]
# name 3 = sbeox0PS: Oxygen, SBE 43 [% saturation]
# name 4 = c0uS/cm: Conductivity [uS/cm]
# name 5 = specc: Specific Conductance [uS/cm]
# name 6 = ph: pH
# name 7 = orp: Oxidation Reduction Potential [mV]
# name 8 = flECO-AFL: Fluorescence, WET Labs ECO-AFL/FL [mg/m^3]
# name 9 = turbWETntu0: Turbidity, WET Labs ECO [NTU]
# name 10 = sal00: Salinity, Practical [PSU]
# name 11 = dz/dtM: Descent Rate [m/s]
# name 12 = prdM: Pressure, Strain Gauge [db]
# name 13 = prdE: Pressure, Strain Gauge [psi]
# name 14 = scan: Scan Count
# name 15 = par/sat/log: PAR/Logarithmic, Satlantic
# name 16 = density00: Density [density, kg/m^3]
# name 17 = flag:  0.000e+00
# span 0 =     -0.550,      2.331       
# span 1 =    23.1518,    25.9003       
# span 2 =     1.0785,     9.2143       
# span 3 =     12.654,    109.949       
# span 4 =   1.358929,  63.905789       
# span 5 =      1.413,     66.270       
# span 6 =      7.984,      8.607       
# span 7 =    40.0410,   673.8471       
# span 8 =    -0.1254,   243.6184       
# span 9 =    -2.8493,     4.5336       
# span 10 =     0.0122,     0.0365      
# span 11 =     -0.015,      0.264      
# span 12 =     -0.539,      2.286      
# span 13 =     -0.781,      3.315      
# span 14 =          1,        238      
# span 15 = 3.9003e+01, 1.7773e+03      
# span 16 =   996.8175,   997.5402      
# span 17 = 0.0000e+00, 0.0000e+00      
# interval = seconds: 0.25
# start_time = Jul 29 2019 11:20:30 [Instrument's time stamp, header]
# bad_flag = -9.990e-29
# <Sensors count="9" >
#   <sensor Channel="1" >
#     <!-- Count, Temperature -->
#     <TemperatureSensor SensorID="58" >
#       <SerialNumber>7809</SerialNumber>
#       <CalibrationDate>24-Mar-19</CalibrationDate>
#       <A0>1.21792325e-003</A0>
#       <A1>2.81669265e-004</A1>
#       <A2>-1.60333336e-006</A2>
#       <A3>1.98414625e-007</A3>
#       <Slope>1.00000000</Slope>
#       <Offset>0.0000</Offset>
#     </TemperatureSensor>
#   </sensor>
#   <sensor Channel="2" >
#     <!-- Frequency 0, Conductivity -->
#     <ConductivitySensor SensorID="3" >
#       <SerialNumber>7809</SerialNumber>
#       <CalibrationDate>24-Mar-19</CalibrationDate>
#       <UseG_J>1</UseG_J>
#       <!-- Cell const and series R are applicable only for wide range sensors. -->
#       <SeriesR>0.0000</SeriesR>
#       <CellConst>2000.0000</CellConst>
#       <ConductivityType>0</ConductivityType>
#       <Coefficients equation="0" >
#         <A>0.00000000e+000</A>
#         <B>0.00000000e+000</B>
#         <C>0.00000000e+000</C>
#         <D>0.00000000e+000</D>
#         <M>0.0</M>
#         <CPcor>-9.57000000e-008</CPcor>
#       </Coefficients>
#       <Coefficients equation="1" >
#         <G>-1.00589325e+000</G>
#         <H>1.26816302e-001</H>
#         <I>-1.51560448e-004</I>
#         <J>2.67137274e-005</J>
#         <CPcor>-9.57000000e-008</CPcor>
#         <CTcor>3.2500e-006</CTcor>
#         <!-- WBOTC not applicable unless ConductivityType = 1. -->
#         <WBOTC>0.00000000e+000</WBOTC>
#       </Coefficients>
#       <Slope>1.00000000</Slope>
#       <Offset>0.00000</Offset>
#     </ConductivitySensor>
#   </sensor>
#   <sensor Channel="3" >
#     <!-- Count, Pressure, Strain Gauge -->
#     <PressureSensor SensorID="46" >
#       <SerialNumber>7809</SerialNumber>
#       <CalibrationDate>11-Mar-19</CalibrationDate>
#       <PA0>4.56561833e-002</PA0>
#       <PA1>4.85095118e-004</PA1>
#       <PA2>-2.88327090e-012</PA2>
#       <PTEMPA0>-5.48784562e+001</PTEMPA0>
#       <PTEMPA1>5.53756816e+001</PTEMPA1>
#       <PTEMPA2>-5.86727098e-001</PTEMPA2>
#       <PTCA0>5.25246745e+005</PTCA0>
#       <PTCA1>1.22304214e+001</PTCA1>
#       <PTCA2>-3.56745036e-001</PTCA2>
#       <PTCB0>2.51668750e+001</PTCB0>
#       <PTCB1>3.75000000e-004</PTCB1>
#       <PTCB2>0.00000000e+000</PTCB2>
#       <Offset>0.000000</Offset>
#     </PressureSensor>
#   </sensor>
#   <sensor Channel="4" >
#     <!-- A/D voltage 0, Oxygen, SBE 43 -->
#     <OxygenSensor SensorID="38" >
#       <SerialNumber>0434</SerialNumber>
#       <CalibrationDate>13-Apr-19</CalibrationDate>
#       <Use2007Equation>1</Use2007Equation>
#       <CalibrationCoefficients equation="0" >
#         <!-- Coefficients for Owens-Millard equation. -->
#         <Boc>0.0000</Boc>
#         <Soc>0.0000e+000</Soc>
#         <offset>0.0000</offset>
#         <Pcor>0.00e+000</Pcor>
#         <Tcor>0.0000</Tcor>
#         <Tau>0.0</Tau>
#       </CalibrationCoefficients>
#       <CalibrationCoefficients equation="1" >
#         <!-- Coefficients for Sea-Bird equation - SBE calibration in 2007 and later. -->
#         <Soc>4.2007e-001</Soc>
#         <offset>-0.6109</offset>
#         <A>-4.3656e-003</A>
#         <B> 1.7017e-004</B>
#         <C>-2.5341e-006</C>
#         <D0> 2.5826e+000</D0>
#         <D1> 1.92634e-004</D1>
#         <D2>-4.64803e-002</D2>
#         <E> 3.6000e-002</E>
#         <Tau20> 1.1800</Tau20>
#         <H1>-3.3000e-002</H1>
#         <H2> 5.0000e+003</H2>
#         <H3> 1.4500e+003</H3>
#       </CalibrationCoefficients>
#     </OxygenSensor>
#   </sensor>
#   <sensor Channel="5" >
#     <!-- A/D voltage 1, PAR/Logarithmic, Satlantic -->
#     <PARLog_SatlanticSensor SensorID="76" >
#       <SerialNumber>1122</SerialNumber>
#       <CalibrationDate>08-May-2019</CalibrationDate>
#       <a0>9.7456e-001</a0>
#       <a1>8.1640e-001</a1>
#       <Im>1.3589e+000</Im>
#       <Multiplier>1.0000e+000</Multiplier>
#     </PARLog_SatlanticSensor>
#   </sensor>
#   <sensor Channel="6" >
#     <!-- A/D voltage 2, pH -->
#     <pH_Sensor SensorID="43" >
#       <SerialNumber>0363</SerialNumber>
#       <CalibrationDate>15-Apr-19</CalibrationDate>
#       <Slope>4.5952</Slope>
#       <Offset>2.5370</Offset>
#     </pH_Sensor>
#   </sensor>
#   <sensor Channel="7" >
#     <!-- A/D voltage 3, Oxidation Reduction Potential -->
#     <OxidationReductionPotentialSensor SensorID="41" >
#       <SerialNumber>0363</SerialNumber>
#       <CalibrationDate>15-Apr-19</CalibrationDate>
#       <B>2.499480</B>
#       <M>-0.496195</M>
#       <Offset>0.0</Offset>
#     </OxidationReductionPotentialSensor>
#   </sensor>
#   <sensor Channel="8" >
#     <!-- A/D voltage 4, Fluorometer, WET Labs ECO-AFL/FL -->
#     <FluoroWetlabECO_AFL_FL_Sensor SensorID="20" >
#       <SerialNumber>FLNTURT-2496</SerialNumber>
#       <CalibrationDate>08-May-2019</CalibrationDate>
#       <ScaleFactor>5.00000000e+001</ScaleFactor>
#       <!-- Dark output -->
#       <Vblank>0.0550</Vblank>
#     </FluoroWetlabECO_AFL_FL_Sensor>
#   </sensor>
#   <sensor Channel="9" >
#     <!-- A/D voltage 5, Turbidity Meter, WET Labs, ECO-NTU -->
#     <TurbidityMeter SensorID="67" >
#       <SerialNumber>FLNTURT-2496</SerialNumber>
#       <CalibrationDate>08-May-2019</CalibrationDate>
#       <ScaleFactor>189.000000</ScaleFactor>
#       <!-- Dark output -->
#       <DarkVoltage>0.071000</DarkVoltage>
#     </TurbidityMeter>
#   </sensor>
# </Sensors>
# datcnv_date = Jul 29 2019 16:17:39, 7.26.7.129 [datcnv_vars = 17]
# datcnv_in = C:\DATA\0772919_fcr10.hex C:\DATA\SBE19plusV2_7809.xmlcon
# datcnv_skipover = 0
# datcnv_ox_hysteresis_correction = yes
# datcnv_ox_tau_correction = yes
# filter_date = Jul 29 2019 16:17:58, 7.26.7.129
# filter_in = C:\DATA\0772919_fcr10.cnv
# filter_low_pass_tc_A = 0.030
# filter_low_pass_tc_B = 0.150
# filter_low_pass_A_vars = tv290C c0uS/cm par/sat/log density00
# filter_low_pass_B_vars = prdM prdE
# alignctd_date = Jul 29 2019 16:18:22, 7.26.7.129
# alignctd_in = C:\DATA\0772919_fcr10.cnv
# alignctd_adv = tv290C 0.500, sbeox0Mg/L 3.000, sbeox0PS 3.000                                                                                                                                                                      
# file_type = ascii
*END*
     -0.548    25.9003     6.9920     85.996   1.498965      1.468      8.081    94.7448    -0.0759    -0.4845     0.0122 4.2106e-16     -0.538     -0.780          1 1.5350e+02   996.8175 0.0000e+00
     -0.548    25.8983     6.9926     85.999   1.546455      1.523      8.082    97.1298    -0.1026    -0.4556     0.0122     -0.000     -0.538     -0.780          2 1.6794e+02   996.8180 0.0000e+00
     -0.548    25.8962     6.9992     86.067   1.551039      1.523      8.082    86.7190    -0.1102    -0.5854     0.0122     -0.000     -0.538     -0.780          3 2.0141e+02   996.8186 0.0000e+00
     -0.548    25.8941     7.0003     86.068   1.493260      1.468      8.078    74.4911    -0.0835    -0.5854     0.0122     -0.000     -0.538     -0.780          4 1.9880e+02   996.8191 0.0000e+00
     -0.548    25.8926     7.0031     86.096   1.500028      1.468      8.075    76.8761    -0.0835    -0.4845     0.0122     -0.000     -0.538     -0.780          5 1.5241e+02   996.8196 0.0000e+00
     -0.548    25.8913     7.0093     86.168   1.483450      1.468      8.066    77.2168    -0.1254    -0.5421     0.0122     -0.000     -0.538     -0.780          6 1.2487e+02   996.8202 0.0000e+00
     -0.549    25.8900     6.9983     86.029   1.454726      1.413      8.061    72.8633    -0.1102    -0.4845     0.0122     -0.000     -0.538     -0.781          7 1.2289e+02   996.8206 0.0000e+00
     -0.549    25.8879     7.0037     86.091   1.535776      1.523      8.068    40.0410    -0.0835    -0.4845     0.0122     -0.000     -0.539     -0.781          8 1.3000e+02   996.8210 0.0000e+00
     -0.550    25.8848     7.0048     86.099   1.560082      1.523      8.113   318.2161    -0.1026    -0.4989     0.0122     -0.001     -0.539     -0.781          9 1.2466e+02   996.8213 0.0000e+00
     -0.549    25.8819     7.0098     86.131   1.542809      1.523      8.077   303.3004    -0.1102    -0.4845     0.0122     -0.001     -0.538     -0.781         10 1.3429e+02   996.8218 0.0000e+00
     -0.549    25.8800     7.0160     86.147   1.557272      1.523      8.070   326.5068    -0.0949    -0.5277     0.0122     -0.001     -0.538     -0.781         11 1.1744e+02   996.8227 0.0000e+00
     -0.549    25.8766     7.0249     86.215   1.542083      1.523      8.067   363.5312    -0.0606    -0.5133     0.0122     -0.000     -0.538     -0.781         12 1.3902e+02   996.8234 0.0000e+00
     -0.549    25.8685     7.0316     86.276   1.620878      1.578      8.063   402.6756    -0.0682     0.1933     0.0122     -0.000     -0.538     -0.781         13 2.3225e+02   996.8240 0.0000e+00
     -0.550    25.8609     7.0424     86.401   1.636711      1.633      8.069   447.4986    -0.0873     0.2365     0.0122     -0.000     -0.538     -0.781         14 1.5634e+02   996.8249 0.0000e+00
     -0.549    25.8569     7.0595     86.620   1.788627      1.715      8.071   489.6337    -0.0835     0.1356     0.0122     -0.000     -0.538     -0.781         15 1.6094e+02   996.8269 0.0000e+00
     -0.549    25.8540     7.0765     86.849   1.727655      1.770      8.073   528.8917    -0.0987     0.1356     0.0122     -0.000     -0.539     -0.781         16 1.7633e+02   996.8290 0.0000e+00
     -0.549    25.8510     7.1122     87.313   1.771756      1.634      8.075   565.0075    -0.0949    -0.4700     0.0122     -0.000     -0.539     -0.781         17 2.4414e+02   996.8301 0.0000e+00
     -0.549    25.8485     7.1674     88.011   1.437910      1.579      8.071   621.1498    -0.0835    -0.5277     0.0122     -0.000     -0.539     -0.780         18 1.7233e+02   996.8307 0.0000e+00
     -0.550    25.8448     7.2335     88.832   1.936037      1.634      8.068   673.8471    -0.0835    -0.4845     0.0122     -0.000     -0.535     -0.775         19 3.2832e+02   996.8317 0.0000e+00
     -0.540    25.8228     7.3013     89.664   1.358929      1.771      7.984   413.8814    -0.0797    -0.4556     0.0122      0.002     -0.512     -0.744         20 1.4507e+03   996.8321 0.0000e+00
     -0.473    25.7848     7.3666     90.441   8.399014      7.227      8.061   239.0566   243.5268    -2.8349     0.0135      0.022     -0.461     -0.669         21 1.6149e+03   996.8349 0.0000e+00
     -0.402    25.7580     7.4345     91.236  27.777670     28.254      8.211   241.7445   243.5878    -2.7195     0.0212      0.055     -0.394     -0.572         22 1.7773e+03   996.8463 0.0000e+00
     -0.331    25.7448     7.4658     91.574  37.258992     36.412      8.330   238.9052   243.6184    -2.7484     0.0244      0.096     -0.327     -0.476         23 1.5984e+03   996.8594 0.0000e+00
     -0.270    25.7400     7.4862     91.776  36.878544     36.486      8.398   234.7787   243.6069    -2.8493     0.0245      0.140     -0.267     -0.387         24 6.1834e+02   996.8667 0.0000e+00
     -0.217    25.7455     7.6229     93.411  37.199162     36.551      8.446   233.1509   243.5840    -2.8205     0.0245      0.179     -0.210     -0.303         25 1.6240e+03   996.8704 0.0000e+00
     -0.154    25.7582     7.8608     96.296  37.097080     36.609      8.465   227.5101     6.1422     4.4183     0.0245      0.213     -0.143     -0.207         26 1.7279e+03   996.8720 0.0000e+00
     -0.061    25.7748     8.1238     99.501  37.183399     36.605      8.483   225.6173     6.1613     4.4615     0.0245      0.246     -0.067     -0.097         27 1.1275e+03   996.8710 0.0000e+00
      0.006    25.7873     8.3422    102.171  37.032468     36.486      8.497   225.8066     6.1651     4.5336     0.0245      0.264     -0.002     -0.002         28 1.0660e+03   996.8678 0.0000e+00
      0.050    25.7935     8.4847    103.924  37.047824     36.474      8.505   227.1694     6.1727     4.4759     0.0245      0.260      0.047      0.067         29 2.3312e+02   996.8637 0.0000e+00
      0.086    25.7924     8.5582    104.834  37.045740     36.465      8.507   226.6394     6.7564     3.3800     0.0245      0.249      0.087      0.126         30 6.3314e+01   996.8606 0.0000e+00
      0.133    25.7776     8.5392    104.608  37.153596     36.571      8.505   225.9201     6.7373     3.3368     0.0245      0.236      0.126      0.183         31 1.3991e+02   996.8592 0.0000e+00
      0.167    25.7538     8.4470    103.482  37.091408     36.516      8.503   224.9358     6.7793     3.3800     0.0245      0.222      0.157      0.228         32 7.9294e+01   996.8595 0.0000e+00
      0.180    25.7268     8.2874    101.529  37.063863     36.472      8.506   224.5194     6.7983     3.3079     0.0245      0.197      0.172      0.250         33 1.2107e+02   996.8635 0.0000e+00
      0.181    25.6985     8.1183     99.461  37.069342     36.544      8.505   224.2166     6.8136     3.6252     0.0245      0.161      0.176      0.255         34 1.0395e+02   996.8699 0.0000e+00
      0.178    25.6742     7.9760     97.722  36.877155     36.316      8.502   223.2323     6.8060     3.5963     0.0244      0.119      0.176      0.256         35 1.1949e+02   996.8769 0.0000e+00
      0.182    25.6569     7.8782     96.528  36.828886     36.336      8.502   222.7780     6.8441     3.5819     0.0244      0.087      0.179      0.260         36 1.2738e+02   996.8843 0.0000e+00
      0.189    25.6476     7.8270     95.911  36.833074     36.326      8.500   221.9830     6.8060     3.5387     0.0244      0.062      0.184      0.267         37 1.3920e+02   996.8908 0.0000e+00
      0.192    25.6454     7.8136     95.755  36.783052     36.311      8.503   221.0744     7.0539     3.1061     0.0244      0.040      0.186      0.270         38 1.3875e+02   996.8953 0.0000e+00
      0.189    25.6489     7.8431     96.125  36.861512     36.373      8.504   220.8094     7.0463     3.1205     0.0244      0.021      0.184      0.268         39 1.5025e+02   996.8977 0.0000e+00
      0.185    25.6542     7.8855     96.653  36.883612     36.429      8.508   220.8473     7.0463     3.0340     0.0244      0.008      0.182      0.265         40 1.6131e+02   996.8983 0.0000e+00
      0.185    25.6579     7.9227     97.115  36.814820     36.317      8.510   220.8094     7.0844     3.1493     0.0244      0.004      0.183      0.266         41 1.7381e+02   996.8973 0.0000e+00
      0.192    25.6597     7.9590     97.568  36.858216     36.395      8.514   220.5444     7.4697     3.2503     0.0244      0.005      0.187      0.271         42 1.8424e+02   996.8960 0.0000e+00
      0.195    25.6611     7.9928     97.993  36.859240     36.365      8.517   220.3173     7.4697     3.1637     0.0244      0.005      0.191      0.277         43 1.8457e+02   996.8950 0.0000e+00
      0.197    25.6630     8.0124     98.244  36.843179     36.364      8.522   220.5823     7.4697     3.1637     0.0244      0.005      0.192      0.278         44 1.6006e+02   996.8946 0.0000e+00
      0.193    25.6653     8.0165     98.302  36.907837     36.418      8.524   219.6358     7.4850     3.1061     0.0244      0.003      0.187      0.272         45 1.5153e+02   996.8943 0.0000e+00
      0.182    25.6681     8.0106     98.237  36.897313     36.417      8.529   220.2794     7.7864     3.1637     0.0244      0.001      0.180      0.262         46 1.7452e+02   996.8937 0.0000e+00
      0.178    25.6729     8.0053     98.176  36.915544     36.415      8.528   219.9387     7.7787     3.1061     0.0244     -0.002      0.180      0.261         47 1.8128e+02   996.8930 0.0000e+00
      0.192    25.6785     8.0062     98.190  36.974053     36.496      8.529   199.6851     7.8054     3.1349     0.0244     -0.001      0.188      0.272         48 1.4846e+02   996.8924 0.0000e+00
      0.203    25.6831     8.0192     98.352  36.913404     36.410      8.530   212.0265     7.8016     3.1349     0.0244      0.002      0.197      0.285         49 1.3197e+02   996.8911 0.0000e+00
      0.206    25.6873     8.0464     98.687  36.902113     36.406      8.531   219.1058     7.7749     3.0484     0.0244      0.004      0.200      0.290         50 1.3087e+02   996.8897 0.0000e+00
      0.203    25.6912     8.0630     98.890  36.899196     36.402      8.534   219.8251     8.4806     3.0916     0.0244      0.006      0.198      0.288         51 1.2231e+02   996.8884 0.0000e+00
      0.198    25.6956     8.0608     98.862  36.857762     36.344      8.537   220.0523     8.4883     3.1061     0.0244      0.007      0.195      0.283         52 1.2072e+02   996.8873 0.0000e+00
      0.195    25.7015     8.0173     98.330  36.864771     36.369      8.539   219.7873     8.4768     3.1061     0.0244      0.008      0.193      0.281         53 1.2131e+02   996.8863 0.0000e+00
      0.199    25.7074     7.9476     97.476  36.920106     36.393      8.538   219.3330     8.4654     3.1926     0.0244      0.008      0.198      0.286         54 1.2381e+02   996.8851 0.0000e+00
      0.211    25.7123     7.8518     96.301  36.966706     36.472      8.543   217.9701     8.2441     3.0484     0.0244      0.008      0.208      0.301         55 1.2438e+02   996.8837 0.0000e+00
      0.227    25.7157     7.7491     95.038  36.925316     36.385      8.545   217.1751     8.2594     3.1349     0.0244      0.009      0.221      0.320         56 1.2119e+02   996.8822 0.0000e+00
      0.239    25.7180     7.6748     94.124  36.971612     36.464      8.545   200.6693     8.2594     3.2503     0.0244      0.014      0.231      0.335         57 1.1444e+02   996.8810 0.0000e+00
      0.241    25.7200     7.6267     93.530  36.997994     36.461      8.542   203.5844     8.2403     3.1205     0.0244      0.021      0.233      0.339         58 1.0658e+02   996.8801 0.0000e+00
      0.235    25.7213     7.6131     93.362  36.922118     36.405      8.547   213.7301     8.7133     3.0051     0.0244      0.024      0.230      0.334         59 9.9975e+01   996.8794 0.0000e+00
      0.228    25.7219     7.6339     93.614  36.917862     36.376      8.548   197.9058     8.7172     3.0628     0.0244      0.023      0.225      0.327         60 9.7718e+01   996.8788 0.0000e+00
      0.227    25.7213     7.6945     94.353  36.973653     36.457      8.545   193.5143     8.7172     3.1349     0.0244      0.018      0.224      0.325         61 9.8572e+01   996.8785 0.0000e+00
      0.230    25.7212     7.7759     95.344  37.000861     36.457      8.551   191.9622     8.7210     3.1205     0.0244      0.011      0.226      0.329         62 1.0096e+02   996.8784 0.0000e+00
      0.236    25.7221     7.8732     96.530  37.032178     36.512      8.550   191.2429     8.9613     3.0772     0.0245      0.005      0.230      0.334         63 1.0564e+02   996.8786 0.0000e+00
      0.239    25.7227     7.9703     97.714  36.993950     36.457      8.552   190.4479     8.9689     3.0484     0.0244      0.001      0.233      0.339         64 1.0997e+02   996.8786 0.0000e+00
      0.240    25.7221     8.0518     98.709  36.929894     36.402      8.553   189.6907     8.9308     3.0772     0.0244      0.000      0.235      0.341         65 1.1139e+02   996.8784 0.0000e+00
      0.241    25.7204     8.1082     99.397  36.904449     36.374      8.557   189.4636     8.9460     3.1061     0.0244      0.003      0.236      0.343         66 1.1123e+02   996.8783 0.0000e+00
      0.242    25.7186     8.1342     99.716  36.907077     36.374      8.555   188.9715     7.0806     3.0916     0.0244      0.007      0.237      0.344         67 1.0792e+02   996.8783 0.0000e+00
      0.242    25.7170     8.1381     99.766  36.896989     36.376      8.556   188.7443     7.0463     3.1061     0.0244      0.008      0.237      0.344         68 1.0399e+02   996.8789 0.0000e+00
      0.243    25.7157     8.1212     99.563  36.917002     36.377      8.557   188.2522     7.0310     3.0916     0.0244      0.007      0.238      0.346         69 9.9379e+01   996.8793 0.0000e+00
      0.246    25.7143     8.0991     99.295  36.971077     36.461      8.557   188.3279     7.0577     3.0628     0.0244      0.006      0.241      0.350         70 9.4078e+01   996.8798 0.0000e+00
      0.249    25.7113     8.0832     99.103  36.918602     36.379      8.557   188.0250     7.0272     3.0484     0.0244      0.005      0.244      0.355         71 9.0498e+01   996.8801 0.0000e+00
      0.253    25.7073     8.0740     98.986  36.893403     36.380      8.561   187.8357     7.1340     3.3224     0.0244      0.006      0.247      0.359         72 8.8484e+01   996.8805 0.0000e+00
      0.254    25.7032     8.0622     98.839  36.913531     36.382      8.562   187.8357     7.1188     3.3368     0.0244      0.007      0.249      0.362         73 8.7157e+01   996.8813 0.0000e+00
      0.255    25.6999     8.0508     98.698  36.893553     36.385      8.564   187.6086     7.1111     3.3800     0.0244      0.008      0.250      0.363         74 8.7118e+01   996.8823 0.0000e+00
      0.256    25.6974     8.0197     98.318  36.858998     36.333      8.566   187.8357     7.1455     3.3224     0.0244      0.008      0.251      0.364         75 9.0399e+01   996.8834 0.0000e+00
      0.258    25.6958     7.9671     97.674  36.867632     36.363      8.563   187.7600     6.0430     3.1493     0.0244      0.008      0.253      0.366         76 9.6212e+01   996.8843 0.0000e+00
      0.259    25.6957     7.9040     96.901  36.853175     36.337      8.564   187.7222     6.0545     3.0628     0.0244      0.008      0.254      0.368         77 1.0273e+02   996.8849 0.0000e+00
      0.259    25.6969     7.8358     96.064  36.847356     36.338      8.566   187.9872     6.0468     3.0628     0.0244      0.006      0.254      0.369         78 1.0758e+02   996.8853 0.0000e+00
      0.260    25.6992     7.7755     95.324  36.845238     36.338      8.568   187.6843     6.0392     3.0916     0.0244      0.005      0.254      0.369         79 1.0942e+02   996.8854 0.0000e+00
      0.258    25.7013     7.7194     94.636  36.855810     36.337      8.565   187.7600     5.9362     3.1205     0.0244      0.003      0.253      0.367         80 1.0755e+02   996.8850 0.0000e+00
      0.255    25.7019     7.6737     94.075  36.863835     36.363      8.570   187.5707     5.9209     3.0772     0.0244      0.002      0.251      0.364         81 1.0458e+02   996.8844 0.0000e+00
      0.255    25.7003     7.6314     93.556  36.805615     36.279      8.574   187.6464     5.9095     3.1926     0.0244     -0.000      0.250      0.363         82 1.0281e+02   996.8838 0.0000e+00
      0.256    25.6986     7.5862     93.003  36.839357     36.334      8.575   187.4572     5.9171     3.0628     0.0244     -0.001      0.251      0.365         83 1.0182e+02   996.8837 0.0000e+00
      0.259    25.6984     7.5484     92.539  36.851478     36.335      8.574   187.5329     6.1994     3.1493     0.0244     -0.001      0.253      0.368         84 1.0201e+02   996.8842 0.0000e+00
      0.260    25.6988     7.4943     91.875  36.790532     36.281      8.581   187.4193     6.2223     3.0916     0.0244     -0.000      0.255      0.370         85 1.0280e+02   996.8846 0.0000e+00
      0.261    25.6996     7.4293     91.078  36.855936     36.336      8.581   187.2679     6.2452     3.1205     0.0244      0.001      0.255      0.370         86 1.0372e+02   996.8847 0.0000e+00
      0.260    25.7000     7.3702     90.352  36.858990     36.363      8.582   187.1164     6.2261     3.2214     0.0244      0.001      0.256      0.371         87 1.0524e+02   996.8845 0.0000e+00
      0.263    25.6995     7.3089     89.601  36.757095     36.225      8.586   187.0786     6.5771     3.0772     0.0243      0.003      0.258      0.375         88 1.0600e+02   996.8843 0.0000e+00
      0.267    25.6990     7.2460     88.829  36.834567     36.335      8.584   186.8893     6.5694     3.1205     0.0244      0.005      0.262      0.380         89 1.0496e+02   996.8843 0.0000e+00
      0.272    25.6985     7.1921     88.167  36.851483     36.335      8.585   187.3436     6.5809     3.1637     0.0244      0.007      0.266      0.385         90 1.0428e+02   996.8844 0.0000e+00
      0.273    25.6985     7.1316     87.426  36.795313     36.281      8.585   187.1922     6.5847     3.0772     0.0244      0.008      0.267      0.387         91 1.0279e+02   996.8846 0.0000e+00
      0.271    25.6984     7.0792     86.783  36.756296     36.254      8.589   187.0407     6.5847     3.1061     0.0244      0.007      0.266      0.386         92 1.0150e+02   996.8847 0.0000e+00
      0.270    25.6981     7.0241     86.108  36.692596     36.171      8.586   187.1922     6.7487     3.3079     0.0243      0.007      0.265      0.385         93 1.0244e+02   996.8847 0.0000e+00
      0.270    25.6979     6.9683     85.423  36.726412     36.226      8.591   187.0786     6.7640     3.3368     0.0243      0.006      0.265      0.385         94 1.0381e+02   996.8847 0.0000e+00
      0.271    25.6977     6.9111     84.722  36.743845     36.226      8.592   187.0407     6.7678     3.2791     0.0243      0.005      0.266      0.386         95 1.0601e+02   996.8848 0.0000e+00
      0.272    25.6976     6.8616     84.115  36.730169     36.226      8.594   187.1164     6.7754     3.3512     0.0243      0.003      0.266      0.386         96 1.0762e+02   996.8848 0.0000e+00
      0.272    25.6972     6.8378     83.821  36.684162     36.172      8.594   187.1922     6.5237     3.1061     0.0243      0.001      0.266      0.387         97 1.0824e+02   996.8849 0.0000e+00
      0.273    25.6969     6.8686     84.194  36.712197     36.199      8.596   187.1164     6.5046     3.1926     0.0243      0.000      0.267      0.388         98 1.0801e+02   996.8849 0.0000e+00
      0.273    25.6963     6.9149     84.755  36.724915     36.227      8.598   187.0786     6.5389     3.0628     0.0243      0.001      0.268      0.389         99 1.0625e+02   996.8850 0.0000e+00
      0.274    25.6959     6.9858     85.615  36.697969     36.172      8.599   187.1164     6.5275     3.2214     0.0243      0.002      0.268      0.389        100 1.0357e+02   996.8851 0.0000e+00
      0.274    25.6960     7.0659     86.591  36.716096     36.228      8.601   187.1922     6.4970     3.0628     0.0243      0.002      0.268      0.388        101 1.0056e+02   996.8853 0.0000e+00
      0.271    25.6958     7.1598     87.737  36.702356     36.173      8.601   187.1543     6.5046     3.1637     0.0243      0.001      0.265      0.384        102 9.8371e+01   996.8853 0.0000e+00
      0.265    25.6958     7.3012     89.455  36.685434     36.200      8.601   187.1543     6.4893     3.1061     0.0243     -0.002      0.258      0.375        103 9.7835e+01   996.8853 0.0000e+00
      0.254    25.6955     7.4529     91.288  36.648252     36.118      8.603   187.1922     6.5122     3.1493     0.0243     -0.006      0.249      0.362        104 9.9779e+01   996.8853 0.0000e+00
      0.244    25.6954     7.6056     93.126  36.659724     36.173      8.606   187.2300     6.6610     3.1061     0.0243     -0.012      0.244      0.354        105 1.0382e+02   996.8853 0.0000e+00
      0.249    25.6951     7.7719     95.129  36.641522     36.118      8.607   187.1922     6.6343     3.0628     0.0243     -0.015      0.250      0.363        106 1.1113e+02   996.8853 0.0000e+00
      0.272    25.6938     7.9167     96.870  36.670905     36.173      8.604   187.4572     6.6114     3.0340     0.0243     -0.010      0.272      0.394        107 1.2297e+02   996.8854 0.0000e+00
      0.311    25.6914     8.0258     98.189  36.800968     36.283      8.597   187.9493     6.6686     3.2503     0.0244      0.005      0.305      0.442        108 1.3668e+02   996.8858 0.0000e+00
      0.349    25.6867     8.0773     98.810  36.805644     36.312      8.589   188.7065     6.4207     3.5819     0.0244      0.028      0.341      0.494        109 1.4003e+02   996.8863 0.0000e+00
      0.382    25.6811     8.0928     98.994  36.753990     36.231      8.588   188.8957     6.4092     3.6540     0.0243      0.055      0.374      0.542        110 1.3935e+02   996.8870 0.0000e+00
      0.413    25.6776     8.1011     99.093  36.776347     36.289      8.587   189.5772     6.3902     3.4954     0.0244      0.082      0.404      0.586        111 1.3419e+02   996.8884 0.0000e+00
      0.440    25.6743     8.1096     99.189  36.748190     36.238      8.585   190.1450     6.4054     3.3800     0.0243      0.104      0.434      0.629        112 1.3433e+02   996.8900 0.0000e+00
      0.473    25.6659     8.1063     99.136  36.729765     36.241      8.580   190.8643     6.4054     3.5098     0.0243      0.120      0.468      0.679        113 1.3945e+02   996.8911 0.0000e+00
      0.520    25.6504     8.0828     98.841  36.740009     36.243      8.578   190.9400     7.7902     3.2935     0.0243      0.132      0.510      0.740        114 1.3866e+02   996.8921 0.0000e+00
      0.565    25.6310     8.0434     98.352  36.646541     36.167      8.576   191.9243     7.7864     3.3512     0.0243      0.138      0.560      0.811        115 1.5293e+02   996.8945 0.0000e+00
      0.631    25.6116     7.9975     97.778  36.579378     36.095      8.573   192.5300     7.7978     3.2358     0.0243      0.148      0.612      0.888        116 1.6088e+02   996.8988 0.0000e+00
      0.676    25.5949     7.9511     97.200  36.556887     36.109      8.570   192.3029     7.7825     3.3512     0.0243      0.159      0.655      0.949        117 1.5952e+02   996.9041 0.0000e+00
      0.696    25.5851     7.9121     96.720  36.526366     36.067      8.577   192.1893     8.8964     3.2503     0.0243      0.164      0.681      0.988        118 1.6272e+02   996.9093 0.0000e+00
      0.715    25.5800     7.8641     96.123  36.558102     36.135      8.578   192.0000     8.9232     3.4666     0.0243      0.163      0.701      1.016        119 1.6457e+02   996.9138 0.0000e+00
      0.731    25.5772     7.8137     95.502  36.576670     36.142      8.582   192.3786     8.9003     3.3512     0.0243      0.154      0.721      1.045        120 1.6617e+02   996.9165 0.0000e+00
      0.760    25.5759     7.7683     94.939  36.562533     36.145      8.585   193.0600     8.9155     3.2935     0.0243      0.140      0.746      1.081        121 1.7104e+02   996.9179 0.0000e+00
      0.790    25.5712     7.7159     94.293  36.575700     36.147      8.584   192.5300     9.9150     3.0916     0.0243      0.125      0.771      1.119        122 1.7390e+02   996.9187 0.0000e+00
      0.808    25.5647     7.6566     93.564  36.560286     36.148      8.587   192.9465     9.9302     3.1061     0.0243      0.108      0.794      1.151        123 1.7156e+02   996.9192 0.0000e+00
      0.831    25.5604     7.5863     92.697  36.522446     36.096      8.590   192.9843     9.9493     3.1493     0.0243      0.094      0.815      1.181        124 1.6583e+02   996.9205 0.0000e+00
      0.851    25.5560     7.4993     91.631  36.563525     36.156      8.590   193.0979     9.8997     3.0340     0.0243      0.088      0.835      1.211        125 1.6084e+02   996.9223 0.0000e+00
      0.871    25.5487     7.4145     90.598  36.568438     36.159      8.591   193.0222    11.8186     3.0340     0.0243      0.089      0.856      1.242        126 1.5636e+02   996.9235 0.0000e+00
      0.897    25.5434     7.3403     89.693  36.575603     36.162      8.590   193.2115    11.8186     3.1205     0.0243      0.089      0.880      1.277        127 1.4914e+02   996.9248 0.0000e+00
      0.927    25.5408     7.2859     89.032  36.613879     36.223      8.590   193.4386    11.8262     3.1782     0.0243      0.091      0.905      1.313        128 1.4718e+02   996.9268 0.0000e+00
      0.944    25.5361     7.2531     88.636  36.580078     36.172      8.589   194.0443    11.8147     3.2214     0.0243      0.089      0.927      1.344        129 1.4575e+02   996.9283 0.0000e+00
      0.965    25.5323     7.2503     88.603  36.558402     36.173      8.585   194.1958    12.4480     3.2791     0.0243      0.088      0.949      1.376        130 1.4453e+02   996.9290 0.0000e+00
      0.996    25.5284     7.2635     88.765  36.522316     36.122      8.582   194.4608    12.4213     3.3512     0.0243      0.091      0.973      1.411        131 1.4368e+02   996.9304 0.0000e+00
      1.014    25.5247     7.2869     89.050  36.506449     36.124      8.581   194.3472    12.4518     3.3512     0.0243      0.091      0.995      1.442        132 1.4021e+02   996.9315 0.0000e+00
      1.035    25.5218     7.3175     89.420  36.518883     36.127      8.579   194.5743    12.4785     3.3656     0.0243      0.091      1.015      1.471        133 1.3923e+02   996.9326 0.0000e+00
      1.056    25.5175     7.3440     89.739  36.506847     36.129      8.579   194.7636    12.4518     3.3224     0.0243      0.090      1.031      1.495        134 1.3918e+02   996.9337 0.0000e+00
      1.062    25.5156     7.3625     89.966  36.432526     36.049      8.580   194.9908    12.8562     3.0772     0.0242      0.084      1.041      1.510        135 1.3764e+02   996.9344 0.0000e+00
      1.069    25.5172     7.3580     89.911  36.433567     36.052      8.583   195.1800    12.8714     3.2214     0.0242      0.075      1.051      1.525        136 1.3583e+02   996.9356 0.0000e+00
      1.086    25.5191     7.3291     89.557  36.446283     36.081      8.582   195.0665    12.8752     3.1349     0.0242      0.069      1.065      1.545        137 1.3361e+02   996.9362 0.0000e+00
      1.102    25.5211     7.3010     89.212  36.387068     35.997      8.586   195.0665    12.8791     3.1349     0.0242      0.062      1.082      1.569        138 1.3165e+02   996.9357 0.0000e+00
      1.123    25.5236     7.2540     88.635  36.418357     36.051      8.587   195.3693    12.8066     3.1061     0.0242      0.058      1.101      1.597        139 1.2881e+02   996.9354 0.0000e+00
      1.143    25.5252     7.1956     87.920  36.436978     36.049      8.584   195.4072    12.8180     2.9907     0.0242      0.059      1.120      1.625        140 1.2699e+02   996.9349 0.0000e+00
      1.160    25.5255     7.1353     87.182  36.423163     36.047      8.587   195.5965    12.7684     3.0628     0.0242      0.060      1.138      1.650        141 1.2553e+02   996.9344 0.0000e+00
      1.179    25.5245     7.0689     86.368  36.435550     36.046      8.585   195.6343    12.8218     3.1926     0.0242      0.063      1.157      1.677        142 1.2230e+02   996.9341 0.0000e+00
      1.199    25.5219     7.0131     85.684  36.451196     36.074      8.582   195.6343    13.7679     3.1926     0.0242      0.070      1.177      1.707        143 1.1924e+02   996.9340 0.0000e+00
      1.224    25.5194     6.9674     85.127  36.433325     36.047      8.579   195.8236    13.7755     3.1349     0.0242      0.075      1.200      1.741        144 1.1585e+02   996.9344 0.0000e+00
      1.249    25.5195     6.9308     84.676  36.428157     36.049      8.579   196.4672    13.7488     3.0628     0.0242      0.079      1.222      1.773        145 1.1273e+02   996.9352 0.0000e+00
      1.266    25.5200     6.9001     84.300  36.427996     36.051      8.573   196.5050    13.7641     2.9763     0.0242      0.081      1.241      1.800        146 1.1144e+02   996.9359 0.0000e+00
      1.282    25.5193     6.8748     83.986  36.433526     36.050      8.572   196.8458    15.7439     3.3512     0.0242      0.080      1.258      1.824        147 1.0954e+02   996.9360 0.0000e+00
      1.300    25.5181     6.8528     83.713  36.510178     36.133      8.571   196.6186    15.7325     3.3656     0.0243      0.080      1.275      1.850        148 1.0762e+02   996.9360 0.0000e+00
      1.321    25.5170     6.8284     83.411  36.510412     36.133      8.563   196.9972    15.7058     3.3224     0.0243      0.080      1.294      1.877        149 1.0685e+02   996.9362 0.0000e+00
      1.338    25.5157     6.8075     83.154  36.433235     36.051      8.562   197.3758    15.7210     3.3079     0.0242      0.078      1.313      1.904        150 1.0558e+02   996.9365 0.0000e+00
      1.358    25.5147     6.7837     82.860  36.428416     36.052      8.557   197.9815    15.5990     3.0916     0.0242      0.075      1.332      1.931        151 1.0470e+02   996.9369 0.0000e+00
      1.377    25.5128     6.7559     82.515  36.427506     36.053      8.556   197.9058    15.6104     3.0916     0.0242      0.073      1.352      1.961        152 1.0326e+02   996.9373 0.0000e+00
      1.401    25.5116     6.7243     82.125  36.434369     36.054      8.548   199.3822    15.6066     3.0340     0.0242      0.074      1.374      1.993        153 1.0119e+02   996.9378 0.0000e+00
      1.426    25.5118     6.6968     81.786  36.449511     36.083      8.541   199.9122    15.6295     3.0340     0.0242      0.078      1.397      2.026        154 9.9540e+01   996.9384 0.0000e+00
      1.445    25.5106     6.6703     81.457  36.438298     36.056      8.536   200.0636    15.6142     3.0051     0.0242      0.081      1.419      2.058        155 9.7042e+01   996.9388 0.0000e+00
      1.471    25.5090     6.6535     81.249  36.418690     36.056      8.527   200.7451    16.3085     3.3224     0.0242      0.084      1.441      2.089        156 9.4855e+01   996.9388 0.0000e+00
      1.490    25.5065     6.6433     81.119  36.385011     36.002      8.518   201.8051    16.3047     3.3800     0.0242      0.085      1.460      2.117        157 9.3460e+01   996.9392 0.0000e+00
      1.504    25.5036     6.6336     80.989  36.420943     36.058      8.511   203.2815    16.2933     3.3512     0.0242      0.084      1.477      2.142        158 9.1634e+01   996.9397 0.0000e+00
      1.526    25.5016     6.6352     81.000  36.462877     36.087      8.505   203.9251    16.2971     3.3079     0.0242      0.083      1.495      2.169        159 8.9747e+01   996.9404 0.0000e+00
      1.544    25.4999     6.6373     81.019  36.421730     36.062      8.500   204.0008    16.2513     3.1637     0.0242      0.081      1.513      2.195        160 8.8463e+01   996.9413 0.0000e+00
      1.560    25.4975     6.6236     80.846  36.383248     36.008      8.491   204.3794    16.2513     3.1926     0.0242      0.077      1.530      2.220        161 8.7333e+01   996.9419 0.0000e+00
      1.578    25.4941     6.6077     80.645  36.421866     36.064      8.483   204.9472    16.2322     3.0916     0.0242      0.074      1.548      2.245        162 8.6037e+01   996.9424 0.0000e+00
      1.596    25.4920     6.5897     80.419  36.373672     36.011      8.473   205.2122    16.2437     3.0916     0.0242      0.072      1.565      2.269        163 8.5377e+01   996.9431 0.0000e+00
      1.610    25.4897     6.5555     79.997  36.383956     36.013      8.468   205.5908    16.0300     3.3079     0.0242      0.069      1.580      2.292        164 8.4912e+01   996.9441 0.0000e+00
      1.628    25.4860     6.5244     79.609  36.438703     36.098      8.460   206.4615    15.9995     3.2214     0.0242      0.068      1.599      2.319        165 8.3648e+01   996.9447 0.0000e+00
      1.653    25.4837     6.4938     79.228  36.394445     36.016      8.454   206.9158    16.0186     3.3512     0.0242      0.070      1.621      2.352        166 8.1994e+01   996.9454 0.0000e+00
      1.677    25.4796     6.4642     78.864  36.409401     36.074      8.448   207.2565    16.0072     3.3224     0.0242      0.072      1.643      2.384        167 8.0843e+01   996.9465 0.0000e+00
      1.697    25.4722     6.4376     78.540  36.390459     36.021      8.445   208.0515    16.4573     3.5675     0.0242      0.075      1.663      2.412        168 7.9696e+01   996.9471 0.0000e+00
      1.714    25.4661     6.4106     78.209  36.358752     36.023      8.439   208.1272    16.4649     3.5098     0.0242      0.077      1.680      2.436        169 7.8601e+01   996.9483 0.0000e+00
      1.728    25.4622     6.3841     77.881  36.389593     36.029      8.436   208.3544    16.5107     3.5098     0.0242      0.077      1.693      2.456        170 7.8161e+01   996.9502 0.0000e+00
      1.739    25.4582     6.4018     77.948  36.440984     36.116      8.428   208.6194    16.4687     3.6252     0.0242      0.074      1.707      2.475        171 7.7251e+01   996.9519 0.0000e+00
      1.756    25.4532     6.6599     80.590  36.442972     36.091      8.427   209.0358    16.3924     3.3512     0.0242      0.072      1.722      2.497        172 7.5832e+01   996.9531 0.0000e+00
      1.772    25.4491     7.2396     87.063  36.416757     36.094      8.420   209.0358    16.3924     3.3368     0.0242      0.068      1.737      2.520        173 7.5013e+01   996.9542 0.0000e+00
      1.785    25.4458     7.8990     94.629  36.384709     36.043      8.415   209.5279    16.3886     3.3512     0.0242      0.062      1.751      2.540        174 7.4414e+01   996.9554 0.0000e+00
      1.799    25.4402     8.4859    101.505  36.423588     36.101      8.415   210.2094    16.4306     3.4377     0.0242      0.059      1.766      2.561        175 7.3326e+01   996.9566 0.0000e+00
      1.818    25.4354     8.8835    106.123  36.457276     36.131      8.413   210.0958    16.1903     3.3512     0.0242      0.058      1.782      2.585        176 7.2032e+01   996.9576 0.0000e+00
      1.834    25.4329     9.1214    108.867  36.372420     36.052      8.408   210.4744    16.1750     3.2791     0.0242      0.059      1.798      2.607        177 7.1271e+01   996.9591 0.0000e+00
      1.847    25.4336     9.2143    109.949  36.381021     36.056      8.406   210.4744    16.1521     3.2647     0.0242      0.060      1.811      2.626        178 7.0692e+01   996.9604 0.0000e+00
      1.859    25.4314     9.1970    109.625  36.357674     36.057      8.404   210.6258    16.1712     3.3224     0.0242      0.059      1.823      2.643        179 7.0365e+01   996.9611 0.0000e+00
      1.869    25.4312     9.0237    107.495  36.401476     36.057      8.404   210.8529    16.1903     3.2647     0.0242      0.057      1.834      2.659        180 6.9887e+01   996.9610 0.0000e+00
      1.883    25.3160     8.8118    104.889  36.385778     36.112      8.400   211.0801    15.9995     3.3224     0.0242      0.055      1.846      2.678        181 6.8988e+01   996.9616 0.0000e+00
      1.896    24.9921     8.5762    101.960  36.110504     35.755      8.401   211.5344    15.9652     3.2791     0.0241      0.054      1.860      2.698        182 6.8083e+01   996.9616 0.0000e+00
      1.912    24.6519     8.4057     99.826  36.062481     35.857      8.397   211.7615    15.9499     3.3512     0.0241      0.053      1.876      2.721        183 6.6874e+01   996.9916 0.0000e+00
      1.931    24.4492     8.2620     98.023  36.060369     36.043      8.398   211.9129    15.9499     3.2503     0.0241      0.053      1.893      2.745        184 6.5963e+01   997.0752 0.0000e+00
      1.945    24.3610     8.1217     96.261  36.083637     36.343      8.397   212.0644    16.3734     3.6108     0.0241      0.054      1.908      2.768        185 6.5025e+01   997.1620 0.0000e+00
      1.961    24.2933     7.9708     94.403  36.152211     36.552      8.393   212.4429    16.3772     3.5675     0.0241      0.057      1.923      2.789        186 6.4067e+01   997.2131 0.0000e+00
      1.976    24.2473     7.7700     91.997  36.182572     36.641      8.389   212.2915    16.3429     3.5675     0.0242      0.059      1.937      2.809        187 6.3609e+01   997.2354 0.0000e+00
      1.988    24.2278     7.5868     89.797  36.253348     36.777      8.388   212.5944    16.3352     3.5675     0.0242      0.060      1.950      2.829        188 6.2665e+01   997.2524 0.0000e+00
      2.005    24.1772     7.4001     87.525  36.271604     36.814      8.384   212.5187    16.9685     3.7982     0.0242      0.060      1.965      2.849        189 6.1763e+01   997.2640 0.0000e+00
      2.017    24.1404     7.2398     85.566  36.308045     36.880      8.379   212.8594    16.9875     3.7550     0.0242      0.059      1.977      2.867        190 6.1663e+01   997.2689 0.0000e+00
      2.024    24.1003     7.0867     83.710  36.267281     36.867      8.376   212.4808    16.9837     3.7838     0.0242      0.056      1.987      2.881        191 6.1206e+01   997.2814 0.0000e+00
      2.035    24.0352     6.9302     81.822  36.263085     36.891      8.375   212.5187    16.9837     3.6829     0.0242      0.052      1.998      2.898        192 6.0184e+01   997.2907 0.0000e+00
      2.051    23.9781     6.7954     80.192  36.283654     36.950      8.367   212.6322    17.7391     4.0433     0.0242      0.050      2.012      2.918        193 5.9136e+01   997.3007 0.0000e+00
      2.067    23.9251     6.6724     78.715  36.152804     36.857      8.365   212.5565    17.7581     4.0578     0.0242      0.050      2.027      2.941        194 5.8298e+01   997.3168 0.0000e+00
      2.083    23.8717     6.5586     77.353  36.099979     36.843      8.362   212.8972    17.7696     3.9712     0.0241      0.051      2.044      2.964        195 5.7154e+01   997.3309 0.0000e+00
      2.102    23.8325     6.4140     75.583  36.082716     36.883      8.360   213.0865    17.7429     4.0001     0.0241      0.054      2.062      2.989        196 5.5628e+01   997.3441 0.0000e+00
      2.120    23.8157     6.1752     72.710  36.055779     36.866      8.354   213.6544    17.7581     4.0001     0.0241      0.057      2.077      3.012        197 5.5309e+01   997.3573 0.0000e+00
      2.129    23.7966     5.7320     67.406  36.133527     37.011      8.351   213.5408    19.1391     3.9568     0.0242      0.059      2.090      3.031        198 5.4703e+01   997.3670 0.0000e+00
      2.145    23.7593     5.1080     59.987  36.252684     37.109      8.345   214.8658    19.1391     3.9424     0.0242      0.062      2.104      3.052        199 5.3101e+01   997.3712 0.0000e+00
      2.163    23.7207     4.3426     51.001  36.292745     37.209      8.340   214.3358    19.1658     4.0578     0.0242      0.062      2.119      3.072        200 5.2658e+01   997.3760 0.0000e+00
      2.171    23.6906     3.4863     40.954  36.291125     37.180      8.337   215.2822    19.1391     4.0001     0.0242      0.060      2.129      3.087        201 5.2385e+01   997.3852 0.0000e+00
      2.179    23.6652     2.6577     31.219  36.343621     37.325      8.331   215.8501    19.8601     4.2308     0.0243      0.056      2.138      3.100        202 5.1682e+01   997.3947 0.0000e+00
      2.189    23.6392     1.9496     22.893  36.345971     37.290      8.329   216.3801    19.8677     4.3029     0.0242      0.051      2.148      3.116        203 5.0869e+01   997.4020 0.0000e+00
      2.204    23.6230     1.5041     17.655  36.377120     37.396      8.327   217.1372    19.8601     4.2164     0.0243      0.048      2.162      3.135        204 4.9825e+01   997.4083 0.0000e+00
      2.219    23.6065     1.2358     14.500  36.334504     37.329      8.323   217.4022    19.8715     4.2308     0.0242      0.047      2.177      3.157        205 4.8792e+01   997.4146 0.0000e+00
      2.236    23.5647     1.1162     13.096  36.191578     37.228      8.324   217.7430    20.5238     4.3029     0.0242      0.049      2.194      3.182        206 4.7459e+01   997.4186 0.0000e+00
      2.257    23.5196     1.0808     12.682  36.169751     37.181      8.320   217.7808    20.5009     4.2308     0.0242      0.051      2.213      3.209        207 4.6062e+01   997.4228 0.0000e+00
      2.276    23.4511     1.0785     12.654  36.302410     37.388      8.318   217.8565    20.5009     4.2020     0.0242      0.056      2.230      3.235        208 4.5022e+01   997.4330 0.0000e+00
      2.289    23.3840     1.1236     13.179  36.530291     37.623      8.312   217.9701    20.5238     4.3029     0.0243      0.061      2.243      3.253        209 4.4554e+01   997.4441 0.0000e+00
      2.295    23.3821     1.1709     13.731  36.923395     38.108      8.309   218.0837    22.5228     4.1154     0.0245      0.062      2.249      3.262        210 4.4458e+01   997.4608 0.0000e+00
      2.297    23.3967     1.1800     13.833  37.591345     38.828      8.302   218.3487    22.5609     4.0722     0.0248      0.058      2.253      3.267        211 4.4357e+01   997.4772 0.0000e+00
      2.299    23.3914     1.1724     13.734  38.573770     39.865      8.297   218.3487    22.5342     3.9857     0.0252      0.050      2.255      3.271        212 4.4154e+01   997.4780 0.0000e+00
      2.302    23.3760     1.1540     13.508  40.294617     41.585      8.293   218.3487    22.5304     3.9712     0.0259      0.041      2.258      3.275        213 4.3924e+01   997.4751 0.0000e+00
      2.306    23.3517     1.1596     13.567  43.215477     44.648      8.288   218.2730    24.5675     3.7838     0.0272      0.031      2.261      3.280        214 4.3837e+01   997.4773 0.0000e+00
      2.309    23.3315     1.1976     14.015  46.470027     48.041      8.282   218.6137    24.5751     3.8126     0.0287      0.021      2.264      3.284        215 4.3582e+01   997.4821 0.0000e+00
      2.311    23.3285     1.2638     14.801  49.289016     50.954      8.278   218.8408    24.6171     3.8415     0.0299      0.015      2.266      3.287        216 4.3315e+01   997.4889 0.0000e+00
      2.312    23.3329     1.3372     15.666  51.004190     52.827      8.276   218.6894    24.5713     3.7261     0.0307      0.011      2.268      3.289        217 4.3016e+01   997.4944 0.0000e+00
      2.314    23.3287     1.4363     16.827  52.371738     54.072      8.271   218.6515    24.5942     3.7117     0.0312      0.010      2.269      3.291        218 4.2683e+01   997.4955 0.0000e+00
      2.316    23.3130     1.5733     18.442  55.179501     57.133      8.267   218.4244    25.0138     3.8703     0.0325      0.009      2.271      3.294        219 4.2507e+01   997.4955 0.0000e+00
      2.318    23.2998     1.7374     20.381  59.522949     61.474      8.264   218.4244    24.9756     3.7405     0.0344      0.009      2.273      3.297        220 4.1820e+01   997.4979 0.0000e+00
      2.321    23.2824     1.9191     22.530  63.905789     66.270      8.258   218.8408    25.0023     3.7261     0.0365      0.008      2.276      3.302        221 4.0832e+01   997.5033 0.0000e+00
      2.325    23.2438     2.0958     24.607  63.729220     66.056      8.253   218.9923    25.0023     3.7838     0.0364      0.009      2.280      3.306        222 3.9995e+01   997.5064 0.0000e+00
      2.327    23.2049     2.2823     26.792  61.819558     63.792      8.250   219.6737    23.1903     3.6829     0.0354      0.009      2.282      3.310        223 3.9598e+01   997.5100 0.0000e+00
      2.328    23.1824     2.4934     29.259  62.751193     65.206      8.247   220.0523    23.2018     3.7694     0.0360      0.009      2.283      3.312        224 3.9559e+01   997.5195 0.0000e+00
      2.329    23.1912     2.7022     31.653  62.569784     64.824      8.243   220.0523    23.2094     3.8415     0.0358      0.009      2.284      3.313        225 3.9392e+01   997.5288 0.0000e+00
      2.329    23.2296     2.9031     33.942  61.481564     63.809      8.241   219.9387    23.2247     3.7405     0.0354      0.008      2.284      3.313        226 3.9294e+01   997.5337 0.0000e+00
      2.330    23.2480 -9.990e-29 -9.990e-29  60.248154     62.551      8.235   220.3930    24.2394     3.7694     0.0348      0.007      2.285      3.314        227 3.9205e+01   997.5312 0.0000e+00
      2.330    23.2534 -9.990e-29 -9.990e-29  58.200429     60.267      8.230   220.1280    24.2051     3.7261     0.0338      0.005      2.285      3.314        228 3.9197e+01   997.5214 0.0000e+00
      2.330    23.2783 -9.990e-29 -9.990e-29  57.265539     59.347      8.227   220.2794    24.1936     3.6540     0.0334      0.004      2.285      3.314        229 3.9195e+01   997.5166 0.0000e+00
      2.330    23.3200 -9.990e-29 -9.990e-29  56.902220     58.966      8.223   220.5823    24.1936     3.6829     0.0333      0.002      2.285      3.314        230 3.9137e+01   997.5152 0.0000e+00
      2.330    23.3604 -9.990e-29 -9.990e-29  56.190366     58.180      8.217   220.5823    24.8459     3.8415     0.0329      0.001      2.285      3.314        231 3.9190e+01   997.5090 0.0000e+00
      2.331    23.3678 -9.990e-29 -9.990e-29  55.036720     56.976      8.214   220.8094    24.8765     3.8126     0.0324      0.001      2.285      3.314        232 3.9119e+01   997.4985 0.0000e+00
      2.330    23.3560 -9.990e-29 -9.990e-29  53.799525     55.566      8.209   220.6958    24.8536     3.8126     0.0318      0.001      2.285      3.314        233 3.9046e+01   997.4884 0.0000e+00
      2.330    23.3382 -9.990e-29 -9.990e-29  53.488423     55.301      8.207   221.3773    24.8803     3.7261     0.0317      0.000      2.285      3.314        234 3.9032e+01   997.4866 0.0000e+00
      2.331    23.2385 -9.990e-29 -9.990e-29  54.059471     55.861      8.201   221.7558    24.9795     3.8126     0.0320      0.000      2.285      3.315        235 3.9003e+01   997.4896 0.0000e+00
      2.331    23.1518 -9.990e-29 -9.990e-29  55.372766     57.271      8.198   221.9451    24.9795     3.7838     0.0326      0.000      2.286      3.315        236 3.9126e+01   997.4943 0.0000e+00
      2.331 -9.990e-29 -9.990e-29 -9.990e-29  57.519578     59.585      8.194   221.8315    24.9909     3.7261     0.0335      0.000      2.286      3.315        237 3.9289e+01   997.5190 0.0000e+00
      2.331 -9.990e-29 -9.990e-29 -9.990e-29  58.774197     61.133      8.191   222.1723    25.0176     3.7982     0.0342      0.000      2.286      3.315        238 3.9345e+01   997.5402 0.0000e+00
