* Sea-Bird SBE19plus  Data File:
* FileName = C:\DATA\073018_fcr50_0003.hex
* Software version 2.6.3.104 SB_Terminal.dll
* Temperature SN = 7809
* Conductivity SN = 7809
* System UpLoad Time = Jul 30 2018 16:26:15
* <ApplicationData>
* <Seaterm232>
* <SoftwareVersion>2.6.3.104</SoftwareVersion>
* <BuildDate>30-Jun-2017</BuildDate>
* </Seaterm232>
* </ApplicationData>
* cast   3 30 Jul 2018 13:18:21 samples 1577 to 1888, avg = 1, stop = mag switch
# nquan = 15
# nvalues = 247                         
# units = specified
# name 0 = depFM: Depth [fresh water, m]
# name 1 = dz/dtM: Descent Rate [m/s]
# name 2 = sbeox0Mg/L: Oxygen, SBE 43 [mg/l]
# name 3 = sbeox0PS: Oxygen, SBE 43 [% saturation]
# name 4 = specc: Specific Conductance [uS/cm]
# name 5 = c0uS/cm: Conductivity [uS/cm]
# name 6 = flECO-AFL: Fluorescence, WET Labs ECO-AFL/FL [mg/m^3]
# name 7 = ph: pH
# name 8 = orp: Oxidation Reduction Potential [mV]
# name 9 = par/sat/log: PAR/Logarithmic, Satlantic
# name 10 = turbWETntu0: Turbidity, WET Labs ECO [NTU]
# name 11 = prdM: Pressure, Strain Gauge [db]
# name 12 = prdE: Pressure, Strain Gauge [psi]
# name 13 = tv290C: Temperature [ITS-90, deg C]
# name 14 = flag:  0.000e+00
# span 0 =     -0.558,      2.562       
# span 1 =     -0.009,      0.195       
# span 2 =    -0.1276,    10.0459       
# span 3 =     -1.459,    121.976       
# span 4 =      1.920,    157.436       
# span 5 =   1.767810, 143.531693       
# span 6 =    -0.1944,     9.5202       
# span 7 =      6.084,      8.783       
# span 8 =  -447.8558,   235.2539       
# span 9 = 1.5881e+00, 1.2901e+02       
# span 10 =    -0.1964,    34.2777      
# span 11 =     -0.549,      2.515      
# span 12 =     -0.796,      3.648      
# span 13 =    20.5001,    25.2113      
# span 14 = 0.0000e+00, 0.0000e+00      
# interval = seconds: 0.25
# start_time = Jul 30 2018 13:18:21 [Instrument's time stamp, header]
# bad_flag = -9.990e-29
# <Sensors count="9" >
#   <sensor Channel="1" >
#     <!-- Count, Temperature -->
#     <TemperatureSensor SensorID="58" >
#       <SerialNumber>7809</SerialNumber>
#       <CalibrationDate>09-Mar-18</CalibrationDate>
#       <A0>1.21093245e-003</A0>
#       <A1>2.84356597e-004</A1>
#       <A2>-1.94507398e-006</A2>
#       <A3>2.12806664e-007</A3>
#       <Slope>1.00000000</Slope>
#       <Offset>0.0000</Offset>
#     </TemperatureSensor>
#   </sensor>
#   <sensor Channel="2" >
#     <!-- Frequency 0, Conductivity -->
#     <ConductivitySensor SensorID="3" >
#       <SerialNumber>7809</SerialNumber>
#       <CalibrationDate>09-Mar-18</CalibrationDate>
#       <UseG_J>1</UseG_J>
#       <!-- Cell const and series R are applicable only for wide range sensors. -->
#       <SeriesR>0.0000</SeriesR>
#       <CellConst>2000.0000</CellConst>
#       <ConductivityType>0</ConductivityType>
#       <Coefficients equation="0" >
#         <A>0.00000000e+000</A>
#         <B>0.00000000e+000</B>
#         <C>0.00000000e+000</C>
#         <D>0.00000000e+000</D>
#         <M>0.0</M>
#         <CPcor>-9.57000000e-008</CPcor>
#       </Coefficients>
#       <Coefficients equation="1" >
#         <G>-1.00672082e+000</G>
#         <H>1.26906489e-001</H>
#         <I>-1.40584351e-004</I>
#         <J>2.47837121e-005</J>
#         <CPcor>-9.57000000e-008</CPcor>
#         <CTcor>3.2500e-006</CTcor>
#         <!-- WBOTC not applicable unless ConductivityType = 1. -->
#         <WBOTC>0.00000000e+000</WBOTC>
#       </Coefficients>
#       <Slope>1.00000000</Slope>
#       <Offset>0.00000</Offset>
#     </ConductivitySensor>
#   </sensor>
#   <sensor Channel="3" >
#     <!-- Count, Pressure, Strain Gauge -->
#     <PressureSensor SensorID="46" >
#       <SerialNumber>7809</SerialNumber>
#       <CalibrationDate>07-Mar-18</CalibrationDate>
#       <PA0>-4.08176359e-002</PA0>
#       <PA1>4.85188419e-004</PA1>
#       <PA2>-3.51168169e-012</PA2>
#       <PTEMPA0>-5.37806900e+001</PTEMPA0>
#       <PTEMPA1>5.36620721e+001</PTEMPA1>
#       <PTEMPA2>4.87214332e-002</PTEMPA2>
#       <PTCA0>5.25213435e+005</PTCA0>
#       <PTCA1>1.79532409e+000</PTCA1>
#       <PTCA2>-2.84353509e-001</PTCA2>
#       <PTCB0>2.51668750e+001</PTCB0>
#       <PTCB1>3.75000000e-004</PTCB1>
#       <PTCB2>0.00000000e+000</PTCB2>
#       <Offset>0.000000</Offset>
#     </PressureSensor>
#   </sensor>
#   <sensor Channel="4" >
#     <!-- A/D voltage 0, pH -->
#     <pH_Sensor SensorID="43" >
#       <SerialNumber>0363</SerialNumber>
#       <CalibrationDate>16-Mar-18</CalibrationDate>
#       <Slope>4.6194</Slope>
#       <Offset>2.5947</Offset>
#     </pH_Sensor>
#   </sensor>
#   <sensor Channel="5" >
#     <!-- A/D voltage 1, Oxidation Reduction Potential -->
#     <OxidationReductionPotentialSensor SensorID="41" >
#       <SerialNumber>0363</SerialNumber>
#       <CalibrationDate>16-Mar-18</CalibrationDate>
#       <B>2.499480</B>
#       <M>-0.496195</M>
#       <Offset>0.0</Offset>
#     </OxidationReductionPotentialSensor>
#   </sensor>
#   <sensor Channel="6" >
#     <!-- A/D voltage 2, Oxygen, SBE 43 -->
#     <OxygenSensor SensorID="38" >
#       <SerialNumber>0434</SerialNumber>
#       <CalibrationDate>13-Mar-18</CalibrationDate>
#       <Use2007Equation>1</Use2007Equation>
#       <CalibrationCoefficients equation="0" >
#         <!-- Coefficients for Owens-Millard equation. -->
#         <Boc>0.0000</Boc>
#         <Soc>0.0000e+000</Soc>
#         <offset>0.0000</offset>
#         <Pcor>0.00e+000</Pcor>
#         <Tcor>0.0000</Tcor>
#         <Tau>0.0</Tau>
#       </CalibrationCoefficients>
#       <CalibrationCoefficients equation="1" >
#         <!-- Coefficients for Sea-Bird equation - SBE calibration in 2007 and later. -->
#         <Soc>4.5718e-001</Soc>
#         <offset>-0.6113</offset>
#         <A>-4.0649e-003</A>
#         <B> 2.0945e-004</B>
#         <C>-3.3182e-006</C>
#         <D0> 2.5826e+000</D0>
#         <D1> 1.92634e-004</D1>
#         <D2>-4.64803e-002</D2>
#         <E> 3.6000e-002</E>
#         <Tau20> 1.2200</Tau20>
#         <H1>-3.3000e-002</H1>
#         <H2> 5.0000e+003</H2>
#         <H3> 1.4500e+003</H3>
#       </CalibrationCoefficients>
#     </OxygenSensor>
#   </sensor>
#   <sensor Channel="7" >
#     <!-- A/D voltage 3, PAR/Logarithmic, Satlantic -->
#     <PARLog_SatlanticSensor SensorID="76" >
#       <SerialNumber>1122</SerialNumber>
#       <CalibrationDate>22-Jun-2017</CalibrationDate>
#       <a0>9.6090e-001</a0>
#       <a1>8.0780e-001</a1>
#       <Im>1.3589e+000</Im>
#       <Multiplier>1.0000e+000</Multiplier>
#     </PARLog_SatlanticSensor>
#   </sensor>
#   <sensor Channel="8" >
#     <!-- A/D voltage 4, Fluorometer, WET Labs ECO-AFL/FL -->
#     <FluoroWetlabECO_AFL_FL_Sensor SensorID="20" >
#       <SerialNumber>FLNTURT-2496</SerialNumber>
#       <CalibrationDate>25-Jan-2017</CalibrationDate>
#       <ScaleFactor>5.30000000e+001</ScaleFactor>
#       <!-- Dark output -->
#       <Vblank>0.0560</Vblank>
#     </FluoroWetlabECO_AFL_FL_Sensor>
#   </sensor>
#   <sensor Channel="9" >
#     <!-- A/D voltage 5, Turbidity Meter, WET Labs, ECO-NTU -->
#     <TurbidityMeter SensorID="67" >
#       <SerialNumber>FLNTURT-2496</SerialNumber>
#       <CalibrationDate>25-Jan-2017</CalibrationDate>
#       <ScaleFactor>176.000000</ScaleFactor>
#       <!-- Dark output -->
#       <DarkVoltage>0.072000</DarkVoltage>
#     </TurbidityMeter>
#   </sensor>
# </Sensors>
# datcnv_date = Jul 30 2018 16:35:50, 7.26.7.114 [datcnv_vars = 14]
# datcnv_in = C:\DATA\073018_fcr10.hex C:\DATA\SBE19plusV2_7809.xmlcon
# datcnv_skipover = 0
# datcnv_ox_hysteresis_correction = yes
# datcnv_ox_tau_correction = yes
# filter_date = Jul 30 2018 16:36:33, 7.26.7.114
# filter_in = C:\DATA\073018_fcr10.cnv
# filter_low_pass_tc_A = 0.030
# filter_low_pass_tc_B = 0.150
# filter_low_pass_A_vars = prdM prdE tv290C
# filter_low_pass_B_vars = depFM dz/dtM sbeox0Mg/L sbeox0PS specc c0uS/cm flECO-AFL ph orp par/sat/log turbWETntu0
# alignctd_date = Jul 30 2018 16:36:57, 7.26.7.114
# alignctd_in = C:\DATA\073018_fcr10.cnv
# alignctd_adv = dz/dtM 1.000, sbeox0Mg/L 1.000, sbeox0PS 1.000, specc 1.000, c0uS/cm 1.000, flECO-AFL 1.000, ph 1.000, orp 1.000, turbWETntu0 1.000                                                                                 
# file_type = ascii
*END*
     -0.558 2.0951e-14     8.8083     98.875      1.947   1.792971    -0.1786      6.084  -444.7515 9.4571e+01    -0.0288     -0.547     -0.793    21.0329 0.0000e+00
     -0.558 2.3046e-13     8.8085     98.878      1.947   1.792888    -0.1837      6.084  -445.7744 9.4181e+01    -0.0295     -0.547     -0.793    21.0331 0.0000e+00
     -0.558 2.5350e-12     8.8096     98.890      1.946   1.791748    -0.1872      6.085  -447.8558 9.6132e+01     0.0012     -0.547     -0.793    21.0336 0.0000e+00
     -0.558 2.7885e-11     8.8114     98.911      1.932   1.779184    -0.1837      6.087  -444.8790 1.0004e+02     0.0065     -0.547     -0.793    21.0336 0.0000e+00
     -0.558 3.0674e-10     8.8116     98.914      1.920   1.767810    -0.1870      6.089  -440.4124 1.0380e+02     0.0040     -0.547     -0.793    21.0337 0.0000e+00
     -0.558 3.3741e-09     8.8107     98.905      1.934   1.781059    -0.1906      6.090  -442.3762 1.0843e+02     0.0014     -0.547     -0.793    21.0336 0.0000e+00
     -0.558 3.7115e-08     8.8098     98.896      1.968   1.812544    -0.1810      6.092  -447.0275 1.1463e+02     0.0064     -0.547     -0.794    21.0343 0.0000e+00
     -0.558 4.0827e-07     8.8095     98.893      1.989   1.831421    -0.1719      6.095  -443.9087 1.1988e+02    -0.0583     -0.547     -0.793    21.0338 0.0000e+00
     -0.558      0.000     8.8100     98.900      1.975   1.819049    -0.1727      6.101  -380.5760 1.2314e+02    -0.1710     -0.547     -0.794    21.0354 0.0000e+00
     -0.558      0.000     8.8098     98.899      2.012   1.853200    -0.1822      6.110  -274.8620 1.2440e+02    -0.1964     -0.547     -0.794    21.0341 0.0000e+00
     -0.558      0.001     8.8084     98.892      2.640   2.434582    -0.1944      6.121  -233.3915 1.2379e+02    -0.1821     -0.547     -0.793    21.0374 0.0000e+00
     -0.558      0.006     8.8001     98.891      9.362   8.658240    -0.1911      6.209  -133.5778 1.2061e+02    -0.1815     -0.547     -0.793    21.0324 0.0000e+00
     -0.558      0.026     8.7496     98.906     24.707  23.040950    -0.1794      6.569    68.6589 1.1357e+02    -0.1888     -0.548     -0.795    21.0408 0.0000e+00
     -0.558      0.063     8.6312     98.943     37.243  35.183011    -0.1625      7.187   161.0904 1.0515e+02    -0.1474     -0.546     -0.792    21.0280 0.0000e+00
     -0.556      0.111     8.4907     98.981     39.938  38.337199    -0.0611      7.742   163.4463 1.0051e+02     0.6540     -0.549     -0.796    21.0499 0.0000e+00
     -0.537      0.155     8.3794     99.016     38.683  37.681972     0.9736      8.075   175.6980 1.0142e+02     9.4396     -0.544     -0.789    21.0149 0.0000e+00
     -0.478      0.185     8.3038     99.095     37.747  37.172377     2.8722      8.241   181.2837 1.0495e+02    25.4801     -0.483     -0.698    21.1712 0.0000e+00
     -0.388      0.195     8.2592     99.242     37.230  36.940932     3.9180      8.313   172.3897 1.0848e+02    34.1650     -0.377     -0.545    22.0788 0.0000e+00
     -0.306      0.187     8.2390     99.418     36.907  36.789786     4.0875      8.363   153.2555 1.1149e+02    34.2777     -0.287     -0.416    23.1002 0.0000e+00
     -0.257      0.166     8.2345     99.595     36.703  36.679163     4.9040      8.416   139.7365 1.1377e+02    26.8727     -0.240     -0.349    23.7672 0.0000e+00
     -0.238      0.138     8.2425     99.812     36.596  36.619930     6.3828      8.467   135.0645 1.1561e+02    13.2062     -0.228     -0.331    24.2954 0.0000e+00
     -0.233      0.117     8.2671    100.163     36.600  36.645398     7.1801      8.509   134.3664 1.2013e+02     5.7587     -0.232     -0.337    24.6591 0.0000e+00
     -0.221      0.111     8.3053    100.647     36.679  36.733019     7.2472      8.530   135.7690 1.2671e+02     5.0946     -0.225     -0.326    24.8707 0.0000e+00
     -0.190      0.114     8.3476    101.142     36.743  36.790018     7.2678      8.531   137.2258 1.2901e+02     5.0235     -0.190     -0.275    24.9805 0.0000e+00
     -0.146      0.117     8.3971    101.641     36.819  36.826354     7.2825      8.534   138.3867 1.2547e+02     4.8382     -0.145     -0.210    25.0403 0.0000e+00
     -0.098      0.114     8.4562    102.199     36.909  36.854673     7.2781      8.549   139.5653 1.2045e+02     4.5326     -0.096     -0.139    25.0601 0.0000e+00
     -0.059      0.100     8.5365    103.059     36.912  36.814695     7.2700      8.572   140.7208 1.1982e+02     4.3795     -0.047     -0.067    25.0706 0.0000e+00
     -0.042      0.077     8.6427    104.339     36.759  36.660545     7.2760      8.593   141.8623 1.2233e+02     4.3915     -0.034     -0.050    25.0784 0.0000e+00
     -0.038      0.052     8.7299    105.463     36.523  36.451923     7.2953      8.610   143.0417 1.2169e+02     4.3726     -0.043     -0.062    25.0202 0.0000e+00
     -0.031      0.030     8.7580    105.895     36.361  36.325094     7.3194      8.622   144.3118 1.1922e+02     4.2732     -0.029     -0.042    24.9071 0.0000e+00
     -0.024      0.016     8.7286    105.633     36.271  36.270556     7.3374      8.631   145.9479 1.1817e+02     4.1970     -0.021     -0.030    24.8377 0.0000e+00
     -0.024      0.011     8.6588    104.874     36.205  36.237230     7.3481      8.637   147.7674 1.1802e+02     4.1837     -0.024     -0.035    24.8476 0.0000e+00
     -0.024      0.009     8.5628    103.788     36.179  36.239823     7.3843      8.641   149.5333 1.1815e+02     4.1420     -0.024     -0.034    24.8957 0.0000e+00
     -0.023      0.007     8.4467    102.442     36.154  36.238430     7.4433      8.644   151.3824 1.1815e+02     4.0587     -0.022     -0.032    24.9461 0.0000e+00
     -0.020      0.006     8.3192    100.942     36.118  36.220424     7.4736      8.646   153.0887 1.1813e+02     4.0007     -0.019     -0.028    24.9945 0.0000e+00
     -0.018      0.006     8.2034     99.570     36.098  36.212702     7.4755      8.649   154.5055 1.1839e+02     3.9607     -0.018     -0.026    25.0406 0.0000e+00
     -0.016      0.005     8.1221     98.608     36.083  36.208612     7.4843      8.653   156.1223 1.1885e+02     4.0015     -0.015     -0.022    25.0802 0.0000e+00
     -0.014      0.003     8.0745     98.050     36.102  36.234502     7.5159      8.656   157.9244 1.1915e+02     4.1285     -0.013     -0.020    25.1142 0.0000e+00
     -0.014      0.001     8.0433     97.679     36.199  36.335182     7.5444      8.659   159.3449 1.1920e+02     4.1839     -0.014     -0.021    25.1387 0.0000e+00
     -0.014     -0.001     8.0072     97.236     36.401  36.536592     7.5452      8.661   160.3919 1.1923e+02     4.1832     -0.014     -0.020    25.1534 0.0000e+00
     -0.015     -0.002     7.9518     96.554     36.695  36.827527     7.5344      8.664   161.4631 1.1936e+02     4.2115     -0.014     -0.021    25.1683 0.0000e+00
     -0.016     -0.003     7.8772     95.641     36.991  37.121271     7.5240      8.667   162.4016 1.1951e+02     4.2507     -0.015     -0.022    25.1808 0.0000e+00
     -0.018     -0.003     7.7911     94.593     37.226  37.356615     7.5215      8.670   163.3078 1.1959e+02     4.2604     -0.017     -0.025    25.1850 0.0000e+00
     -0.018     -0.003     7.7024     93.520     37.444  37.576677     7.5308      8.675   164.1604 1.1972e+02     4.2377     -0.018     -0.026    25.1811 0.0000e+00
     -0.019     -0.002     7.6199     92.525     37.676  37.812674     7.5358      8.681   164.4503 1.1992e+02     4.2197     -0.018     -0.026    25.1740 0.0000e+00
     -0.019     -0.002     7.5559     91.756     37.846  37.986549     7.5356      8.687   164.5759 1.2003e+02     4.2264     -0.019     -0.028    25.1692 0.0000e+00
     -0.019     -0.002     7.5268     91.411     37.883  38.027251     7.5375      8.689   165.0771 1.2000e+02     4.2274     -0.020     -0.029    25.1683 0.0000e+00
     -0.019     -0.001     7.5422     91.605     37.840  37.987162     7.5396      8.689   165.8637 1.1961e+02     4.2315     -0.017     -0.026    25.1705 0.0000e+00
     -0.020      0.001     7.5951     92.252     37.798  37.946545     7.5431      8.691   166.7737 1.1876e+02     4.2750     -0.018     -0.027    25.1744 0.0000e+00
     -0.022      0.003     7.6660     93.114     37.768  37.917326     7.5529      8.694   167.7344 1.1796e+02     4.3265     -0.023     -0.033    25.1797 0.0000e+00
     -0.022      0.005     7.7403     94.016     37.739  37.888000     7.5844      8.698   168.7033 1.1761e+02     4.3666     -0.024     -0.035    25.1851 0.0000e+00
     -0.019      0.006     7.8177     94.955     37.698  37.846072     7.6121      8.701   169.4541 1.1763e+02     4.3936     -0.018     -0.027    25.1895 0.0000e+00
     -0.014      0.007     7.8957     95.900     37.645  37.791551     7.6120      8.701   169.8432 1.1772e+02     4.4085     -0.012     -0.018    25.1918 0.0000e+00
     -0.011      0.007     7.9629     96.713     37.591  37.737022     7.5732      8.701   170.2240 1.1782e+02     4.3640     -0.011     -0.016    25.1922 0.0000e+00
     -0.010      0.006     8.0095     97.280     37.549  37.694994     7.5018      8.703   170.8753 1.1792e+02     4.2516     -0.011     -0.016    25.1924 0.0000e+00
     -0.009      0.004     8.0352     97.596     37.517  37.664560     7.4654      8.705   171.5234 1.1796e+02     4.1786     -0.009     -0.014    25.1916 0.0000e+00
     -0.009      0.002     8.0494     97.774     37.474  37.623156     7.4639      8.707   172.1229 1.1796e+02     4.1831     -0.008     -0.012    25.1894 0.0000e+00
     -0.009      0.001     8.0644     97.960     37.424  37.575557     7.4749      8.709   172.7892 1.1805e+02     4.1836     -0.009     -0.013    25.1874 0.0000e+00
     -0.009      0.001     8.0876     98.246     37.381  37.533746     7.5058      8.711   173.2987 1.1816e+02     4.0940     -0.009     -0.014    25.1871 0.0000e+00
     -0.009      0.002     8.1192     98.632     37.345  37.498789     7.5256      8.712   173.8089 1.1823e+02     3.9841     -0.009     -0.013    25.1902 0.0000e+00
     -0.009      0.003     8.1538     99.051     37.318  37.470532     7.5304      8.713   174.4842 1.1832e+02     3.9846     -0.008     -0.012    25.1941 0.0000e+00
     -0.009      0.004     8.1853     99.426     37.297  37.446197     7.5455      8.715   175.0117 1.1840e+02     4.1006     -0.009     -0.013    25.1964 0.0000e+00
     -0.008      0.005     8.2088     99.696     37.316  37.458666     7.5704      8.718   175.2823 1.1840e+02     4.2267     -0.008     -0.011    25.1988 0.0000e+00
     -0.005      0.005     8.2191     99.806     37.357  37.494232     7.5833      8.722   175.5191 1.1838e+02     4.2583     -0.005     -0.008    25.2007 0.0000e+00
     -0.003      0.004     8.2138     99.730     37.363  37.495051     7.5821      8.726   175.8088 1.1841e+02     4.2079     -0.003     -0.004    25.2006 0.0000e+00
     -0.001      0.004     8.1965     99.507     37.342  37.468560     7.5826      8.731   176.2048 1.1846e+02     4.1668     -0.001     -0.001    25.1954 0.0000e+00
     -0.001      0.004     8.1716     99.186     37.308  37.428028     7.5892      8.737   176.7797 1.1841e+02     4.1882      0.000     -0.000    25.1861 0.0000e+00
     -0.001      0.003     8.1407     98.786     37.277  37.386134     7.5980      8.741   177.4255 1.1826e+02     4.2225     -0.001     -0.002    25.1775 0.0000e+00
     -0.001      0.002     8.1032     98.302     37.246  37.343170     7.6060      8.740   177.9895 1.1812e+02     4.2152     -0.002     -0.003    25.1705 0.0000e+00
      0.000      0.001     8.0580     97.730     37.203  37.289704     7.6038      8.737   178.4372 1.1801e+02     4.1913 2.5486e-07      0.000    25.1654 0.0000e+00
      0.001      0.001     8.0049     97.066     37.169  37.247883     7.5805      8.733   178.8809 1.1787e+02     4.1786      0.001      0.002    25.1564 0.0000e+00
      0.001      0.001     7.9436     96.306     37.147  37.218667     7.5537      8.729   179.3104 1.1781e+02     4.1841      0.002      0.003    25.1407 0.0000e+00
      0.001      0.000     7.8741     95.450     37.124  37.190544     7.5373      8.724   179.7580 1.1779e+02     4.1965      0.001      0.002    25.1241 0.0000e+00
      0.001      0.000     7.7962     94.495     37.100  37.161953     7.5289      8.720   180.3353 1.1785e+02     4.2059      0.001      0.001    25.1098 0.0000e+00
      0.000      0.000     7.7133     93.479     37.070  37.127071     7.5447      8.718   180.9567 1.1802e+02     4.2064     -0.000     -0.000    25.0985 0.0000e+00
      0.000      0.001     7.6305     92.465     37.034  37.086415     7.5808      8.719   181.3340 1.1813e+02     4.2026     -0.001     -0.002    25.0899 0.0000e+00
      0.000      0.002     7.5497     91.478     37.003  37.051539     7.5978      8.722   181.4548 1.1816e+02     4.1901      0.000     -0.001    25.0833 0.0000e+00
      0.001      0.002     7.4729     90.538     36.979  37.023010     7.5852      8.723   181.6429 1.1810e+02     4.1470      0.001      0.002    25.0771 0.0000e+00
      0.003      0.001     7.4016     89.663     36.956  36.995575     7.5573      8.725   181.8883 1.1798e+02     4.1380      0.003      0.004    25.0706 0.0000e+00
      0.004      0.000     7.3326     88.813     36.941  36.973919     7.5368      8.731   182.0998 1.1777e+02     4.1733      0.005      0.008    25.0644 0.0000e+00
      0.004     -0.001     7.2637     87.965     36.925  36.951744     7.5384      8.741   182.3928 1.1737e+02     4.1777      0.005      0.007    25.0595 0.0000e+00
      0.001     -0.001     7.1974     87.148     36.898  36.918024     7.5406      8.750   182.7625 1.1705e+02     4.1909      0.000      0.000    25.0541 0.0000e+00
     -0.001     -0.001     7.1345     86.373     36.870  36.883827     7.5906      8.756   183.1293 1.1705e+02     4.2114     -0.002     -0.003    25.0471 0.0000e+00
     -0.001      0.000     7.0746     85.634     36.848  36.855886     7.7013      8.761   183.4718 1.1728e+02     4.1809     -0.001     -0.002    25.0390 0.0000e+00
      0.000      0.002     7.0164     84.916     36.833  36.834288     7.7676      8.764   183.8059 1.1748e+02     4.1584      0.000      0.000    25.0302 0.0000e+00
      0.002      0.002     6.9599     84.219     36.818  36.813264     7.7855      8.766   184.1575 1.1753e+02     4.1831      0.002      0.003    25.0213 0.0000e+00
      0.004      0.001     6.9081     83.579     36.803  36.792245     7.7887      8.767   184.4536 1.1757e+02     4.2044      0.004      0.005    25.0126 0.0000e+00
      0.004      0.000     6.8606     82.993     36.788  36.770710     7.7152      8.767   184.7193 1.1763e+02     4.1422      0.005      0.007    25.0042 0.0000e+00
      0.004     -0.002     6.8149     82.427     36.767  36.743455     7.5944      8.767   185.0471 1.1757e+02     4.0102      0.005      0.007    24.9960 0.0000e+00
      0.003     -0.003     6.7719     81.895     36.746  36.716802     7.5418      8.768   185.4053 1.1740e+02     3.9519      0.003      0.003    24.9873 0.0000e+00
      0.001     -0.003     6.7301     81.377     36.737  36.702545     7.5483      8.768   185.6950 1.1742e+02     3.9867     -0.000     -0.000    24.9787 0.0000e+00
     -0.001     -0.002     6.6862     80.836     36.738  36.698117     7.5799      8.768   185.8825 1.1766e+02     4.0332     -0.001     -0.002    24.9707 0.0000e+00
     -0.001     -0.001     6.6447     80.323     36.708  36.663252     7.6214      8.769   186.0376 1.1785e+02     4.0874     -0.001     -0.002    24.9625 0.0000e+00
     -0.001      0.001     6.6057     79.843     36.648  36.598614     7.6365      8.771   186.2799 1.1791e+02     4.1530     -0.002     -0.003    24.9545 0.0000e+00
     -0.001      0.001     6.5660     79.355     36.605  36.551821     7.6430      8.773   186.5751 1.1801e+02     4.2170     -0.002     -0.003    24.9468 0.0000e+00
      0.000      0.000     6.5263     78.868     36.600  36.542153     7.6270      8.774   186.6806 1.1820e+02     4.2502      0.001      0.001    24.9388 0.0000e+00
      0.001     -0.002     6.4884     78.401     36.607  36.545236     7.5713      8.774   186.6952 1.1836e+02     4.2495      0.003      0.004    24.9315 0.0000e+00
      0.001     -0.005     6.4530     77.966     36.591  36.525575     7.5308      8.773   186.8382 1.1840e+02     4.2390      0.002      0.002    24.9255 0.0000e+00
     -0.001     -0.008     6.4187     77.541     36.566  36.495005     7.5233      8.773   187.1191 1.1823e+02     4.2148     -0.001     -0.001    24.9205 0.0000e+00
     -0.004     -0.009     6.3855     77.127     36.571  36.493224     7.5721      8.773   187.5109 1.1788e+02     4.1398     -0.003     -0.005    24.9157 0.0000e+00
     -0.008     -0.008     6.3561     76.759     36.589  36.504036     7.6700      8.772   187.8749 1.1753e+02     4.0340     -0.008     -0.012    24.9104 0.0000e+00
     -0.012     -0.006     6.3307     76.439     36.590  36.498667     7.7241      8.770   188.1646 1.1751e+02     4.0045     -0.014     -0.020    24.9047 0.0000e+00
     -0.014     -0.003     6.3084     76.156     36.590  36.491823     7.7206      8.770   188.5186 1.1779e+02     4.0266     -0.015     -0.021    24.8973 0.0000e+00
     -0.013      0.001     6.2892     75.911     36.590  36.484797     7.6825      8.771   188.8861 1.1803e+02     4.0569     -0.013     -0.019    24.8884 0.0000e+00
     -0.012      0.003     6.2710     75.679     36.589  36.477234     7.6308      8.771   189.1658 1.1813e+02     4.1581     -0.011     -0.017    24.8790 0.0000e+00
     -0.010      0.004     6.2535     75.455     36.582  36.463886     7.6100      8.770   189.4054 1.1823e+02     4.2433     -0.009     -0.014    24.8696 0.0000e+00
     -0.007      0.003     6.2373     75.249     36.574  36.450450     7.6160      8.768   189.5462 1.1825e+02     4.2324     -0.006     -0.009    24.8600 0.0000e+00
     -0.006      0.002     6.2214     75.047     36.571  36.441828     7.6201      8.766   189.5774 1.1815e+02     4.2094     -0.004     -0.006    24.8503 0.0000e+00
     -0.006      0.002     6.2049     74.838     36.557  36.423155     7.6496      8.765   189.6106 1.1807e+02     4.2082     -0.006     -0.009    24.8411 0.0000e+00
     -0.008      0.002     6.1890     74.636     36.555  36.415242     7.7249      8.765   189.7766 1.1808e+02     4.2184     -0.008     -0.012    24.8326 0.0000e+00
     -0.008      0.003     6.1746     74.451     36.556  36.409667     7.7765      8.767   189.9488 1.1815e+02     4.2106     -0.008     -0.012    24.8248 0.0000e+00
     -0.007      0.006     6.1612     74.278     36.571  36.419252     7.7777      8.769   189.8861 1.1823e+02     4.1750     -0.007     -0.011    24.8174 0.0000e+00
     -0.004      0.011     6.1496     74.125     36.690  36.531132     7.7480      8.769   189.5344 1.1839e+02     4.1547     -0.003     -0.006    24.8101 0.0000e+00
     -0.001      0.019     6.1437     74.045     36.912  36.746001     7.6936      8.766   188.7074 1.1858e+02     4.1482      0.000     -0.000    24.8023 0.0000e+00
      0.001      0.032     6.1521     74.146     37.088  36.920886     7.6616      8.761   188.2333 1.1817e+02     4.1568      0.001      0.001    24.7942 0.0000e+00
      0.006      0.048     6.1841     74.551     37.150  36.993984     7.6562      8.758   193.5241 1.1625e+02     4.1983      0.004      0.004    24.7861 0.0000e+00
      0.018      0.066     6.2455     75.330     37.193  37.058109     7.6189      8.758   198.8176 1.0412e+02     4.3444      0.015      0.021    24.7777 0.0000e+00
      0.039      0.083     6.3305     76.402     37.235  37.124499     7.5600      8.759   193.7302 8.1843e+01     4.5508      0.035      0.051    24.7662 0.0000e+00
      0.068      0.098     6.4225     77.554     37.251  37.161487     7.5320      8.761   187.8526 6.6535e+01     4.6177      0.066      0.095    24.7634 0.0000e+00
      0.099      0.109     6.5065     78.604     37.259  37.187719     7.5385      8.761   186.9462 6.0016e+01     4.6038      0.099      0.143    24.7774 0.0000e+00
      0.130      0.115     6.5731     79.441     37.242  37.187594     7.5468      8.757   186.6430 5.5100e+01     4.5662      0.129      0.187    24.8102 0.0000e+00
      0.160      0.117     6.6166     79.985     37.205  37.160006     7.5396      8.753   186.6823 5.1170e+01     4.4677      0.156      0.227    24.8489 0.0000e+00
      0.188      0.114     6.6361     80.218     37.155  37.108268     7.5338      8.748   186.9909 4.7815e+01     4.4202      0.183      0.266    24.8746 0.0000e+00
      0.218      0.109     6.6326     80.166     37.058  37.006712     7.5328      8.739   187.2759 4.4928e+01     4.4193      0.214      0.310    24.8979 0.0000e+00
      0.248      0.101     6.6096     79.885     36.938  36.884977     7.5174      8.737   187.4613 4.2535e+01     4.3657      0.245      0.354    24.9250 0.0000e+00
      0.276      0.087     6.5740     79.459     36.830  36.779854     7.4862      8.747   187.5986 4.0528e+01     4.2608      0.271      0.392    24.9398 0.0000e+00
      0.300      0.069     6.5327     78.941     36.749  36.688569     7.4679      8.757   187.7314 3.9030e+01     4.1886      0.297      0.431    24.9318 0.0000e+00
      0.318      0.049     6.4906     78.354     36.771  36.670589     7.4790      8.763   187.9476 3.8543e+01     4.1945      0.316      0.459    24.9242 0.0000e+00
      0.326      0.033     6.4476     77.726     36.910  36.752965     7.4918      8.769   188.2339 3.8660e+01     4.2096      0.322      0.467    24.9180 0.0000e+00
      0.326      0.026     6.4085     77.171     37.059  36.858659     7.5308      8.775   188.6989 3.8945e+01     4.1878      0.320      0.464    24.9288 0.0000e+00
      0.322      0.028     6.3913     76.932     37.149  36.932064     7.6111      8.780   189.4395 3.9414e+01     4.1754      0.316      0.458    24.9330 0.0000e+00
      0.321      0.039     6.4088     77.146     37.157  36.941692     7.6538      8.781   190.2193 3.9124e+01     4.1816      0.311      0.450    24.8670 0.0000e+00
      0.330      0.056     6.4583     77.759     37.117  36.911543     7.6610      8.782   190.9005 3.7578e+01     4.2012      0.317      0.460    24.7717 0.0000e+00
      0.352      0.075     6.5290     78.639     37.075  36.885188     7.7258      8.783   191.4809 3.5454e+01     4.2600      0.343      0.496    24.7081 0.0000e+00
      0.381      0.092     6.6040     79.588     37.045  36.877155     7.8494      8.781   192.0749 3.3284e+01     4.3440      0.375      0.544    24.6931 0.0000e+00
      0.411      0.103     6.6693     80.429     37.019  36.877978     7.9244      8.777   192.9192 3.1385e+01     4.3925      0.404      0.587    24.7038 0.0000e+00
      0.439      0.107     6.7175     81.068     36.945  36.831649     7.9246      8.770   193.6013 2.9706e+01     4.3888      0.430      0.624    24.7123 0.0000e+00
      0.465      0.102     6.7477     81.469     36.856  36.761705     7.9160      8.760   193.6970 2.8107e+01     4.3908      0.456      0.662    24.7331 0.0000e+00
      0.493      0.092     6.7592     81.617     36.821  36.731109     7.9215      8.756   193.7326 2.6589e+01     4.4163      0.483      0.701    24.7650 0.0000e+00
      0.521      0.081     6.7536     81.523     36.819  36.715824     7.9261      8.761   194.2032 2.5314e+01     4.4232      0.514      0.745    24.8001 0.0000e+00
      0.543      0.072     6.7370     81.266     36.835  36.703922     7.9263      8.766   194.9128 2.4502e+01     4.4124      0.537      0.779    24.8478 0.0000e+00
      0.555      0.066     6.7176     80.986     36.868  36.714203     7.8779      8.769   195.4302 2.4047e+01     4.4076      0.545      0.792    24.8732 0.0000e+00
      0.562      0.061     6.7046     80.815     36.874  36.713057     7.7820      8.772   195.7265 2.3587e+01     4.3961      0.548      0.795    24.8788 0.0000e+00
      0.574      0.059     6.7007     80.767     36.852  36.690057     7.7320      8.774   196.0003 2.2827e+01     4.3960      0.559      0.812    24.8655 0.0000e+00
      0.592      0.059     6.7010     80.768     36.852  36.690203     7.7323      8.776   196.3317 2.1877e+01     4.4060      0.581      0.843    24.8110 0.0000e+00
      0.612      0.063     6.7031     80.795     36.877  36.714819     7.7770      8.776   196.8085 2.1024e+01     4.3955      0.601      0.872    24.7760 0.0000e+00
      0.629      0.068     6.7094     80.885     36.888  36.733590     7.8593      8.771   197.4630 2.0265e+01     4.3900      0.617      0.894    24.7758 0.0000e+00
      0.644      0.072     6.7226     81.082     36.862  36.726595     7.9096      8.762   198.1366 1.9519e+01     4.4005      0.631      0.915    24.7757 0.0000e+00
      0.659      0.074     6.7468     81.422     36.806  36.693790     7.9249      8.753   198.4995 1.8861e+01     4.4005      0.645      0.936    24.7744 0.0000e+00
      0.677      0.075     6.7817     81.868     36.755  36.654618     7.9251      8.748   198.4954 1.8228e+01     4.3901      0.662      0.959    24.7726 0.0000e+00
      0.700      0.075     6.8189     82.322     36.731  36.634134     7.8566      8.746   198.4312 1.7549e+01     4.3972      0.685      0.994    24.7774 0.0000e+00
      0.725      0.075     6.8494     82.702     36.728  36.636697     7.7396      8.744   198.4980 1.6952e+01     4.3947      0.713      1.034    24.8060 0.0000e+00
      0.745      0.074     6.8686     82.958     36.702  36.622083     7.6776      8.740   198.7001 1.6471e+01     4.3910      0.734      1.063    24.8489 0.0000e+00
      0.759      0.073     6.8742     83.056     36.650  36.584510     7.6775      8.739   199.0678 1.6011e+01     4.4440      0.744      1.081    24.8650 0.0000e+00
      0.773      0.072     6.8646     82.968     36.616  36.563565     7.8030      8.738   199.6752 1.5552e+01     4.4854      0.757      1.099    24.8579 0.0000e+00
      0.791      0.072     6.8419     82.711     36.604  36.559440     8.0369      8.734   200.3650 1.5092e+01     4.4644      0.775      1.123    24.8662 0.0000e+00
      0.812      0.072     6.8106     82.338     36.575  36.534640     8.1612      8.731   200.6968 1.4605e+01     4.4341      0.796      1.155    24.8837 0.0000e+00
      0.833      0.072     6.7737     81.891     36.559  36.517814     8.1664      8.732   200.7617 1.4120e+01     4.4244      0.817      1.186    24.9054 0.0000e+00
      0.853      0.070     6.7314     81.374     36.591  36.546573     8.1275      8.737   200.9781 1.3698e+01     4.3778      0.838      1.214    24.9262 0.0000e+00
      0.873      0.067     6.6846     80.801     36.613  36.564733     8.0503      8.740   201.3342 1.3397e+01     4.2668      0.858      1.246    24.9354 0.0000e+00
      0.888      0.065     6.6387     80.237     36.599  36.546812     7.9954      8.739   201.7121 1.3177e+01     4.1809      0.872      1.265    24.9413 0.0000e+00
      0.899      0.065     6.6002     79.767     36.574  36.520457     7.9864      8.734   202.0193 1.2942e+01     4.1641      0.880      1.276    24.9385 0.0000e+00
      0.913      0.064     6.5714     79.422     36.553  36.500168     8.0521      8.725   202.2950 1.2677e+01     4.1856      0.894      1.297    24.9338 0.0000e+00
      0.931      0.064     6.5514     79.182     36.544  36.492069     8.1741      8.720   202.5510 1.2402e+01     4.1957      0.912      1.322    24.9299 0.0000e+00
      0.952      0.065     6.5379     79.018     36.539  36.486066     8.2395      8.722   202.7050 1.2142e+01     4.1650      0.933      1.354    24.9210 0.0000e+00
      0.971      0.066     6.5271     78.886     36.545  36.491110     8.2361      8.723   202.9520 1.1963e+01     4.1503      0.955      1.386    24.9187 0.0000e+00
      0.985      0.066     6.5207     78.808     36.543  36.489518     8.1891      8.721   203.3867 1.1831e+01     4.1706      0.968      1.404    24.9218 0.0000e+00
      0.997      0.066     6.5204     78.810     36.517  36.466823     8.1028      8.714   203.7446 1.1645e+01     4.1663      0.975      1.415    24.9225 0.0000e+00
      1.013      0.066     6.5232     78.852     36.517  36.470806     8.0476      8.705   203.9246 1.1453e+01     4.1593      0.992      1.439    24.9230 0.0000e+00
      1.032      0.066     6.5271     78.901     36.520  36.474165     8.0538      8.695   204.1006 1.1251e+01     4.1773      1.012      1.468    24.9205 0.0000e+00
      1.052      0.066     6.5305     78.939     36.491  36.443908     8.1967      8.682   204.3240 1.1016e+01     4.2310      1.033      1.498    24.9173 0.0000e+00
      1.070      0.065     6.5312     78.945     36.471  36.422587     8.4514      8.670   204.6460 1.0837e+01     4.3206      1.051      1.524    24.9236 0.0000e+00
      1.086      0.063     6.5275     78.898     36.457  36.406947     8.5876      8.660   205.0691 1.0716e+01     4.3755      1.065      1.544    24.9334 0.0000e+00
      1.101      0.059     6.5194     78.800     36.432  36.381851     8.6034      8.653   205.3091 1.0602e+01     4.3762      1.080      1.566    24.9317 0.0000e+00
      1.115      0.056     6.5087     78.671     36.422  36.373255     8.6051      8.648   205.3976 1.0485e+01     4.3592      1.093      1.586    24.9298 0.0000e+00
      1.128      0.055     6.4962     78.520     36.416  36.366533     8.5717      8.645   205.6228 1.0330e+01     4.3838      1.105      1.603    24.9289 0.0000e+00
      1.142      0.056     6.4841     78.378     36.284  36.237050     8.5126      8.640   205.8808 1.0158e+01     4.4295      1.120      1.624    24.9235 0.0000e+00
      1.156      0.058     6.4854     78.424     35.983  35.951112     8.4784      8.630   206.1944 1.0014e+01     4.4230      1.133      1.645    24.9249 0.0000e+00
      1.169      0.061     6.5558     79.354     35.698  35.704307     8.4708      8.616   206.5749 9.8687e+00     4.3968      1.145      1.661    24.9283 0.0000e+00
      1.183      0.065     6.8034     82.468     35.543  35.603356     8.4845      8.602   206.7824 9.6864e+00     4.3880      1.159      1.681    24.9257 0.0000e+00
      1.201      0.069     7.2768     88.313     35.450  35.556384     8.5247      8.588   207.2404 9.4699e+00     4.3770      1.176      1.706    24.9242 0.0000e+00
      1.221      0.074     7.8874     95.792     35.383  35.517568     8.5531      8.578   208.2397 9.2624e+00     4.3555      1.199      1.739    24.9364 0.0000e+00
      1.241      0.078     8.5119    103.410     35.368  35.515200     8.5611      8.570   209.3154 9.1061e+00     4.3420      1.219      1.769    24.9924 0.0000e+00
      1.260      0.083     9.0731    110.240     35.375  35.527769     8.5286      8.563   210.2658 8.9213e+00     4.3968      1.234      1.791    25.0848 0.0000e+00
      1.281      0.088     9.5272    115.757     35.390  35.542512     8.4556      8.555   211.0412 8.6640e+00     4.5292      1.255      1.821    25.1556 0.0000e+00
      1.304      0.092     9.8493    119.657     35.418  35.566408     8.4217      8.547   211.3770 8.4147e+00     4.6306      1.278      1.854    25.1908 0.0000e+00
      1.328      0.096    10.0225    121.734     35.423  35.562605     8.4408      8.540   211.4001 8.1733e+00     4.6457      1.301      1.886    25.2062 0.0000e+00
      1.355      0.098    10.0459    121.976     35.497  35.623551     8.5760      8.535   211.4922 7.8944e+00     4.6205      1.327      1.925    25.2113 0.0000e+00
      1.383      0.099     9.9586    120.854     35.751  35.858636     8.8164      8.530   211.7162 7.6353e+00     4.6011      1.357      1.968    25.2107 0.0000e+00
      1.410      0.098     9.8176    119.039     35.981  36.054639     8.9489      8.523   212.2157 7.4418e+00     4.5945      1.384      2.007    25.2063 0.0000e+00
      1.433      0.095     9.6554    116.930     36.189  36.214729     8.9653      8.510   212.8004 7.2520e+00     4.6025      1.404      2.037    25.1939 0.0000e+00
      1.456      0.091     9.4721    114.558     36.614  36.587252     8.9585      8.494   213.1064 7.0325e+00     4.6361      1.428      2.071    25.1744 0.0000e+00
      1.479      0.086     9.2535    111.780     37.077  37.001335     8.9312      8.482   213.5932 6.8085e+00     4.6650      1.451      2.104    25.1516 0.0000e+00
      1.501      0.082     8.9975    108.588     37.396  37.282755     8.9115      8.468   214.6426 6.6011e+00     4.6468      1.472      2.135    25.1047 0.0000e+00
      1.522      0.080     8.7142    105.102     37.652  37.512294     8.9131      8.446   215.9853 6.4455e+00     4.6294      1.496      2.169    25.0322 0.0000e+00
      1.540      0.081     8.4153    101.450     37.967  37.807285     8.9234      8.415   217.0080 6.3002e+00     4.6376      1.512      2.193    24.9549 0.0000e+00
      1.556      0.085     8.1128     97.760     38.297  38.117726     8.9257      8.379   217.8884 6.1141e+00     4.5626      1.524      2.211    24.8859 0.0000e+00
      1.575      0.091     7.8263     94.254     38.420  38.216390     8.9212      8.341   219.1448 5.9193e+00     4.4250      1.544      2.239    24.8376 0.0000e+00
      1.600      0.096     7.5748     91.160     38.343  38.110785     8.9161      8.306   220.0668 5.7028e+00     4.3785      1.567      2.273    24.8052 0.0000e+00
      1.629      0.098     7.3583     88.480     38.252  37.984352     8.9282      8.275   220.3471 5.4684e+00     4.3966      1.596      2.315    24.7833 0.0000e+00
      1.660      0.096     7.1622     86.038     38.203  37.894707     9.0949      8.247   220.4683 5.2659e+00     4.3995      1.629      2.363    24.7643 0.0000e+00
      1.689      0.091     6.9722     83.676     38.200  37.852716     9.3787      8.222   220.7580 5.1089e+00     4.4145      1.658      2.405    24.7310 0.0000e+00
      1.712      0.083     6.7740     81.241     38.233  37.857752     9.5202      8.198   221.1826 5.0091e+00     4.4244      1.681      2.439    24.6928 0.0000e+00
      1.728      0.075     6.5626     78.676     38.218  37.828497     9.5191      8.177   221.4728 4.9526e+00     4.3974      1.696      2.461    24.6489 0.0000e+00
      1.740      0.070     6.3546     76.149     38.160  37.753089     9.3011      8.157   221.7708 4.8789e+00     4.3628      1.705      2.474    24.5892 0.0000e+00
      1.755      0.070     6.1646     73.794     38.161  37.708318     8.8786      8.138   222.5492 4.7749e+00     4.3726      1.719      2.494    24.5356 0.0000e+00
      1.772      0.074     5.9909     71.592     38.321  37.795341     8.6376      8.118   223.7431 4.6754e+00     4.3931      1.737      2.520    24.4963 0.0000e+00
      1.792      0.079     5.8089     69.287     38.716  38.106355     8.5833      8.096   224.7626 4.5611e+00     4.3656      1.756      2.547    24.4831 0.0000e+00
      1.816      0.083     5.5893     66.552     39.107  38.419215     8.2868      8.071   225.5835 4.4135e+00     4.3456      1.781      2.583    24.4773 0.0000e+00
      1.840      0.086     5.3245     63.310     39.214  38.465035     7.7453      8.045   226.4417 4.2710e+00     4.3658      1.805      2.618    24.4157 0.0000e+00
      1.863      0.090     5.0073     59.475     39.070  38.279100     7.4401      8.015   227.3093 4.1529e+00     4.4268      1.828      2.651    24.3106 0.0000e+00
      1.884      0.095     4.6235     54.861     38.842  38.013406     7.3997      7.984   228.1580 4.0470e+00     4.5032      1.849      2.682    24.2037 0.0000e+00
      1.904      0.099     4.1795     49.527     38.807  37.920745     7.3578      7.954   228.9599 3.9245e+00     4.6484      1.868      2.709    24.1102 0.0000e+00
      1.928      0.103     3.7180     43.982     39.013  38.048078     7.2822      7.924   229.7777 3.7569e+00     4.9014      1.887      2.737    24.0299 0.0000e+00
      1.958      0.105     3.3024     38.984     39.278  38.218756     7.2304      7.896   230.7329 3.5669e+00     5.0588      1.918      2.782    23.9797 0.0000e+00
      1.992      0.104     2.9797     35.095     39.490  38.332493     7.2179      7.871   231.7325 3.4102e+00     5.0564      1.956      2.837    23.9390 0.0000e+00
      2.023      0.099     2.7389     32.200     39.577  38.343117     7.1682      7.849   232.6582 3.2967e+00     5.0244      1.985      2.879    23.8581 0.0000e+00
      2.048      0.092     2.5253     29.650     39.572  38.283570     6.6292      7.824   233.3212 3.2011e+00     5.0692      2.009      2.914    23.7632 0.0000e+00
      2.069      0.083     2.2926     26.885     39.590  38.247748     5.6556      7.799   233.6395 3.1423e+00     5.1709      2.031      2.947    23.6524 0.0000e+00
      2.084      0.075     2.0349     23.832     39.757  38.354632     5.1277      7.777   233.9260 3.1046e+00     5.2159      2.045      2.966    23.5181 0.0000e+00
      2.099      0.071     1.7691     20.697     40.745  39.258159     5.0716      7.756   234.2900 3.0286e+00     5.2172      2.056      2.982    23.4215 0.0000e+00
      2.118      0.075     1.4943     17.460     44.782  43.072893     5.0043      7.733   234.5125 2.9448e+00     5.2175      2.078      3.014    23.3708 0.0000e+00
      2.135      0.084     1.2094     14.102     54.153  51.942295     4.8927      7.707   234.5514 2.8891e+00     5.2194      2.096      3.038    23.3009 0.0000e+00
      2.153      0.093     0.9292     10.805     67.054  64.113370     4.8342      7.679   234.6751 2.8171e+00     5.2395      2.105      3.053    23.2207 0.0000e+00
      2.178      0.100     0.6708      7.779     78.150  74.491468     4.8304      7.652   234.9751 2.6973e+00     5.2466      2.132      3.092    23.1781 0.0000e+00
      2.212      0.101     0.4506      5.211     83.245  79.126782     4.7923      7.627   235.2539 2.5703e+00     5.1831      2.170      3.148    23.1221 0.0000e+00
      2.245      0.097     0.2678      3.090     84.210  79.872759     4.7133      7.601   235.2065 2.4745e+00     5.0822      2.204      3.196    22.9879 0.0000e+00
      2.273      0.091     0.1158      1.334     88.514  83.829562     4.6653      7.566   234.8317 2.4023e+00     5.0342      2.232      3.237    22.8225 0.0000e+00
      2.293      0.084     0.0011      0.014     96.886  91.624828     4.6448      7.513   234.5939 2.3480e+00     5.0301      2.253      3.267    22.6637 0.0000e+00
      2.305      0.079    -0.0750     -0.860    103.986  98.147495     4.5010      7.447   233.7081 2.3018e+00     5.0012      2.260      3.278    22.5072 0.0000e+00
      2.317      0.077    -0.1173     -1.344    110.208 103.770437     4.2408      7.381   222.4009 2.2443e+00     4.9607      2.268      3.288    22.4026 0.0000e+00
      2.338      0.077    -0.1276     -1.459    117.702 110.538831     4.0907      7.319   192.2654 2.1583e+00     4.9065      2.290      3.320    22.3547 0.0000e+00
      2.364      0.079    -0.1118     -1.276    125.482 117.509263     4.0559      7.259   154.8195 2.0628e+00     4.8335      2.319      3.364    22.2969 0.0000e+00
      2.389      0.080    -0.0757     -0.861    131.353 122.622906     3.9124      7.203   124.7297 1.9915e+00     4.7808      2.345      3.401    22.1984 0.0000e+00
      2.409      0.077    -0.0258     -0.293    135.043 125.677756     3.6509      7.154   105.9297 1.9407e+00     4.7271      2.364      3.428    22.0805 0.0000e+00
      2.428      0.072     0.0255      0.288    138.707 128.733816     3.5125      7.112    96.4049 1.8949e+00     4.6726      2.380      3.452    21.9631 0.0000e+00
      2.444      0.066     0.0708      0.798    142.739 132.133678     3.5077      7.073    90.9599 1.8500e+00     4.6403      2.397      3.478    21.8310 0.0000e+00
      2.459      0.063     0.1114      1.253    146.434 135.194148     3.4368      7.038    86.5553 1.8035e+00     4.6724      2.412      3.498    21.6753 0.0000e+00
      2.473      0.061     0.1456      1.634    149.687 137.843434     3.2992      7.008    82.8995 1.7560e+00     4.7544      2.424      3.515    21.5192 0.0000e+00
      2.488      0.059     0.1713      1.919    152.445 140.034432     3.2317      6.985    79.7114 1.7210e+00     4.7784      2.439      3.538    21.3995 0.0000e+00
      2.504      0.056     0.1913      2.138    154.970 141.956342     3.2353      6.968    76.7446 1.6847e+00     4.7799      2.456      3.562    21.2880 0.0000e+00
      2.520      0.052     0.2055      2.290    156.821 143.201563     3.3062      6.954    72.7536 1.6442e+00     4.8027      2.473      3.586    21.1549 0.0000e+00
      2.535      0.050     0.2108      2.346    157.436 143.531693     3.3721      6.948    70.1748 1.6249e+00     4.8096      2.487      3.607    21.0392 0.0000e+00
      2.545 -9.990e-29 -9.990e-29 -9.990e-29 -9.990e-29 -9.990e-29 -9.990e-29 -9.990e-29 -9.990e-29 1.6233e+00 -9.990e-29      2.497      3.621    20.9270 0.0000e+00
      2.553 -9.990e-29 -9.990e-29 -9.990e-29 -9.990e-29 -9.990e-29 -9.990e-29 -9.990e-29 -9.990e-29 1.6167e+00 -9.990e-29      2.504      3.632    20.8164 0.0000e+00
      2.559 -9.990e-29 -9.990e-29 -9.990e-29 -9.990e-29 -9.990e-29 -9.990e-29 -9.990e-29 -9.990e-29 1.5986e+00 -9.990e-29      2.511      3.642    20.6346 0.0000e+00
      2.562 -9.990e-29 -9.990e-29 -9.990e-29 -9.990e-29 -9.990e-29 -9.990e-29 -9.990e-29 -9.990e-29 1.5881e+00 -9.990e-29      2.515      3.648    20.5001 0.0000e+00
