* Sea-Bird SBE19plus  Data File:
* FileName = C:\R\Reservoirs\Data\DataNotYetUploadedToEDI\Raw_CTD\RawDownloads\073124_ccr88_S8188_0002.hex
* Software version 2.8.0.119
* Temperature SN = 8188
* Conductivity SN = 8188
* System UpLoad Time = Aug 02 2024 14:05:17
* <ApplicationData>
* <Seaterm232>
* <SoftwareVersion>2.8.0.119</SoftwareVersion>
* <BuildDate>07-Nov-2018</BuildDate>
* </Seaterm232>
* </ApplicationData>
* <InstrumentState>
* <HardwareData DeviceType='SBE19plus' SerialNumber='01908188'>
*
*    <Manufacturer>Sea-Bird Electronics, Inc.</Manufacturer>
*
*    <FirmwareVersion>3.1.8</FirmwareVersion>
*
*    <FirmwareDate>Mar  9 2016 16:22:29</FirmwareDate>
*
*    <CommandSetVersion>1.4</CommandSetVersion>
*
*    <PCBAssembly PCBSerialNum='260079' AssemblyNum='41054K'/>
*
*    <PCBAssembly PCBSerialNum='260083' AssemblyNum='41059E'/>
*
*    <PCBAssembly PCBSerialNum='260085' AssemblyNum='41606B'/>
*
*    <PCBAssembly PCBSerialNum='260081' AssemblyNum='41967C'/>
*
*    <MfgDate>30 Mar 2022</MfgDate>
*
*    <InternalSensors>
*
*       <Sensor id='Main Temperature'>
*
*          <type>temperature0</type>
*
*          <SerialNumber>01908188</SerialNumber>
*
*       </Sensor>
*
*       <Sensor id='Main Conductivity'>
*
*          <type>conductivity-0</type>
*
*          <SerialNumber>01908188</SerialNumber>
*
*       </Sensor>
*
*       <Sensor id='Main Pressure'>
*
*          <type>strain-0</type>
*
*          <SerialNumber>12220741</SerialNumber>
*
*       </Sensor>
*
*    </InternalSensors>
*
*    <ExternalSensors>
*
*       <Sensor id='volt 0'>
*
*          <type>CHL</type>
*
*          <SerialNumber>FLNTURT-7096</SerialNumber>
*
*       </Sensor>
*
*       <Sensor id='volt 1'>
*
*          <type>NTU</type>
*
*          <SerialNumber>FLNTURT-7096</SerialNumber>
*
*       </Sensor>
*
*       <Sensor id='volt 2'>
*
*          <type>OXY</type>
*
*          <SerialNumber>43-4269</SerialNumber>
*
*       </Sensor>
*
*       <Sensor id='volt 3'>
*
*          <type>not assigned</type>
*
*          <SerialNumber>not assigned</SerialNumber>
*
*       </Sensor>
*
*       <Sensor id='volt 4'>
*
*          <type>PAR</type>
*
*          <SerialNumber>PARLOGICSW-2209</SerialNumber>
*
*       </Sensor>
*
*       <Sensor id='volt 5'>
*
*          <type>not assigned</type>
*
*          <SerialNumber>not assigned</SerialNumber>
*
*       </Sensor>
*
*       <Sensor id='serial'>
*
*          <type>WETLABS</type>
*
*          <SerialNumber>FL3-7350</SerialNumber>
*
*       </Sensor>
*
*    </ExternalSensors>
*
* </HardwareData>
* <StatusData DeviceType='SBE19plus' SerialNumber='01908188'>
*
*    <DateTime>2024-08-02T14:04:34</DateTime>
*
*    <LoggingState>not logging</LoggingState>
*
*    <EventSummary numEvents='0'/>
*
*    <Power>
*
*       <vMain>12.5</vMain>
*
*       <vLith>8.6</vLith>
*
*       <iMain>61.8</iMain>
*
*       <iPump>49.3</iPump>
*
*       <iExt01>22.3</iExt01>
*
*       <iExt2345>20.5</iExt2345>
*
*       <iSerial>54.0</iSerial>
*
*    </Power>
*
*    <MemorySummary>
*
*       <Bytes>301425</Bytes>
*
*       <Samples>12057</Samples>
*
*       <SamplesFree>2619868</SamplesFree>
*
*       <SampleLength>25</SampleLength>
*
*       <Profiles>11</Profiles>
*
*    </MemorySummary>
*
* </StatusData>
* <ConfigurationData DeviceType='SBE19plus' SerialNumber='01908188'>
*
*    <ProfileMode>
*
*       <ScansToAverage>1</ScansToAverage>
*
*       <MinimumCondFreq>2</MinimumCondFreq>
*
*       <PumpDelay>90</PumpDelay>
*
*       <AutoRun>no</AutoRun>
*
*       <IgnoreSwitch>no</IgnoreSwitch>
*
*    </ProfileMode>
*
*    <Battery>
*
*       <Type>alkaline</Type>
*
*       <CutOff>7.5</CutOff>
*
*    </Battery>
*
*    <DataChannels>
*
*       <ExtVolt0>yes</ExtVolt0>
*
*       <ExtVolt1>yes</ExtVolt1>
*
*       <ExtVolt2>yes</ExtVolt2>
*
*       <ExtVolt3>no</ExtVolt3>
*
*       <ExtVolt4>yes</ExtVolt4>
*
*       <ExtVolt5>no</ExtVolt5>
*
*       <SBE38>no</SBE38>
*
*       <WETLABS>yes</WETLABS>
*
*       <OPTODE>no</OPTODE>
*
*       <SBE63>no</SBE63>
*
*       <SeaFET>no</SeaFET>
*
*       <GTD>no</GTD>
*
*    </DataChannels>
*
*    <EchoCharacters>yes</EchoCharacters>
*
*    <OutputExecutedTag>yes</OutputExecutedTag>
*
*    <OutputFormat>raw HEX</OutputFormat>
*
* </ConfigurationData>
* <CalibrationCoefficients DeviceType='SBE19plus' SerialNumber='01908188'>
*
*    <Calibration format='TEMP1' id='Main Temperature'>
*
*       <SerialNum>01908188</SerialNum>
*
*       <CalDate>07-May-24</CalDate>
*
*       <TA0>1.249325e-03</TA0>
*
*       <TA1>2.751683e-04</TA1>
*
*       <TA2>-1.314205e-06</TA2>
*
*       <TA3>1.914222e-07</TA3>
*
*       <TOFFSET>0.000000e+00</TOFFSET>
*
*    </Calibration>
*
*    <Calibration format='WBCOND0' id='Main Conductivity'>
*
*       <SerialNum>01908188</SerialNum>
*
*       <CalDate>07-May-24</CalDate>
*
*       <G>-1.014855e+00</G>
*
*       <H>1.444624e-01</H>
*
*       <I>-3.430060e-04</I>
*
*       <J>4.842261e-05</J>
*
*       <CPCOR>-9.570000e-08</CPCOR>
*
*       <CTCOR>3.250000e-06</CTCOR>
*
*       <CSLOPE>1.000000e+00</CSLOPE>
*
*    </Calibration>
*
*    <Calibration format='STRAIN0' id='Main Pressure'>
*
*       <SerialNum>12220741</SerialNum>
*
*       <CalDate>03-Apr-24</CalDate>
*
*       <PA0>7.209200e-02</PA0>
*
*       <PA1>4.836684e-04</PA1>
*
*       <PA2>-3.501227e-12</PA2>
*
*       <PTCA0>5.244614e+05</PTCA0>
*
*       <PTCA1>2.020364e+01</PTCA1>
*
*       <PTCA2>-6.074616e-01</PTCA2>
*
*       <PTCB0>2.522087e+01</PTCB0>
*
*       <PTCB1>5.750000e-04</PTCB1>
*
*       <PTCB2>0.000000e+00</PTCB2>
*
*       <PTEMPA0>-5.770713e+01</PTEMPA0>
*
*       <PTEMPA1>5.343973e+01</PTEMPA1>
*
*       <PTEMPA2>-5.775530e-01</PTEMPA2>
*
*       <POFFSET>7.020000e-01</POFFSET>
*
*       <PRANGE>1.600000e+02</PRANGE>
*
*    </Calibration>
*
*    <Calibration format='VOLT0' id='Volt 0'>
*
*       <OFFSET>-4.657200e-02</OFFSET>
*
*       <SLOPE>1.248989e+00</SLOPE>
*
*    </Calibration>
*
*    <Calibration format='VOLT0' id='Volt 1'>
*
*       <OFFSET>-4.600800e-02</OFFSET>
*
*       <SLOPE>1.249849e+00</SLOPE>
*
*    </Calibration>
*
*    <Calibration format='VOLT0' id='Volt 2'>
*
*       <OFFSET>-4.668000e-02</OFFSET>
*
*       <SLOPE>1.250379e+00</SLOPE>
*
*    </Calibration>
*
*    <Calibration format='VOLT0' id='Volt 3'>
*
*       <OFFSET>-4.643200e-02</OFFSET>
*
*       <SLOPE>1.251002e+00</SLOPE>
*
*    </Calibration>
*
*    <Calibration format='VOLT0' id='Volt 4'>
*
*       <OFFSET>-4.606100e-02</OFFSET>
*
*       <SLOPE>1.249962e+00</SLOPE>
*
*    </Calibration>
*
*    <Calibration format='VOLT0' id='Volt 5'>
*
*       <OFFSET>-4.642700e-02</OFFSET>
*
*       <SLOPE>1.248530e+00</SLOPE>
*
*    </Calibration>
*
*    <Calibration format='FREQ0' id='external frequency channel'>
*
*       <EXTFREQSF>1.000018e+00</EXTFREQSF>
*
*    </Calibration>
*
* </CalibrationCoefficients>
* <EventCounters DeviceType='SBE19plus' SerialNumber='01908188'>
*
*    <EventSummary numEvents='0'/>
*
* </EventCounters></InstrumentState>
* <Headers>
*
* cast   2 31 Jul 2024 12:44:19 samples 971 to 1713, avg = 1, stop = mag switch
*
# nquan = 16
# nvalues = 743                         
# units = specified
# name 0 = depFM: Depth [fresh water, m]
# name 1 = dz/dtM: Descent Rate [m/s]
# name 2 = sbeox0Mg/L: Oxygen, SBE 43 [mg/l]
# name 3 = sbeox0PS: Oxygen, SBE 43 [% saturation]
# name 4 = specc: Specific Conductance [uS/cm]
# name 5 = c0uS/cm: Conductivity [uS/cm]
# name 6 = wetCDOM: Fluorescence, WET Labs CDOM [mg/m^3]
# name 7 = flECO-AFL: Fluorescence, WET Labs ECO-AFL/FL [mg/m^3]
# name 8 = flECO-AFL1: Fluorescence, WET Labs ECO-AFL/FL, 2 [mg/m^3]
# name 9 = flECO-AFL2: Fluorescence, WET Labs ECO-AFL/FL, 3 [mg/m^3]
# name 10 = par/sat/log: PAR/Logarithmic, Satlantic
# name 11 = turbWETntu0: Turbidity, WET Labs ECO [NTU]
# name 12 = prdM: Pressure, Strain Gauge [db]
# name 13 = prdE: Pressure, Strain Gauge [psi]
# name 14 = tv290C: Temperature [ITS-90, deg C]
# name 15 = flag:  0.000e+00
# span 0 =     -0.445,      4.099       
# span 1 =     -0.224,      0.156       
# span 2 =     4.0423,     8.6747       
# span 3 =     51.674,    111.323       
# span 4 =   -434.573,    117.257       
# span 5 =-460.937960, 124.908408       
# span 6 =    -4.5000,    13.1400       
# span 7 =    -1.7800,     7.1885       
# span 8 =    -2.1300,     1.2780       
# span 9 =    -4.6107,     1.9881       
# span 10 = 1.8861e+02, 3.1728e+03      
# span 11 =    -9.9928,    10.4462      
# span 12 =     -0.436,      4.019      
# span 13 =     -0.632,      5.829      
# span 14 =    26.0240,    28.4933      
# span 15 = 0.0000e+00, 0.0000e+00      
# interval = seconds: 0.25
# start_time = Jul 31 2024 12:44:19 [Instrument's time stamp, header]
# bad_flag = -9.990e-29
# <Sensors count="10" >
#   <sensor Channel="1" >
#     <!-- Count, Temperature -->
#     <TemperatureSensor SensorID="58" >
#       <SerialNumber>8188</SerialNumber>
#       <CalibrationDate>07-May-24</CalibrationDate>
#       <A0>1.24932504e-003</A0>
#       <A1>2.75168293e-004</A1>
#       <A2>-1.31420465e-006</A2>
#       <A3>1.91422179e-007</A3>
#       <Slope>1.00000000</Slope>
#       <Offset>0.0000</Offset>
#     </TemperatureSensor>
#   </sensor>
#   <sensor Channel="2" >
#     <!-- Frequency 0, Conductivity -->
#     <ConductivitySensor SensorID="3" >
#       <SerialNumber>8188</SerialNumber>
#       <CalibrationDate>07-May-24</CalibrationDate>
#       <UseG_J>1</UseG_J>
#       <!-- Cell const and series R are applicable only for wide range sensors. -->
#       <SeriesR>0.0000</SeriesR>
#       <CellConst>2000.0000</CellConst>
#       <ConductivityType>0</ConductivityType>
#       <Coefficients equation="0" >
#         <A>0.00000000e+000</A>
#         <B>0.00000000e+000</B>
#         <C>0.00000000e+000</C>
#         <D>0.00000000e+000</D>
#         <M>0.0</M>
#         <CPcor>-9.57000000e-008</CPcor>
#       </Coefficients>
#       <Coefficients equation="1" >
#         <G>-1.01485473e+000</G>
#         <H>1.44462400e-001</H>
#         <I>-3.43006030e-004</I>
#         <J>4.84226116e-005</J>
#         <CPcor>-9.57000000e-008</CPcor>
#         <CTcor>3.2500e-006</CTcor>
#         <!-- WBOTC not applicable unless ConductivityType = 1. -->
#         <WBOTC>0.00000000e+000</WBOTC>
#       </Coefficients>
#       <Slope>1.00000000</Slope>
#       <Offset>0.00000</Offset>
#     </ConductivitySensor>
#   </sensor>
#   <sensor Channel="3" >
#     <!-- Count, Pressure, Strain Gauge -->
#     <PressureSensor SensorID="46" >
#       <SerialNumber>8188</SerialNumber>
#       <CalibrationDate>03-Apr-24</CalibrationDate>
#       <PA0>7.20920045e-002</PA0>
#       <PA1>4.83668449e-004</PA1>
#       <PA2>-3.50122678e-012</PA2>
#       <PTEMPA0>-5.77071299e+001</PTEMPA0>
#       <PTEMPA1>5.34397285e+001</PTEMPA1>
#       <PTEMPA2>-5.77553003e-001</PTEMPA2>
#       <PTCA0>5.24461366e+005</PTCA0>
#       <PTCA1>2.02036405e+001</PTCA1>
#       <PTCA2>-6.07461634e-001</PTCA2>
#       <PTCB0>2.52208750e+001</PTCB0>
#       <PTCB1>5.75000000e-004</PTCB1>
#       <PTCB2>0.00000000e+000</PTCB2>
#       <Offset>0.000000</Offset>
#     </PressureSensor>
#   </sensor>
#   <sensor Channel="4" >
#     <!-- A/D voltage 0, Fluorometer, WET Labs ECO-AFL/FL -->
#     <FluoroWetlabECO_AFL_FL_Sensor SensorID="20" >
#       <SerialNumber>FLNTURT-7096</SerialNumber>
#       <CalibrationDate>21-Mar-2024</CalibrationDate>
#       <ScaleFactor>5.00000000e+001</ScaleFactor>
#       <!-- Dark output -->
#       <Vblank>0.0710</Vblank>
#     </FluoroWetlabECO_AFL_FL_Sensor>
#   </sensor>
#   <sensor Channel="5" >
#     <!-- A/D voltage 1, Turbidity Meter, WET Labs, ECO-NTU -->
#     <TurbidityMeter SensorID="67" >
#       <SerialNumber>FLNTURT-7096</SerialNumber>
#       <CalibrationDate>21-Mar-2024</CalibrationDate>
#       <ScaleFactor>198.000000</ScaleFactor>
#       <!-- Dark output -->
#       <DarkVoltage>0.070000</DarkVoltage>
#     </TurbidityMeter>
#   </sensor>
#   <sensor Channel="6" >
#     <!-- A/D voltage 2, Oxygen, SBE 43 -->
#     <OxygenSensor SensorID="38" >
#       <SerialNumber>4269</SerialNumber>
#       <CalibrationDate>08-May-24</CalibrationDate>
#       <Use2007Equation>1</Use2007Equation>
#       <CalibrationCoefficients equation="0" >
#         <!-- Coefficients for Owens-Millard equation. -->
#         <Boc>0.0000</Boc>
#         <Soc>0.0000e+000</Soc>
#         <offset>0.0000</offset>
#         <Pcor>0.00e+000</Pcor>
#         <Tcor>0.0000</Tcor>
#         <Tau>0.0</Tau>
#       </CalibrationCoefficients>
#       <CalibrationCoefficients equation="1" >
#         <!-- Coefficients for Sea-Bird equation - SBE calibration in 2007 and later. -->
#         <Soc>4.3983e-001</Soc>
#         <offset>-0.4978</offset>
#         <A>-4.5504e-003</A>
#         <B> 2.4929e-004</B>
#         <C>-4.1306e-006</C>
#         <D0> 2.5826e+000</D0>
#         <D1> 1.92634e-004</D1>
#         <D2>-4.64803e-002</D2>
#         <E> 3.6000e-002</E>
#         <Tau20> 1.9700</Tau20>
#         <H1>-3.3000e-002</H1>
#         <H2> 5.0000e+003</H2>
#         <H3> 1.4500e+003</H3>
#       </CalibrationCoefficients>
#     </OxygenSensor>
#   </sensor>
#   <sensor Channel="7" >
#     <!-- A/D voltage 3, PAR/Logarithmic, Satlantic -->
#     <PARLog_SatlanticSensor SensorID="76" >
#       <SerialNumber>2209</SerialNumber>
#       <CalibrationDate>14-Jan-2022</CalibrationDate>
#       <a0>9.8861e-001</a0>
#       <a1>8.0845e-001</a1>
#       <Im>1.3589e+000</Im>
#       <Multiplier>1.0000e+000</Multiplier>
#     </PARLog_SatlanticSensor>
#   </sensor>
#   <sensor Channel="8" >
#     <!-- Serial RS-232, Fluorometer, WET Labs ECO-AFL/FL, 2 -->
#     <FluoroWetlabECO_AFL_FL_Sensor SensorID="20" >
#       <SerialNumber>FL3-7350</SerialNumber>
#       <CalibrationDate>10-Mar-2022</CalibrationDate>
#       <ScaleFactor>4.26000000e-002</ScaleFactor>
#       <!-- Dark output -->
#       <Vblank>50.0000</Vblank>
#     </FluoroWetlabECO_AFL_FL_Sensor>
#   </sensor>
#   <sensor Channel="9" >
#     <!-- Serial RS-232, Fluorometer, WET Labs ECO-AFL/FL, 3 -->
#     <FluoroWetlabECO_AFL_FL_Sensor SensorID="20" >
#       <SerialNumber>FL3-7350</SerialNumber>
#       <CalibrationDate>10-Mar-2022</CalibrationDate>
#       <ScaleFactor>4.23000000e-002</ScaleFactor>
#       <!-- Dark output -->
#       <Vblank>48.0000</Vblank>
#     </FluoroWetlabECO_AFL_FL_Sensor>
#   </sensor>
#   <sensor Channel="10" >
#     <!-- Serial RS-232, Fluorometer, WET Labs ECO CDOM -->
#     <FluoroWetlabCDOM_Sensor SensorID="19" >
#       <SerialNumber>FL3-7350</SerialNumber>
#       <CalibrationDate>10-Mar-2022</CalibrationDate>
#       <ScaleFactor>0.090</ScaleFactor>
#       <!-- Dark output -->
#       <Vblank>50.000</Vblank>
#     </FluoroWetlabCDOM_Sensor>
#   </sensor>
# </Sensors>
# datcnv_date = Aug 02 2024 14:31:40, 7.26.7.129 [datcnv_vars = 15]
# datcnv_in = C:\R\Reservoirs\Data\DataNotYetUploadedToEDI\Raw_CTD\RawDownloads\073124_ccr90_S8188002.hex C:\R\Reservoirs\Data\DataNotYetUploadedToEDI\Raw_CTD\RawDownloads\SBE19plusV2_8188_start20240601.xmlcon
# datcnv_skipover = 0
# datcnv_ox_hysteresis_correction = yes
# datcnv_ox_tau_correction = yes
# filter_date = Aug 02 2024 14:33:18, 7.26.7.129
# filter_in = C:\R\Reservoirs\Data\DataNotYetUploadedToEDI\Raw_CTD\RawDownloads\073124_ccr90_S8188002.cnv
# filter_low_pass_tc_A = 0.500
# filter_low_pass_tc_B = 1.000
# filter_low_pass_A_vars = sbeox0Mg/L sbeox0PS specc c0uS/cm tv290C
# filter_low_pass_B_vars = depFM dz/dtM prdM prdE
# alignctd_date = Aug 02 2024 14:33:58, 7.26.7.129
# alignctd_in = C:\R\Reservoirs\Data\DataNotYetUploadedToEDI\Raw_CTD\RawDownloads\073124_ccr90_S8188002.cnv
# alignctd_adv = dz/dtM 1.000, sbeox0PS 1.000, specc 1.000, c0uS/cm 1.000, flECO-AFL 1.000, turbWETntu0 1.000                                                                                                                        
# file_type = ascii
*END*
     -0.445      0.000     7.1620     88.225      3.314   3.387544    -4.5000    -0.2579    -2.1300    -2.0304 2.3108e+03    -1.2159     -0.436     -0.632    26.1083 0.0000e+00
     -0.445      0.000     7.1589     88.132      3.690   3.771658    -4.5000    -0.2808    -2.1300    -2.0304 1.0983e+03    -1.1404     -0.436     -0.632    26.1079 0.0000e+00
     -0.445      0.000     7.1549     88.027      3.990   4.078200    -4.5000    -0.2846    -2.1300    -2.0304 7.3618e+02    -1.2612     -0.436     -0.632    26.1074 0.0000e+00
     -0.445      0.000     7.1500     87.917      4.136   4.227807     0.0000    -0.2808     0.1278    -0.1692 1.5057e+03    -1.1404     -0.436     -0.632    26.1068 0.0000e+00
     -0.445      0.000     7.1438     87.801      4.125   4.216616     0.0000    -0.2884     0.1278    -0.1692 2.2794e+03    -1.2159     -0.436     -0.632    26.1063 0.0000e+00
     -0.445      0.000     7.1363     87.676      4.018   4.107280     0.0000    -0.2808     0.1278    -0.1692 2.3048e+03    -1.1102     -0.436     -0.632    26.1058 0.0000e+00
     -0.444      0.000     7.1279     87.534      3.860   3.946227     0.0000    -0.2846     0.1278    -0.1692 1.8737e+03    -1.1555     -0.436     -0.632    26.1052 0.0000e+00
     -0.444      0.000     7.1190     87.364      3.673   3.754154     0.0000    -0.2846     0.1278    -0.1692 6.0226e+02    -1.2008     -0.436     -0.632    26.1046 0.0000e+00
     -0.444      0.000     7.1097     87.158      3.468   3.545479     0.0000    -0.2884     0.0852     0.1692 1.5398e+03    -1.2461     -0.436     -0.632    26.1041 0.0000e+00
     -0.444      0.000     7.0996     86.926      3.273   3.346099     0.0000    -0.2655     0.0852     0.1692 2.0398e+03    -1.1102     -0.436     -0.631    26.1037 0.0000e+00
     -0.444      0.001     7.0881     86.685      3.113   3.182404     0.0000    -0.2846     0.0852     0.1692 1.8422e+03    -1.1102     -0.435     -0.631    26.1036 0.0000e+00
     -0.443      0.001     7.0743     86.453      2.996   3.062452     0.0000    -0.2846     0.0852     0.1692 1.7214e+03    -1.1102     -0.435     -0.631    26.1036 0.0000e+00
     -0.443      0.001     7.0577     86.247      2.915   2.980110     0.0000    -0.2960     0.0426    -0.1692 1.6489e+03    -1.0800     -0.435     -0.631    26.1036 0.0000e+00
     -0.443      0.001     7.0390     86.086      2.870   2.933309     0.0000    -0.2808     0.0426    -0.1692 1.6124e+03    -1.0800     -0.435     -0.630    26.1032 0.0000e+00
     -0.443      0.002     7.0197     85.981      2.877   2.939402     0.0000    -0.2617     0.0426    -0.1692 1.5713e+03    -1.2008     -0.435     -0.630    26.1016 0.0000e+00
     -0.442      0.002     7.0013     85.934      2.954   3.017913     0.0000    -0.0938     0.0426    -0.1692 1.5025e+03    -2.1525     -0.434     -0.629    26.0979 0.0000e+00
     -0.442      0.003     6.9855     85.941      3.108   3.175856     0.0000    -0.1053     0.0426     0.6345 1.3513e+03    -2.1072     -0.434     -0.629    26.0912 0.0000e+00
     -0.441      0.003     6.9737     85.991      3.326   3.399661     0.0000    -0.0786     0.0426     0.6345 1.1823e+03    -2.1072     -0.433     -0.628    26.0817 0.0000e+00
     -0.441      0.004     6.9665     86.075      3.588   3.669456     0.0000    -0.1129     0.0426     0.6345 1.1041e+03    -2.0921     -0.432     -0.627    26.0708 0.0000e+00
     -0.440      0.006     6.9642     86.191      3.906   3.997518     0.0000    -0.1282     0.0426     0.6345 1.1276e+03    -2.8625     -0.431     -0.625    26.0595 0.0000e+00
     -0.438      0.007     6.9661     86.336      4.316   4.423598     0.0000    -0.0824     0.0000     0.1269 1.1429e+03    -2.8323     -0.430     -0.623    26.0485 0.0000e+00
     -0.437      0.009     6.9714     86.509      4.873   5.005626     0.0000    -0.1129     0.0000     0.1269 1.1687e+03    -2.8474     -0.428     -0.621    26.0386 0.0000e+00
     -0.434      0.012     6.9793     86.708      5.680   5.851075     0.0000    -0.1167     0.0000     0.1269 1.2866e+03    -2.8474     -0.426     -0.617    26.0307 0.0000e+00
     -0.431      0.015     6.9893     86.920      6.947   7.181421     0.0000    -1.0056     0.0000     0.1269 1.4292e+03     0.5213     -0.423     -0.613    26.0254 0.0000e+00
     -0.427      0.020     7.0013     87.133      9.043   9.383245     0.0000    -0.9979     0.0000     0.1269 1.5292e+03     0.5515     -0.419     -0.608    26.0240 0.0000e+00
     -0.422      0.025     7.0148     87.335     12.546  13.061601    -0.5400    -1.0361    -0.0426     0.5499 1.5648e+03     0.5515     -0.414     -0.601    26.0280 0.0000e+00
     -0.416      0.032     7.0295     87.518     18.386  19.193406    -0.5400    -1.0132    -0.0426     0.5499 1.5781e+03     0.6422     -0.408     -0.592    26.0392 0.0000e+00
     -0.408      0.042     7.0440     87.676     28.112  29.405853    -0.5400    -1.7800    -0.0426     0.5499 1.5781e+03     1.0652     -0.400     -0.580    26.0602 0.0000e+00
     -0.397      0.053     7.0568     87.809     42.607  44.670863    -0.5400    -1.7571    -0.0426     0.5499 1.6180e+03     1.0500     -0.389     -0.564    26.0954 0.0000e+00
     -0.383      0.067     7.0659     87.927     61.058  64.217334     0.0000    -1.7494    -0.1704    -2.1573 1.5624e+03     1.0047     -0.376     -0.545    26.1530 0.0000e+00
     -0.365      0.084     7.0687     88.037     79.955  84.383656     0.0000    -1.7685    -0.1704    -2.1573 1.5812e+03     1.0349     -0.358     -0.520    26.2470 0.0000e+00
     -0.343      0.101     7.0618     88.149     94.284  99.839049     0.0000     0.0282    -0.1704    -2.1573 1.6468e+03     5.7179     -0.336     -0.487    26.4014 0.0000e+00
     -0.314      0.118     7.0414     88.283    102.853 109.242054     0.0000     0.0397    -0.1704    -2.1573 1.0067e+03     5.8086     -0.308     -0.447    26.6462 0.0000e+00
     -0.280      0.133     7.0091     88.456    107.549 114.514051     0.9900     0.0282    -1.5336     1.9881 7.1801e+02     5.7633     -0.275     -0.399    26.9754 0.0000e+00
     -0.242      0.145     6.9734     88.688    109.646 116.970891     0.9900     0.0435    -1.5336     1.9881 6.3450e+02     5.7179     -0.238     -0.345    27.3277 0.0000e+00
     -0.201      0.153     6.9425     88.997    109.718 117.209722     0.9900     0.0702    -1.5336     1.9881 6.3644e+02     0.0681     -0.198     -0.286    27.6454 0.0000e+00
     -0.159      0.156     6.9206     89.386    107.815 115.282234     0.9900     0.0778    -1.5336     1.9881 7.7475e+02     0.0379     -0.156     -0.226    27.9060 0.0000e+00
     -0.117      0.155     6.9092     89.838    103.471 110.702445    10.0800     0.0702    -0.4686    -1.1844 7.6871e+02     0.0530     -0.115     -0.167    28.1076 0.0000e+00
     -0.076      0.149     6.9090     90.326     95.593 102.311103    10.0800     0.0931    -0.4686    -1.1844 6.9604e+02     0.0530     -0.075     -0.109    28.2560 0.0000e+00
     -0.038      0.140     6.9203     90.811     82.149  87.946545    10.0800     0.1389    -0.4686    -1.1844 6.0187e+02     0.0530     -0.037     -0.054    28.3589 0.0000e+00
     -0.003      0.129     6.9423     91.250     59.590  63.824239    10.0800     0.1656    -0.4686    -1.1844 5.7365e+02     0.0832     -0.003     -0.004    28.4252 0.0000e+00
      0.029      0.115     6.9726     91.607     21.906  23.523572    10.0800     0.1351    -0.4686    -1.1844 6.6370e+02     0.0379      0.029      0.041    28.4646 0.0000e+00
      0.057      0.101     7.0079     91.858    -40.982 -43.726311    11.4300     0.1579     0.0000     0.1692 5.7866e+02     0.0832      0.056      0.081    28.4852 0.0000e+00
      0.081      0.087     7.0445     91.989   -145.885-155.898727    11.4300     0.1236     0.0000     0.1692 5.0287e+02     0.0832      0.079      0.115    28.4932 0.0000e+00
      0.101      0.073     7.0786     91.998   -320.799-342.922327    11.4300     0.1427     0.0000     0.1692 5.4628e+02    -0.0074      0.099      0.143    28.4933 0.0000e+00
      0.117      0.060     7.1069     91.899   -430.111-459.817191    11.4300     0.1427     0.0000     0.1692 5.6573e+02     0.0379      0.114      0.166    28.4888 0.0000e+00
      0.129      0.048     7.1273     91.712   -320.715-342.898402    11.1600     0.1503     0.0426     0.0846 8.7444e+02     0.0530      0.127      0.184    28.4817 0.0000e+00
      0.139      0.039     7.1387     91.451   -145.705-155.832497    11.1600     0.2037     0.0426     0.0846 9.6552e+02     0.0983      0.137      0.198    28.4721 0.0000e+00
      0.147      0.030     7.1412     91.123    -40.689 -43.592118    11.1600     0.1885     0.0426     0.0846 1.1244e+03     0.0983      0.144      0.210    28.4597 0.0000e+00
      0.154      0.024     7.1353     90.744     22.320  23.745496    11.1600     0.2228     0.0426     0.0846 1.4731e+03     0.1286      0.151      0.218    28.4457 0.0000e+00
      0.158      0.018     7.1225     90.290     60.125  64.141044    11.0700     0.2152     0.0426     0.2115 1.4249e+03     0.0077      0.155      0.225    28.4318 0.0000e+00
      0.162      0.013     7.1037     89.637     82.805  88.370672    11.0700     0.1579     0.0426     0.2115 1.2704e+03     0.0681      0.159      0.231    28.4186 0.0000e+00
      0.165      0.009     7.0796     88.648     96.406 102.899615    11.0700     0.1465     0.0426     0.2115 1.2510e+03    -0.0376      0.161      0.234    28.4068 0.0000e+00
      0.166      0.005     7.0514     87.321    104.562 111.610260    11.0700     0.1503     0.0426     0.2115 1.1511e+03     0.0530      0.163      0.237    28.3967 0.0000e+00
      0.167      0.002     7.0171     85.812    109.452 116.833449    11.0700     0.1656     0.0426     0.2115 1.2975e+03     0.0983      0.164      0.238    28.3881 0.0000e+00
      0.167     -0.001     6.9672     84.343    112.381 119.962031    11.1600     0.2075     0.0426     0.2538 5.9744e+02     0.1437      0.164      0.238    28.3811 0.0000e+00
      0.166     -0.004     6.8909     83.100    114.127 121.826295    11.1600     0.1846     0.0426     0.2538 9.4272e+02     0.0228      0.163      0.237    28.3759 0.0000e+00
      0.165     -0.005     6.7882     82.143    115.159 122.927379    11.1600     0.1923     0.0426     0.2538 6.2615e+02     0.0077      0.162      0.234    28.3725 0.0000e+00
      0.162     -0.006     6.6711     81.445    115.768 123.574912    11.1600     0.2228     0.0426     0.2538 6.5524e+02     0.0681      0.159      0.231    28.3705 0.0000e+00
      0.160     -0.006     6.5570     80.996    116.133 123.961575    11.0700     0.2228     0.0426     0.0846 5.7677e+02     0.0681      0.157      0.228    28.3693 0.0000e+00
      0.158     -0.006     6.4605     80.781    116.361 124.202482    11.0700     0.2075     0.0426     0.0846 7.7982e+02     0.0681      0.155      0.226    28.3684 0.0000e+00
      0.157     -0.005     6.3862     80.694    116.514 124.365878    11.0700     0.2113     0.0426     0.0846 7.9384e+02     0.0681      0.154      0.224    28.3673 0.0000e+00
      0.156     -0.004     6.3321     80.562    116.620 124.479328    11.0700     0.2075     0.0426     0.0846 8.5156e+02     0.0228      0.153      0.222    28.3657 0.0000e+00
      0.155     -0.003     6.2974     80.211    116.684 124.549076    11.3400     0.2075     0.0426     0.1692 7.3714e+02     0.0832      0.152      0.221    28.3641 0.0000e+00
      0.155     -0.001     6.2808     79.529    116.718 124.585721    11.3400     0.2152     0.0426     0.1692 7.1833e+02     0.0832      0.152      0.220    28.3630 0.0000e+00
      0.154      0.000     6.2741     78.513    116.731 124.599034    11.3400     0.1999     0.0426     0.1692 7.0840e+02    -0.0074      0.151      0.219    28.3627 0.0000e+00
      0.154      0.001     6.2638     77.254    116.730 124.596565    11.3400     0.2266     0.0426     0.1692 7.8988e+02     0.0983      0.151      0.220    28.3632 0.0000e+00
      0.155      0.002     6.2364     75.893    116.722 124.589662    11.0700     0.2075     0.0000     0.1269 7.3092e+02     0.0983      0.152      0.221    28.3637 0.0000e+00
      0.156      0.003     6.1834     74.582    116.719 124.592488    11.0700     0.1923     0.0000     0.1269 9.2065e+02    -0.0074      0.153      0.222    28.3636 0.0000e+00
      0.157      0.003     6.1044     73.491    116.733 124.617802    11.0700     0.2228     0.0000     0.1269 8.6255e+02     0.0077      0.154      0.224    28.3632 0.0000e+00
      0.159      0.003     6.0066     72.787    116.754 124.656349    11.0700     0.2113     0.0000     0.1269 1.0241e+03     0.1437      0.155      0.225    28.3629 0.0000e+00
      0.159      0.003     5.9007     72.578    116.754 124.678394    11.0700     0.0893     0.0000     0.1269 8.9695e+02     0.0983      0.156      0.226    28.3636 0.0000e+00
      0.160      0.003     5.7986     72.859    116.729 124.677813    11.2500     0.0664     0.0426     0.2538 8.8035e+02     0.0228      0.157      0.227    28.3658 0.0000e+00
      0.160      0.003     5.7133     73.552    116.702 124.674459    11.2500     0.0893     0.0426     0.2538 8.1517e+02     0.1286      0.157      0.228    28.3702 0.0000e+00
      0.161      0.003     5.6578     74.545    116.687 124.683446    11.2500     0.0931     0.0426     0.2538 1.0703e+03     0.0379      0.158      0.229    28.3773 0.0000e+00
      0.162      0.003     5.6406     75.695    116.687 124.707171    11.2500     0.1007     0.0426     0.2538 9.6952e+02     0.0983      0.159      0.230    28.3868 0.0000e+00
      0.163      0.003     5.6614     76.856    116.699 124.739958    11.1600     0.0855     0.0426     0.1692 8.3688e+02     0.1286      0.160      0.231    28.3978 0.0000e+00
      0.163      0.003     5.7141     77.898    116.709 124.766543    11.1600     0.0816     0.0426     0.1692 8.7178e+02     0.0681      0.160      0.232    28.4090 0.0000e+00
      0.164      0.003     5.7901     78.699    116.710 124.778009    11.1600     0.0931     0.0426     0.1692 8.7501e+02     0.0681      0.161      0.233    28.4198 0.0000e+00
      0.164      0.003     5.8784     79.188    116.714 124.785419    11.1600     0.1427     0.0426     0.1692 7.5415e+02     0.0832      0.161      0.234    28.4298 0.0000e+00
      0.165      0.003     5.9677     79.400    116.725 124.794749    11.3400     0.1503     0.0852     0.2538 5.9822e+02     0.0228      0.162      0.235    28.4385 0.0000e+00
      0.166      0.004     6.0479     79.451    116.736 124.800484    11.3400     0.1351     0.0852     0.2538 7.6855e+02    -0.0074      0.163      0.236    28.4452 0.0000e+00
      0.167      0.005     6.1096     79.473    116.743 124.800151    11.3400     0.1579     0.0852     0.2538 7.3794e+02     0.0228      0.164      0.237    28.4495 0.0000e+00
      0.168      0.005     6.1474     79.555    116.747 124.793661    11.3400     0.1198     0.0852     0.2538 8.0776e+02     0.0983      0.165      0.239    28.4510 0.0000e+00
      0.170      0.006     6.1640     79.718    116.748 124.783285    11.3400     0.1579     0.0852     0.2538 7.7089e+02     0.0228      0.166      0.241    28.4502 0.0000e+00
      0.172      0.007     6.1682     79.940    116.754 124.778259    11.1600     0.1503     0.0426     0.1269 8.3543e+02     0.0379      0.168      0.244    28.4476 0.0000e+00
      0.174      0.007     6.1703     80.205    116.765 124.777243    11.1600     0.1427     0.0426     0.1269 6.6601e+02     0.0681      0.170      0.247    28.4440 0.0000e+00
      0.176      0.007     6.1772     80.495    116.769 124.767959    11.1600     0.1160     0.0426     0.1269 6.6818e+02     0.1134      0.172      0.250    28.4397 0.0000e+00
      0.178      0.007     6.1904     80.771    116.766 124.751935    11.1600     0.1427     0.0426     0.1269 9.4292e+02     0.0530      0.175      0.253    28.4347 0.0000e+00
      0.180      0.006     6.2082     80.971    116.766 124.736899    11.3400     0.1389     0.0426     0.0846 5.4037e+02     0.0832      0.176      0.256    28.4294 0.0000e+00
      0.181      0.005     6.2294     81.026    116.763 124.718843    11.3400     0.1389     0.0426     0.0846 5.5840e+02     0.0832      0.178      0.258    28.4239 0.0000e+00
      0.182      0.004     6.2525     80.904    116.752 124.692951    11.3400     0.1351     0.0426     0.0846 4.1175e+02     0.0228      0.179      0.260    28.4183 0.0000e+00
      0.183      0.003     6.2746     80.624    116.735 124.660320    11.3400     0.1465     0.0426     0.0846 4.1435e+02     0.1134      0.180      0.260    28.4125 0.0000e+00
      0.183      0.002     6.2908     80.229    116.703 124.612247    11.3400     0.1541     0.0852     0.1692 8.1269e+02     0.0681      0.180      0.261    28.4064 0.0000e+00
      0.183      0.002     6.2958     79.755    116.651 124.543916    11.3400     0.1427     0.0852     0.1692 8.6724e+02     0.0832      0.180      0.261    28.4001 0.0000e+00
      0.183      0.002     6.2870     79.247    116.593 124.469116    11.3400     0.1351     0.0852     0.1692 8.6781e+02     0.0681      0.180      0.261    28.3939 0.0000e+00
      0.184      0.002     6.2659     78.767    116.549 124.409916    11.3400     0.1656     0.0852     0.1692 4.5553e+02     0.0983      0.181      0.262    28.3879 0.0000e+00
      0.185      0.002     6.2358     78.358    116.530 124.378537    11.2500     0.1427     0.0426     0.1692 6.1589e+02    -0.0527      0.181      0.263    28.3821 0.0000e+00
      0.186      0.001     6.1995     78.030    116.524 124.362609    11.2500     0.1541     0.0426     0.1692 8.4658e+02     0.0983      0.182      0.264    28.3764 0.0000e+00
      0.186      0.001     6.1607     77.755    116.521 124.351884    11.2500     0.1541     0.0426     0.1692 5.4296e+02     0.0077      0.182      0.264    28.3708 0.0000e+00
      0.186      0.000     6.1239     77.486    116.526 124.349503    11.2500     0.1351     0.0426     0.1692 6.1790e+02    -0.0074      0.182      0.264    28.3656 0.0000e+00
      0.186     -0.001     6.0926     77.198    116.535 124.352829    11.2500     0.1618     0.0426     0.1692 4.7288e+02     0.1286      0.182      0.264    28.3609 0.0000e+00
      0.186     -0.002     6.0675     76.909    116.543 124.356748    10.9800     0.1427     0.0426     0.1692 6.0818e+02     0.0983      0.182      0.264    28.3568 0.0000e+00
      0.185     -0.002     6.0466     76.670    116.546 124.354301    10.9800     0.1236     0.0426     0.1692 5.1191e+02    -0.0678      0.181      0.263    28.3532 0.0000e+00
      0.184     -0.002     6.0260     76.530    116.531 124.330831    10.9800     0.1427     0.0426     0.1692 4.3032e+02     0.0983      0.181      0.262    28.3501 0.0000e+00
      0.183     -0.002     6.0039     76.473    116.500 124.286082    10.9800     0.1579     0.0426     0.1692 4.1553e+02     0.0983      0.180      0.261    28.3475 0.0000e+00
      0.182     -0.002     5.9817     76.398    116.474 124.240132    11.3400     0.1427     0.0426     0.1692 4.4131e+02     0.1286      0.179      0.259    28.3453 0.0000e+00
      0.182     -0.002     5.9633     76.182    116.464 124.206734    11.3400     0.1389     0.0426     0.1692 4.2734e+02     0.0832      0.178      0.259    28.3432 0.0000e+00
      0.181     -0.001     5.9527     75.765    116.475 124.188987    11.3400     0.1274     0.0426     0.1692 4.2521e+02     0.0228      0.178      0.258    28.3400 0.0000e+00
      0.181     -0.001     5.9488     75.163    116.500 124.186157    11.3400     0.1351     0.0426     0.1692 4.3201e+02     0.1134      0.178      0.258    28.3347 0.0000e+00
      0.181     -0.001     5.9437     74.449    116.526 124.189485    11.2500     0.1427     0.0852     0.1269 4.2660e+02     0.1134      0.178      0.258    28.3271 0.0000e+00
      0.181     -0.000     5.9280     73.691    116.534 124.179848    11.2500     0.1503     0.0852     0.1269 4.2502e+02     0.0681      0.178      0.258    28.3170 0.0000e+00
      0.181     -0.000     5.8968     72.924    116.519 124.150676    11.2500     0.1503     0.0852     0.1269 4.2272e+02     0.1286      0.178      0.258    28.3048 0.0000e+00
      0.181     -0.000     5.8513     72.157    116.494 124.114196    11.2500     0.1618     0.0852     0.1269 4.2558e+02     0.0077      0.178      0.258    28.2921 0.0000e+00
      0.181     -0.000     5.7967     71.383    116.471 124.080686    11.2500     0.1732     0.0852     0.1269 4.1301e+02     0.0681      0.177      0.257    28.2814 0.0000e+00
      0.181     -0.000     5.7385     70.587    116.458 124.057217    11.3400     0.1427     0.0426     0.1692 4.2892e+02     0.0681      0.177      0.257    28.2735 0.0000e+00
      0.181     -0.000     5.6794     69.752    116.452 124.041531    11.3400     0.1579     0.0426     0.1692 4.2613e+02     0.0681      0.178      0.257    28.2683 0.0000e+00
      0.181      0.000     5.6201     68.879    116.444 124.025442    11.3400     0.1427     0.0426     0.1692 4.2567e+02    -0.0074      0.178      0.258    28.2641 0.0000e+00
      0.181      0.001     5.5602     67.995    116.443 124.016663    11.3400     0.1656     0.0426     0.1692 4.4613e+02     0.1134      0.178      0.258    28.2600 0.0000e+00
      0.181      0.001     5.4986     67.146    116.448 124.012854    11.2500     0.1427     0.0852     0.2538 4.3977e+02    -0.0376      0.178      0.258    28.2558 0.0000e+00
      0.182      0.002     5.4339     66.377    116.439 123.992992    11.2500     0.1351     0.0852     0.2538 4.2762e+02     0.0681      0.178      0.258    28.2520 0.0000e+00
      0.182      0.002     5.3662     65.709    116.420 123.959782    11.2500     0.1503     0.0852     0.2538 4.1715e+02    -0.0074      0.179      0.259    28.2487 0.0000e+00
      0.183      0.003     5.2976     65.136    116.412 123.936379    11.2500     0.1274     0.0852     0.2538 4.3863e+02     0.1286      0.179      0.260    28.2453 0.0000e+00
      0.184      0.003     5.2318     64.637    116.421 123.928546    11.1600     0.1351     0.1278     0.1692 4.2976e+02    -0.0225      0.180      0.261    28.2416 0.0000e+00
      0.185      0.003     5.1723     64.185    116.437 123.926191    11.1600     0.1427     0.1278     0.1692 4.1934e+02     0.0832      0.181      0.263    28.2370 0.0000e+00
      0.186      0.003     5.1208     63.752    116.456 123.924682    11.1600     0.1351     0.1278     0.1692 4.2300e+02     0.0530      0.182      0.264    28.2315 0.0000e+00
      0.186      0.002     5.0767     63.317    116.473 123.923616    11.1600     0.1389     0.1278     0.1692 6.0778e+02     0.0228      0.183      0.265    28.2250 0.0000e+00
      0.187      0.000     5.0385     62.867    116.487 123.922707    11.1600     0.1351     0.0426     0.1692 4.9971e+02     0.0681      0.183      0.266    28.2176 0.0000e+00
      0.187     -0.001     5.0040     62.399    116.493 123.917711    11.1600     0.0588     0.0426     0.1692 4.4073e+02     0.0228      0.183      0.266    28.2091 0.0000e+00
      0.186     -0.002     4.9710     61.917    116.492 123.907295    11.1600     0.0702     0.0426     0.1692 4.6161e+02     0.0228      0.182      0.265    28.2000 0.0000e+00
      0.185     -0.003     4.9378     61.426    116.484 123.892683    11.1600     0.0855     0.0426     0.1692 4.3427e+02     0.0077      0.181      0.263    28.1918 0.0000e+00
      0.184     -0.004     4.9033     60.932    116.472 123.873980    11.1600     0.0778     0.0426     0.1692 4.4294e+02    -0.0527      0.180      0.261    28.1851 0.0000e+00
      0.182     -0.004     4.8672     60.440    116.461 123.854200    11.2500     0.0588     0.0426     0.1269 4.5247e+02     0.0681      0.179      0.259    28.1801 0.0000e+00
      0.181     -0.003     4.8300     59.954    116.454 123.836072    11.2500     0.0702     0.0426     0.1269 4.3257e+02     0.0228      0.178      0.258    28.1763 0.0000e+00
      0.181     -0.002     4.7920     59.481    116.452 123.822763    11.2500     0.0855     0.0426     0.1269 4.3758e+02     0.0983      0.177      0.257    28.1735 0.0000e+00
      0.180     -0.001     4.7537     59.029    116.455 123.814725    11.2500     0.1007     0.0426     0.1269 4.2771e+02     0.1134      0.177      0.256    28.1707 0.0000e+00
      0.180     -0.000     4.7155     58.605    116.459 123.809813    11.3400     0.1389     0.0852     0.0846 4.3398e+02     0.0832      0.177      0.256    28.1672 0.0000e+00
      0.181      0.000     4.6779     58.211    116.464 123.806718    11.3400     0.1427     0.0852     0.0846 4.2734e+02     0.1134      0.177      0.257    28.1628 0.0000e+00
      0.181      0.000     4.6415     57.843    116.467 123.804614    11.3400     0.1579     0.0852     0.0846 4.3825e+02     0.1134      0.177      0.257    28.1580 0.0000e+00
      0.181     -0.000     4.6066     57.501    116.468 123.802938    11.3400     0.1084     0.0852     0.0846 4.2539e+02     0.0832      0.177      0.257    28.1533 0.0000e+00
      0.181     -0.001     4.5738     57.189    116.459 123.793241    11.1600     0.1427     0.0000     0.1269 4.4778e+02     0.1890      0.177      0.257    28.1491 0.0000e+00
      0.180     -0.001     4.5433     56.912    116.433 123.764936    11.1600     0.1351     0.0000     0.1269 4.3606e+02     0.0530      0.177      0.256    28.1457 0.0000e+00
      0.180     -0.001     4.5148     56.662    116.397 123.724479    11.1600     0.1389     0.0000     0.1269 4.4622e+02     0.0681      0.176      0.256    28.1434 0.0000e+00
      0.179     -0.001     4.4882     56.430    116.360 123.681088    11.1600     0.1503     0.0000     0.1269 4.4535e+02     0.0077      0.176      0.255    28.1422 0.0000e+00
      0.179     -0.001     4.4639     56.224    116.315 123.629194    11.1600     0.1465     0.0000     0.1269 4.2752e+02     0.0077      0.176      0.254    28.1419 0.0000e+00
      0.179     -0.001     4.4423     56.073    116.243 123.548957    11.2500     0.1541     0.0426     0.1692 4.5031e+02    -0.0225      0.175      0.254    28.1416 0.0000e+00
      0.179     -0.002     4.4228     56.007    116.114 123.408975    11.2500     0.1351     0.0426     0.1692 4.4584e+02    -0.0074      0.175      0.254    28.1406 0.0000e+00
      0.178     -0.002     4.4048     56.049    115.891 123.169920    11.2500     0.1503     0.0426     0.1692 4.0115e+02     0.0530      0.175      0.254    28.1390 0.0000e+00
      0.178     -0.002     4.3889     56.218    115.515 122.770043    11.2500     0.1427     0.0426     0.1692 4.2144e+02     0.0832      0.175      0.253    28.1371 0.0000e+00
      0.177     -0.002     4.3772     56.538    114.881 122.096710    11.4300     0.1160     0.0426     0.1692 4.5761e+02     0.0832      0.174      0.252    28.1354 0.0000e+00
      0.176     -0.002     4.3722     57.028    113.815 120.962363    11.4300     0.1427     0.0426     0.1692 4.2502e+02     0.1134      0.173      0.250    28.1341 0.0000e+00
      0.175     -0.001     4.3755     57.699    112.037 119.068511    11.4300     0.1312     0.0426     0.1692 4.4661e+02     0.1134      0.172      0.249    28.1334 0.0000e+00
      0.175     -0.000     4.3887     58.584    109.084 115.922131    11.4300     0.1465     0.0426     0.1692 4.4477e+02     0.0077      0.172      0.249    28.1332 0.0000e+00
      0.176      0.000     4.4138     59.696    104.174 110.688189    11.2500     0.1389     0.0426     0.0846 4.3474e+02     0.0832      0.173      0.250    28.1331 0.0000e+00
      0.176      0.000     4.4521     60.947     95.982 101.962963    11.2500     0.1312     0.0426     0.0846 4.0307e+02     0.0681      0.173      0.251    28.1323 0.0000e+00
      0.177      0.000     4.5047     62.155     82.305  87.415722    11.2500     0.1579     0.0426     0.0846 3.9742e+02     0.0228      0.174      0.252    28.1301 0.0000e+00
      0.177     -0.001     4.5741     63.136     59.490  63.171202    11.2500     0.1427     0.0426     0.0846 4.3379e+02     0.0681      0.174      0.252    28.1255 0.0000e+00
      0.176     -0.002     4.6617     63.784     21.448  22.764196    11.4300     0.1732     0.0426     0.2538 4.2162e+02     0.0681      0.173      0.251    28.1173 0.0000e+00
      0.175     -0.003     4.7603     64.064    -41.964 -44.582497    11.4300     0.1236     0.0426     0.2538 4.3126e+02     0.0681      0.172      0.250    28.1067 0.0000e+00
      0.175     -0.003     4.8554     63.989   -147.652-156.825994    11.4300     0.1274     0.0426     0.2538 4.3154e+02     0.0681      0.171      0.248    28.0972 0.0000e+00
      0.174     -0.002     4.9326     63.600   -323.790-343.891892    11.4300     0.1694     0.0426     0.2538 4.5267e+02     0.0681      0.170      0.247    28.0913 0.0000e+00
      0.173     -0.002     4.9834     62.985   -433.878-460.808894    11.4300     0.1351     0.0426     0.2538 4.4807e+02    -0.0074      0.170      0.246    28.0891 0.0000e+00
      0.172      0.000     5.0053     62.270   -323.802-343.903335    11.3400     0.1694     0.0426     0.2115 4.4303e+02     0.0832      0.169      0.245    28.0890 0.0000e+00
      0.172      0.002     4.9995     61.570   -147.677-156.851932    11.3400     0.1579     0.0426     0.2115 4.8107e+02     0.0228      0.169      0.245    28.0892 0.0000e+00
      0.173      0.004     4.9692     60.954    -42.007 -44.629846    11.3400     0.1656     0.0426     0.2115 4.6382e+02     0.1588      0.170      0.246    28.0893 0.0000e+00
      0.174      0.006     4.9212     60.442     21.391  22.692814    11.3400     0.1312     0.0426     0.2115 4.3464e+02     0.0832      0.171      0.247    28.0895 0.0000e+00
      0.176      0.008     4.8652     60.020     59.432  63.084761    11.1600     0.1656     0.0426     0.0846 4.3758e+02     0.0983      0.173      0.250    28.0899 0.0000e+00
      0.179      0.010     4.8104     59.666     82.258  87.317180    11.1600     0.1351     0.0426     0.0846 4.3625e+02     0.0530      0.176      0.254    28.0896 0.0000e+00
      0.182      0.011     4.7624     59.363     95.944 101.844046    11.1600     0.0816     0.0426     0.0846 4.3872e+02    -0.0074      0.178      0.258    28.0879 0.0000e+00
      0.185      0.011     4.7227     59.095    104.149 110.551195    11.1600     0.0778     0.0426     0.0846 4.2595e+02     0.1286      0.181      0.263    28.0845 0.0000e+00
      0.188      0.011     4.6900     58.850    109.076 115.776537    11.3400     0.0855     0.0426     0.1692 4.1688e+02     0.0832      0.184      0.267    28.0804 0.0000e+00
      0.190      0.010     4.6626     58.621    112.040 118.917498    11.3400     0.0855     0.0426     0.1692 3.8879e+02     0.0681      0.187      0.271    28.0765 0.0000e+00
      0.193      0.009     4.6392     58.412    113.830 120.811666    11.3400     0.1579     0.0426     0.1692 4.1220e+02     0.0228      0.190      0.275    28.0731 0.0000e+00
      0.195      0.008     4.6185     58.240    114.912 121.956151    11.3400     0.1312     0.0426     0.1692 7.0687e+02     0.0983      0.192      0.278    28.0700 0.0000e+00
      0.197      0.007     4.5996     58.112    115.561 122.640144    11.3400     0.1427     0.0426     0.1692 4.9356e+02     0.0681      0.194      0.280    28.0669 0.0000e+00
      0.198      0.006     4.5819     58.010    115.944 123.042040    11.2500     0.1236     0.0000     0.0846 8.3072e+02    -0.0678      0.195      0.282    28.0638 0.0000e+00
      0.200      0.006     4.5658     57.901    116.174 123.281016    11.2500     0.0778     0.0000     0.0846 4.1670e+02     0.0983      0.196      0.284    28.0611 0.0000e+00
      0.201      0.006     4.5526     57.762    116.317 123.428801    11.2500     0.0702     0.0000     0.0846 8.3416e+02    -0.0376      0.197      0.286    28.0587 0.0000e+00
      0.203      0.006     4.5427     57.583    116.403 123.516801    11.2500     0.0702     0.0000     0.0846 3.9535e+02     0.0983      0.199      0.288    28.0566 0.0000e+00
      0.204      0.005     4.5349     57.370    116.451 123.564482    11.1600     0.0855     0.0852     0.2961 4.0011e+02     0.1588      0.200      0.291    28.0545 0.0000e+00
      0.206      0.005     4.5266     57.139    116.483 123.596563    11.1600     0.0588     0.0852     0.2961 8.3743e+02     0.0681      0.202      0.293    28.0524 0.0000e+00
      0.207      0.004     4.5159     56.913    116.508 123.621597    11.1600     0.0588     0.0852     0.2961 4.3682e+02     0.1286      0.203      0.294    28.0505 0.0000e+00
      0.208      0.004     4.5021     56.711    116.521 123.634258    11.1600     0.0931     0.0852     0.2961 4.4506e+02     0.1588      0.204      0.296    28.0488 0.0000e+00
      0.209      0.003     4.4855     56.532    116.526 123.637920    11.2500     0.0664     0.0852     0.1692 4.3107e+02     0.0228      0.205      0.297    28.0475 0.0000e+00
      0.209      0.003     4.4675     56.369    116.527 123.637564    11.2500     0.1312     0.0852     0.1692 4.2098e+02     0.0228      0.205      0.298    28.0466 0.0000e+00
      0.210      0.003     4.4499     56.212    116.524 123.633092    11.2500     0.1694     0.0852     0.1692 4.3996e+02     0.1588      0.206      0.298    28.0461 0.0000e+00
      0.210      0.003     4.4341     56.063    116.520 123.627314    11.2500     0.1389     0.0852     0.1692 4.4025e+02    -0.0376      0.206      0.299    28.0456 0.0000e+00
      0.211      0.003     4.4202     55.921    116.516 123.622690    11.2500     0.1236     0.0426     0.0846 4.2382e+02    -0.0376      0.207      0.300    28.0449 0.0000e+00
      0.211      0.003     4.4075     55.769    116.512 123.617987    11.2500     0.1236     0.0426     0.0846 5.3768e+02     0.0983      0.207      0.301    28.0441 0.0000e+00
      0.212      0.003     4.3953     55.588    116.511 123.615953    11.2500     0.1389     0.0426     0.0846 3.9915e+02     0.0681      0.208      0.302    28.0435 0.0000e+00
      0.213      0.003     4.3837     55.386    116.515 123.620046    11.2500     0.1236     0.0426     0.0846 4.1824e+02     0.0983      0.209      0.303    28.0432 0.0000e+00
      0.214      0.003     4.3726     55.185    116.522 123.627356    11.2500     0.1618     0.0426     0.0846 4.7236e+02     0.0832      0.210      0.305    28.0430 0.0000e+00
      0.215      0.003     4.3607     55.002    116.523 123.627829    11.1600     0.1351     0.0426     0.1269 5.1136e+02    -0.0074      0.211      0.306    28.0428 0.0000e+00
      0.216      0.002     4.3466     54.849    116.514 123.617590    11.1600     0.1579     0.0426     0.1269 4.8002e+02    -0.0527      0.212      0.307    28.0424 0.0000e+00
      0.216      0.002     4.3308     54.733    116.503 123.605911    11.1600     0.1389     0.0426     0.1269 4.2734e+02     0.0379      0.212      0.308    28.0421 0.0000e+00
      0.217      0.001     4.3150     54.646    116.496 123.597682    11.1600     0.1427     0.0426     0.1269 4.4506e+02    -0.0074      0.213      0.308    28.0420 0.0000e+00
      0.217      0.001     4.3007     54.565    116.487 123.586706    11.1600     0.1465     0.0852     0.1269 4.2808e+02     0.0832      0.213      0.308    28.0420 0.0000e+00
      0.217      0.001     4.2888     54.470    116.476 123.574058    11.1600     0.1427     0.0852     0.1269 4.1934e+02     0.0077      0.213      0.308    28.0420 0.0000e+00
      0.217      0.002     4.2798     54.349    116.468 123.564367    11.1600     0.1465     0.0852     0.1269 4.4506e+02     0.0530      0.213      0.309    28.0418 0.0000e+00
      0.218      0.002     4.2730     54.203    116.456 123.551048    11.1600     0.1579     0.0852     0.1269 4.9625e+02     0.0983      0.214      0.309    28.0414 0.0000e+00
      0.218      0.003     4.2667     54.047    116.429 123.522546    11.3400     0.1656     0.0426     0.1692 4.6312e+02    -0.0376      0.214      0.310    28.0407 0.0000e+00
      0.219      0.003     4.2593     53.894    116.377 123.467260    11.3400     0.1618     0.0426     0.1692 4.5622e+02     0.0077      0.214      0.311    28.0401 0.0000e+00
      0.220      0.004     4.2499     53.744    116.291 123.374448    11.3400     0.1274     0.0426     0.1692 5.1942e+02     0.0530      0.215      0.312    28.0397 0.0000e+00
      0.221      0.004     4.2385     53.599    116.149 123.223362    11.3400     0.1465     0.0426     0.1692 4.3587e+02    -0.0074      0.217      0.314    28.0395 0.0000e+00
      0.222      0.004     4.2263     53.463    115.919 122.977712    11.3400     0.1427     0.0426     0.1692 4.1906e+02     0.1134      0.218      0.316    28.0395 0.0000e+00
      0.224      0.004     4.2143     53.332    115.538 122.571993    11.3400     0.1656     0.0426     0.2115 4.3098e+02    -0.0074      0.219      0.318    28.0394 0.0000e+00
      0.225      0.004     4.2027     53.201    114.896 121.890010    11.3400     0.1579     0.0426     0.2115 4.1824e+02     0.0681      0.221      0.320    28.0391 0.0000e+00
      0.226      0.003     4.1914     53.066    113.823 120.749901    11.3400     0.1389     0.0426     0.2115 4.1399e+02     0.0077      0.222      0.322    28.0385 0.0000e+00
      0.227      0.002     4.1808     52.923    112.042 118.859640    11.3400     0.1656     0.0426     0.2115 6.2615e+02     0.1134      0.222      0.322    28.0379 0.0000e+00
      0.227      0.002     4.1706     52.770    109.084 115.719158    11.3400     0.1503     0.0852     0.1269 4.5415e+02     0.0681      0.223      0.323    28.0373 0.0000e+00
      0.227      0.001     4.1603     52.612    104.146 110.478991    11.3400     0.1503     0.0852     0.1269 4.2995e+02    -0.0074      0.223      0.323    28.0368 0.0000e+00
      0.227      0.001     4.1498     52.454     95.916 101.745761    11.3400     0.1503     0.0852     0.1269 5.0859e+02     0.0379      0.223      0.324    28.0360 0.0000e+00
      0.228      0.000     4.1387     52.296     82.211  87.206612    11.3400     0.0855     0.0852     0.1269 4.1915e+02     0.0681      0.223      0.324    28.0351 0.0000e+00
      0.228      0.000     4.1268     52.144     59.370  62.976435    11.3400     0.0664     0.0426     0.2538 4.7103e+02     0.1588      0.223      0.324    28.0339 0.0000e+00
      0.228     -0.001     4.1146     52.004     21.285  22.577844    11.3400     0.0664     0.0426     0.2538 4.1952e+02     0.0832      0.224      0.324    28.0326 0.0000e+00
      0.228     -0.002     4.1023     51.881    -42.201 -44.762119    11.3400     0.0931     0.0426     0.2538 4.3806e+02     0.1286      0.224      0.325    28.0312 0.0000e+00
      0.228     -0.004     4.0901     51.780   -148.012-156.992775    11.3400     0.0664     0.0426     0.2538 4.7021e+02    -0.0225      0.223      0.324    28.0297 0.0000e+00
      0.227     -0.006     4.0784     51.708   -324.359-344.038297    11.3400     0.0778     0.0426     0.2115 5.7677e+02     0.0228      0.222      0.323    28.0281 0.0000e+00
      0.225     -0.009     4.0675     51.674   -434.573-460.937960    11.3400     0.0702     0.0426     0.2115 4.6332e+02     0.0379      0.220      0.320    28.0265 0.0000e+00
      0.222     -0.013     4.0580     51.689   -324.347-344.029476    11.3400     0.0893     0.0426     0.2115 4.3559e+02    -0.0225      0.218      0.316    28.0249 0.0000e+00
      0.218     -0.016     4.0503     51.766   -147.988-156.976781    11.3400     0.0855     0.0426     0.2115 4.1535e+02     0.0983      0.214      0.311    28.0234 0.0000e+00
      0.214     -0.021     4.0449     51.911    -42.163 -44.738689    11.3400     0.1579     0.0426     0.2115 5.6071e+02     0.1286      0.210      0.304    28.0222 0.0000e+00
      0.208     -0.026     4.0423     52.136     21.340  22.606955    11.3400     0.1503     0.0426     0.1269 4.3521e+02     0.0077      0.205      0.297    28.0214 0.0000e+00
      0.202     -0.032     4.0435     52.466     59.450  63.014989    11.3400     0.1198     0.0426     0.1269 4.4323e+02     0.0379      0.198      0.287    28.0208 0.0000e+00
      0.193     -0.038     4.0495     52.918     82.324  87.260888    11.3400     0.1389     0.0426     0.1269 5.0561e+02    -0.0376      0.190      0.276    28.0197 0.0000e+00
      0.183     -0.044     4.0609     53.483     96.055 101.810223    11.3400     0.1351     0.0426     0.1269 6.4213e+02     0.0832      0.180      0.261    28.0176 0.0000e+00
      0.170     -0.049     4.0788     54.112    104.295 110.538815    11.2500     0.1427     0.0426     0.1269 8.4547e+02    -0.0074      0.167      0.242    28.0139 0.0000e+00
      0.156     -0.052     4.1050     54.747    109.237 115.774287    11.2500     0.1160     0.0426     0.1269 1.2450e+03     0.0077      0.153      0.222    28.0083 0.0000e+00
      0.141     -0.053     4.1409     55.350    112.206 118.920768    11.2500     0.1465     0.0426     0.1269 1.7901e+03    -0.0074      0.138      0.200    28.0016 0.0000e+00
      0.125     -0.052     4.1855     55.901    113.991 120.813318    11.2500     0.0511     0.0426     0.1269 1.7730e+03    -0.1585      0.123      0.178    27.9954 0.0000e+00
      0.111     -0.047     4.2351     56.383    115.058 121.944613    10.8900     0.0931     0.0000     0.0846 8.0199e+02    -0.2189      0.110      0.158    27.9908 0.0000e+00
      0.099     -0.041     4.2849     56.800    115.694 122.616334    10.8900     0.0740     0.0000     0.0846 5.6523e+02    -0.2340      0.098      0.141    27.9882 0.0000e+00
      0.090     -0.034     4.3322     57.186    116.073 123.015607    10.8900     0.0664     0.0000     0.0846 6.9635e+02    -0.2340      0.088      0.127    27.9871 0.0000e+00
      0.082     -0.027     4.3754     57.584    116.304 123.256908    10.8900     0.0893     0.0000     0.0846 9.0027e+02     0.0681      0.081      0.117    27.9868 0.0000e+00
      0.077     -0.021     4.4131     58.002    116.450 123.408584    10.8900     0.0778     0.0000     0.0846 9.6447e+02     0.0681      0.075      0.109    27.9864 0.0000e+00
      0.073     -0.015     4.4458     58.415    116.542 123.503080    10.8900     0.0664     0.0426     0.2115 9.9751e+02     0.0530      0.072      0.104    27.9854 0.0000e+00
      0.070     -0.011     4.4761     58.789    116.596 123.557592    10.8900     0.0931     0.0426     0.2115 1.0978e+03     0.0228      0.069      0.100    27.9841 0.0000e+00
      0.068     -0.008     4.5074     59.102    116.629 123.590659    10.8900     0.1160     0.0426     0.2115 1.0971e+03     0.0681      0.067      0.097    27.9827 0.0000e+00
      0.067     -0.006     4.5402     59.346    116.646 123.607095    10.8900     0.0778     0.0426     0.2115 1.0855e+03     0.0681      0.066      0.095    27.9812 0.0000e+00
      0.066     -0.005     4.5727     59.515    116.639 123.599281    11.3400     0.0778     0.0426     0.0846 1.3708e+03    -0.0678      0.065      0.094    27.9799 0.0000e+00
      0.065     -0.004     4.6020     59.598    116.617 123.577137    11.3400     0.0816     0.0426     0.0846 1.6138e+03     0.0681      0.064      0.092    27.9788 0.0000e+00
      0.064     -0.004     4.6266     59.597    116.606 123.566767    11.3400     0.0778     0.0426     0.0846 1.4616e+03     0.1437      0.063      0.091    27.9779 0.0000e+00
      0.063     -0.003     4.6458     59.530    116.610 123.573408    11.3400     0.0855     0.0426     0.0846 7.1895e+02    -0.0376      0.062      0.089    27.9773 0.0000e+00
      0.062     -0.003     4.6589     59.423    116.612 123.578827    11.2500     0.0893     0.0426     0.1269 6.3616e+02     0.0681      0.061      0.088    27.9771 0.0000e+00
      0.061     -0.002     4.6654     59.281    116.606 123.576464    11.2500     0.0702     0.0426     0.1269 5.4521e+02    -0.0074      0.060      0.087    27.9774 0.0000e+00
      0.061     -0.002     4.6653     59.108    116.599 123.573694    11.2500     0.0969     0.0426     0.1269 5.9394e+02     0.0832      0.060      0.087    27.9782 0.0000e+00
      0.060     -0.001     4.6600     58.915    116.594 123.573778    11.2500     0.0855     0.0426     0.1269 6.1309e+02    -0.0376      0.059      0.086    27.9793 0.0000e+00
      0.060     -0.000     4.6514     58.719    116.588 123.572739    11.0700     0.0855     0.0426     0.3384 5.4214e+02     0.0983      0.059      0.086    27.9807 0.0000e+00
      0.060      0.000     4.6402     58.549    116.581 123.570298    11.0700     0.0969     0.0426     0.3384 8.4879e+02     0.0077      0.059      0.086    27.9823 0.0000e+00
      0.060      0.001     4.6266     58.429    116.577 123.569808    11.0700     0.0511     0.0426     0.3384 1.3237e+03    -0.2793      0.059      0.086    27.9843 0.0000e+00
      0.060      0.002     4.6113     58.359    116.576 123.571138    11.0700     0.0855     0.0426     0.3384 1.5232e+03    -0.2038      0.059      0.086    27.9866 0.0000e+00
      0.061      0.002     4.5958     58.313    116.575 123.570641    11.0700     0.0549     0.0426     0.3384 1.4483e+03    -0.0678      0.060      0.087    27.9889 0.0000e+00
      0.061      0.003     4.5823     58.267    116.572 123.568184    11.1600     0.0855     0.0852     0.0846 1.2461e+03    -0.2189      0.060      0.087    27.9910 0.0000e+00
      0.062      0.003     4.5727     58.209    116.575 123.571115    11.1600     0.1084     0.0852     0.0846 1.2564e+03     0.0681      0.061      0.089    27.9926 0.0000e+00
      0.063      0.003     4.5672     58.143    116.580 123.576215    11.1600     0.0588     0.0852     0.0846 1.2551e+03     0.0228      0.062      0.090    27.9935 0.0000e+00
      0.064      0.003     4.5636     58.072    116.581 123.576839    11.1600     0.0778     0.0852     0.0846 1.2981e+03     0.0228      0.063      0.091    27.9939 0.0000e+00
      0.065      0.003     4.5599     58.005    116.583 123.577157    10.9800     0.0969     0.0000     0.3384 1.3478e+03     0.0228      0.063      0.092    27.9941 0.0000e+00
      0.065      0.004     4.5554     57.948    116.589 123.581255    10.9800     0.0855     0.0000     0.3384 1.3254e+03     0.0832      0.064      0.093    27.9940 0.0000e+00
      0.066      0.004     4.5502     57.892    116.596 123.586223    10.9800     0.0931     0.0000     0.3384 1.3338e+03    -0.0074      0.065      0.094    27.9938 0.0000e+00
      0.067      0.004     4.5446     57.820    116.602 123.589385    10.9800     0.0893     0.0000     0.3384 1.3054e+03     0.1286      0.066      0.095    27.9934 0.0000e+00
      0.068      0.004     4.5395     57.721    116.606 123.591585    11.0700     0.1007     0.0426     0.2538 1.3037e+03     0.1134      0.067      0.097    27.9929 0.0000e+00
      0.069      0.004     4.5351     57.594    116.610 123.593408    11.0700     0.0626     0.0426     0.2538 1.3272e+03    -0.2340      0.068      0.099    27.9920 0.0000e+00
      0.071      0.004     4.5308     57.442    116.615 123.595340    11.0700     0.0969     0.0426     0.2538 1.3026e+03    -0.2038      0.069      0.101    27.9909 0.0000e+00
      0.072      0.004     4.5253     57.265    116.620 123.597897    11.0700     0.1007     0.0426     0.2538 1.3000e+03    -0.0980      0.070      0.102    27.9896 0.0000e+00
      0.073      0.004     4.5176     57.064    116.626 123.601760    10.8000     0.0664     0.0000     0.1269 1.3481e+03    -0.2340      0.072      0.104    27.9884 0.0000e+00
      0.074      0.004     4.5077     56.849    116.635 123.607960    10.8000     0.0626     0.0000     0.1269 1.3696e+03     0.0832      0.073      0.106    27.9874 0.0000e+00
      0.075      0.003     4.4959     56.638    116.642 123.614148    10.8000     0.0549     0.0000     0.1269 1.3756e+03    -0.0074      0.073      0.107    27.9863 0.0000e+00
      0.076      0.003     4.4822     56.455    116.646 123.617973    10.8000     0.0855     0.0000     0.1269 1.3495e+03     0.0681      0.074      0.108    27.9850 0.0000e+00
      0.076      0.003     4.4666     56.313    116.648 123.620455    10.8000     0.0626     0.0000     0.1269 1.3540e+03     0.0228      0.074      0.108    27.9836 0.0000e+00
      0.077      0.002     4.4499     56.206    116.650 123.622256    11.1600     0.0931     0.0000     0.3384 1.3643e+03    -0.1585      0.075      0.109    27.9825 0.0000e+00
      0.077      0.002     4.4335     56.123    116.651 123.623857    11.1600     0.0931     0.0000     0.3384 1.3810e+03    -0.1585      0.075      0.109    27.9819 0.0000e+00
      0.078      0.002     4.4191     56.052    116.649 123.621682    11.1600     0.0702     0.0000     0.3384 1.4233e+03    -0.3095      0.076      0.110    27.9817 0.0000e+00
      0.079      0.002     4.4080     55.990    116.638 123.611151    11.1600     0.0778     0.0000     0.3384 1.4361e+03    -0.0376      0.077      0.111    27.9818 0.0000e+00
      0.079      0.001     4.3996     55.942    116.628 123.601459    11.2500     0.0778     0.0000     0.0846 1.4129e+03     0.1134      0.077      0.112    27.9819 0.0000e+00
      0.079      0.001     4.3931     55.907    116.631 123.606027    11.2500     0.0549     0.0000     0.0846 1.3864e+03     0.0681      0.077      0.113    27.9820 0.0000e+00
      0.079      0.001     4.3875     55.864    116.646 123.622072    11.2500     0.0740     0.0000     0.0846 1.3640e+03     0.0832      0.078      0.113    27.9822 0.0000e+00
      0.079      0.000     4.3826     55.788    116.660 123.637867    11.2500     0.0778     0.0000     0.0846 1.3631e+03     0.0228      0.078      0.113    27.9826 0.0000e+00
      0.080      0.000     4.3788     55.667    116.667 123.645620    11.1600     0.0549     0.0426     0.1692 1.3756e+03     0.0681      0.078      0.113    27.9831 0.0000e+00
      0.080     -0.001     4.3761     55.506    116.664 123.643398    11.1600     0.0931     0.0426     0.1692 1.4061e+03     0.0681      0.078      0.113    27.9835 0.0000e+00
      0.079     -0.001     4.3727     55.318    116.654 123.634610    11.1600     0.1160     0.0426     0.1692 1.4083e+03     0.0983      0.077      0.112    27.9837 0.0000e+00
      0.079     -0.001     4.3667     55.119    116.644 123.624915    11.1600     0.1007     0.0426     0.1692 1.4708e+03     0.0681      0.077      0.112    27.9838 0.0000e+00
      0.078     -0.001     4.3572     54.923    116.638 123.619730    11.1600     0.0778     0.0426     0.1692 1.4255e+03    -0.2038      0.077      0.111    27.9842 0.0000e+00
      0.078      0.000     4.3446     54.736    116.635 123.617672    11.2500     0.0931     0.0000     0.2961 1.2762e+03    -0.1283      0.076      0.111    27.9846 0.0000e+00
      0.078      0.000     4.3298     54.556    116.634 123.618192    11.2500     0.0855     0.0000     0.2961 1.2442e+03    -0.1585      0.076      0.111    27.9851 0.0000e+00
      0.078      0.001     4.3143     54.374    116.636 123.621431    11.2500     0.0855     0.0000     0.2961 1.2515e+03    -0.1736      0.076      0.111    27.9857 0.0000e+00
      0.078      0.002     4.2989     54.188    116.630 123.616246    11.2500     0.0855     0.0000     0.2961 1.3205e+03     0.0681      0.077      0.111    27.9862 0.0000e+00
      0.079      0.003     4.2842     54.001    116.618 123.605258    11.2500     0.0931     0.0852     0.0423 1.4172e+03     0.0228      0.077      0.112    27.9867 0.0000e+00
      0.080      0.004     4.2700     53.812    116.616 123.605541    11.2500     0.0816     0.0852     0.0423 1.4785e+03    -0.0074      0.078      0.114    27.9872 0.0000e+00
      0.081      0.005     4.2557     53.623    116.626 123.617173    11.2500     0.0588     0.0852     0.0423 1.4358e+03     0.1286      0.080      0.115    27.9878 0.0000e+00
      0.083      0.006     4.2412     53.435    116.634 123.627250    11.2500     0.1160     0.0852     0.0423 1.4055e+03     0.1134      0.081      0.118    27.9885 0.0000e+00
      0.084      0.007     4.2264     53.242    116.636 123.630455    11.2500     0.0931     0.0852     0.2538 1.3976e+03    -0.0376      0.083      0.120    27.9892 0.0000e+00
      0.086      0.008     4.2116     53.043    116.637 123.631646    11.2500     0.0549     0.0852     0.2538 1.4420e+03     0.0832      0.085      0.123    27.9899 0.0000e+00
      0.088      0.008     4.1968     52.842    116.639 123.635141    11.2500     0.0969     0.0852     0.2538 1.4597e+03     0.1134      0.087      0.126    27.9906 0.0000e+00
      0.091      0.008     4.1821     52.646    116.637 123.633870    11.2500     0.1541     0.0852     0.2538 1.4715e+03     0.1588      0.089      0.129    27.9911 0.0000e+00
      0.093      0.008     4.1669     52.463    116.626 123.623493    11.4300     0.1427     0.0852     0.0000 1.4888e+03     0.0530      0.091      0.132    27.9915 0.0000e+00
      0.095      0.008     4.1513     52.305    116.616 123.613245    11.4300     0.1732     0.0852     0.0000 1.4943e+03     0.0681      0.093      0.135    27.9919 0.0000e+00
      0.097      0.008     4.1355     52.186    116.610 123.608397    11.4300     0.1579     0.0852     0.0000 1.4960e+03     0.1588      0.095      0.138    27.9922 0.0000e+00
      0.099      0.009     4.1201     52.108    116.608 123.607657    11.4300     0.1160     0.0852     0.0000 1.4763e+03     0.0832      0.097      0.140    27.9926 0.0000e+00
      0.101      0.010     4.1057     52.058    116.610 123.610828    11.4300     0.1503     0.0852     0.0000 1.4731e+03     0.0983      0.099      0.143    27.9930 0.0000e+00
      0.103      0.011     4.0934     52.025    116.612 123.614752    11.7000     0.1503     0.0426     0.2115 1.4943e+03    -0.0074      0.101      0.147    27.9935 0.0000e+00
      0.106      0.012     4.0841     52.009    116.608 123.612475    11.7000     0.1389     0.0426     0.2115 1.4689e+03     0.0530      0.104      0.151    27.9941 0.0000e+00
      0.109      0.014     4.0779     52.017    116.605 123.611391    11.7000     0.0969     0.0426     0.2115 1.2592e+03     0.0681      0.107      0.155    27.9947 0.0000e+00
      0.113      0.017     4.0740     52.056    116.613 123.623217    11.7000     0.0664     0.0426     0.2115 8.5881e+02     0.0681      0.111      0.161    27.9953 0.0000e+00
      0.118      0.019     4.0713     52.117    116.626 123.639100    11.2500     0.0893     0.0426     0.2961 7.4747e+02     0.0681      0.115      0.167    27.9960 0.0000e+00
      0.123      0.022     4.0700     52.192    116.634 123.651274    11.2500     0.0664     0.0426     0.2961 6.9620e+02     0.0530      0.120      0.175    27.9968 0.0000e+00
      0.129      0.024     4.0706     52.294    116.640 123.662984    11.2500     0.0778     0.0426     0.2961 5.8536e+02    -0.2340      0.126      0.183    27.9978 0.0000e+00
      0.136      0.026     4.0735     52.464    116.640 123.669351    11.2500     0.0740     0.0426     0.2961 6.0252e+02    -0.2340      0.133      0.193    27.9989 0.0000e+00
      0.143      0.027     4.0782     52.757    116.627 123.664070    11.1600     0.0511     0.0426     0.1692 4.8274e+02    -0.1283      0.139      0.203    28.0002 0.0000e+00
      0.150      0.028     4.0840     53.235    116.603 123.653735    11.1600     0.0893     0.0426     0.1692 7.0472e+02    -0.1585      0.147      0.213    28.0017 0.0000e+00
      0.157      0.030     4.0918     53.982    116.575 123.647595    11.1600     0.0664     0.0426     0.1692 4.2706e+02     0.0681      0.154      0.223    28.0037 0.0000e+00
      0.164      0.031     4.1049     55.103    116.544 123.648013    11.1600     0.0855     0.0426     0.1692 5.5369e+02     0.1890      0.161      0.233    28.0064 0.0000e+00
      0.172      0.033     4.1275     56.688    116.519 123.659106    11.1600     0.0778     0.0426     0.1692 8.0129e+02     0.0530      0.168      0.244    28.0103 0.0000e+00
      0.180      0.034     4.1643     58.825    116.512 123.679834    11.3400     0.0740     0.0426     0.0846 5.8130e+02     0.0681      0.177      0.257    28.0166 0.0000e+00
      0.190      0.035     4.2220     61.563    116.518 123.695720    11.3400     0.0816     0.0426     0.0846 6.9817e+02     0.0077      0.186      0.271    28.0267 0.0000e+00
      0.200      0.034     4.3085     64.787    116.527 123.698998    11.3400     0.0855     0.0426     0.0846 5.0892e+02     0.0681      0.196      0.285    28.0411 0.0000e+00
      0.210      0.032     4.4312     68.178    116.535 123.694540    11.3400     0.0778     0.0426     0.0846 6.0950e+02     0.0681      0.206      0.299    28.0572 0.0000e+00
      0.218      0.027     4.5974     71.338    116.539 123.685158    11.0700     0.0855     0.0426     0.0846 5.7415e+02     0.0077      0.214      0.311    28.0691 0.0000e+00
      0.225      0.022     4.8112     73.942    116.532 123.668349    11.0700     0.0855     0.0426     0.0846 3.6481e+02     0.3854      0.221      0.321    28.0732 0.0000e+00
      0.230      0.015     5.0635     75.794    116.521 123.651634    11.0700     0.0816     0.0426     0.0846 4.8961e+02     0.3249      0.226      0.328    28.0707 0.0000e+00
      0.233      0.009     5.3290     76.833    116.518 123.650560    11.0700     0.0931     0.0426     0.0846 8.8803e+02     0.3098      0.229      0.332    28.0651 0.0000e+00
      0.234      0.003     5.5766     77.112    116.520 123.658840    11.3400     0.0778     0.0426     0.0846 4.3417e+02     0.2796      0.230      0.333    28.0594 0.0000e+00
      0.234     -0.002     5.7805     76.778    116.511 123.660676    11.3400     0.0855     0.0426     0.0846 4.3107e+02     0.0983      0.229      0.332    28.0551 0.0000e+00
      0.231     -0.006     5.9255     76.046    116.499 123.662562    11.3400     0.0778     0.0426     0.0846 4.7473e+02     0.1134      0.227      0.329    28.0532 0.0000e+00
      0.229     -0.008     6.0067     75.137    116.491 123.671002    11.3400     0.0359     0.0426     0.0846 5.7402e+02     0.0681      0.224      0.325    28.0539 0.0000e+00
      0.225     -0.008     6.0281     74.211    116.487 123.684247    11.3400     0.0702     0.0426     0.2115 1.2348e+03     0.0983      0.221      0.321    28.0567 0.0000e+00
      0.223     -0.006     6.0015     73.346    116.490 123.701829    11.3400     0.0778     0.0426     0.2115 1.2297e+03     0.1286      0.218      0.317    28.0613 0.0000e+00
      0.221     -0.004     5.9436     72.573    116.494 123.716434    11.3400     0.0740     0.0426     0.2115 4.0334e+02    -0.0527      0.217      0.314    28.0676 0.0000e+00
      0.221     -0.002     5.8718     71.917    116.494 123.719953    11.3400     0.0931     0.0426     0.2115 3.5899e+02     0.1286      0.216      0.314    28.0751 0.0000e+00
      0.221      0.001     5.7987     71.399    116.491 123.713326    11.3400     0.1007     0.0426     0.2115 5.6930e+02     0.0530      0.217      0.314    28.0827 0.0000e+00
      0.222      0.003     5.7304     71.027    116.489 123.706787    11.4300     0.0664     0.0426     0.1269 4.2043e+02    -0.2038      0.218      0.316    28.0890 0.0000e+00
      0.223      0.005     5.6696     70.796    116.490 123.706594    11.4300     0.0588     0.0426     0.1269 3.6648e+02    -0.0980      0.219      0.317    28.0932 0.0000e+00
      0.224      0.007     5.6182     70.682    116.493 123.712696    11.4300     0.1084     0.0426     0.1269 5.4818e+02    -0.1736      0.220      0.319    28.0947 0.0000e+00
      0.226      0.010     5.5779     70.628    116.496 123.722719    11.4300     0.0778     0.0426     0.1269 3.5573e+02    -0.2189      0.221      0.321    28.0935 0.0000e+00
      0.228      0.013     5.5490     70.582    116.491 123.727332    11.3400     0.0816     0.0426     0.0846 4.4885e+02     0.0681      0.224      0.324    28.0915 0.0000e+00
      0.232      0.017     5.5310     70.530    116.479 123.723766    11.3400     0.0855     0.0426     0.0846 5.9731e+02     0.0228      0.227      0.329    28.0909 0.0000e+00
      0.237      0.021     5.5219     70.478    116.469 123.719072    11.3400     0.0931     0.0426     0.0846 6.3175e+02     0.0983      0.232      0.336    28.0920 0.0000e+00
      0.242      0.026     5.5174     70.432    116.462 123.716001    11.3400     0.0511     0.0426     0.0846 5.3071e+02     0.0228      0.238      0.345    28.0949 0.0000e+00
      0.249      0.032     5.5134     70.428    116.452 123.713732    11.2500     0.0778     0.0426     0.1692 4.1202e+02     0.0681      0.244      0.355    28.0991 0.0000e+00
      0.258      0.038     5.5090     70.529    116.434 123.707660    11.2500     0.0511     0.0426     0.1692 5.0254e+02     0.1134      0.253      0.367    28.1029 0.0000e+00
      0.268      0.043     5.5047     70.785    116.411 123.696165    11.2500     0.0816     0.0426     0.1692 3.7600e+02     0.0681      0.263      0.381    28.1056 0.0000e+00
      0.280      0.048     5.5009     71.215    116.395 123.688189    11.2500     0.0893     0.0426     0.1692 4.4758e+02     0.0228      0.274      0.398    28.1078 0.0000e+00
      0.294      0.053     5.5002     71.819    116.392 123.689607    11.2500     0.0778     0.0426     0.1692 5.4877e+02     0.0681      0.288      0.418    28.1113 0.0000e+00
      0.309      0.056     5.5076     72.598    116.396 123.696795    11.3400     0.0664     0.0426     0.1692 8.6819e+02     0.1286      0.302      0.439    28.1167 0.0000e+00
      0.324      0.058     5.5270     73.520    116.400 123.703669    11.3400     0.0855     0.0426     0.1692 4.5267e+02     0.0379      0.317      0.461    28.1225 0.0000e+00
      0.339      0.059     5.5602     74.448    116.402 123.708059    11.3400     0.1084     0.0426     0.1692 4.0063e+02     0.0983      0.332      0.483    28.1265 0.0000e+00
      0.355      0.058     5.6072     75.183    116.400 123.707135    11.3400     0.0435     0.0426     0.1692 5.4782e+02     0.0228      0.348      0.505    28.1283 0.0000e+00
      0.370      0.057     5.6679     75.569    116.393 123.700651    11.3400     0.0740     0.0426     0.1692 6.4437e+02     0.0832      0.363      0.527    28.1293 0.0000e+00
      0.385      0.056     5.7397     75.550    116.387 123.694880    11.3400     0.0931     0.0426     0.1692 4.2845e+02    -0.0074      0.377      0.547    28.1304 0.0000e+00
      0.398      0.054     5.8121     75.142    116.386 123.696286    11.3400     0.0664     0.0426     0.1692 4.4564e+02     0.0228      0.390      0.567    28.1314 0.0000e+00
      0.411      0.053     5.8695     74.380    116.395 123.709245    11.3400     0.0893     0.0426     0.1692 6.5042e+02     0.0681      0.403      0.585    28.1320 0.0000e+00
      0.424      0.053     5.8996     73.333    116.413 123.733212    11.4300     0.1541     0.0426     0.1269 5.6278e+02     0.0832      0.416      0.603    28.1323 0.0000e+00
      0.437      0.053     5.8980     72.131    116.438 123.764575    11.4300     0.1503     0.0426     0.1269 3.8719e+02     0.0832      0.429      0.622    28.1328 0.0000e+00
      0.451      0.053     5.8660     70.960    116.466 123.801694    11.4300     0.1351     0.0426     0.1269 5.3256e+02    -0.0074      0.442      0.641    28.1339 0.0000e+00
      0.465      0.053     5.8064     70.016    116.506 123.852467    11.4300     0.1389     0.0426     0.1269 7.6972e+02    -0.0074      0.456      0.661    28.1354 0.0000e+00
      0.479      0.053     5.7244     69.489    116.574 123.936436    11.3400     0.0893     0.0426     0.1692 5.1269e+02     0.1134      0.469      0.681    28.1374 0.0000e+00
      0.492      0.053     5.6304     69.592    116.691 124.079993    11.3400     0.0816     0.0426     0.1692 4.7836e+02     0.0681      0.482      0.700    28.1397 0.0000e+00
      0.505      0.053     5.5386     70.630    116.863 124.295412    11.3400     0.0855     0.0426     0.1692 5.6254e+02     0.1134      0.495      0.718    28.1424 0.0000e+00
      0.518      0.053     5.4646     73.044    117.036 124.528098    11.3400     0.0778     0.0426     0.1692 7.0212e+02    -0.0376      0.508      0.737    28.1459 0.0000e+00
      0.532      0.053     5.4229     77.243    117.149 124.704058    11.3400     0.1503     0.0426     0.1692 5.4485e+02     0.0379      0.521      0.756    28.1510 0.0000e+00
      0.545      0.052     5.4300     83.151    117.213 124.820200    11.3400     0.1427     0.0426     0.0846 3.8618e+02    -0.0074      0.535      0.776    28.1593 0.0000e+00
      0.560      0.051     5.5095     90.003    117.250 124.889493    11.3400     0.1427     0.0426     0.0846 4.5316e+02     0.1437      0.549      0.796    28.1732 0.0000e+00
      0.573      0.049     5.6955     96.789    117.257 124.908408    11.3400     0.1351     0.0426     0.0846 4.4429e+02    -0.0225      0.562      0.815    28.1939 0.0000e+00
      0.586      0.045     6.0204    102.703    117.241 124.887992    11.3400     0.1503     0.0426     0.0846 5.8651e+02     0.0228      0.574      0.833    28.2179 0.0000e+00
      0.597      0.041     6.4786    107.229    117.210 124.844807    11.4300     0.1579     0.0426     0.1269 5.9253e+02     0.0077      0.585      0.849    28.2383 0.0000e+00
      0.607      0.036     7.0111    110.111    117.174 124.791344    11.4300     0.1503     0.0426     0.1269 3.9561e+02     0.0983      0.595      0.863    28.2510 0.0000e+00
      0.615      0.031     7.5394    111.323    117.138 124.735356    11.4300     0.1465     0.0426     0.1269 4.7607e+02     0.1286      0.603      0.875    28.2557 0.0000e+00
      0.622      0.026     8.0004    111.065    117.107 124.679917    11.4300     0.2075     0.0426     0.1269 5.4758e+02     0.1286      0.610      0.885    28.2546 0.0000e+00
      0.628      0.022     8.3537    109.773    117.081 124.622249    11.3400     0.1923     0.0852     0.1269 3.5558e+02     0.0681      0.616      0.893    28.2499 0.0000e+00
      0.633      0.019     8.5792    108.009    117.051 124.550973    11.3400     0.2152     0.0852     0.1269 3.9253e+02     0.0530      0.620      0.900    28.2436 0.0000e+00
      0.637      0.016     8.6747    106.232    117.007 124.455083    11.3400     0.2113     0.0852     0.1269 5.4675e+02     0.0983      0.624      0.905    28.2361 0.0000e+00
      0.640      0.014     8.6561    104.697    116.950 124.339018    11.3400     0.1732     0.0852     0.1269 3.7797e+02     0.0983      0.627      0.910    28.2264 0.0000e+00
      0.643      0.013     8.5572    103.513    116.912 124.239846    11.3400     0.1694     0.0852     0.1269 5.4261e+02    -0.0376      0.630      0.914    28.2136 0.0000e+00
      0.645      0.013     8.4222    102.688    116.920 124.193141    11.4300     0.1579     0.0000     0.1692 4.1870e+02     0.1437      0.633      0.918    28.1966 0.0000e+00
      0.648      0.014     8.2867    102.173    116.946 124.174440    11.4300     0.1312     0.0000     0.1692 4.5002e+02    -0.0074      0.636      0.922    28.1757 0.0000e+00
      0.652      0.015     8.1704    101.898    116.946 124.138740    11.4300     0.2075     0.0000     0.1692 4.5583e+02     0.0983      0.639      0.927    28.1521 0.0000e+00
      0.655      0.017     8.0816    101.800    116.917 124.076520    11.4300     0.2037     0.0000     0.1692 5.7929e+02     0.0228      0.642      0.932    28.1272 0.0000e+00
      0.659      0.020     8.0206    101.825    116.879 124.003199    11.5200     0.2113     0.0426     0.1269 4.5971e+02     0.0681      0.646      0.938    28.1035 0.0000e+00
      0.664      0.025     7.9832    101.910    116.861 123.943239    11.5200     0.1846     0.0426     0.1269 3.7723e+02     0.0530      0.651      0.945    28.0839 0.0000e+00
      0.670      0.029     7.9639    101.989    116.874 123.908658    11.5200     0.1274     0.0426     0.1269 4.6991e+02     0.0228      0.657      0.954    28.0684 0.0000e+00
      0.678      0.035     7.9582    102.034    116.899 123.882229    11.5200     0.1503     0.0426     0.1269 7.8424e+02     0.0681      0.665      0.965    28.0550 0.0000e+00
      0.688      0.040     7.9621    102.053    116.911 123.840897    11.4300     0.1198     0.0426     0.2538 7.0060e+02    -0.0225      0.675      0.979    28.0408 0.0000e+00
      0.700      0.045     7.9712    102.047    116.917 123.791642    11.4300     0.1579     0.0426     0.2538 6.5425e+02     0.0832      0.686      0.995    28.0234 0.0000e+00
      0.712      0.050     7.9804    101.970    116.940 123.761340    11.4300     0.1885     0.0426     0.2538 4.0819e+02     0.3703      0.699      1.013    28.0028 0.0000e+00
      0.726      0.054     7.9870    101.779    116.982 123.751911    11.4300     0.1999     0.0426     0.2538 6.5695e+02     0.4005      0.712      1.032    27.9803 0.0000e+00
      0.740      0.058     7.9919    101.489    117.017 123.738831    11.4300     0.1999     0.0852     0.1692 3.9863e+02     0.2947      0.726      1.052    27.9568 0.0000e+00
      0.755      0.060     7.9947    101.139    117.033 123.712607    11.4300     0.1923     0.0852     0.1692 4.6031e+02     0.4005      0.741      1.074    27.9332 0.0000e+00
      0.772      0.061     7.9919    100.755    117.039 123.684250    11.4300     0.2724     0.0852     0.1692 3.8093e+02     0.2192      0.757      1.098    27.9100 0.0000e+00
      0.789      0.061     7.9802    100.371    117.040 123.660199    11.4300     0.2648     0.0852     0.1692 3.9390e+02     0.2796      0.774      1.122    27.8871 0.0000e+00
      0.805      0.060     7.9605    100.041    117.043 123.646046    11.4300     0.2648     0.0852     0.1692 5.1403e+02     0.2947      0.790      1.145    27.8655 0.0000e+00
      0.821      0.058     7.9356     99.810    117.044 123.634013    11.4300     0.3067     0.0852     0.2115 3.4060e+02     0.3249      0.805      1.167    27.8470 0.0000e+00
      0.835      0.055     7.9075     99.690    117.029 123.604887    11.4300     0.2648     0.0852     0.2115 3.8871e+02     0.2796      0.819      1.188    27.8324 0.0000e+00
      0.849      0.053     7.8789     99.662    117.002 123.558904    11.4300     0.2495     0.0852     0.2115 4.8358e+02     0.3249      0.832      1.206    27.8217 0.0000e+00
      0.861      0.051     7.8541     99.702    116.981 123.515810    11.4300     0.2495     0.0852     0.2115 3.8981e+02     0.4156      0.844      1.224    27.8141 0.0000e+00
      0.873      0.050     7.8367     99.793    116.977 123.488121    11.4300     0.2762     0.0852     0.0846 3.7912e+02     0.3703      0.856      1.242    27.8085 0.0000e+00
      0.886      0.049     7.8281     99.913    116.981 123.468452    11.4300     0.2800     0.0852     0.0846 3.9330e+02     0.2796      0.869      1.260    27.8028 0.0000e+00
      0.898      0.050     7.8270    100.030    116.985 123.447554    11.4300     0.2800     0.0852     0.0846 3.7961e+02     0.3703      0.881      1.278    27.7953 0.0000e+00
      0.911      0.051     7.8314    100.117    116.989 123.427856    11.4300     0.2571     0.0852     0.0846 3.4372e+02     0.3854      0.893      1.295    27.7863 0.0000e+00
      0.923      0.052     7.8399    100.163    117.005 123.420110    11.5200     0.2571     0.0000     0.1269 3.3018e+02     0.2494      0.906      1.313    27.7764 0.0000e+00
      0.937      0.054     7.8508    100.170    117.019 123.410244    11.5200     0.3220     0.0000     0.1269 3.8518e+02     0.2645      0.918      1.332    27.7661 0.0000e+00
      0.951      0.056     7.8614    100.155    117.011 123.379621    11.5200     0.3258     0.0000     0.1269 4.2373e+02     0.2494      0.932      1.352    27.7556 0.0000e+00
      0.965      0.059     7.8697    100.140    116.994 123.340081    11.5200     0.3296     0.0000     0.1269 3.5097e+02     0.3249      0.947      1.373    27.7451 0.0000e+00
      0.981      0.060     7.8748    100.144    116.980 123.305086    11.5200     0.3220     0.0000     0.1269 3.5465e+02     0.3552      0.962      1.395    27.7347 0.0000e+00
      0.997      0.062     7.8768    100.187    116.978 123.281308    11.5200     0.3067     0.0426     0.1692 3.6489e+02     0.3249      0.978      1.418    27.7244 0.0000e+00
      1.014      0.062     7.8770    100.263    116.980 123.262406    11.5200     0.3143     0.0426     0.1692 3.3176e+02     0.3098      0.994      1.441    27.7147 0.0000e+00
      1.030      0.060     7.8770    100.361    116.976 123.239335    11.5200     0.3143     0.0426     0.1692 3.8947e+02     0.3854      1.010      1.465    27.7057 0.0000e+00
      1.046      0.058     7.8786    100.476    116.969 123.217946    11.5200     0.3449     0.0426     0.1692 2.9832e+02     0.3703      1.025      1.487    27.6970 0.0000e+00
      1.061      0.056     7.8832    100.603    116.966 123.206539    11.6100     0.3220     0.0000     0.1269 2.8995e+02     0.3552      1.040      1.509    27.6879 0.0000e+00
      1.074      0.053     7.8906    100.725    116.977 123.212074    11.6100     0.3296     0.0000     0.1269 3.6386e+02     0.3249      1.053      1.528    27.6788 0.0000e+00
      1.087      0.051     7.8994    100.816    116.991 123.222025    11.6100     0.3296     0.0000     0.1269 2.9394e+02     0.2494      1.066      1.546    27.6707 0.0000e+00
      1.099      0.050     7.9093    100.847    117.003 123.227040    11.6100     0.3296     0.0000     0.1269 2.7569e+02     0.2947      1.078      1.563    27.6647 0.0000e+00
      1.111      0.050     7.9198    100.808    117.027 123.242461    11.6100     0.3067     0.0000     0.1692 2.8010e+02     0.0077      1.089      1.580    27.6609 0.0000e+00
      1.123      0.051     7.9297    100.715    117.053 123.258396    11.6100     0.3182     0.0000     0.1692 3.1218e+02     0.0379      1.101      1.597    27.6586 0.0000e+00
      1.136      0.054     7.9371    100.597    117.056 123.249084    11.6100     0.3220     0.0000     0.1692 2.9503e+02     0.0983      1.113      1.615    27.6564 0.0000e+00
      1.150      0.056     7.9401    100.468    117.041 123.222043    11.6100     0.3296     0.0000     0.1692 3.4937e+02     0.0681      1.127      1.635    27.6532 0.0000e+00
      1.165      0.058     7.9375    100.343    117.021 123.192069    11.7000     0.3105     0.0852     0.2538 3.8085e+02     0.3703      1.142      1.657    27.6488 0.0000e+00
      1.180      0.061     7.9309    100.266    117.003 123.167174    11.7000     0.3372     0.0852     0.2538 3.4657e+02     0.4156      1.157      1.679    27.6439 0.0000e+00
      1.196      0.063     7.9224    100.281    116.994 123.152721    11.7000     0.3182     0.0852     0.2538 3.3393e+02     0.2796      1.173      1.702    27.6387 0.0000e+00
      1.213      0.064     7.9129    100.387    116.982 123.136854    11.7000     0.3220     0.0852     0.2538 3.3155e+02     0.3098      1.189      1.725    27.6340 0.0000e+00
      1.229      0.064     7.9036    100.541    116.966 123.115342    11.7000     0.3372     0.0852     0.2538 3.2804e+02     0.3098      1.205      1.748    27.6302 0.0000e+00
      1.246      0.064     7.8979    100.686    116.948 123.090451    11.7000     0.3296     0.0426     0.2115 3.7364e+02     0.4005      1.222      1.772    27.6275 0.0000e+00
      1.263      0.064     7.8994    100.786    116.924 123.057544    11.7000     0.3258     0.0426     0.2115 3.4097e+02     0.3552      1.238      1.796    27.6255 0.0000e+00
      1.279      0.063     7.9080    100.827    116.905 123.025850    11.7000     0.3334     0.0426     0.2115 3.3890e+02     0.3703      1.254      1.820    27.6238 0.0000e+00
      1.295      0.063     7.9203    100.819    116.902 123.006923    11.7000     0.3792     0.0426     0.2115 5.7079e+02     0.3552      1.270      1.842    27.6219 0.0000e+00
      1.310      0.062     7.9321    100.783    116.919 123.003718    11.7900     0.3678     0.0000     0.2538 3.8711e+02     0.3854      1.285      1.864    27.6196 0.0000e+00
      1.326      0.062     7.9405    100.736    116.950 123.015378    11.7900     0.3945     0.0000     0.2538 3.4590e+02     0.2494      1.300      1.886    27.6163 0.0000e+00
      1.342      0.062     7.9444    100.681    116.977 123.025005    11.7900     0.3945     0.0000     0.2538 3.2932e+02     0.2947      1.316      1.909    27.6114 0.0000e+00
      1.358      0.062     7.9447    100.632    116.985 123.017160    11.7900     0.3754     0.0000     0.2538 4.2687e+02     0.3552      1.332      1.932    27.6042 0.0000e+00
      1.374      0.062     7.9432    100.614    116.972 122.987751    11.7000     0.3945     0.0852     0.1692 3.7526e+02     0.3854      1.348      1.954    27.5954 0.0000e+00
      1.390      0.061     7.9407    100.634    116.946 122.942938    11.7000     0.3945     0.0852     0.1692 3.3743e+02     0.3854      1.363      1.977    27.5863 0.0000e+00
      1.405      0.060     7.9375    100.681    116.929 122.904780    11.7000     0.3754     0.0852     0.1692 3.6904e+02     0.2343      1.378      1.999    27.5783 0.0000e+00
      1.421      0.059     7.9347    100.735    116.930 122.887108    11.7000     0.4669     0.0852     0.1692 3.2975e+02     0.3249      1.393      2.021    27.5713 0.0000e+00
      1.436      0.058     7.9342    100.775    116.936 122.877205    11.7000     0.4479     0.0852     0.1692 3.7299e+02     0.3249      1.408      2.042    27.5646 0.0000e+00
      1.451      0.056     7.9368    100.798    116.943 122.872430    11.7000     0.4479     0.0426     0.0846 3.4824e+02     0.3249      1.422      2.063    27.5572 0.0000e+00
      1.465      0.053     7.9417    100.813    116.969 122.891513    11.7000     0.4440     0.0426     0.0846 3.4290e+02     0.3400      1.436      2.084    27.5488 0.0000e+00
      1.479      0.050     7.9472    100.821    117.017 122.935543    11.7000     0.4402     0.0426     0.0846 4.1327e+02     0.4307      1.450      2.103    27.5406 0.0000e+00
      1.491      0.047     7.9513    100.825    117.067 122.984252    11.7000     0.4364     0.0426     0.0846 4.4140e+02     0.3400      1.462      2.121    27.5336 0.0000e+00
      1.503      0.045     7.9538    100.837    117.094 123.008616    11.8800     0.4212     0.0426     0.2538 3.6236e+02     0.2947      1.473      2.137    27.5283 0.0000e+00
      1.513      0.043     7.9555    100.867    117.086 122.997128    11.8800     0.4593     0.0426     0.2538 3.5396e+02     0.3249      1.483      2.152    27.5248 0.0000e+00
      1.523      0.043     7.9565    100.914    117.055 122.960728    11.8800     0.4517     0.0426     0.2538 3.9794e+02     0.4156      1.493      2.166    27.5224 0.0000e+00
      1.533      0.043     7.9570    100.974    117.016 122.915716    11.8800     0.4364     0.0426     0.2538 4.1318e+02     0.4307      1.503      2.181    27.5206 0.0000e+00
      1.544      0.044     7.9582    101.045    116.981 122.874097    11.7900     0.4440     0.0426     0.2538 5.5164e+02     0.4005      1.514      2.196    27.5190 0.0000e+00
      1.556      0.046     7.9608    101.112    116.958 122.844776    11.7900     0.4669     0.0426     0.2538 4.5553e+02     0.2796      1.525      2.213    27.5176 0.0000e+00
      1.568      0.048     7.9647    101.156    116.960 122.843942    11.7900     0.5280     0.0426     0.2538 3.8002e+02     0.3098      1.537      2.230    27.5160 0.0000e+00
      1.580      0.050     7.9697    101.168    116.984 122.867370    11.7900     0.5280     0.0426     0.2538 5.0737e+02     0.3854      1.550      2.248    27.5141 0.0000e+00
      1.593      0.053     7.9757    101.156    117.004 122.885299    11.8800     0.4975     0.0426     0.1692 9.5260e+02     0.2494      1.562      2.266    27.5120 0.0000e+00
      1.607      0.055     7.9812    101.136    117.008 122.886504    11.8800     0.4860     0.0426     0.1692 4.5434e+02     0.2796      1.576      2.285    27.5101 0.0000e+00
      1.621      0.057     7.9848    101.122    117.010 122.883310    11.8800     0.5127     0.0426     0.1692 4.8940e+02     0.2494      1.590      2.306    27.5088 0.0000e+00
      1.636      0.058     7.9859    101.118    117.006 122.874864    11.8800     0.5318     0.0426     0.1692 4.9399e+02     0.3249      1.604      2.327    27.5078 0.0000e+00
      1.652      0.059     7.9851    101.118    116.994 122.858915    11.8800     0.5013     0.0426     0.1692 4.4953e+02     0.3703      1.620      2.349    27.5067 0.0000e+00
      1.667      0.059     7.9838    101.114    116.982 122.843213    11.9700     0.5013     0.0426     0.1692 5.3465e+02     0.3249      1.635      2.371    27.5051 0.0000e+00
      1.682      0.059     7.9830    101.093    116.980 122.839574    11.9700     0.5623     0.0426     0.1692 4.1688e+02     0.3400      1.650      2.393    27.5032 0.0000e+00
      1.697      0.058     7.9829    101.048    117.004 122.863032    11.9700     0.5432     0.0426     0.1692 5.5465e+02     0.3249      1.665      2.414    27.5013 0.0000e+00
      1.712      0.058     7.9831    100.990    117.033 122.891835    11.9700     0.5585     0.0426     0.1692 4.6574e+02     0.3249      1.679      2.435    27.4998 0.0000e+00
      1.726      0.058     7.9830    100.943    117.045 122.901655    11.8800     0.5814     0.0000     0.2115 6.5198e+02     0.2494      1.693      2.455    27.4988 0.0000e+00
      1.741      0.059     7.9814    100.918    117.054 122.907113    11.8800     0.5432     0.0000     0.2115 6.3120e+02     0.2796      1.707      2.476    27.4981 0.0000e+00
      1.756      0.060     7.9779    100.900    117.057 122.905664    11.8800     0.5509     0.0000     0.2115 4.4265e+02     0.3703      1.722      2.497    27.4973 0.0000e+00
      1.771      0.061     7.9735    100.887    117.050 122.892920    11.8800     0.5738     0.0000     0.2115 4.5405e+02     0.3400      1.737      2.519    27.4964 0.0000e+00
      1.787      0.062     7.9700    100.896    117.047 122.885489    11.9700     0.5432     0.0000     0.3807 7.1490e+02     0.3249      1.752      2.542    27.4951 0.0000e+00
      1.803      0.062     7.9682    100.939    117.047 122.881387    11.9700     0.5509     0.0000     0.3807 5.0222e+02     0.3552      1.768      2.565    27.4934 0.0000e+00
      1.819      0.062     7.9671    101.011    117.049 122.879521    11.9700     0.5623     0.0000     0.3807 5.2464e+02     0.2947      1.784      2.588    27.4914 0.0000e+00
      1.836      0.061     7.9663    101.089    117.059 122.887395    11.9700     0.5585     0.0000     0.3807 5.6095e+02     0.3249      1.800      2.611    27.4893 0.0000e+00
      1.852      0.059     7.9673    101.158    117.068 122.895106    11.9700     0.5432     0.0000     0.3807 5.8791e+02     0.2645      1.816      2.634    27.4874 0.0000e+00
      1.866      0.056     7.9710    101.219    117.078 122.904710    11.9700     0.5356     0.0426     0.2961 4.6848e+02     0.3249      1.831      2.655    27.4856 0.0000e+00
      1.880      0.054     7.9769    101.267    117.101 122.926769    11.9700     0.5356     0.0426     0.2961 5.2078e+02     0.3703      1.844      2.675    27.4841 0.0000e+00
      1.894      0.051     7.9832    101.290    117.114 122.939158    11.9700     0.5280     0.0426     0.2961 5.1548e+02     0.2192      1.857      2.694    27.4830 0.0000e+00
      1.906      0.049     7.9887    101.288    117.106 122.929177    11.9700     0.5318     0.0426     0.2961 4.6181e+02     0.2494      1.869      2.711    27.4822 0.0000e+00
      1.918      0.047     7.9936    101.274    117.091 122.910169    11.8800     0.5509     0.0426     0.2538 6.5881e+02     0.4307      1.881      2.728    27.4816 0.0000e+00
      1.929      0.046     7.9976    101.259    117.078 122.893068    11.8800     0.5623     0.0426     0.2538 6.9032e+02     0.3249      1.892      2.744    27.4810 0.0000e+00
      1.941      0.045     7.9995    101.237    117.070 122.881317    11.8800     0.5547     0.0426     0.2538 5.2441e+02     0.2796      1.903      2.760    27.4804 0.0000e+00
      1.952      0.045     7.9994    101.208    117.062 122.867781    11.8800     0.5623     0.0426     0.2538 4.5931e+02     0.2796      1.914      2.777    27.4797 0.0000e+00
      1.964      0.046     7.9984    101.179    117.046 122.844849    11.9700     0.4975     0.0852     0.1692 4.3313e+02     0.5364      1.926      2.793    27.4786 0.0000e+00
      1.975      0.046     7.9975    101.156    117.032 122.822409    11.9700     0.5051     0.0852     0.1692 4.6584e+02     0.5213      1.937      2.810    27.4771 0.0000e+00
      1.987      0.046     7.9960    101.134    117.034 122.818484    11.9700     0.5203     0.0852     0.1692 4.6534e+02     0.5817      1.949      2.827    27.4753 0.0000e+00
      2.000      0.045     7.9940    101.098    117.052 122.832027    11.9700     0.5013     0.0852     0.1692 4.3342e+02     0.6120      1.961      2.844    27.4730 0.0000e+00
      2.012      0.044     7.9921    101.047    117.073 122.850644    11.9700     0.5203     0.0426     0.2115 4.6332e+02     0.4458      1.973      2.862    27.4702 0.0000e+00
      2.024      0.041     7.9907    100.988    117.079 122.855293    11.9700     0.4898     0.0426     0.2115 4.5267e+02     0.3552      1.985      2.879    27.4672 0.0000e+00
      2.034      0.038     7.9894    100.924    117.060 122.835211    11.9700     0.5242     0.0426     0.2115 4.8643e+02     0.3098      1.995      2.894    27.4645 0.0000e+00
      2.044      0.035     7.9869    100.864    117.034 122.809048    11.9700     0.4936     0.0426     0.2115 4.4371e+02     0.3249      2.004      2.907    27.4624 0.0000e+00
      2.052      0.031     7.9830    100.828    117.026 122.801837    11.9700     0.5013     0.0426     0.2115 4.9528e+02     0.4156      2.012      2.918    27.4609 0.0000e+00
      2.059      0.029     7.9785    100.831    117.025 122.803654    11.9700     0.5356     0.0426     0.2961 5.1965e+02     0.2947      2.019      2.929    27.4602 0.0000e+00
      2.065      0.027     7.9735    100.875    117.011 122.790976    11.9700     0.5089     0.0426     0.2961 4.6991e+02     0.2947      2.026      2.938    27.4601 0.0000e+00
      2.072      0.026     7.9687    100.954    116.999 122.780428    11.9700     0.5051     0.0426     0.2961 5.2225e+02     0.2796      2.032      2.947    27.4605 0.0000e+00
      2.078      0.026     7.9658    101.036    116.999 122.781200    11.9700     0.5127     0.0426     0.2961 4.9035e+02     0.3249      2.038      2.955    27.4613 0.0000e+00
      2.084      0.028     7.9658    101.084    116.999 122.781496    11.8800     0.5280     0.0426     0.3807 5.1213e+02     0.1739      2.044      2.965    27.4622 0.0000e+00
      2.091      0.030     7.9691    101.097    117.000 122.781395    11.8800     0.5089     0.0426     0.3807 5.5840e+02     0.0530      2.050      2.974    27.4632 0.0000e+00
      2.098      0.033     7.9752    101.098    116.990 122.768865    11.8800     0.5089     0.0426     0.3807 4.6382e+02     0.0681      2.058      2.985    27.4640 0.0000e+00
      2.107      0.037     7.9817    101.091    116.977 122.752569    11.8800     0.4822     0.0426     0.3807 6.1871e+02     0.0379      2.066      2.997    27.4645 0.0000e+00
      2.116      0.042     7.9854    101.071    116.970 122.740165    11.9700     0.5089     0.0000     0.3384 5.8561e+02     0.2947      2.075      3.010    27.4646 0.0000e+00
      2.127      0.047     7.9866    101.036    116.954 122.716340    11.9700     0.5051     0.0000     0.3384 4.7670e+02     0.3249      2.086      3.026    27.4642 0.0000e+00
      2.140      0.052     7.9867    100.989    116.945 122.698749    11.9700     0.5127     0.0000     0.3384 5.4699e+02     0.3249      2.099      3.044    27.4633 0.0000e+00
      2.155      0.056     7.9864    100.947    116.957 122.702705    11.9700     0.5051     0.0000     0.3384 4.8369e+02     0.2947      2.113      3.065    27.4619 0.0000e+00
      2.171      0.059     7.9852    100.930    116.971 122.709256    11.9700     0.4822     0.0000     0.3384 4.7494e+02     0.2645      2.129      3.087    27.4598 0.0000e+00
      2.187      0.062     7.9828    100.940    116.979 122.710147    12.0600     0.5013     0.0426     0.2115 5.0145e+02     0.3249      2.145      3.110    27.4569 0.0000e+00
      2.203      0.063     7.9796    100.960    116.986 122.711617    12.0600     0.5432     0.0426     0.2115 4.6422e+02     0.3249      2.160      3.133    27.4534 0.0000e+00
      2.219      0.063     7.9768    100.981    116.993 122.712056    12.0600     0.5089     0.0426     0.2115 4.4807e+02     0.2645      2.176      3.156    27.4498 0.0000e+00
      2.236      0.063     7.9759    101.003    117.007 122.721583    12.0600     0.5165     0.0426     0.2115 4.7763e+02     0.2645      2.192      3.180    27.4464 0.0000e+00
      2.252      0.061     7.9771    101.024    117.024 122.734738    11.9700     0.4936     0.0426     0.2961 4.8138e+02     0.2796      2.209      3.204    27.4433 0.0000e+00
      2.268      0.060     7.9791    101.013    117.025 122.731022    11.9700     0.4936     0.0426     0.2961 4.3417e+02     0.3552      2.224      3.227    27.4404 0.0000e+00
      2.283      0.058     7.9811    100.949    117.016 122.717445    11.9700     0.5089     0.0426     0.2961 5.0649e+02     0.2796      2.239      3.248    27.4377 0.0000e+00
      2.297      0.056     7.9833    100.860    117.011 122.706391    11.9700     0.5585     0.0426     0.2961 4.4973e+02     0.2947      2.253      3.268    27.4353 0.0000e+00
      2.311      0.054     7.9852    100.801    117.012 122.702914    12.0600     0.5394     0.0426     0.1692 4.6171e+02     0.3400      2.266      3.287    27.4332 0.0000e+00
      2.324      0.053     7.9846    100.788    117.020 122.706086    12.0600     0.5547     0.0426     0.1692 4.5434e+02     0.2947      2.279      3.306    27.4314 0.0000e+00
      2.337      0.052     7.9798    100.805    117.026 122.708752    12.0600     0.5661     0.0426     0.1692 4.4188e+02     0.2796      2.292      3.325    27.4294 0.0000e+00
      2.351      0.052     7.9731    100.832    117.032 122.711621    12.0600     0.5051     0.0426     0.1692 4.2948e+02     0.3400      2.305      3.344    27.4273 0.0000e+00
      2.364      0.052     7.9687    100.849    117.035 122.711458    12.0600     0.5089     0.0426     0.2961 4.3116e+02     0.2192      2.318      3.362    27.4251 0.0000e+00
      2.377      0.052     7.9680    100.844    117.037 122.710220    12.0600     0.5051     0.0426     0.2961 4.3295e+02     0.2947      2.331      3.381    27.4232 0.0000e+00
      2.391      0.052     7.9696    100.808    117.051 122.721580    12.0600     0.5089     0.0426     0.2961 4.2382e+02     0.3098      2.344      3.400    27.4215 0.0000e+00
      2.404      0.052     7.9719    100.746    117.066 122.734564    12.0600     0.5432     0.0426     0.2961 4.0404e+02     0.2494      2.357      3.419    27.4201 0.0000e+00
      2.417      0.052     7.9734    100.675    117.069 122.734627    12.0600     0.5394     0.0426     0.2961 4.0439e+02     0.3703      2.371      3.438    27.4187 0.0000e+00
      2.431      0.051     7.9732    100.610    117.064 122.725789    12.0600     0.5432     0.0426     0.2538 3.9287e+02     0.3552      2.384      3.457    27.4173 0.0000e+00
      2.444      0.050     7.9706    100.571    117.058 122.717696    12.0600     0.5509     0.0426     0.2538 3.9398e+02     0.2494      2.396      3.476    27.4159 0.0000e+00
      2.456      0.049     7.9659    100.582    117.054 122.712190    12.0600     0.5585     0.0426     0.2538 3.9734e+02     0.3703      2.409      3.494    27.4146 0.0000e+00
      2.469      0.048     7.9604    100.642    117.040 122.695800    12.0600     0.5623     0.0426     0.2538 3.9415e+02     0.3552      2.421      3.511    27.4132 0.0000e+00
      2.480      0.047     7.9555    100.729    117.019 122.674157    12.1500     0.5547     0.0852     0.2538 3.8185e+02     0.2947      2.432      3.527    27.4120 0.0000e+00
      2.492      0.047     7.9526    100.827    117.019 122.673500    12.1500     0.5776     0.0852     0.2538 3.9578e+02     0.3703      2.443      3.543    27.4110 0.0000e+00
      2.503      0.047     7.9535    100.929    117.042 122.697654    12.1500     0.5509     0.0852     0.2538 3.8753e+02     0.2645      2.455      3.560    27.4103 0.0000e+00
      2.515      0.047     7.9583    101.025    117.060 122.717049    12.1500     0.5280     0.0852     0.2538 3.7649e+02     0.3249      2.466      3.577    27.4098 0.0000e+00
      2.527      0.048     7.9652    101.100    117.053 122.710851    12.1500     0.5394     0.0852     0.3807 3.8093e+02     0.2645      2.479      3.595    27.4095 0.0000e+00
      2.540      0.049     7.9730    101.135    117.040 122.697413    12.1500     0.5394     0.0852     0.3807 3.7649e+02     0.4609      2.491      3.613    27.4095 0.0000e+00
      2.552      0.049     7.9810    101.132    117.040 122.697157    12.1500     0.5356     0.0852     0.3807 3.6912e+02     0.3249      2.503      3.630    27.4097 0.0000e+00
      2.565      0.050     7.9886    101.101    117.050 122.706016    12.1500     0.5356     0.0852     0.3807 3.7453e+02     0.2796      2.515      3.648    27.4099 0.0000e+00
      2.577      0.051     7.9945    101.045    117.057 122.710345    12.1500     0.5394     0.0852     0.3807 3.7145e+02     0.3552      2.528      3.666    27.4101 0.0000e+00
      2.590      0.051     7.9972    100.968    117.056 122.707299    12.1500     0.5509     0.0000     0.2961 3.6001e+02     0.3400      2.540      3.684    27.4102 0.0000e+00
      2.604      0.052     7.9970    100.885    117.065 122.714070    12.1500     0.5509     0.0000     0.2961 3.6624e+02     0.3249      2.554      3.704    27.4100 0.0000e+00
      2.617      0.052     7.9947    100.822    117.086 122.734463    12.1500     0.5509     0.0000     0.2961 3.5319e+02     0.3854      2.567      3.723    27.4093 0.0000e+00
      2.631      0.052     7.9904    100.798    117.097 122.743909    12.1500     0.5661     0.0000     0.2961 3.5304e+02     0.3249      2.580      3.742    27.4083 0.0000e+00
      2.644      0.052     7.9845    100.800    117.097 122.742926    12.1500     0.5509     0.0426     0.3384 3.5565e+02     0.3400      2.593      3.761    27.4072 0.0000e+00
      2.657      0.052     7.9780    100.803    117.106 122.751258    12.1500     0.5356     0.0426     0.3384 3.4246e+02     0.3098      2.606      3.780    27.4062 0.0000e+00
      2.670      0.052     7.9732    100.787    117.119 122.763123    12.1500     0.5432     0.0426     0.3384 3.5388e+02     0.4156      2.619      3.798    27.4054 0.0000e+00
      2.683      0.053     7.9713    100.736    117.120 122.761680    12.1500     0.5509     0.0426     0.3384 3.4238e+02     0.3249      2.631      3.817    27.4047 0.0000e+00
      2.697      0.053     7.9716    100.637    117.101 122.738542    12.1500     0.5738     0.0426     0.2115 3.3832e+02     0.3249      2.644      3.836    27.4041 0.0000e+00
      2.710      0.054     7.9719    100.506    117.076 122.709545    12.1500     0.5585     0.0426     0.2115 3.3854e+02     0.3552      2.658      3.855    27.4036 0.0000e+00
      2.725      0.054     7.9707    100.379    117.067 122.696964    12.1500     0.5661     0.0426     0.2115 3.2839e+02     0.2947      2.672      3.875    27.4029 0.0000e+00
      2.739      0.054     7.9668    100.287    117.060 122.687441    12.1500     0.5547     0.0426     0.2115 3.2619e+02     0.2494      2.686      3.896    27.4020 0.0000e+00
      2.753      0.053     7.9592    100.227    117.046 122.670434    12.1500     0.5470     0.0426     0.2538 3.3097e+02     0.3249      2.699      3.916    27.4007 0.0000e+00
      2.767      0.051     7.9490    100.190    117.042 122.665414    12.1500     0.5203     0.0426     0.2538 3.1600e+02     0.3552      2.713      3.935    27.3993 0.0000e+00
      2.780      0.049     7.9391    100.179    117.044 122.667043    12.1500     0.5623     0.0426     0.2538 3.2147e+02     0.2796      2.725      3.953    27.3980 0.0000e+00
      2.792      0.046     7.9320    100.205    117.034 122.655749    12.1500     0.5585     0.0426     0.2538 3.1807e+02     0.3552      2.737      3.971    27.3970 0.0000e+00
      2.803      0.044     7.9274    100.268    117.021 122.642524    12.1500     0.5547     0.0426     0.2538 3.1232e+02     0.3249      2.748      3.987    27.3962 0.0000e+00
      2.813      0.042     7.9246    100.358    117.019 122.639845    12.0600     0.4822     0.0852     0.2538 3.1116e+02     0.3703      2.759      4.001    27.3957 0.0000e+00
      2.823      0.041     7.9237    100.456    117.027 122.648998    12.0600     0.5165     0.0852     0.2538 3.1518e+02     0.3854      2.768      4.016    27.3954 0.0000e+00
      2.833      0.042     7.9258    100.543    117.048 122.670425    12.0600     0.5165     0.0852     0.2538 3.1388e+02     0.3249      2.778      4.029    27.3953 0.0000e+00
      2.843      0.043     7.9308    100.608    117.069 122.691834    12.0600     0.4936     0.0852     0.2538 3.1130e+02     0.2947      2.788      4.044    27.3953 0.0000e+00
      2.854      0.045     7.9378    100.661    117.075 122.696928    12.1500     0.5013     0.0426     0.2961 3.1361e+02     0.2494      2.798      4.059    27.3953 0.0000e+00
      2.865      0.049     7.9456    100.713    117.073 122.691067    12.1500     0.4936     0.0426     0.2961 3.0901e+02     0.3552      2.809      4.075    27.3954 0.0000e+00
      2.878      0.052     7.9525    100.762    117.064 122.676688    12.1500     0.4936     0.0426     0.2961 3.1103e+02     0.3098      2.822      4.093    27.3954 0.0000e+00
      2.892      0.055     7.9577    100.795    117.032 122.637952    12.1500     0.5356     0.0426     0.2961 3.1429e+02     0.3854      2.836      4.113    27.3951 0.0000e+00
      2.907      0.057     7.9620    100.805    116.996 122.594539    12.1500     0.5776     0.0852     0.2538 3.0767e+02     0.4156      2.851      4.134    27.3944 0.0000e+00
      2.923      0.059     7.9663    100.788    116.982 122.574882    12.1500     0.5699     0.0852     0.2538 3.0713e+02     0.3400      2.866      4.156    27.3930 0.0000e+00
      2.938      0.060     7.9705    100.742    116.983 122.571738    12.1500     0.5547     0.0852     0.2538 3.1170e+02     0.3552      2.881      4.178    27.3909 0.0000e+00
      2.954      0.060     7.9735    100.660    116.994 122.580268    12.1500     0.5585     0.0852     0.2538 3.0914e+02     0.3703      2.896      4.200    27.3885 0.0000e+00
      2.969      0.059     7.9746    100.552    117.018 122.602746    12.1500     0.5356     0.0852     0.2538 3.0118e+02     0.2947      2.911      4.222    27.3861 0.0000e+00
      2.984      0.058     7.9735    100.446    117.043 122.627161    12.1500     0.5509     0.0426     0.1692 3.0454e+02     0.2041      2.926      4.244    27.3840 0.0000e+00
      2.999      0.057     7.9701    100.363    117.056 122.640019    12.1500     0.5623     0.0426     0.1692 3.1015e+02     0.3552      2.941      4.265    27.3822 0.0000e+00
      3.013      0.056     7.9638    100.305    117.052 122.634745    12.1500     0.5776     0.0426     0.1692 2.9580e+02     0.2645      2.955      4.286    27.3808 0.0000e+00
      3.028      0.055     7.9554    100.273    117.028 122.609934    12.1500     0.5089     0.0426     0.1692 3.0887e+02     0.3400      2.969      4.306    27.3799 0.0000e+00
      3.041      0.054     7.9471    100.272    116.991 122.570972    12.1500     0.4936     0.0426     0.2115 3.0171e+02     0.3552      2.983      4.326    27.3792 0.0000e+00
      3.055      0.054     7.9406    100.291    116.944 122.521472    12.1500     0.4936     0.0426     0.2115 2.9709e+02     0.2947      2.996      4.345    27.3786 0.0000e+00
      3.068      0.054     7.9361    100.310    116.894 122.468241    12.1500     0.5203     0.0426     0.2115 3.0237e+02     0.2796      3.009      4.364    27.3783 0.0000e+00
      3.081      0.054     7.9336    100.316    116.863 122.435092    12.1500     0.5509     0.0426     0.2115 2.9709e+02     0.5364      3.022      4.382    27.3782 0.0000e+00
      3.095      0.056     7.9335    100.305    116.870 122.441195    12.1500     0.5280     0.0426     0.2538 2.9988e+02     0.5515      3.035      4.402    27.3781 0.0000e+00
      3.110      0.057     7.9350    100.292    116.900 122.472171    12.1500     0.5623     0.0426     0.2538 3.0243e+02     0.5817      3.049      4.423    27.3781 0.0000e+00
      3.125      0.058     7.9366    100.284    116.930 122.502273    12.1500     0.5318     0.0426     0.2538 2.9191e+02     0.5213      3.064      4.444    27.3779 0.0000e+00
      3.140      0.059     7.9370    100.269    116.953 122.525523    12.1500     0.5509     0.0426     0.2538 2.9574e+02     0.6271      3.079      4.466    27.3777 0.0000e+00
      3.155      0.060     7.9363    100.234    116.976 122.548122    12.1500     0.5547     0.0426     0.2115 2.9567e+02     0.5515      3.094      4.488    27.3773 0.0000e+00
      3.171      0.060     7.9353    100.184    116.990 122.562091    12.1500     0.5394     0.0426     0.2115 2.9045e+02     0.5666      3.110      4.510    27.3768 0.0000e+00
      3.187      0.059     7.9347    100.134    116.987 122.557153    12.1500     0.5509     0.0426     0.2115 2.9420e+02     0.5515      3.125      4.532    27.3762 0.0000e+00
      3.202      0.058     7.9336    100.107    116.973 122.541993    12.1500     0.5509     0.0426     0.2115 2.8607e+02     0.5515      3.140      4.554    27.3757 0.0000e+00
      3.216      0.057     7.9310    100.108    116.964 122.532573    12.1500     0.5509     0.0426     0.2115 2.8913e+02     0.5515      3.154      4.575    27.3752 0.0000e+00
      3.231      0.056     7.9271    100.122    116.962 122.530384    12.3300     0.5509     0.0000     0.2538 2.8856e+02     0.5817      3.168      4.595    27.3748 0.0000e+00
      3.245      0.054     7.9232    100.136    116.961 122.528839    12.3300     0.5242     0.0000     0.2538 2.8688e+02     0.6120      3.182      4.615    27.3744 0.0000e+00
      3.258      0.054     7.9210    100.156    116.974 122.541529    12.3300     0.5623     0.0000     0.2538 2.8700e+02     0.4005      3.195      4.634    27.3741 0.0000e+00
      3.272      0.054     7.9211    100.191    117.000 122.567839    12.3300     0.5547     0.0000     0.2538 2.8557e+02     0.3098      3.208      4.653    27.3739 0.0000e+00
      3.285      0.055     7.9223    100.238    117.017 122.584775    12.2400     0.5547     0.0852     0.2961 2.8458e+02     0.3400      3.221      4.672    27.3738 0.0000e+00
      3.298      0.056     7.9234    100.283    117.028 122.594854    12.2400     0.5394     0.0852     0.2961 2.8632e+02     0.3249      3.235      4.691    27.3737 0.0000e+00
      3.313      0.058     7.9249    100.314    117.044 122.608766    12.2400     0.5509     0.0852     0.2961 2.8483e+02     0.5515      3.249      4.711    27.3734 0.0000e+00
      3.328      0.060     7.9278    100.331    117.051 122.614214    12.2400     0.5699     0.0852     0.2961 2.8458e+02     0.5515      3.263      4.733    27.3730 0.0000e+00
      3.344      0.062     7.9316    100.340    117.038 122.598649    12.3300     0.5699     0.0426     0.2538 2.8384e+02     0.5817      3.279      4.756    27.3724 0.0000e+00
      3.361      0.064     7.9352    100.339    117.021 122.579925    12.3300     0.5509     0.0426     0.2538 2.8619e+02     0.5213      3.296      4.779    27.3716 0.0000e+00
      3.377      0.064     7.9378    100.316    117.013 122.571054    12.3300     0.5356     0.0426     0.2538 2.8310e+02     0.5515      3.312      4.804    27.3708 0.0000e+00
      3.394      0.064     7.9393    100.255    117.012 122.569670    12.3300     0.4860     0.0426     0.2538 2.7683e+02     0.5666      3.329      4.828    27.3699 0.0000e+00
      3.410      0.065     7.9402    100.146    117.026 122.583407    12.3300     0.4860     0.0426     0.2115 2.8077e+02     0.4760      3.345      4.851    27.3690 0.0000e+00
      3.426      0.067     7.9402    100.001    117.044 122.601924    12.3300     0.5432     0.0426     0.2115 2.7798e+02     0.5364      3.360      4.873    27.3685 0.0000e+00
      3.442      0.070     7.9384     99.856    117.057 122.614155    12.3300     0.5280     0.0426     0.2115 2.8384e+02     0.6120      3.376      4.896    27.3682 0.0000e+00
      3.460      0.074     7.9336     99.738    117.061 122.617359    12.3300     0.5051     0.0426     0.2115 2.8514e+02     0.5062      3.393      4.921    27.3681 0.0000e+00
      3.479      0.079     7.9250     99.657    117.054 122.608389    12.3300     0.5203     0.0426     0.2115 2.7497e+02     0.5817      3.412      4.949    27.3680 0.0000e+00
      3.501      0.083     7.9135     99.620    117.045 122.596856    12.2400     0.5394     0.0852     0.1692 2.8236e+02     0.5817      3.433      4.979    27.3677 0.0000e+00
      3.524      0.086     7.9021     99.636    117.037 122.587688    12.2400     0.5852     0.0852     0.1692 2.7230e+02     0.4911      3.455      5.012    27.3673 0.0000e+00
      3.547      0.087     7.8929     99.690    117.039 122.588442    12.2400     0.5623     0.0852     0.1692 2.6755e+02     0.6120      3.478      5.045    27.3667 0.0000e+00
      3.570      0.088     7.8866     99.748    117.048 122.595317    12.2400     0.5661     0.0852     0.1692 2.6066e+02     0.5515      3.501      5.078    27.3660 0.0000e+00
      3.592      0.087     7.8838     99.768    117.041 122.586141    12.3300     0.5432     0.0426     0.1692 2.6351e+02     0.5213      3.522      5.109    27.3654 0.0000e+00
      3.614      0.086     7.8851     99.720    117.018 122.558466    12.3300     0.5203     0.0426     0.1692 2.5987e+02     0.7932      3.544      5.140    27.3648 0.0000e+00
      3.635      0.085     7.8895     99.616    116.994 122.528918    12.3300     0.5280     0.0426     0.1692 2.5796e+02     0.7781      3.565      5.171    27.3641 0.0000e+00
      3.657      0.084     7.8942     99.483    116.978 122.507623    12.3300     0.5318     0.0426     0.1692 2.5556e+02     0.7932      3.586      5.201    27.3633 0.0000e+00
      3.678      0.083     7.8959     99.336    116.960 122.484900    12.3300     0.5585     0.0426     0.2115 2.5225e+02     0.8386      3.607      5.232    27.3622 0.0000e+00
      3.700      0.082     7.8923     99.195    116.948 122.466694    12.3300     0.5432     0.0426     0.2115 2.5807e+02     1.0652      3.628      5.262    27.3608 0.0000e+00
      3.721      0.081     7.8843     99.093    116.959 122.472155    12.3300     0.5394     0.0426     0.2115 2.5072e+02     1.0349      3.649      5.292    27.3590 0.0000e+00
      3.741      0.080     7.8740     99.052    116.974 122.480733    12.3300     0.5585     0.0426     0.2115 2.5023e+02     0.9745      3.669      5.321    27.3572 0.0000e+00
      3.761      0.078     7.8626     99.057    116.979 122.476710    12.3300     0.5585     0.0426     0.2115 2.4731e+02     1.0652      3.689      5.350    27.3553 0.0000e+00
      3.781      0.077     7.8517     99.076    116.980 122.469017    12.4200     0.6691     0.0852     0.2538 2.4299e+02     2.2283      3.708      5.378    27.3532 0.0000e+00
      3.801      0.075     7.8441     99.088    116.965 122.443598    12.4200     0.6653     0.0852     0.2538 2.4278e+02     2.1679      3.728      5.406    27.3506 0.0000e+00
      3.820      0.073     7.8413     99.085    116.926 122.391674    12.4200     0.6920     0.0852     0.2538 2.4052e+02     2.2737      3.746      5.433    27.3473 0.0000e+00
      3.838      0.070     7.8422     99.050    116.889 122.341409    12.4200     0.6920     0.0852     0.2538 2.3886e+02     2.2132      3.764      5.459    27.3437 0.0000e+00
      3.856      0.067     7.8443     98.959    116.868 122.309404    12.5100     0.6615     0.0426     0.2538 2.3515e+02     2.2283      3.781      5.484    27.3397 0.0000e+00
      3.872      0.063     7.8458     98.815    116.835 122.267121    12.5100     0.6615     0.0426     0.2538 2.3798e+02     3.6030      3.798      5.508    27.3354 0.0000e+00
      3.888      0.060     7.8463     98.652    116.778 122.199282    12.5100     0.6577     0.0426     0.2538 2.3561e+02     3.5426      3.813      5.531    27.3307 0.0000e+00
      3.903      0.058     7.8442     98.492    116.712 122.119806    12.5100     0.6806     0.0426     0.2538 2.3423e+02     3.5728      3.827      5.552    27.3260 0.0000e+00
      3.917      0.056     7.8375     98.337    116.651 122.041507    12.5100     0.6577     0.0426     0.2961 2.3372e+02     3.6332      3.841      5.571    27.3217 0.0000e+00
      3.930      0.054     7.8267     98.178    116.602 121.969511    12.5100     0.7302     0.0426     0.2961 2.3306e+02     3.5728      3.854      5.590    27.3180 0.0000e+00
      3.944      0.054     7.8142     97.982    116.553 121.892620    12.5100     0.7225     0.0426     0.2961 2.2994e+02     3.5879      3.867      5.609    27.3145 0.0000e+00
      3.957      0.054     7.8021     97.713    116.498 121.804333    12.5100     0.7149     0.0426     0.2961 2.3494e+02     3.6030      3.881      5.628    27.3102 0.0000e+00
      3.971      0.053     7.7907     97.343    116.445 121.715112    12.6000     0.7378     0.0426     0.1692 2.2875e+02     3.6786      3.894      5.648    27.3041 0.0000e+00
      3.985      0.053     7.7793     96.855    116.403 121.637171    12.6000     0.8713     0.0426     0.1692 2.2697e+02     4.1167      3.908      5.668    27.2952 0.0000e+00
      3.999      0.052     7.7654     96.259    116.371 121.573728    12.6000     0.8637     0.0426     0.1692 2.2623e+02     4.1469      3.922      5.688    27.2838 0.0000e+00
      4.012      0.050     7.7458     95.590    116.360 121.537871    12.6000     0.8713     0.0426     0.1692 2.2559e+02     4.0713      3.935      5.707    27.2706 0.0000e+00
      4.025      0.048     7.7185     94.893    116.373 121.534040    12.6000     0.8370     0.0426     0.1692 2.1988e+02     4.0864      3.947      5.725    27.2561 0.0000e+00
      4.037      0.045     7.6819     94.223    116.382 121.531206    12.6000     1.0430     0.0000     0.2961 2.1878e+02     5.5216      3.959      5.742    27.2416 0.0000e+00
      4.049      0.042     7.6363     93.637    116.374 121.514610    12.6000     1.0620     0.0000     0.2961 2.2286e+02     5.5216      3.970      5.759    27.2287 0.0000e+00
      4.059      0.038     7.5846     93.177    116.362 121.495829    12.6000     1.0506     0.0000     0.2961 2.1845e+02     5.4611      3.981      5.774    27.2184 0.0000e+00
      4.069      0.034     7.5304     92.860    116.353 121.481857    12.6000     1.0201     0.0000     0.2961 2.1712e+02     5.5971      3.990      5.787    27.2110 0.0000e+00
      4.077      0.030     7.4779     92.681    116.356 121.482972    12.6000     1.4435     0.0426     0.2538 2.1959e+02     8.6335      3.998      5.799    27.2058 0.0000e+00
      4.084      0.025     7.4319     92.631    116.378 121.505472    12.6000     1.4588     0.0426     0.2538 2.1450e+02     8.6335      4.005      5.809    27.2021 0.0000e+00
      4.090      0.019     7.3958     92.685    116.415 121.545354    12.6000     1.4778     0.0426     0.2538 2.1571e+02     8.6637      4.011      5.818    27.1994 0.0000e+00
      4.094      0.014     7.3708     92.814    116.459 121.595251    12.6000     1.4893     0.0426     0.2538 2.1492e+02     8.6486      4.015      5.824    27.1975 0.0000e+00
      4.097      0.008     7.3568     92.984    116.491 121.636462    12.6900     1.7792     0.0852     0.2961 2.1496e+02     9.6154      4.018      5.828    27.1964 0.0000e+00
      4.099      0.002     7.3528     93.163    116.508 121.663971    12.6900     1.7754     0.0852     0.2961 2.1788e+02     9.5852      4.019      5.829    27.1962 0.0000e+00
      4.098     -0.004     7.3570     93.351    116.528 121.697119    12.6900     1.7601     0.0852     0.2961 2.1712e+02     9.6003      4.019      5.829    27.1970 0.0000e+00
      4.097     -0.011     7.3670     93.572    116.561 121.744745    12.6900     1.7983     0.0852     0.2961 2.1557e+02     9.6456      4.017      5.827    27.1988 0.0000e+00
      4.094     -0.019     7.3801     93.843    116.593 121.791545    12.6900     1.8441     0.0852     0.2961 2.1850e+02    10.2952      4.014      5.822    27.2018 0.0000e+00
      4.089     -0.028     7.3937     94.163    116.620 121.833994    12.9600     1.8364     0.0852     0.3384 2.1964e+02    10.1894      4.009      5.815    27.2060 0.0000e+00
      4.081     -0.038     7.4079     94.523    116.662 121.895417    12.9600     1.8364     0.0852     0.3384 2.1831e+02    10.3858      4.002      5.805    27.2112 0.0000e+00
      4.071     -0.052     7.4247     94.899    116.722 121.980189    12.9600     1.8364     0.0852     0.3384 2.1816e+02    10.4462      3.992      5.790    27.2170 0.0000e+00
      4.058     -0.068     7.4455     95.267    116.788 122.078910    12.9600     1.7029     0.0852     0.3384 2.2141e+02     9.7211      3.979      5.771    27.2230 0.0000e+00
      4.040     -0.088     7.4701     95.615    116.856 122.187899    12.8700     1.7144     0.0852     0.2538 2.1816e+02     9.6003      3.962      5.746    27.2291 0.0000e+00
      4.017     -0.110     7.4976     95.955    116.909 122.284211    12.8700     1.7220     0.0852     0.2538 2.2108e+02     9.6003      3.940      5.713    27.2363 0.0000e+00
      3.987     -0.134     7.5261     96.332    116.933 122.347519    12.8700     1.7296     0.0852     0.2538 2.1632e+02     9.5248      3.911      5.671    27.2459 0.0000e+00
      3.950     -0.157     7.5536     96.799    116.943 122.390707    12.8700     0.7645     0.0852     0.2538 2.2194e+02     3.3311      3.874      5.618    27.2589 0.0000e+00
      3.904     -0.178     7.5790     97.373    116.956 122.433296    13.1400     0.7378     0.0426     0.3384 2.3669e+02     3.4369      3.829      5.553    27.2751 0.0000e+00
      3.852     -0.196     7.6035     98.021    116.977 122.478641    13.1400     0.7492     0.0426     0.3384 2.4709e+02     3.4067      3.778      5.479    27.2924 0.0000e+00
      3.798     -0.210     7.6312     98.683    116.990 122.512830    13.1400     0.7187     0.0426     0.3384 2.5023e+02     3.4067      3.724      5.401    27.3086 0.0000e+00
      3.742     -0.218     7.6662     99.312    116.995 122.534977    13.1400     0.5547     0.0426     0.3384 2.5203e+02     1.3069      3.669      5.321    27.3227 0.0000e+00
      3.684     -0.223     7.7100     99.887    117.009 122.562993    12.5100     0.5509     0.0426     0.2538 2.6883e+02     1.3220      3.613      5.240    27.3349 0.0000e+00
      3.625     -0.224     7.7599    100.392    117.029 122.594346    12.5100     0.5585     0.0426     0.2538 2.8059e+02     1.2313      3.555      5.156    27.3451 0.0000e+00
      3.567     -0.224     7.8111    100.795    117.042 122.615393    12.5100     0.5394     0.0426     0.2538 2.8199e+02     1.3220      3.498      5.073    27.3538 0.0000e+00
      3.510     -0.223     7.8599    101.076    117.046 122.625744    12.5100     0.5585     0.0426     0.2538 2.9388e+02     0.5515      3.442      4.992    27.3611 0.0000e+00
      3.454     -0.222     7.9046    101.235    117.044 122.630160    12.5100     0.5432     0.0426     0.2538 2.8681e+02     0.6120      3.387      4.912    27.3669 0.0000e+00
      3.398     -0.220     7.9440    101.284    117.037 122.627820    12.3300     0.5547     0.0852     0.1692 2.9761e+02     0.5666      3.333      4.833    27.3712 0.0000e+00
      3.342     -0.218     7.9754    101.246    117.026 122.620100    12.3300     0.5585     0.0852     0.1692 3.0381e+02     0.5213      3.278      4.754    27.3744 0.0000e+00
      3.286     -0.216     7.9973    101.143    117.014 122.610943    12.3300     0.4936     0.0852     0.1692 3.0640e+02     0.5515      3.222      4.673    27.3771 0.0000e+00
      3.230     -0.212     8.0095    100.996    117.006 122.605910    12.3300     0.5089     0.0852     0.1692 3.2273e+02     0.5817      3.167      4.594    27.3795 0.0000e+00
      3.175     -0.208     8.0131    100.828    117.006 122.607660    12.3300     0.5318     0.0426     0.2538 3.4710e+02     0.5213      3.114      4.516    27.3818 0.0000e+00
      3.123     -0.203     8.0098    100.678    117.018 122.622661    12.3300     0.5051     0.0426     0.2538 3.4485e+02     0.5213      3.062      4.442    27.3836 0.0000e+00
      3.073     -0.198     8.0015    100.582    117.042 122.650914    12.3300     0.4898     0.0426     0.2538 3.4447e+02     0.2947      3.013      4.370    27.3851 0.0000e+00
      3.024     -0.193     7.9896    100.540    117.057 122.669943    12.3300     0.5089     0.0426     0.2538 3.6561e+02     0.3249      2.965      4.301    27.3864 0.0000e+00
      2.976     -0.189     7.9762    100.530    117.062 122.678822    12.2400     0.5318     0.0852     0.2961 3.5450e+02     0.4005      2.918      4.232    27.3874 0.0000e+00
      2.928     -0.186     7.9642    100.535    117.071 122.691923    12.2400     0.5089     0.0852     0.2961 3.5876e+02     0.2947      2.871      4.164    27.3884 0.0000e+00
      2.880     -0.185     7.9564    100.546    117.079 122.704737    12.2400     0.5661     0.0852     0.2961 3.7953e+02     0.3854      2.825      4.097    27.3895 0.0000e+00
      2.834     -0.185     7.9529    100.555    117.074 122.704677    12.2400     0.5470     0.0852     0.2961 3.8434e+02     0.4156      2.780      4.031    27.3909 0.0000e+00
      2.789     -0.186     7.9519    100.560    117.050 122.683726    12.2400     0.5432     0.0852     0.2961 3.7600e+02     0.3703      2.735      3.966    27.3924 0.0000e+00
      2.742     -0.188     7.9521    100.566    117.014 122.648301    12.2400     0.6005     0.0000     0.4230 4.0766e+02     0.3552      2.689      3.900    27.3941 0.0000e+00
      2.694     -0.191     7.9527    100.577    116.969 122.600957    12.2400     0.5470     0.0000     0.4230 4.0404e+02     0.3703      2.642      3.831    27.3960 0.0000e+00
      2.644     -0.194     7.9531    100.594    116.926 122.555078    12.2400     0.5814     0.0000     0.4230 4.2070e+02     0.3854      2.593      3.761    27.3982 0.0000e+00
      2.593     -0.197     7.9533    100.606    116.907 122.534438    12.2400     0.5776     0.0000     0.4230 4.3730e+02     0.2645      2.543      3.689    27.4000 0.0000e+00
      2.542     -0.198     7.9536    100.587    116.896 122.521531    12.1500     0.5470     0.0852     0.2538 4.4807e+02     0.3854      2.493      3.616    27.4010 0.0000e+00
      2.490     -0.198     7.9544    100.518    116.879 122.502913    12.1500     0.4936     0.0852     0.2538 4.6372e+02     0.3703      2.442      3.542    27.4011 0.0000e+00
      2.439     -0.197     7.9559    100.414    116.876 122.499624    12.1500     0.5013     0.0852     0.2538 4.5831e+02     0.4458      2.392      3.469    27.4007 0.0000e+00
      2.389     -0.194     7.9569    100.303    116.892 122.516790    12.1500     0.5013     0.0852     0.2538 4.3930e+02     0.2192      2.343      3.398    27.4002 0.0000e+00
      2.340     -0.191     7.9554    100.208    116.911 122.538984    12.3300     0.5280     0.0426     0.2115 5.3060e+02     0.3249      2.294      3.328    27.3997 0.0000e+00
      2.291     -0.187     7.9500    100.157    116.920 122.550118    12.3300     0.5280     0.0426     0.2115 4.7763e+02     0.4156      2.247      3.259    27.3994 0.0000e+00
      2.244     -0.184     7.9418    100.172    116.930 122.563164    12.3300     0.5318     0.0426     0.2115 4.8327e+02     0.3249      2.201      3.192    27.3993 0.0000e+00
      2.199     -0.182     7.9329    100.256    116.956 122.593604    12.3300     0.4860     0.0426     0.2115 5.1616e+02     0.4156      2.156      3.127    27.3996 0.0000e+00
      2.154     -0.180     7.9254    100.391    116.984 122.625549    12.1500     0.5127     0.0426     0.1692 4.8897e+02     0.4156      2.112      3.063    27.4001 0.0000e+00
      2.109     -0.180     7.9212    100.558    117.010 122.655516    12.1500     0.5013     0.0426     0.1692 5.2807e+02     0.3249      2.068      2.999    27.4010 0.0000e+00
      2.063     -0.180     7.9223    100.723    117.028 122.677492    12.1500     0.5356     0.0426     0.1692 5.1840e+02     0.3249      2.023      2.934    27.4021 0.0000e+00
      2.016     -0.180     7.9287    100.843    117.027 122.679333    12.1500     0.4975     0.0426     0.1692 5.2578e+02     0.4156      1.977      2.868    27.4033 0.0000e+00
      1.970     -0.180     7.9392    100.898    117.015 122.669531    12.1500     0.4936     0.0426     0.1692 5.3756e+02     0.4156      1.932      2.802    27.4046 0.0000e+00
      1.924     -0.179     7.9522    100.891    117.007 122.663480    12.1500     0.5738     0.0852     0.2115 5.2498e+02     0.3552      1.886      2.736    27.4059 0.0000e+00
      1.878     -0.178     7.9651    100.836    117.016 122.675568    12.1500     0.5623     0.0852     0.2115 5.1113e+02     0.1890      1.842      2.671    27.4072 0.0000e+00
      1.833     -0.177     7.9744    100.760    117.033 122.697017    12.1500     0.5356     0.0852     0.2115 5.6132e+02     0.3854      1.797      2.607    27.4083 0.0000e+00
      1.788     -0.176     7.9787    100.687    117.036 122.705539    12.1500     0.5585     0.0852     0.2115 5.6022e+02     0.3098      1.754      2.544    27.4093 0.0000e+00
      1.744     -0.176     7.9780    100.624    117.027 122.701407    12.0600     0.5509     0.0426     0.2961 4.7206e+02     0.3249      1.710      2.481    27.4103 0.0000e+00
      1.700     -0.177     7.9734    100.580    117.020 122.699523    12.0600     0.5280     0.0426     0.2961 6.0778e+02     0.3552      1.667      2.418    27.4116 0.0000e+00
      1.655     -0.178     7.9671    100.569    117.018 122.703386    12.0600     0.5623     0.0426     0.2961 5.7415e+02     0.3552      1.623      2.355    27.4134 0.0000e+00
      1.610     -0.180     7.9610    100.602    117.015 122.706025    12.0600     0.5242     0.0426     0.2961 6.3824e+02     0.3552      1.579      2.290    27.4155 0.0000e+00
      1.563     -0.181     7.9558    100.683    117.012 122.708145    11.9700     0.5203     0.0426     0.2115 5.6487e+02     0.3703      1.533      2.224    27.4178 0.0000e+00
      1.516     -0.182     7.9519    100.800    117.012 122.714311    11.9700     0.5242     0.0426     0.2115 8.4016e+02     0.3098      1.487      2.157    27.4202 0.0000e+00
      1.469     -0.182     7.9507    100.919    117.005 122.714165    11.9700     0.5318     0.0426     0.2115 6.7095e+02     0.3552      1.440      2.089    27.4226 0.0000e+00
      1.422     -0.180     7.9530    100.997    116.982 122.695666    11.9700     0.5318     0.0426     0.2115 7.5284e+02     0.3098      1.395      2.023    27.4249 0.0000e+00
      1.377     -0.179     7.9590    101.007    116.956 122.673886    11.9700     0.5089     0.0426     0.2115 5.4120e+02     0.3703      1.350      1.958    27.4275 0.0000e+00
      1.332     -0.178     7.9679    100.956    116.945 122.667025    12.0600     0.4936     0.0852     0.2961 4.8802e+02     0.3552      1.306      1.895    27.4302 0.0000e+00
      1.288     -0.178     7.9769    100.864    116.942 122.669252    12.0600     0.4936     0.0852     0.2961 6.2046e+02     0.3098      1.263      1.831    27.4329 0.0000e+00
      1.243     -0.181     7.9827    100.748    116.942 122.675159    12.0600     0.5165     0.0852     0.2961 5.4663e+02     0.3249      1.219      1.768    27.4354 0.0000e+00
      1.198     -0.184     7.9832    100.639    116.958 122.698325    12.0600     0.5165     0.0852     0.2961 5.2293e+02     0.4156      1.175      1.704    27.4378 0.0000e+00
      1.151     -0.189     7.9789    100.574    116.996 122.744928    11.9700     0.4936     0.0426     0.1692 6.3838e+02     0.3249      1.129      1.637    27.4400 0.0000e+00
      1.102     -0.193     7.9713    100.572    117.039 122.799389    11.9700     0.5356     0.0426     0.1692 6.1764e+02     0.3249      1.081      1.567    27.4422 0.0000e+00
      1.051     -0.196     7.9618    100.631    117.067 122.842220    11.9700     0.5051     0.0426     0.1692 5.4178e+02     0.4609      1.030      1.494    27.4447 0.0000e+00
      0.998     -0.196     7.9528    100.731    117.080 122.872842    11.9700     0.3792     0.0426     0.1692 4.7597e+02     0.3552      0.979      1.420    27.4473 0.0000e+00
      0.946     -0.192     7.9472    100.842    117.091 122.907423    11.9700     0.4135     0.0426     0.0846 5.4073e+02     0.2494      0.928      1.346    27.4504 0.0000e+00
      0.896     -0.185     7.9465    100.927    117.097 122.943182    11.9700     0.3945     0.0426     0.0846 4.8611e+02     0.3552      0.879      1.275    27.4545 0.0000e+00
      0.849     -0.176     7.9503    100.958    117.087 122.965651    11.9700     0.3868     0.0426     0.0846 5.9278e+02     0.4005      0.833      1.208    27.4601 0.0000e+00
      0.806     -0.166     7.9572    100.902    117.070 122.980822    11.9700     0.3716     0.0426     0.0846 4.0943e+02     0.2796      0.790      1.146    27.4676 0.0000e+00
      0.766     -0.158     7.9645    100.759    117.065 123.004746    11.8800     0.3716     0.0852     0.1269 5.5755e+02     0.2796      0.751      1.090    27.4773 0.0000e+00
      0.729     -0.151     7.9695    100.589    117.072 123.039805    11.8800     0.4135     0.0852     0.1269 4.3023e+02     0.4911      0.715      1.038    27.4896 0.0000e+00
      0.693     -0.146     7.9699    100.472    117.076 123.075341    11.8800     0.3868     0.0852     0.1269 8.4731e+02     0.3249      0.680      0.986    27.5038 0.0000e+00
      0.657     -0.142     7.9636    100.424    117.069 123.108828    11.8800     0.3296     0.0852     0.1269 9.0008e+02     0.2494      0.644      0.935    27.5177 0.0000e+00
      0.620     -0.139     7.9505    100.412    117.069 123.161201    11.8800     0.3334     0.0852     0.1269 9.0203e+02     0.3552      0.608      0.882    27.5302 0.0000e+00
      0.583     -0.136     7.9355    100.422    117.084 123.240427    11.7900     0.3067     0.0426     0.1692 4.9238e+02     0.2947      0.572      0.830    27.5422 0.0000e+00
      0.549     -0.133     7.9243    100.464    117.082 123.299616    11.7900     0.3258     0.0426     0.1692 3.5550e+02     0.2645      0.538      0.780    27.5558 0.0000e+00
      0.516     -0.129     7.9181    100.534    117.034 123.296541    11.7900     0.3182     0.0426     0.1692 8.5193e+02     0.2494      0.506      0.734    27.5731 0.0000e+00
      0.485     -0.126     7.9140    100.603    116.973 123.260394    11.7900     0.3182     0.0426     0.1692 4.4525e+02     0.2947      0.475      0.689    27.5956 0.0000e+00
      0.454     -0.122     7.9109    100.647    116.920 123.223547    11.6100     0.3334     0.0426     0.1692 3.4937e+02     0.3703      0.445      0.645    27.6225 0.0000e+00
      0.423     -0.119     7.9105    100.655    116.826 123.142165    11.6100     0.3258     0.0426     0.1692 3.6158e+02     0.2343      0.414      0.601    27.6489 0.0000e+00
      0.391     -0.115     7.9132    100.622    116.600 122.928524    11.6100     0.2571     0.0426     0.1692 8.0356e+02     0.3854      0.384      0.556    27.6690 0.0000e+00
      0.361     -0.111     7.9168    100.546    116.183 122.521654    11.6100     0.2571     0.0426     0.1692 5.2361e+02     0.3854      0.354      0.513    27.6815 0.0000e+00
      0.333     -0.105     7.9192    100.446    115.526 121.865073    11.7000     0.2571     0.0426     0.2538 3.2224e+02     0.3552      0.326      0.473    27.6896 0.0000e+00
      0.307     -0.101     7.9187    100.348    114.479 120.799701    11.7000     0.2800     0.0426     0.2538 4.1211e+02     0.3703      0.301      0.437    27.6976 0.0000e+00
      0.284     -0.097     7.9145    100.265    112.734 119.001427    11.7000     0.1236     0.0426     0.2538 3.1728e+03     0.1286      0.278      0.403    27.7086 0.0000e+00
      0.261     -0.095     7.9064    100.209    109.801 115.954702    11.7000     0.1503     0.0426     0.2538 8.9016e+02     0.1286      0.256      0.371    27.7236 0.0000e+00
      0.239     -0.095     7.8961    100.189    104.889 110.817060    11.7000     0.1274     0.0426     0.2538 1.3085e+03     0.1588      0.234      0.339    27.7410 0.0000e+00
      0.215     -0.097     7.8857    100.195     96.668 102.170451    11.4300     0.1312     0.0426     0.0846 1.0491e+03     0.0681      0.211      0.306    27.7600 0.0000e+00
      0.190     -0.100     7.8761    100.208     82.949  87.683111    11.4300     0.2113     0.0426     0.0846 9.1467e+02     1.0500      0.187      0.270    27.7824 0.0000e+00
      0.164     -0.104     7.8680    100.207     60.083  63.487749    11.4300     0.2152     0.0426     0.0846 4.7721e+02     1.1105      0.161      0.233    27.8096 0.0000e+00
      0.137     -0.109     7.8621    100.177     21.975  23.124267    11.4300     0.1808     0.0426     0.0846 5.7841e+02     1.0652      0.134      0.195    27.8404 0.0000e+00
      0.109     -0.115     7.8583    100.127    -41.533 -44.174928    11.9700     0.2152     0.0000    -0.2115 8.0688e+02     1.0500      0.107      0.156    27.8711 0.0000e+00
      0.081     -0.122     7.8556    100.073   -147.343-156.332279    11.9700     0.4097     0.0000    -0.2115 1.3200e+03     0.6120      0.080      0.116    27.8980 0.0000e+00
      0.051     -0.129     7.8523    100.011   -323.644-343.232404    11.9700     0.3945     0.0000    -0.2115 1.4470e+03     0.5213      0.050      0.073    27.9214 0.0000e+00
      0.018     -0.138     7.8469     99.932   -433.778-459.928464    11.9700     0.4135     0.0000    -0.2115 1.0274e+03     0.4760      0.018      0.026    27.9437 0.0000e+00
     -0.018     -0.146     7.8397     99.816   -323.486-342.824559    11.0700     0.3906     0.0426     0.2538 5.2134e+02     0.6120     -0.017     -0.025    27.9671 0.0000e+00
     -0.057     -0.153     7.8320     99.593   -147.121-155.647903    11.0700     0.0893     0.0426     0.2538 1.6525e+03    -0.9440     -0.055     -0.080    27.9932 0.0000e+00
     -0.097     -0.158     7.8227     99.134    -41.342 -43.359610    11.0700     0.0855     0.0426     0.2538 1.6851e+03    -0.8836     -0.095     -0.137    28.0267 0.0000e+00
     -0.137     -0.161     7.8104     98.288     22.115  24.007879    11.0700     0.0855     0.0426     0.2538 1.6286e+03    -0.9591     -0.134     -0.194    28.0727 0.0000e+00
     -0.176     -0.161     7.7934     96.978     60.196  64.431236    10.8000     0.0816     0.2130    -1.3536 1.7596e+03    -0.8231     -0.172     -0.250    28.1289 0.0000e+00
     -0.214     -0.159     7.7682     95.285     83.044  88.674016    10.8000     0.0626     0.2130    -1.3536 1.7646e+03    -0.8987     -0.210     -0.304    28.1845 0.0000e+00
     -0.251     -0.155     7.7263     93.434     96.727 103.180953    10.8000     0.6806     0.2130    -1.3536 1.6547e+03    -1.4274     -0.246     -0.357    28.2285 0.0000e+00
     -0.287     -0.149     7.6565     91.699    104.875 111.804555    10.8000     0.6958     0.2130    -1.3536 1.3358e+03    -1.3670     -0.281     -0.408    28.2572 0.0000e+00
     -0.320     -0.141     7.5523     90.310    109.668 116.856454    10.8000     0.6767     0.2130    -1.3536 1.2924e+03    -1.4425     -0.313     -0.455    28.2724 0.0000e+00
     -0.346     -0.134     7.4197     89.387    112.418 119.729840     3.7800     0.6577    -1.0224    -3.7224 3.0112e+02    -1.3972     -0.340     -0.493    28.2774 0.0000e+00
     -0.367     -0.128     7.2758     88.929    113.849 121.200948     3.7800     7.1885    -1.0224    -3.7224 8.5750e+02    -9.9474     -0.360     -0.522    28.2752 0.0000e+00
     -0.382     -0.126     7.1416     88.810    114.292 121.650064     3.7800     7.1847    -1.0224    -3.7224 1.8861e+02    -9.9928     -0.375     -0.543    28.2676 0.0000e+00
     -0.393 -9.990e-29     7.0350 -9.990e-29 -9.990e-29 -9.990e-29     3.7800 -9.990e-29    -1.0224    -3.7224 7.5695e+02 -9.990e-29     -0.385     -0.559    28.2543 0.0000e+00
     -0.401 -9.990e-29     6.9654 -9.990e-29 -9.990e-29 -9.990e-29     0.0000 -9.990e-29     1.2780    -4.6107 7.8135e+02 -9.990e-29     -0.393     -0.569    28.2356 0.0000e+00
     -0.405 -9.990e-29     6.9321 -9.990e-29 -9.990e-29 -9.990e-29     0.0000 -9.990e-29     1.2780    -4.6107 7.8135e+02 -9.990e-29     -0.397     -0.575    28.2161 0.0000e+00
     -0.406 -9.990e-29     6.9239 -9.990e-29 -9.990e-29 -9.990e-29     0.0000 -9.990e-29     1.2780    -4.6107 8.0987e+02 -9.990e-29     -0.398     -0.577    28.2072 0.0000e+00
