* Sea-Bird SBE19plus  Data File:
* FileName = C:\R\Reservoirs\Data\DataNotYetUploadedToEDI\Raw_CTD\RawDownloads\073124_ccr88_S8188_0005.hex
* Software version 2.8.0.119
* Temperature SN = 8188
* Conductivity SN = 8188
* System UpLoad Time = Aug 02 2024 14:06:11
* <ApplicationData>
* <Seaterm232>
* <SoftwareVersion>2.8.0.119</SoftwareVersion>
* <BuildDate>07-Nov-2018</BuildDate>
* </Seaterm232>
* </ApplicationData>
* <InstrumentState>
* <HardwareData DeviceType='SBE19plus' SerialNumber='01908188'>
*
*    <Manufacturer>Sea-Bird Electronics, Inc.</Manufacturer>
*
*    <FirmwareVersion>3.1.8</FirmwareVersion>
*
*    <FirmwareDate>Mar  9 2016 16:22:29</FirmwareDate>
*
*    <CommandSetVersion>1.4</CommandSetVersion>
*
*    <PCBAssembly PCBSerialNum='260079' AssemblyNum='41054K'/>
*
*    <PCBAssembly PCBSerialNum='260083' AssemblyNum='41059E'/>
*
*    <PCBAssembly PCBSerialNum='260085' AssemblyNum='41606B'/>
*
*    <PCBAssembly PCBSerialNum='260081' AssemblyNum='41967C'/>
*
*    <MfgDate>30 Mar 2022</MfgDate>
*
*    <InternalSensors>
*
*       <Sensor id='Main Temperature'>
*
*          <type>temperature0</type>
*
*          <SerialNumber>01908188</SerialNumber>
*
*       </Sensor>
*
*       <Sensor id='Main Conductivity'>
*
*          <type>conductivity-0</type>
*
*          <SerialNumber>01908188</SerialNumber>
*
*       </Sensor>
*
*       <Sensor id='Main Pressure'>
*
*          <type>strain-0</type>
*
*          <SerialNumber>12220741</SerialNumber>
*
*       </Sensor>
*
*    </InternalSensors>
*
*    <ExternalSensors>
*
*       <Sensor id='volt 0'>
*
*          <type>CHL</type>
*
*          <SerialNumber>FLNTURT-7096</SerialNumber>
*
*       </Sensor>
*
*       <Sensor id='volt 1'>
*
*          <type>NTU</type>
*
*          <SerialNumber>FLNTURT-7096</SerialNumber>
*
*       </Sensor>
*
*       <Sensor id='volt 2'>
*
*          <type>OXY</type>
*
*          <SerialNumber>43-4269</SerialNumber>
*
*       </Sensor>
*
*       <Sensor id='volt 3'>
*
*          <type>not assigned</type>
*
*          <SerialNumber>not assigned</SerialNumber>
*
*       </Sensor>
*
*       <Sensor id='volt 4'>
*
*          <type>PAR</type>
*
*          <SerialNumber>PARLOGICSW-2209</SerialNumber>
*
*       </Sensor>
*
*       <Sensor id='volt 5'>
*
*          <type>not assigned</type>
*
*          <SerialNumber>not assigned</SerialNumber>
*
*       </Sensor>
*
*       <Sensor id='serial'>
*
*          <type>WETLABS</type>
*
*          <SerialNumber>FL3-7350</SerialNumber>
*
*       </Sensor>
*
*    </ExternalSensors>
*
* </HardwareData>
* <StatusData DeviceType='SBE19plus' SerialNumber='01908188'>
*
*    <DateTime>2024-08-02T14:04:34</DateTime>
*
*    <LoggingState>not logging</LoggingState>
*
*    <EventSummary numEvents='0'/>
*
*    <Power>
*
*       <vMain>12.5</vMain>
*
*       <vLith>8.6</vLith>
*
*       <iMain>61.8</iMain>
*
*       <iPump>49.3</iPump>
*
*       <iExt01>22.3</iExt01>
*
*       <iExt2345>20.5</iExt2345>
*
*       <iSerial>54.0</iSerial>
*
*    </Power>
*
*    <MemorySummary>
*
*       <Bytes>301425</Bytes>
*
*       <Samples>12057</Samples>
*
*       <SamplesFree>2619868</SamplesFree>
*
*       <SampleLength>25</SampleLength>
*
*       <Profiles>11</Profiles>
*
*    </MemorySummary>
*
* </StatusData>
* <ConfigurationData DeviceType='SBE19plus' SerialNumber='01908188'>
*
*    <ProfileMode>
*
*       <ScansToAverage>1</ScansToAverage>
*
*       <MinimumCondFreq>2</MinimumCondFreq>
*
*       <PumpDelay>90</PumpDelay>
*
*       <AutoRun>no</AutoRun>
*
*       <IgnoreSwitch>no</IgnoreSwitch>
*
*    </ProfileMode>
*
*    <Battery>
*
*       <Type>alkaline</Type>
*
*       <CutOff>7.5</CutOff>
*
*    </Battery>
*
*    <DataChannels>
*
*       <ExtVolt0>yes</ExtVolt0>
*
*       <ExtVolt1>yes</ExtVolt1>
*
*       <ExtVolt2>yes</ExtVolt2>
*
*       <ExtVolt3>no</ExtVolt3>
*
*       <ExtVolt4>yes</ExtVolt4>
*
*       <ExtVolt5>no</ExtVolt5>
*
*       <SBE38>no</SBE38>
*
*       <WETLABS>yes</WETLABS>
*
*       <OPTODE>no</OPTODE>
*
*       <SBE63>no</SBE63>
*
*       <SeaFET>no</SeaFET>
*
*       <GTD>no</GTD>
*
*    </DataChannels>
*
*    <EchoCharacters>yes</EchoCharacters>
*
*    <OutputExecutedTag>yes</OutputExecutedTag>
*
*    <OutputFormat>raw HEX</OutputFormat>
*
* </ConfigurationData>
* <CalibrationCoefficients DeviceType='SBE19plus' SerialNumber='01908188'>
*
*    <Calibration format='TEMP1' id='Main Temperature'>
*
*       <SerialNum>01908188</SerialNum>
*
*       <CalDate>07-May-24</CalDate>
*
*       <TA0>1.249325e-03</TA0>
*
*       <TA1>2.751683e-04</TA1>
*
*       <TA2>-1.314205e-06</TA2>
*
*       <TA3>1.914222e-07</TA3>
*
*       <TOFFSET>0.000000e+00</TOFFSET>
*
*    </Calibration>
*
*    <Calibration format='WBCOND0' id='Main Conductivity'>
*
*       <SerialNum>01908188</SerialNum>
*
*       <CalDate>07-May-24</CalDate>
*
*       <G>-1.014855e+00</G>
*
*       <H>1.444624e-01</H>
*
*       <I>-3.430060e-04</I>
*
*       <J>4.842261e-05</J>
*
*       <CPCOR>-9.570000e-08</CPCOR>
*
*       <CTCOR>3.250000e-06</CTCOR>
*
*       <CSLOPE>1.000000e+00</CSLOPE>
*
*    </Calibration>
*
*    <Calibration format='STRAIN0' id='Main Pressure'>
*
*       <SerialNum>12220741</SerialNum>
*
*       <CalDate>03-Apr-24</CalDate>
*
*       <PA0>7.209200e-02</PA0>
*
*       <PA1>4.836684e-04</PA1>
*
*       <PA2>-3.501227e-12</PA2>
*
*       <PTCA0>5.244614e+05</PTCA0>
*
*       <PTCA1>2.020364e+01</PTCA1>
*
*       <PTCA2>-6.074616e-01</PTCA2>
*
*       <PTCB0>2.522087e+01</PTCB0>
*
*       <PTCB1>5.750000e-04</PTCB1>
*
*       <PTCB2>0.000000e+00</PTCB2>
*
*       <PTEMPA0>-5.770713e+01</PTEMPA0>
*
*       <PTEMPA1>5.343973e+01</PTEMPA1>
*
*       <PTEMPA2>-5.775530e-01</PTEMPA2>
*
*       <POFFSET>7.020000e-01</POFFSET>
*
*       <PRANGE>1.600000e+02</PRANGE>
*
*    </Calibration>
*
*    <Calibration format='VOLT0' id='Volt 0'>
*
*       <OFFSET>-4.657200e-02</OFFSET>
*
*       <SLOPE>1.248989e+00</SLOPE>
*
*    </Calibration>
*
*    <Calibration format='VOLT0' id='Volt 1'>
*
*       <OFFSET>-4.600800e-02</OFFSET>
*
*       <SLOPE>1.249849e+00</SLOPE>
*
*    </Calibration>
*
*    <Calibration format='VOLT0' id='Volt 2'>
*
*       <OFFSET>-4.668000e-02</OFFSET>
*
*       <SLOPE>1.250379e+00</SLOPE>
*
*    </Calibration>
*
*    <Calibration format='VOLT0' id='Volt 3'>
*
*       <OFFSET>-4.643200e-02</OFFSET>
*
*       <SLOPE>1.251002e+00</SLOPE>
*
*    </Calibration>
*
*    <Calibration format='VOLT0' id='Volt 4'>
*
*       <OFFSET>-4.606100e-02</OFFSET>
*
*       <SLOPE>1.249962e+00</SLOPE>
*
*    </Calibration>
*
*    <Calibration format='VOLT0' id='Volt 5'>
*
*       <OFFSET>-4.642700e-02</OFFSET>
*
*       <SLOPE>1.248530e+00</SLOPE>
*
*    </Calibration>
*
*    <Calibration format='FREQ0' id='external frequency channel'>
*
*       <EXTFREQSF>1.000018e+00</EXTFREQSF>
*
*    </Calibration>
*
* </CalibrationCoefficients>
* <EventCounters DeviceType='SBE19plus' SerialNumber='01908188'>
*
*    <EventSummary numEvents='0'/>
*
* </EventCounters></InstrumentState>
* <Headers>
*
* cast   5 31 Jul 2024 20:48:39 samples 4060 to 5073, avg = 1, stop = mag switch
*
# nquan = 16
# nvalues = 1014                        
# units = specified
# name 0 = depFM: Depth [fresh water, m]
# name 1 = dz/dtM: Descent Rate [m/s]
# name 2 = sbeox0Mg/L: Oxygen, SBE 43 [mg/l]
# name 3 = sbeox0PS: Oxygen, SBE 43 [% saturation]
# name 4 = specc: Specific Conductance [uS/cm]
# name 5 = c0uS/cm: Conductivity [uS/cm]
# name 6 = wetCDOM: Fluorescence, WET Labs CDOM [mg/m^3]
# name 7 = flECO-AFL: Fluorescence, WET Labs ECO-AFL/FL [mg/m^3]
# name 8 = flECO-AFL1: Fluorescence, WET Labs ECO-AFL/FL, 2 [mg/m^3]
# name 9 = flECO-AFL2: Fluorescence, WET Labs ECO-AFL/FL, 3 [mg/m^3]
# name 10 = par/sat/log: PAR/Logarithmic, Satlantic
# name 11 = turbWETntu0: Turbidity, WET Labs ECO [NTU]
# name 12 = prdM: Pressure, Strain Gauge [db]
# name 13 = prdE: Pressure, Strain Gauge [psi]
# name 14 = tv290C: Temperature [ITS-90, deg C]
# name 15 = flag:  0.000e+00
# span 0 =     -0.476,      4.238       
# span 1 =     -0.218,      0.164       
# span 2 =     3.8039,     9.6467       
# span 3 =     48.889,    125.692       
# span 4 =   -431.858,    117.986       
# span 5 =-459.886631, 127.650323       
# span 6 =    -4.5000,   306.5400       
# span 7 =    -0.2922,     1.9509       
# span 8 =    -2.1300,     1.1076       
# span 9 =    -2.0304,     4.1877       
# span 10 = 1.1570e-01, 1.7212e-01      
# span 11 =    -0.8685,   337.0322      
# span 12 =     -0.467,      4.156      
# span 13 =     -0.677,      6.028      
# span 14 =    24.4356,    29.1582      
# span 15 = 0.0000e+00, 0.0000e+00      
# interval = seconds: 0.25
# start_time = Jul 31 2024 20:48:39 [Instrument's time stamp, header]
# bad_flag = -9.990e-29
# <Sensors count="10" >
#   <sensor Channel="1" >
#     <!-- Count, Temperature -->
#     <TemperatureSensor SensorID="58" >
#       <SerialNumber>8188</SerialNumber>
#       <CalibrationDate>07-May-24</CalibrationDate>
#       <A0>1.24932504e-003</A0>
#       <A1>2.75168293e-004</A1>
#       <A2>-1.31420465e-006</A2>
#       <A3>1.91422179e-007</A3>
#       <Slope>1.00000000</Slope>
#       <Offset>0.0000</Offset>
#     </TemperatureSensor>
#   </sensor>
#   <sensor Channel="2" >
#     <!-- Frequency 0, Conductivity -->
#     <ConductivitySensor SensorID="3" >
#       <SerialNumber>8188</SerialNumber>
#       <CalibrationDate>07-May-24</CalibrationDate>
#       <UseG_J>1</UseG_J>
#       <!-- Cell const and series R are applicable only for wide range sensors. -->
#       <SeriesR>0.0000</SeriesR>
#       <CellConst>2000.0000</CellConst>
#       <ConductivityType>0</ConductivityType>
#       <Coefficients equation="0" >
#         <A>0.00000000e+000</A>
#         <B>0.00000000e+000</B>
#         <C>0.00000000e+000</C>
#         <D>0.00000000e+000</D>
#         <M>0.0</M>
#         <CPcor>-9.57000000e-008</CPcor>
#       </Coefficients>
#       <Coefficients equation="1" >
#         <G>-1.01485473e+000</G>
#         <H>1.44462400e-001</H>
#         <I>-3.43006030e-004</I>
#         <J>4.84226116e-005</J>
#         <CPcor>-9.57000000e-008</CPcor>
#         <CTcor>3.2500e-006</CTcor>
#         <!-- WBOTC not applicable unless ConductivityType = 1. -->
#         <WBOTC>0.00000000e+000</WBOTC>
#       </Coefficients>
#       <Slope>1.00000000</Slope>
#       <Offset>0.00000</Offset>
#     </ConductivitySensor>
#   </sensor>
#   <sensor Channel="3" >
#     <!-- Count, Pressure, Strain Gauge -->
#     <PressureSensor SensorID="46" >
#       <SerialNumber>8188</SerialNumber>
#       <CalibrationDate>03-Apr-24</CalibrationDate>
#       <PA0>7.20920045e-002</PA0>
#       <PA1>4.83668449e-004</PA1>
#       <PA2>-3.50122678e-012</PA2>
#       <PTEMPA0>-5.77071299e+001</PTEMPA0>
#       <PTEMPA1>5.34397285e+001</PTEMPA1>
#       <PTEMPA2>-5.77553003e-001</PTEMPA2>
#       <PTCA0>5.24461366e+005</PTCA0>
#       <PTCA1>2.02036405e+001</PTCA1>
#       <PTCA2>-6.07461634e-001</PTCA2>
#       <PTCB0>2.52208750e+001</PTCB0>
#       <PTCB1>5.75000000e-004</PTCB1>
#       <PTCB2>0.00000000e+000</PTCB2>
#       <Offset>0.000000</Offset>
#     </PressureSensor>
#   </sensor>
#   <sensor Channel="4" >
#     <!-- A/D voltage 0, Fluorometer, WET Labs ECO-AFL/FL -->
#     <FluoroWetlabECO_AFL_FL_Sensor SensorID="20" >
#       <SerialNumber>FLNTURT-7096</SerialNumber>
#       <CalibrationDate>21-Mar-2024</CalibrationDate>
#       <ScaleFactor>5.00000000e+001</ScaleFactor>
#       <!-- Dark output -->
#       <Vblank>0.0710</Vblank>
#     </FluoroWetlabECO_AFL_FL_Sensor>
#   </sensor>
#   <sensor Channel="5" >
#     <!-- A/D voltage 1, Turbidity Meter, WET Labs, ECO-NTU -->
#     <TurbidityMeter SensorID="67" >
#       <SerialNumber>FLNTURT-7096</SerialNumber>
#       <CalibrationDate>21-Mar-2024</CalibrationDate>
#       <ScaleFactor>198.000000</ScaleFactor>
#       <!-- Dark output -->
#       <DarkVoltage>0.070000</DarkVoltage>
#     </TurbidityMeter>
#   </sensor>
#   <sensor Channel="6" >
#     <!-- A/D voltage 2, Oxygen, SBE 43 -->
#     <OxygenSensor SensorID="38" >
#       <SerialNumber>4269</SerialNumber>
#       <CalibrationDate>08-May-24</CalibrationDate>
#       <Use2007Equation>1</Use2007Equation>
#       <CalibrationCoefficients equation="0" >
#         <!-- Coefficients for Owens-Millard equation. -->
#         <Boc>0.0000</Boc>
#         <Soc>0.0000e+000</Soc>
#         <offset>0.0000</offset>
#         <Pcor>0.00e+000</Pcor>
#         <Tcor>0.0000</Tcor>
#         <Tau>0.0</Tau>
#       </CalibrationCoefficients>
#       <CalibrationCoefficients equation="1" >
#         <!-- Coefficients for Sea-Bird equation - SBE calibration in 2007 and later. -->
#         <Soc>4.3983e-001</Soc>
#         <offset>-0.4978</offset>
#         <A>-4.5504e-003</A>
#         <B> 2.4929e-004</B>
#         <C>-4.1306e-006</C>
#         <D0> 2.5826e+000</D0>
#         <D1> 1.92634e-004</D1>
#         <D2>-4.64803e-002</D2>
#         <E> 3.6000e-002</E>
#         <Tau20> 1.9700</Tau20>
#         <H1>-3.3000e-002</H1>
#         <H2> 5.0000e+003</H2>
#         <H3> 1.4500e+003</H3>
#       </CalibrationCoefficients>
#     </OxygenSensor>
#   </sensor>
#   <sensor Channel="7" >
#     <!-- A/D voltage 3, PAR/Logarithmic, Satlantic -->
#     <PARLog_SatlanticSensor SensorID="76" >
#       <SerialNumber>2209</SerialNumber>
#       <CalibrationDate>14-Jan-2022</CalibrationDate>
#       <a0>9.8861e-001</a0>
#       <a1>8.0845e-001</a1>
#       <Im>1.3589e+000</Im>
#       <Multiplier>1.0000e+000</Multiplier>
#     </PARLog_SatlanticSensor>
#   </sensor>
#   <sensor Channel="8" >
#     <!-- Serial RS-232, Fluorometer, WET Labs ECO-AFL/FL, 2 -->
#     <FluoroWetlabECO_AFL_FL_Sensor SensorID="20" >
#       <SerialNumber>FL3-7350</SerialNumber>
#       <CalibrationDate>10-Mar-2022</CalibrationDate>
#       <ScaleFactor>4.26000000e-002</ScaleFactor>
#       <!-- Dark output -->
#       <Vblank>50.0000</Vblank>
#     </FluoroWetlabECO_AFL_FL_Sensor>
#   </sensor>
#   <sensor Channel="9" >
#     <!-- Serial RS-232, Fluorometer, WET Labs ECO-AFL/FL, 3 -->
#     <FluoroWetlabECO_AFL_FL_Sensor SensorID="20" >
#       <SerialNumber>FL3-7350</SerialNumber>
#       <CalibrationDate>10-Mar-2022</CalibrationDate>
#       <ScaleFactor>4.23000000e-002</ScaleFactor>
#       <!-- Dark output -->
#       <Vblank>48.0000</Vblank>
#     </FluoroWetlabECO_AFL_FL_Sensor>
#   </sensor>
#   <sensor Channel="10" >
#     <!-- Serial RS-232, Fluorometer, WET Labs ECO CDOM -->
#     <FluoroWetlabCDOM_Sensor SensorID="19" >
#       <SerialNumber>FL3-7350</SerialNumber>
#       <CalibrationDate>10-Mar-2022</CalibrationDate>
#       <ScaleFactor>0.090</ScaleFactor>
#       <!-- Dark output -->
#       <Vblank>50.000</Vblank>
#     </FluoroWetlabCDOM_Sensor>
#   </sensor>
# </Sensors>
# datcnv_date = Aug 02 2024 14:31:41, 7.26.7.129 [datcnv_vars = 15]
# datcnv_in = C:\R\Reservoirs\Data\DataNotYetUploadedToEDI\Raw_CTD\RawDownloads\073124_ccr90_S8188005.hex C:\R\Reservoirs\Data\DataNotYetUploadedToEDI\Raw_CTD\RawDownloads\SBE19plusV2_8188_start20240601.xmlcon
# datcnv_skipover = 0
# datcnv_ox_hysteresis_correction = yes
# datcnv_ox_tau_correction = yes
# filter_date = Aug 02 2024 14:33:18, 7.26.7.129
# filter_in = C:\R\Reservoirs\Data\DataNotYetUploadedToEDI\Raw_CTD\RawDownloads\073124_ccr90_S8188005.cnv
# filter_low_pass_tc_A = 0.500
# filter_low_pass_tc_B = 1.000
# filter_low_pass_A_vars = sbeox0Mg/L sbeox0PS specc c0uS/cm tv290C
# filter_low_pass_B_vars = depFM dz/dtM prdM prdE
# alignctd_date = Aug 02 2024 14:33:58, 7.26.7.129
# alignctd_in = C:\R\Reservoirs\Data\DataNotYetUploadedToEDI\Raw_CTD\RawDownloads\073124_ccr90_S8188005.cnv
# alignctd_adv = dz/dtM 1.000, sbeox0PS 1.000, specc 1.000, c0uS/cm 1.000, flECO-AFL 1.000, turbWETntu0 1.000                                                                                                                        
# file_type = ascii
*END*
     -0.457      0.013     7.9384     95.210      6.487   6.512405    -4.5000    -0.2502    -2.1300    -2.0304 1.3517e-01    -0.6268     -0.448     -0.650    24.4356 0.0000e+00
     -0.453      0.016     7.9401     95.247      7.887   7.962599    -4.5000    -0.2846    -2.1300    -2.0304 1.3745e-01    -0.8534     -0.445     -0.645    24.4388 0.0000e+00
     -0.449      0.021     7.9419     95.279     10.192  10.351363    -4.5000    -0.2655    -2.1300    -2.0304 1.1623e-01    -0.8685     -0.441     -0.639    24.4446 0.0000e+00
     -0.444      0.027     7.9435     95.305     13.994  14.293820     3.6900    -0.2579     0.0852     0.1269 1.1686e-01    -0.0678     -0.435     -0.632    24.4547 0.0000e+00
     -0.437      0.035     7.9443     95.326     20.246  20.781623     3.6900    -0.2769     0.0852     0.1269 1.5514e-01    -0.1283     -0.428     -0.622    24.4722 0.0000e+00
     -0.428      0.045     7.9432     95.340     30.565  31.493136     3.6900    -0.2579     0.0852     0.1269 1.1610e-01    -0.1283     -0.420     -0.609    24.5022 0.0000e+00
     -0.417      0.057     7.9386     95.343     46.175  47.774252     3.6900    -0.2769     0.0852     0.1269 1.1617e-01    -0.0376     -0.409     -0.593    24.5530 0.0000e+00
     -0.402      0.073     7.9287     95.333     65.846  68.529886     3.6900     0.1808     0.0852     0.1269 1.1612e-01     1.8507     -0.394     -0.572    24.6384 0.0000e+00
     -0.383      0.090     7.9101     95.315     84.813  88.907882     3.7800     0.1694     0.0852     0.2538 1.2650e-01     1.8507     -0.376     -0.545    24.7817 0.0000e+00
     -0.359      0.109     7.8774     95.301     98.284 103.799891     3.7800     0.1579     0.0852     0.2538 1.2449e-01     1.8356     -0.352     -0.510    25.0213 0.0000e+00
     -0.328      0.127     7.8215     95.310    106.170 112.897507     3.7800     0.1656     0.0852     0.2538 1.1610e-01     1.7903     -0.322     -0.467    25.4173 0.0000e+00
     -0.291      0.142     7.7400     95.367    110.716 118.394731     3.7800     0.4021     0.0852     0.2538 1.2872e-01     0.4156     -0.285     -0.414    25.9898 0.0000e+00
     -0.250      0.154     7.6464     95.497    113.305 121.679501     3.7800     0.4402     0.0852     0.0846 1.7019e-01     0.3703     -0.245     -0.356    26.6508 0.0000e+00
     -0.207      0.161     7.5586     95.718    114.752 123.605770     3.7800     0.4212     0.0852     0.0846 1.7033e-01     0.4156     -0.202     -0.294    27.2804 0.0000e+00
     -0.163      0.164     7.4866     96.038    115.527 124.689228     3.7800     0.4173     0.0852     0.0846 1.7212e-01     0.4609     -0.160     -0.232    27.8150 0.0000e+00
     -0.120      0.164     7.4344     96.450    115.896 125.234811     3.7800     0.4021     0.0852     0.0846 1.5200e-01     0.4911     -0.117     -0.171    28.2362 0.0000e+00
     -0.078      0.161     7.4030     96.936    116.045 125.464047    18.3600     0.4212     0.0852     0.1269 1.2828e-01     0.4609     -0.076     -0.111    28.5466 0.0000e+00
     -0.037      0.155     7.3914     97.465    116.126 125.554116    18.3600     0.4212     0.0852     0.1269 1.2263e-01     0.4458     -0.036     -0.053    28.7625 0.0000e+00
      0.003      0.147     7.3972     98.001    116.216 125.605066    18.3600     0.4440     0.0852     0.1269 1.3986e-01     0.5515      0.003      0.004    28.9042 0.0000e+00
      0.040      0.138     7.4176     98.502    116.333 125.670494    18.3600     0.3945     0.0852     0.1269 1.1617e-01     0.1437      0.040      0.058    28.9894 0.0000e+00
      0.075      0.126     7.4492     98.938    116.471 125.781843    11.4300     0.4250     0.0852     0.0846 1.1585e-01     0.1437      0.074      0.108    29.0317 0.0000e+00
      0.107      0.113     7.4887     99.284    116.615 125.934787    11.4300     0.4135     0.0852     0.0846 1.1615e-01     0.1890      0.105      0.152    29.0407 0.0000e+00
      0.134      0.098     7.5318     99.538    116.738 126.092080    11.4300     0.3792     0.0852     0.0846 1.1628e-01     0.1134      0.132      0.191    29.0257 0.0000e+00
      0.157      0.083     7.5734     99.719    116.822 126.217636    11.4300     0.4708     0.0852     0.0846 1.1600e-01    -0.0980      0.154      0.224    29.0023 0.0000e+00
      0.176      0.069     7.6088     99.867    116.877 126.314928    11.4300     0.4631     0.0852     0.0846 1.1617e-01    -0.0980      0.173      0.250    28.9874 0.0000e+00
      0.191      0.057     7.6354    100.035    116.924 126.401899    11.3400     0.4708     0.0426     0.1269 1.1612e-01    -0.1585      0.187      0.272    28.9876 0.0000e+00
      0.203      0.046     7.6534    100.270    116.961 126.473731    11.3400     0.4708     0.0426     0.1269 1.1590e-01    -0.2038      0.199      0.289    28.9984 0.0000e+00
      0.212      0.037     7.6653    100.458    116.978 126.521566    11.3400     0.4021     0.0426     0.1269 1.1582e-01    -0.0376      0.209      0.302    29.0139 0.0000e+00
      0.220      0.030     7.6745    100.270    116.979 126.550160    11.3400     0.4021     0.0426     0.1269 1.1600e-01    -0.0678      0.216      0.313    29.0303 0.0000e+00
      0.226      0.024     7.6853     99.436    116.975 126.567140    11.3400     0.3983     0.0852     0.1269 1.1605e-01    -0.0376      0.222      0.322    29.0457 0.0000e+00
      0.232      0.020     7.7015     97.894    116.966 126.573031    11.3400     0.4173     0.0852     0.1269 1.1615e-01    -0.0829      0.227      0.329    29.0597 0.0000e+00
      0.236      0.016     7.7142     95.713    116.955 126.569407    11.3400     0.4097     0.0852     0.1269 1.1617e-01    -0.2189      0.231      0.336    29.0724 0.0000e+00
      0.239      0.013     7.6982     93.055    116.942 126.559302    11.3400     0.4097     0.0852     0.1269 1.1612e-01    -0.1283      0.235      0.341    29.0838 0.0000e+00
      0.242      0.011     7.6330     90.130    116.921 126.536021    11.4300     0.4097     0.0852     0.1269 1.1570e-01    -0.1131      0.238      0.345    29.0932 0.0000e+00
      0.245      0.008     7.5137     87.156    116.881 126.489352    11.4300     0.4212     0.0852     0.1269 1.1605e-01    -0.1736      0.240      0.348    29.0998 0.0000e+00
      0.246      0.007     7.3458     84.340    116.822 126.418856    11.4300     0.4746     0.0852     0.1269 1.1620e-01    -0.0527      0.242      0.351    29.1036 0.0000e+00
      0.248      0.005     7.1416     81.851    116.758 126.341749    11.4300     0.4479     0.0852     0.1269 1.1630e-01    -0.1585      0.243      0.352    29.1050 0.0000e+00
      0.249      0.004     6.9171     79.770    116.719 126.291494    11.4300     0.4708     0.0852     0.1269 1.1612e-01    -0.0376      0.244      0.354    29.1049 0.0000e+00
      0.250      0.003     6.6890     78.117    116.718 126.284701    11.4300     0.5089     0.0426     0.2115 1.1600e-01    -0.1283      0.245      0.355    29.1034 0.0000e+00
      0.251      0.003     6.4733     76.886    116.734 126.297549    11.4300     0.4746     0.0426     0.2115 1.1633e-01    -0.1283      0.246      0.356    29.1006 0.0000e+00
      0.251      0.002     6.2826     76.034    116.750 126.311455    11.4300     0.4784     0.0426     0.2115 1.1595e-01    -0.0678      0.246      0.357    29.0970 0.0000e+00
      0.252      0.002     6.1233     75.477    116.769 126.326126    11.4300     0.4975     0.0426     0.2115 1.1610e-01    -0.0678      0.247      0.358    29.0936 0.0000e+00
      0.252      0.002     5.9967     75.109    116.786 126.337470    11.3400     0.4669     0.0426     0.2115 1.1597e-01    -0.2038      0.247      0.358    29.0911 0.0000e+00
      0.252      0.001     5.9023     74.852    116.803 126.348510    11.3400     0.5509     0.0426     0.2115 1.1607e-01    -0.1283      0.247      0.359    29.0895 0.0000e+00
      0.253      0.001     5.8371     74.689    116.821 126.362192    11.3400     0.5318     0.0426     0.2115 1.1600e-01    -0.0225      0.248      0.359    29.0878 0.0000e+00
      0.253      0.001     5.7945     74.652    116.837 126.374160    11.3400     0.5318     0.0426     0.2115 1.1623e-01    -0.1585      0.248      0.360    29.0854 0.0000e+00
      0.253      0.001     5.7666     74.757    116.852 126.383602    11.2500     0.5203     0.0426     0.1692 1.1615e-01    -0.1131      0.248      0.360    29.0824 0.0000e+00
      0.253      0.001     5.7472     74.991    116.860 126.385034    11.2500     0.4708     0.0426     0.1692 1.1607e-01     0.0530      0.248      0.360    29.0794 0.0000e+00
      0.254      0.001     5.7350     75.336    116.858 126.374834    11.2500     0.4708     0.0426     0.1692 1.1615e-01    -0.1283      0.249      0.361    29.0767 0.0000e+00
      0.254      0.001     5.7323     75.802    116.855 126.362288    11.2500     0.4860     0.0426     0.1692 1.1612e-01    -0.0225      0.249      0.361    29.0743 0.0000e+00
      0.254      0.001     5.7407     76.463    116.852 126.352053    11.3400     0.4708     0.0852     0.2115 1.1605e-01    -0.0376      0.249      0.361    29.0717 0.0000e+00
      0.254      0.001     5.7590     77.427    116.853 126.345401    11.3400     0.4631     0.0852     0.2115 1.1605e-01    -0.0829      0.249      0.362    29.0685 0.0000e+00
      0.254      0.001     5.7858     78.752    116.854 126.340558    11.3400     0.4708     0.0852     0.2115 1.1590e-01    -0.1585      0.249      0.362    29.0649 0.0000e+00
      0.254      0.001     5.8220     80.391    116.855 126.336233    11.3400     0.4975     0.0852     0.2115 1.1602e-01    -0.0225      0.249      0.362    29.0612 0.0000e+00
      0.255      0.001     5.8731     82.215    116.858 126.335273    11.3400     0.4669     0.0852     0.2115 1.1612e-01    -0.0376      0.250      0.362    29.0579 0.0000e+00
      0.255      0.001     5.9475     84.069    116.858 126.333420    11.2500     0.4479     0.0426     0.1692 1.1620e-01    -0.0527      0.250      0.363    29.0549 0.0000e+00
      0.255      0.001     6.0496     85.803    116.854 126.330180    11.2500     0.4784     0.0426     0.1692 1.1602e-01    -0.1283      0.250      0.363    29.0522 0.0000e+00
      0.256      0.001     6.1757     87.274    116.851 126.328691    11.2500     0.4822     0.0426     0.1692 1.1607e-01    -0.0527      0.251      0.364    29.0499 0.0000e+00
      0.256      0.001     6.3160     88.353    116.845 126.324554    11.2500     0.4669     0.0426     0.1692 1.1617e-01    -0.1131      0.251      0.364    29.0483 0.0000e+00
      0.256      0.001     6.4585     88.940    116.832 126.312666    11.2500     0.4936     0.0426     0.1692 1.1607e-01    -0.1131      0.251      0.364    29.0474 0.0000e+00
      0.256      0.001     6.5917     89.012    116.814 126.293858    11.2500     0.4708     0.0426     0.1692 1.1605e-01    -0.0829      0.251      0.364    29.0476 0.0000e+00
      0.256      0.000     6.7046     88.665    116.794 126.271117    11.2500     0.4784     0.0426     0.1692 1.1612e-01    -0.0980      0.251      0.365    29.0484 0.0000e+00
      0.256      0.000     6.7874     88.065    116.782 126.256387    11.2500     0.4784     0.0426     0.1692 1.1607e-01    -0.0074      0.251      0.365    29.0496 0.0000e+00
      0.257      0.000     6.8323     87.370    116.791 126.263749    11.2500     0.5203     0.0426     0.2115 1.1592e-01    -0.0980      0.252      0.365    29.0506 0.0000e+00
      0.257      0.000     6.8379     86.673    116.809 126.281158    11.2500     0.5432     0.0426     0.2115 1.1625e-01    -0.2340      0.252      0.365    29.0509 0.0000e+00
      0.256     -0.001     6.8113     85.982    116.815 126.283245    11.2500     0.5432     0.0426     0.2115 1.1605e-01    -0.0678      0.251      0.365    29.0504 0.0000e+00
      0.256     -0.001     6.7653     85.258    116.809 126.270566    11.2500     0.5547     0.0426     0.2115 1.1605e-01     0.0379      0.251      0.364    29.0495 0.0000e+00
      0.256     -0.002     6.7120     84.483    116.807 126.259749    11.2500     0.5509     0.0426     0.2115 1.1612e-01    -0.1283      0.251      0.364    29.0486 0.0000e+00
      0.255     -0.003     6.6586     83.703    116.818 126.261913    11.0700     0.4631     0.0852     0.2961 1.1617e-01    -0.0980      0.250      0.363    29.0476 0.0000e+00
      0.255     -0.003     6.6057     83.001    116.842 126.279637    11.0700     0.4860     0.0852     0.2961 1.1610e-01    -0.0829      0.250      0.362    29.0459 0.0000e+00
      0.254     -0.003     6.5503     82.436    116.864 126.295637    11.0700     0.4860     0.0852     0.2961 1.1623e-01    -0.0980      0.249      0.361    29.0431 0.0000e+00
      0.253     -0.003     6.4912     82.005    116.872 126.296172    11.0700     0.4746     0.0852     0.2961 1.1620e-01    -0.0829      0.248      0.359    29.0393 0.0000e+00
      0.251     -0.003     6.4318     81.657    116.868 126.281383    11.1600     0.4784     0.0426     0.0846 1.1620e-01    -0.0980      0.246      0.357    29.0353 0.0000e+00
      0.250     -0.003     6.3782     81.357    116.852 126.251329    11.1600     0.4517     0.0426     0.0846 1.1605e-01    -0.0980      0.245      0.356    29.0317 0.0000e+00
      0.249     -0.002     6.3351     81.108    116.833 126.218002    11.1600     0.4555     0.0426     0.0846 1.1617e-01    -0.1585      0.245      0.355    29.0285 0.0000e+00
      0.249     -0.000     6.3023     80.933    116.823 126.198526    11.1600     0.4555     0.0426     0.0846 1.1623e-01    -0.1585      0.245      0.355    29.0249 0.0000e+00
      0.250      0.001     6.2761     80.842    116.817 126.185707    11.1600     0.4936     0.0426     0.2115 1.1600e-01    -0.0678      0.245      0.355    29.0204 0.0000e+00
      0.250      0.002     6.2537     80.804    116.782 126.142110    11.1600     0.4898     0.0426     0.2115 1.1600e-01    -0.1131      0.245      0.356    29.0150 0.0000e+00
      0.251      0.003     6.2351     80.732    116.698 126.042105    11.1600     0.4593     0.0426     0.2115 1.1607e-01    -0.0678      0.246      0.357    29.0096 0.0000e+00
      0.251      0.003     6.2221     80.503    116.581 125.901041    11.1600     0.4593     0.0426     0.2115 1.1592e-01    -0.2491      0.247      0.358    29.0055 0.0000e+00
      0.252      0.004     6.2154     80.014    116.459 125.753332    11.0700     0.4555     0.0426     0.1269 1.1610e-01    -0.1283      0.248      0.359    29.0029 0.0000e+00
      0.253      0.004     6.2128     79.232    116.360 125.635619    11.0700     0.5013     0.0426     0.1269 1.1610e-01    -0.0829      0.249      0.361    29.0004 0.0000e+00
      0.255      0.004     6.2077     78.197    116.302 125.568531    11.0700     0.4898     0.0426     0.1269 1.1605e-01    -0.0527      0.250      0.362    28.9964 0.0000e+00
      0.256      0.004     6.1907     77.015    116.274 125.536181    11.0700     0.4440     0.0426     0.1269 1.1607e-01     0.0077      0.251      0.364    28.9902 0.0000e+00
      0.257      0.005     6.1538     75.837    116.251 125.507932    11.0700     0.4746     0.0426     0.1269 1.1612e-01    -0.0980      0.252      0.365    28.9835 0.0000e+00
      0.258      0.006     6.0942     74.792    116.213 125.460247    10.8900     0.4898     0.0426     0.0846 1.1617e-01    -0.0527      0.253      0.367    28.9790 0.0000e+00
      0.259      0.008     6.0148     73.954    116.149 125.380408    10.8900     0.4631     0.0426     0.0846 1.1610e-01    -0.0527      0.254      0.368    28.9769 0.0000e+00
      0.261      0.011     5.9240     73.317    116.073 125.283140    10.8900     0.4975     0.0426     0.0846 1.1597e-01    -0.0376      0.256      0.371    28.9758 0.0000e+00
      0.263      0.014     5.8335     72.814    116.014 125.200526    10.8900     0.5432     0.0426     0.0846 1.1605e-01    -0.0980      0.258      0.375    28.9743 0.0000e+00
      0.268      0.019     5.7534     72.366    115.988 125.150551    10.8900     0.5203     0.0426     0.0846 1.1605e-01    -0.0980      0.262      0.380    28.9714 0.0000e+00
      0.273      0.023     5.6894     71.915    115.997 125.135894    10.8900     0.5280     0.0426     0.0846 1.1617e-01    -0.1585      0.268      0.388    28.9668 0.0000e+00
      0.280      0.027     5.6411     71.441    116.025 125.136638    10.8900     0.5432     0.0426     0.0846 1.1610e-01    -0.0527      0.274      0.398    28.9603 0.0000e+00
      0.287      0.031     5.6031     70.957    116.038 125.116966    10.8900     0.5280     0.0426     0.0846 1.1607e-01    -0.0980      0.282      0.409    28.9523 0.0000e+00
      0.296      0.034     5.5695     70.476    116.025 125.063628    10.8000     0.5356     0.0426     0.2115 1.1600e-01    -0.0829      0.290      0.421    28.9431 0.0000e+00
      0.305      0.037     5.5359     69.990    116.008 124.996413    10.8000     0.5318     0.0426     0.2115 1.1623e-01    -0.0980      0.300      0.435    28.9323 0.0000e+00
      0.316      0.038     5.5006     69.487    116.012 124.941411    10.8000     0.5127     0.0426     0.2115 1.1585e-01    -0.1585      0.310      0.449    28.9198 0.0000e+00
      0.326      0.038     5.4647     68.974    116.051 124.909963    10.8000     0.4860     0.0426     0.2115 1.1607e-01    -0.1434      0.320      0.464    28.9053 0.0000e+00
      0.336      0.037     5.4293     68.472    116.122 124.905684    10.8000     0.4708     0.0426     0.2115 1.1620e-01    -0.1434      0.330      0.478    28.8880 0.0000e+00
      0.346      0.035     5.3938     68.009    116.204 124.917421    10.8900     0.4898     0.0426     0.1692 1.1607e-01    -0.0678      0.339      0.492    28.8670 0.0000e+00
      0.355      0.032     5.3574     67.614    116.273 124.928293    10.8900     0.4708     0.0426     0.1692 1.1600e-01    -0.1283      0.348      0.504    28.8414 0.0000e+00
      0.362      0.029     5.3208     67.320    116.317 124.927189    10.8900     0.4669     0.0426     0.1692 1.1607e-01    -0.0376      0.355      0.515    28.8102 0.0000e+00
      0.369      0.025     5.2853     67.143    116.332 124.905812    10.8900     0.4936     0.0426     0.1692 1.1600e-01    -0.1131      0.362      0.524    28.7752 0.0000e+00
      0.374      0.022     5.2526     67.062    116.320 124.862460    10.8000     0.4708     0.0426     0.1269 1.1605e-01    -0.1283      0.367      0.532    28.7423 0.0000e+00
      0.379      0.020     5.2246     67.027    116.295 124.807581    10.8000     0.4669     0.0426     0.1269 1.1610e-01    -0.1131      0.372      0.539    28.7152 0.0000e+00
      0.384      0.017     5.2038     66.990    116.281 124.762554    10.8000     0.4822     0.0426     0.1269 1.1605e-01    -0.1434      0.377      0.546    28.6943 0.0000e+00
      0.388      0.015     5.1916     66.928    116.294 124.741380    10.8000     0.4593     0.0426     0.1269 1.1612e-01    -0.0829      0.381      0.551    28.6784 0.0000e+00
      0.391      0.013     5.1865     66.831    116.325 124.734410    10.8900     0.4784     0.0426     0.1692 1.1617e-01    -0.0527      0.384      0.556    28.6652 0.0000e+00
      0.394      0.012     5.1849     66.708    116.347 124.715773    10.8900     0.4631     0.0426     0.1692 1.1617e-01    -0.0678      0.387      0.561    28.6530 0.0000e+00
      0.397      0.011     5.1833     66.576    116.353 124.684498    10.8900     0.4364     0.0426     0.1692 1.1605e-01    -0.1283      0.390      0.564    28.6402 0.0000e+00
      0.400      0.010     5.1798     66.440    116.360 124.656253    10.8900     0.4708     0.0426     0.1692 1.1607e-01    -0.1131      0.392      0.568    28.6250 0.0000e+00
      0.402      0.009     5.1739     66.304    116.375 124.639510    10.8900     0.4936     0.0426     0.1269 1.1605e-01    -0.0225      0.394      0.571    28.6076 0.0000e+00
      0.404      0.008     5.1660     66.174    116.396 124.633804    10.8900     0.4975     0.0426     0.1269 1.1623e-01    -0.0980      0.396      0.575    28.5898 0.0000e+00
      0.406      0.007     5.1573     66.059    116.413 124.629608    10.8900     0.4593     0.0426     0.1269 1.1620e-01    -0.1585      0.398      0.578    28.5733 0.0000e+00
      0.408      0.005     5.1481     65.966    116.419 124.621802    10.8900     0.4860     0.0426     0.1269 1.1617e-01    -0.1283      0.400      0.580    28.5582 0.0000e+00
      0.409      0.004     5.1388     65.901    116.411 124.604300    10.8900     0.4860     0.0426     0.1269 1.1612e-01    -0.1283      0.401      0.582    28.5442 0.0000e+00
      0.410      0.003     5.1299     65.854    116.384 124.568436    10.8900     0.4784     0.0852     0.2115 1.1605e-01    -0.0829      0.402      0.583    28.5320 0.0000e+00
      0.410      0.002     5.1218     65.811    116.344 124.516650    10.8900     0.4555     0.0852     0.2115 1.1605e-01    -0.0527      0.402      0.583    28.5225 0.0000e+00
      0.410      0.001     5.1152     65.748    116.305 124.463142    10.8900     0.4364     0.0852     0.2115 1.1590e-01    -0.0678      0.402      0.584    28.5162 0.0000e+00
      0.410      0.000     5.1105     65.634    116.275 124.417651    10.8900     0.4669     0.0852     0.2115 1.1605e-01    -0.0980      0.402      0.584    28.5124 0.0000e+00
      0.410      0.000     5.1071     65.456    116.259 124.386052    10.8900     0.4479     0.0426     0.1692 1.1612e-01    -0.1434      0.402      0.583    28.5093 0.0000e+00
      0.410      0.000     5.1041     65.222    116.257 124.371922    10.8900     0.4784     0.0426     0.1692 1.1610e-01    -0.1283      0.402      0.583    28.5056 0.0000e+00
      0.410      0.000     5.0997     64.946    116.259 124.363490    10.8900     0.4708     0.0426     0.1692 1.1628e-01    -0.0225      0.402      0.583    28.5005 0.0000e+00
      0.410      0.000     5.0914     64.649    116.252 124.346502    10.8900     0.4936     0.0426     0.1692 1.1623e-01    -0.0829      0.403      0.584    28.4945 0.0000e+00
      0.410      0.000     5.0781     64.353    116.240 124.324431    10.8000     0.4784     0.0852     0.1269 1.1628e-01    -0.0678      0.403      0.584    28.4885 0.0000e+00
      0.410      0.001     5.0604     64.069    116.230 124.303395    10.8000     0.5356     0.0852     0.1269 1.1612e-01    -0.0980      0.403      0.584    28.4833 0.0000e+00
      0.411      0.001     5.0394     63.798    116.222 124.283787    10.8000     0.5432     0.0852     0.1269 1.1602e-01    -0.0829      0.403      0.584    28.4789 0.0000e+00
      0.411      0.001     5.0166     63.539    116.215 124.264377    10.8000     0.5356     0.0852     0.1269 1.1595e-01    -0.0678      0.403      0.584    28.4749 0.0000e+00
      0.411      0.001     4.9940     63.282    116.204 124.239990    10.8000     0.5318     0.0852     0.1269 1.1592e-01    -0.1585      0.403      0.585    28.4708 0.0000e+00
      0.411      0.000     4.9724     63.016    116.194 124.216127    10.8000     0.4708     0.0426     0.1692 1.1587e-01    -0.0980      0.403      0.585    28.4663 0.0000e+00
      0.411      0.000     4.9518     62.738    116.193 124.202427    10.8000     0.4631     0.0426     0.1692 1.1602e-01    -0.1283      0.404      0.585    28.4614 0.0000e+00
      0.411      0.000     4.9322     62.455    116.197 124.195238    10.8000     0.4708     0.0426     0.1692 1.1605e-01    -0.1585      0.404      0.585    28.4562 0.0000e+00
      0.412      0.000     4.9127     62.173    116.201 124.188641    10.8000     0.4593     0.0426     0.1692 1.1597e-01    -0.0980      0.404      0.585    28.4509 0.0000e+00
      0.412      0.000     4.8925     61.902    116.202 124.180875    10.8000     0.4822     0.0426     0.1692 1.1612e-01    -0.0829      0.404      0.585    28.4453 0.0000e+00
      0.411      0.000     4.8714     61.648    116.198 124.169870    10.8000     0.4746     0.0426     0.1692 1.1590e-01    -0.1283      0.404      0.585    28.4398 0.0000e+00
      0.411      0.000     4.8498     61.408    116.189 124.152689    10.8000     0.4784     0.0426     0.1692 1.1600e-01    -0.0678      0.403      0.585    28.4346 0.0000e+00
      0.411      0.000     4.8283     61.168    116.182 124.136757    10.8000     0.4708     0.0426     0.1692 1.1612e-01    -0.0980      0.403      0.585    28.4302 0.0000e+00
      0.412      0.000     4.8075     60.925    116.185 124.133828    10.8000     0.4708     0.0426     0.1692 1.1605e-01    -0.0678      0.404      0.585    28.4266 0.0000e+00
      0.412      0.000     4.7881     60.691    116.189 124.135119    10.8000     0.4555     0.0426     0.1692 1.1617e-01    -0.1283      0.404      0.586    28.4233 0.0000e+00
      0.412      0.000     4.7697     60.483    116.184 124.128970    10.8000     0.4517     0.0426     0.1692 1.1605e-01    -0.2038      0.404      0.586    28.4201 0.0000e+00
      0.412      0.000     4.7514     60.305    116.169 124.113740    10.8000     0.4936     0.0426     0.1692 1.1615e-01    -0.0829      0.404      0.586    28.4168 0.0000e+00
      0.412      0.000     4.7327     60.145    116.151 124.093373    10.8000     0.5356     0.0426     0.2538 1.1605e-01    -0.0829      0.404      0.586    28.4142 0.0000e+00
      0.412      0.001     4.7146     59.981    116.141 124.078443    10.8000     0.5165     0.0426     0.2538 1.1595e-01    -0.1283      0.404      0.586    28.4127 0.0000e+00
      0.412      0.001     4.6985     59.805    116.140 124.072970    10.8000     0.5356     0.0426     0.2538 1.1612e-01    -0.0678      0.404      0.587    28.4125 0.0000e+00
      0.412      0.001     4.6847     59.616    116.142 124.071493    10.8000     0.5432     0.0426     0.2538 1.1615e-01    -0.1283      0.404      0.587    28.4127 0.0000e+00
      0.413      0.001     4.6723     59.419    116.143 124.069617    10.8000     0.5509     0.0426     0.2538 1.1607e-01    -0.0980      0.405      0.587    28.4122 0.0000e+00
      0.413      0.001     4.6597     59.219    116.143 124.066841    10.8000     0.5203     0.0426     0.2538 1.1595e-01    -0.0678      0.405      0.588    28.4106 0.0000e+00
      0.413      0.001     4.6462     59.015    116.141 124.058425    10.8000     0.5432     0.0426     0.2538 1.1612e-01    -0.1131      0.405      0.588    28.4085 0.0000e+00
      0.413      0.001     4.6316     58.807    116.134 124.042123    10.8000     0.5089     0.0426     0.2538 1.1582e-01    -0.0678      0.405      0.588    28.4069 0.0000e+00
      0.413      0.001     4.6164     58.594    116.128 124.025593    10.8000     0.5280     0.0426     0.2538 1.1610e-01    -0.1585      0.405      0.588    28.4058 0.0000e+00
      0.414      0.001     4.6010     58.383    116.129 124.016428    10.8000     0.5165     0.0426     0.1692 1.1615e-01    -0.0980      0.406      0.589    28.4043 0.0000e+00
      0.414      0.001     4.5854     58.185    116.135 124.016185    10.8000     0.5432     0.0426     0.1692 1.1605e-01    -0.0527      0.406      0.589    28.4017 0.0000e+00
      0.414      0.001     4.5695     58.008    116.142 124.016798    10.8000     0.5318     0.0426     0.1692 1.1602e-01    -0.0376      0.406      0.589    28.3978 0.0000e+00
      0.414      0.001     4.5533     57.847    116.138 124.006426    10.8000     0.5242     0.0426     0.1692 1.1617e-01    -0.1585      0.406      0.589    28.3934 0.0000e+00
      0.414      0.000     4.5373     57.690    116.127 123.986302    10.8000     0.5509     0.0000     0.2115 1.1595e-01    -0.0376      0.406      0.589    28.3893 0.0000e+00
      0.414      0.000     4.5222     57.525    116.120 123.971069    10.8000     0.5165     0.0000     0.2115 1.1607e-01    -0.0980      0.406      0.589    28.3861 0.0000e+00
      0.414      0.000     4.5086     57.354    116.125 123.968665    10.8000     0.5242     0.0000     0.2115 1.1605e-01    -0.1283      0.406      0.589    28.3835 0.0000e+00
      0.414      0.000     4.4963     57.189    116.131 123.970448    10.8000     0.5127     0.0000     0.2115 1.1605e-01    -0.0980      0.406      0.589    28.3807 0.0000e+00
      0.414      0.000     4.4843     57.044    116.129 123.964890    10.8000     0.5509     0.0000     0.2115 1.1600e-01    -0.1131      0.406      0.589    28.3773 0.0000e+00
      0.414      0.000     4.4718     56.925    116.124 123.954508    10.8900     0.5432     0.0426     0.2115 1.1612e-01    -0.0678      0.406      0.589    28.3736 0.0000e+00
      0.414      0.001     4.4587     56.821    116.125 123.948540    10.8900     0.5280     0.0426     0.2115 1.1605e-01    -0.1585      0.406      0.589    28.3705 0.0000e+00
      0.414      0.001     4.4461     56.718    116.132 123.945393    10.8900     0.5318     0.0426     0.2115 1.1610e-01    -0.0980      0.406      0.589    28.3684 0.0000e+00
      0.414      0.001     4.4350     56.610    116.142 123.944228    10.8900     0.5356     0.0426     0.2115 1.1605e-01    -0.2038      0.406      0.590    28.3669 0.0000e+00
      0.415      0.001     4.4258     56.498    116.153 123.944732    10.8000     0.5318     0.0426     0.1269 1.1605e-01    -0.0527      0.406      0.590    28.3650 0.0000e+00
      0.415      0.001     4.4180     56.385    116.160 123.943037    10.8000     0.5203     0.0426     0.1269 1.1612e-01    -0.1131      0.407      0.591    28.3618 0.0000e+00
      0.416      0.002     4.4104     56.276    116.163 123.938692    10.8000     0.5394     0.0426     0.1269 1.1620e-01    -0.0829      0.407      0.591    28.3574 0.0000e+00
      0.416      0.002     4.4024     56.177    116.159 123.930538    10.8000     0.5432     0.0426     0.1269 1.1605e-01    -0.0980      0.407      0.592    28.3524 0.0000e+00
      0.416      0.001     4.3940     56.095    116.149 123.916399    10.8000     0.5318     0.0426     0.1692 1.1617e-01    -0.0678      0.408      0.592    28.3475 0.0000e+00
      0.417      0.001     4.3855     56.033    116.137 123.900509    10.8000     0.5280     0.0426     0.1692 1.1612e-01    -0.0980      0.408      0.592    28.3434 0.0000e+00
      0.417      0.001     4.3773     55.977    116.130 123.890634    10.8000     0.5432     0.0426     0.1692 1.1600e-01    -0.0527      0.408      0.592    28.3403 0.0000e+00
      0.417      0.001     4.3697     55.910    116.129 123.888141    10.8000     0.5547     0.0426     0.1692 1.1592e-01    -0.1131      0.409      0.593    28.3385 0.0000e+00
      0.417      0.001     4.3635     55.837    116.126 123.888365    10.8000     0.5013     0.0426     0.1692 1.1617e-01    -0.0829      0.409      0.593    28.3372 0.0000e+00
      0.417      0.000     4.3588     55.783    116.116 123.883361    10.8000     0.4936     0.0426     0.1692 1.1600e-01    -0.1131      0.409      0.593    28.3357 0.0000e+00
      0.417      0.000     4.3545     55.759    116.104 123.875799    10.8000     0.4631     0.0426     0.1692 1.1605e-01    -0.1434      0.409      0.593    28.3344 0.0000e+00
      0.417      0.000     4.3493     55.743    116.099 123.871664    10.8000     0.4593     0.0426     0.1692 1.1605e-01    -0.1283      0.409      0.593    28.3340 0.0000e+00
      0.417      0.000     4.3435     55.705    116.096 123.865854    10.8000     0.4669     0.0426     0.1692 1.1605e-01    -0.1283      0.409      0.593    28.3353 0.0000e+00
      0.417      0.000     4.3391     55.631    116.093 123.858818    10.8900     0.4593     0.0426     0.1269 1.1610e-01    -0.0527      0.409      0.593    28.3378 0.0000e+00
      0.417      0.000     4.3371     55.529    116.095 123.858684    10.8900     0.5509     0.0426     0.1269 1.1612e-01    -0.1736      0.409      0.593    28.3400 0.0000e+00
      0.417      0.000     4.3358     55.416    116.101 123.863415    10.8900     0.5585     0.0426     0.1269 1.1610e-01    -0.0678      0.409      0.593    28.3406 0.0000e+00
      0.417     -0.001     4.3329     55.308    116.102 123.864270    10.8900     0.5242     0.0426     0.1269 1.1607e-01     0.0077      0.409      0.593    28.3395 0.0000e+00
      0.417     -0.001     4.3273     55.211    116.103 123.861476    10.8900     0.5165     0.0426     0.1692 1.1605e-01    -0.1283      0.408      0.593    28.3378 0.0000e+00
      0.416     -0.001     4.3194     55.124    116.110 123.862291    10.8900     0.5394     0.0426     0.1692 1.1623e-01    -0.0678      0.408      0.592    28.3368 0.0000e+00
      0.416     -0.001     4.3107     55.045    116.121 123.866931    10.8900     0.5165     0.0426     0.1692 1.1617e-01    -0.1585      0.408      0.592    28.3364 0.0000e+00
      0.416     -0.001     4.3023     54.980    116.132 123.872633    10.8900     0.5470     0.0426     0.1692 1.1612e-01    -0.1434      0.408      0.592    28.3360 0.0000e+00
      0.416      0.000     4.2948     54.941    116.139 123.876915    10.8900     0.5280     0.0426     0.1269 1.1605e-01    -0.1585      0.408      0.591    28.3346 0.0000e+00
      0.416      0.000     4.2883     54.934    116.136 123.872916    10.8900     0.5127     0.0426     0.1269 1.1628e-01    -0.0225      0.408      0.591    28.3318 0.0000e+00
      0.416      0.001     4.2824     54.950    116.131 123.865572    10.8900     0.5318     0.0426     0.1269 1.1625e-01    -0.0376      0.408      0.591    28.3286 0.0000e+00
      0.416      0.002     4.2776     54.972    116.135 123.866929    10.8900     0.5203     0.0426     0.1269 1.1617e-01    -0.0829      0.408      0.591    28.3260 0.0000e+00
      0.416      0.003     4.2746     54.989    116.147 123.875348    10.8900     0.5203     0.0426     0.1269 1.1617e-01    -0.0980      0.408      0.592    28.3247 0.0000e+00
      0.417      0.004     4.2741     55.000    116.157 123.883071    10.8900     0.4784     0.0426     0.0846 1.1612e-01    -0.1585      0.409      0.593    28.3242 0.0000e+00
      0.418      0.005     4.2754     55.009    116.155 123.884153    10.8900     0.4822     0.0426     0.0846 1.1617e-01    -0.0829      0.410      0.594    28.3234 0.0000e+00
      0.419      0.006     4.2773     55.018    116.147 123.882884    10.8900     0.4784     0.0426     0.0846 1.1600e-01    -0.0074      0.411      0.596    28.3218 0.0000e+00
      0.421      0.007     4.2787     55.005    116.144 123.886930    10.8900     0.4555     0.0426     0.0846 1.1600e-01    -0.0829      0.413      0.599    28.3200 0.0000e+00
      0.423      0.008     4.2796     54.950    116.142 123.889368    10.8900     0.5318     0.0426     0.1692 1.1633e-01    -0.0829      0.415      0.602    28.3190 0.0000e+00
      0.426      0.008     4.2803     54.854    116.139 123.886848    10.8900     0.5165     0.0426     0.1692 1.1602e-01    -0.1283      0.417      0.605    28.3202 0.0000e+00
      0.428      0.007     4.2807     54.743    116.143 123.886699    10.8900     0.5356     0.0426     0.1692 1.1600e-01    -0.0980      0.420      0.609    28.3232 0.0000e+00
      0.430      0.006     4.2795     54.637    116.157 123.892883    10.8900     0.5165     0.0426     0.1692 1.1592e-01    -0.0980      0.421      0.612    28.3264 0.0000e+00
      0.431      0.004     4.2750     54.555    116.176 123.903048    10.8900     0.5356     0.0426     0.1692 1.1607e-01    -0.1585      0.423      0.614    28.3286 0.0000e+00
      0.432      0.003     4.2675     54.507    116.191 123.907900    10.8900     0.5280     0.0426     0.1692 1.1595e-01    -0.0678      0.424      0.615    28.3290 0.0000e+00
      0.433      0.001     4.2590     54.493    116.198 123.904729    10.8900     0.5165     0.0426     0.1692 1.1612e-01    -0.0678      0.424      0.615    28.3268 0.0000e+00
      0.432      0.000     4.2511     54.510    116.203 123.900693    10.8900     0.5318     0.0426     0.1692 1.1610e-01    -0.2189      0.424      0.615    28.3230 0.0000e+00
      0.432     -0.001     4.2451     54.560    116.206 123.898715    10.8900     0.5013     0.0852     0.1692 1.1610e-01    -0.1585      0.423      0.614    28.3187 0.0000e+00
      0.431      0.000     4.2416     54.650    116.203 123.894267    10.8900     0.4784     0.0852     0.1692 1.1607e-01    -0.0829      0.423      0.613    28.3141 0.0000e+00
      0.431      0.000     4.2409     54.759    116.193 123.886163    10.8900     0.4708     0.0852     0.1692 1.1615e-01    -0.1887      0.422      0.613    28.3093 0.0000e+00
      0.431      0.001     4.2425     54.835    116.194 123.888247    10.8900     0.4555     0.0852     0.1692 1.1600e-01    -0.0376      0.422      0.613    28.3052 0.0000e+00
      0.431      0.002     4.2466     54.838    116.216 123.909078    10.8900     0.4708     0.0852     0.1692 1.1587e-01    -0.2189      0.423      0.613    28.3029 0.0000e+00
      0.432      0.003     4.2536     54.772    116.249 123.938207    10.9800     0.5547     0.0426     0.2538 1.1617e-01    -0.1434      0.424      0.615    28.3027 0.0000e+00
      0.433      0.004     4.2620     54.676    116.286 123.963393    10.9800     0.5165     0.0426     0.2538 1.1590e-01    -0.1283      0.425      0.617    28.3036 0.0000e+00
      0.435      0.004     4.2679     54.590    116.319 123.979350    10.9800     0.5356     0.0426     0.2538 1.1607e-01    -0.1283      0.426      0.618    28.3041 0.0000e+00
      0.436      0.004     4.2682     54.533    116.350 123.986329    10.9800     0.5509     0.0426     0.2538 1.1617e-01    -0.0376      0.427      0.620    28.3032 0.0000e+00
      0.436      0.003     4.2633     54.497    116.380 123.986191    10.9800     0.5165     0.0852     0.1269 1.1602e-01    -0.1283      0.428      0.621    28.3002 0.0000e+00
      0.437      0.003     4.2562     54.454    116.407 123.978898    10.9800     0.5509     0.0852     0.1269 1.1617e-01    -0.0678      0.429      0.622    28.2945 0.0000e+00
      0.438      0.003     4.2502     54.383    116.431 123.970503    10.9800     0.5127     0.0852     0.1269 1.1600e-01    -0.0376      0.429      0.623    28.2861 0.0000e+00
      0.439      0.002     4.2466     54.275    116.452 123.966769    10.9800     0.5280     0.0852     0.1269 1.1602e-01    -0.1585      0.430      0.624    28.2752 0.0000e+00
      0.439      0.002     4.2448     54.137    116.466 123.966699    10.9800     0.5203     0.0426     0.1269 1.1620e-01    -0.1736      0.431      0.625    28.2613 0.0000e+00
      0.440      0.001     4.2426     53.983    116.478 123.970273    10.9800     0.5356     0.0426     0.1269 1.1610e-01    -0.0678      0.431      0.626    28.2456 0.0000e+00
      0.440      0.001     4.2382     53.828    116.483 123.970443    10.9800     0.5127     0.0426     0.1269 1.1595e-01    -0.1131      0.431      0.626    28.2310 0.0000e+00
      0.440      0.000     4.2306     53.685    116.477 123.959251    10.9800     0.5509     0.0426     0.1269 1.1585e-01    -0.0376      0.431      0.626    28.2201 0.0000e+00
      0.440      0.000     4.2203     53.557    116.466 123.941714    10.9800     0.5470     0.0426     0.1269 1.1615e-01    -0.0376      0.431      0.626    28.2133 0.0000e+00
      0.440     -0.001     4.2087     53.439    116.461 123.929163    10.9800     0.5318     0.0426     0.1692 1.1590e-01    -0.0980      0.431      0.625    28.2095 0.0000e+00
      0.439     -0.001     4.1968     53.327    116.464 123.926252    10.9800     0.5089     0.0426     0.1692 1.1615e-01    -0.1131      0.431      0.625    28.2071 0.0000e+00
      0.439     -0.001     4.1858     53.217    116.476 123.932203    10.9800     0.5013     0.0426     0.1692 1.1617e-01    -0.1283      0.430      0.624    28.2049 0.0000e+00
      0.439      0.000     4.1760     53.102    116.492 123.944604    10.9800     0.5356     0.0426     0.1692 1.1597e-01    -0.1434      0.430      0.624    28.2025 0.0000e+00
      0.439      0.000     4.1670     52.981    116.508 123.958756    10.9800     0.5318     0.0426     0.0846 1.1605e-01    -0.1131      0.430      0.624    28.1996 0.0000e+00
      0.438      0.000     4.1584     52.868    116.519 123.970432    10.9800     0.5242     0.0426     0.0846 1.1600e-01    -0.1283      0.430      0.624    28.1967 0.0000e+00
      0.438      0.000     4.1500     52.783    116.518 123.970741    10.9800     0.5203     0.0426     0.0846 1.1620e-01    -0.0829      0.430      0.624    28.1942 0.0000e+00
      0.438      0.001     4.1412     52.722    116.501 123.955764    10.9800     0.5318     0.0426     0.0846 1.1612e-01    -0.1585      0.430      0.624    28.1922 0.0000e+00
      0.438      0.001     4.1318     52.665    116.482 123.937514    10.9800     0.5432     0.0426     0.2115 1.1590e-01    -0.1585      0.430      0.624    28.1910 0.0000e+00
      0.438      0.001     4.1230     52.599    116.471 123.927129    10.9800     0.5242     0.0426     0.2115 1.1615e-01    -0.0376      0.430      0.624    28.1907 0.0000e+00
      0.439      0.001     4.1164     52.518    116.470 123.929841    10.9800     0.5394     0.0426     0.2115 1.1612e-01    -0.1585      0.431      0.624    28.1914 0.0000e+00
      0.439      0.001     4.1115     52.428    116.480 123.946375    10.9800     0.5356     0.0426     0.2115 1.1607e-01    -0.1887      0.431      0.625    28.1925 0.0000e+00
      0.440      0.000     4.1070     52.344    116.488 123.965133    10.9800     0.5356     0.0426     0.2115 1.1607e-01    -0.0678      0.431      0.625    28.1935 0.0000e+00
      0.440      0.000     4.1018     52.275    116.488 123.975115    10.9800     0.5356     0.0426     0.2115 1.1600e-01    -0.0527      0.431      0.625    28.1942 0.0000e+00
      0.439      0.000     4.0954     52.221    116.483 123.978981    10.9800     0.5127     0.0426     0.2115 1.1620e-01    -0.0829      0.431      0.625    28.1956 0.0000e+00
      0.439     -0.001     4.0882     52.174    116.484 123.985768    10.9800     0.4669     0.0426     0.2115 1.1612e-01    -0.0376      0.431      0.625    28.1984 0.0000e+00
      0.439     -0.001     4.0814     52.120    116.491 123.997284    10.9800     0.4631     0.0426     0.2115 1.1590e-01    -0.0225      0.431      0.625    28.2026 0.0000e+00
      0.439     -0.001     4.0757     52.054    116.497 124.008598    10.9800     0.4364     0.0426     0.1692 1.1610e-01    -0.1283      0.431      0.624    28.2072 0.0000e+00
      0.439     -0.001     4.0712     51.978    116.499 124.018725    10.9800     0.4708     0.0426     0.1692 1.1617e-01    -0.0527      0.430      0.624    28.2111 0.0000e+00
      0.439     -0.001     4.0673     51.896    116.496 124.026365    10.9800     0.5280     0.0426     0.1692 1.1620e-01    -0.0527      0.430      0.624    28.2135 0.0000e+00
      0.439      0.000     4.0630     51.807    116.485 124.025554    10.9800     0.5318     0.0426     0.1692 1.1597e-01    -0.1434      0.430      0.624    28.2152 0.0000e+00
      0.439      0.000     4.0577     51.708    116.469 124.016076    11.0700     0.5432     0.0426     0.2115 1.1617e-01     0.0077      0.430      0.624    28.2174 0.0000e+00
      0.439      0.000     4.0515     51.597    116.458 124.007409    11.0700     0.5356     0.0426     0.2115 1.1615e-01    -0.0829      0.430      0.624    28.2209 0.0000e+00
      0.439     -0.000     4.0448     51.480    116.453 124.005242    11.0700     0.5280     0.0426     0.2115 1.1600e-01    -0.0980      0.430      0.624    28.2255 0.0000e+00
      0.439     -0.000     4.0376     51.367    116.443 124.000997    11.0700     0.5280     0.0426     0.2115 1.1617e-01    -0.0074      0.430      0.624    28.2300 0.0000e+00
      0.439     -0.000     4.0296     51.258    116.429 123.993539    10.9800     0.5318     0.0426     0.2115 1.1612e-01    -0.1283      0.430      0.623    28.2330 0.0000e+00
      0.439     -0.000     4.0208     51.156    116.419 123.988886    10.9800     0.5356     0.0426     0.2115 1.1592e-01    -0.2038      0.430      0.623    28.2347 0.0000e+00
      0.438     -0.001     4.0116     51.060    116.405 123.977792    10.9800     0.4440     0.0426     0.2115 1.1605e-01    -0.1887      0.430      0.623    28.2361 0.0000e+00
      0.438     -0.001     4.0026     50.964    116.385 123.957302    10.9800     0.4669     0.0426     0.2115 1.1602e-01    -0.0074      0.429      0.623    28.2385 0.0000e+00
      0.438     -0.001     3.9939     50.866    116.369 123.937955    10.9800     0.4440     0.0426     0.2115 1.1605e-01    -0.0980      0.429      0.623    28.2417 0.0000e+00
      0.438     -0.001     3.9858     50.764    116.360 123.926596    10.9800     0.4631     0.0426     0.1692 1.1605e-01    -0.1283      0.429      0.622    28.2447 0.0000e+00
      0.437     -0.001     3.9781     50.660    116.360 123.924198    10.9800     0.4936     0.0426     0.1692 1.1602e-01    -0.0074      0.429      0.622    28.2463 0.0000e+00
      0.437     -0.001     3.9707     50.557    116.361 123.926118    10.9800     0.4860     0.0426     0.1692 1.1610e-01    -0.1434      0.428      0.621    28.2464 0.0000e+00
      0.437     -0.001     3.9631     50.457    116.364 123.932870    10.9800     0.4555     0.0426     0.1692 1.1597e-01    -0.0829      0.428      0.621    28.2455 0.0000e+00
      0.436     -0.001     3.9552     50.359    116.371 123.946254    11.0700     0.4517     0.0426     0.0846 1.1597e-01    -0.0980      0.428      0.620    28.2444 0.0000e+00
      0.436     -0.000     3.9471     50.264    116.376 123.957835    11.0700     0.4822     0.0426     0.0846 1.1605e-01    -0.1131      0.427      0.620    28.2437 0.0000e+00
      0.436      0.000     3.9391     50.177    116.371 123.958697    11.0700     0.4669     0.0426     0.0846 1.1617e-01    -0.1585      0.427      0.620    28.2441 0.0000e+00
      0.436      0.001     3.9312     50.096    116.362 123.953074    11.0700     0.4669     0.0426     0.0846 1.1612e-01    -0.0829      0.427      0.620    28.2456 0.0000e+00
      0.436      0.001     3.9234     50.014    116.358 123.951468    11.0700     0.4708     0.0426     0.1692 1.1612e-01    -0.0527      0.428      0.620    28.2481 0.0000e+00
      0.436      0.002     3.9159     49.936    116.360 123.953454    11.0700     0.5165     0.0426     0.1692 1.1607e-01    -0.0678      0.428      0.621    28.2508 0.0000e+00
      0.437      0.002     3.9089     49.863    116.363 123.955557    11.0700     0.5127     0.0426     0.1692 1.1602e-01    -0.1131      0.429      0.622    28.2533 0.0000e+00
      0.438      0.002     3.9024     49.794    116.367 123.958340    11.0700     0.5280     0.0426     0.1692 1.1600e-01    -0.0829      0.429      0.623    28.2551 0.0000e+00
      0.439      0.002     3.8960     49.728    116.369 123.962544    11.0700     0.5318     0.0426     0.2115 1.1610e-01    -0.1585      0.430      0.624    28.2561 0.0000e+00
      0.439      0.002     3.8899     49.666    116.371 123.969289    11.0700     0.5394     0.0426     0.2115 1.1592e-01     0.0228      0.431      0.625    28.2562 0.0000e+00
      0.440      0.001     3.8843     49.614    116.369 123.976373    11.0700     0.5356     0.0426     0.2115 1.1602e-01    -0.0376      0.431      0.625    28.2556 0.0000e+00
      0.440      0.001     3.8790     49.570    116.365 123.981684    11.0700     0.5585     0.0426     0.2115 1.1602e-01    -0.0074      0.431      0.626    28.2551 0.0000e+00
      0.440      0.001     3.8738     49.531    116.360 123.986640    11.0700     0.5432     0.0426     0.2115 1.1615e-01    -0.0829      0.431      0.626    28.2555 0.0000e+00
      0.440      0.001     3.8688     49.491    116.356 123.992562    11.0700     0.4517     0.0426     0.2538 1.1590e-01    -0.1283      0.431      0.626    28.2577 0.0000e+00
      0.440      0.001     3.8645     49.449    116.350 124.001030    11.0700     0.4936     0.0426     0.2538 1.1623e-01    -0.1283      0.431      0.626    28.2616 0.0000e+00
      0.440      0.001     3.8607     49.411    116.341 124.010302    11.0700     0.4860     0.0426     0.2538 1.1612e-01    -0.0829      0.432      0.626    28.2662 0.0000e+00
      0.440      0.001     3.8574     49.381    116.332 124.018849    11.0700     0.4708     0.0426     0.2538 1.1602e-01    -0.0376      0.432      0.627    28.2704 0.0000e+00
      0.441      0.001     3.8540     49.361    116.326 124.024951    11.0700     0.4669     0.0000     0.0846 1.1605e-01    -0.0225      0.432      0.627    28.2750 0.0000e+00
      0.441      0.001     3.8503     49.357    116.326 124.030237    11.0700     0.4517     0.0000     0.0846 1.1605e-01    -0.0678      0.432      0.627    28.2811 0.0000e+00
      0.442      0.001     3.8468     49.381    116.333 124.040118    11.0700     0.4784     0.0000     0.0846 1.1628e-01    -0.1283      0.433      0.628    28.2891 0.0000e+00
      0.442      0.001     3.8439     49.439    116.342 124.057226    11.0700     0.4975     0.0000     0.0846 1.1615e-01    -0.0678      0.434      0.629    28.2969 0.0000e+00
      0.443      0.001     3.8420     49.519    116.347 124.078120    11.0700     0.5509     0.0426     0.1269 1.1610e-01    -0.1887      0.434      0.630    28.3023 0.0000e+00
      0.443      0.001     3.8415     49.604    116.340 124.092370    11.0700     0.5318     0.0426     0.1269 1.1590e-01    -0.0527      0.434      0.630    28.3046 0.0000e+00
      0.443      0.000     3.8433     49.685    116.325 124.095773    11.0700     0.5356     0.0426     0.1269 1.1600e-01     0.0077      0.434      0.630    28.3059 0.0000e+00
      0.443      0.000     3.8475     49.753    116.311 124.093242    11.0700     0.5013     0.0426     0.1269 1.1595e-01    -0.1283      0.434      0.630    28.3091 0.0000e+00
      0.443      0.000     3.8533     49.803    116.302 124.092102    11.0700     0.4593     0.0426     0.1269 1.1595e-01    -0.1585      0.434      0.630    28.3158 0.0000e+00
      0.443      0.000     3.8593     49.830    116.294 124.092051    11.0700     0.4975     0.0426     0.1692 1.1602e-01    -0.0074      0.434      0.630    28.3248 0.0000e+00
      0.443      0.001     3.8650     49.830    116.282 124.089074    11.0700     0.4822     0.0426     0.1692 1.1612e-01    -0.0376      0.435      0.630    28.3331 0.0000e+00
      0.443      0.001     3.8700     49.797    116.274 124.090379    11.0700     0.4517     0.0426     0.1692 1.1607e-01    -0.0829      0.435      0.631    28.3386 0.0000e+00
      0.444      0.001     3.8736     49.734    116.277 124.100317    11.0700     0.4746     0.0426     0.1692 1.1602e-01    -0.0980      0.435      0.631    28.3422 0.0000e+00
      0.444      0.001     3.8755     49.644    116.283 124.109535    10.9800     0.4555     0.0426     0.1692 1.1592e-01    -0.1131      0.436      0.631    28.3458 0.0000e+00
      0.444      0.001     3.8752     49.530    116.291 124.116490    10.9800     0.4746     0.0426     0.1692 1.1607e-01    -0.0678      0.436      0.632    28.3501 0.0000e+00
      0.444      0.001     3.8724     49.399    116.301 124.123036    10.9800     0.4708     0.0426     0.1692 1.1623e-01    -0.0980      0.436      0.632    28.3543 0.0000e+00
      0.444      0.001     3.8673     49.260    116.312 124.126916    10.9800     0.4708     0.0426     0.1692 1.1595e-01    -0.1434      0.436      0.632    28.3573 0.0000e+00
      0.445      0.001     3.8602     49.130    116.326 124.129167    11.0700     0.4440     0.0426     0.1692 1.1617e-01    -0.0829      0.436      0.632    28.3584 0.0000e+00
      0.445      0.001     3.8514     49.026    116.346 124.134388    11.0700     0.4593     0.0426     0.1692 1.1625e-01    -0.1736      0.437      0.633    28.3577 0.0000e+00
      0.445      0.001     3.8413     48.956    116.370 124.143971    11.0700     0.4669     0.0426     0.1692 1.1617e-01    -0.0376      0.437      0.634    28.3557 0.0000e+00
      0.446      0.001     3.8308     48.915    116.386 124.148465    11.0700     0.4593     0.0426     0.1692 1.1590e-01    -0.0527      0.438      0.634    28.3523 0.0000e+00
      0.446      0.001     3.8210     48.893    116.390 124.145066    11.0700     0.4440     0.0852     0.1692 1.1605e-01    -0.1887      0.438      0.635    28.3472 0.0000e+00
      0.447      0.001     3.8134     48.889    116.394 124.140873    11.0700     0.4517     0.0852     0.1692 1.1620e-01    -0.0376      0.438      0.636    28.3403 0.0000e+00
      0.447      0.001     3.8084     48.901    116.406 124.142768    11.0700     0.4593     0.0852     0.1692 1.1595e-01    -0.1283      0.439      0.636    28.3332 0.0000e+00
      0.447      0.001     3.8055     48.922    116.425 124.151258    11.0700     0.4669     0.0852     0.1692 1.1612e-01    -0.1434      0.439      0.636    28.3280 0.0000e+00
      0.448      0.000     3.8040     48.946    116.443 124.160601    11.0700     0.4517     0.0852     0.1692 1.1612e-01    -0.1585      0.439      0.637    28.3247 0.0000e+00
      0.448      0.000     3.8039     48.965    116.452 124.165286    10.9800     0.4784     0.0426     0.1692 1.1602e-01    -0.1131      0.439      0.637    28.3214 0.0000e+00
      0.447     -0.001     3.8052     48.978    116.453 124.166562    10.9800     0.4708     0.0426     0.1692 1.1612e-01    -0.1283      0.439      0.636    28.3166 0.0000e+00
      0.447     -0.001     3.8072     48.983    116.455 124.168770    10.9800     0.4784     0.0426     0.1692 1.1617e-01    -0.1131      0.439      0.636    28.3112 0.0000e+00
      0.447     -0.001     3.8093     48.987    116.455 124.168500    10.9800     0.4631     0.0426     0.1692 1.1607e-01    -0.0678      0.438      0.636    28.3071 0.0000e+00
      0.447     -0.002     3.8110     48.994    116.452 124.165678    10.8900     0.4593     0.0852     0.2115 1.1605e-01    -0.1131      0.438      0.635    28.3052 0.0000e+00
      0.446     -0.002     3.8120     49.001    116.451 124.167555    10.8900     0.4860     0.0852     0.2115 1.1607e-01    -0.1283      0.438      0.635    28.3050 0.0000e+00
      0.446     -0.002     3.8124     49.000    116.452 124.178632    10.8900     0.4784     0.0852     0.2115 1.1607e-01    -0.0376      0.437      0.634    28.3052 0.0000e+00
      0.445     -0.002     3.8127     48.993    116.448 124.189859    10.8900     0.4860     0.0852     0.2115 1.1602e-01    -0.0678      0.436      0.633    28.3051 0.0000e+00
      0.444     -0.002     3.8133     48.986    116.433 124.188226    10.9800     0.4517     0.0426     0.1692 1.1617e-01    -0.0376      0.435      0.631    28.3051 0.0000e+00
      0.443     -0.002     3.8137     49.001    116.418 124.181302    10.9800     0.4784     0.0426     0.1692 1.1623e-01    -0.1585      0.435      0.630    28.3066 0.0000e+00
      0.443     -0.001     3.8133     49.062    116.413 124.179246    10.9800     0.4479     0.0426     0.1692 1.1595e-01    -0.0980      0.434      0.630    28.3108 0.0000e+00
      0.443     -0.001     3.8123     49.183    116.410 124.177506    10.9800     0.4708     0.0426     0.1692 1.1600e-01    -0.2491      0.434      0.630    28.3172 0.0000e+00
      0.443     -0.000     3.8114     49.348    116.399 124.171618    10.9800     0.4631     0.0426     0.1692 1.1617e-01    -0.0678      0.434      0.630    28.3235 0.0000e+00
      0.443     -0.000     3.8123     49.519    116.388 124.168014    11.0700     0.4784     0.0426     0.0846 1.1623e-01    -0.1283      0.434      0.630    28.3274 0.0000e+00
      0.443      0.000     3.8170     49.664    116.386 124.173736    11.0700     0.4936     0.0426     0.0846 1.1595e-01    -0.0527      0.434      0.630    28.3287 0.0000e+00
      0.443      0.000     3.8263     49.773    116.387 124.178307    11.0700     0.4898     0.0426     0.0846 1.1605e-01    -0.1283      0.434      0.630    28.3296 0.0000e+00
      0.443      0.000     3.8390     49.852    116.380 124.170943    11.0700     0.4593     0.0426     0.0846 1.1612e-01    -0.0980      0.434      0.630    28.3319 0.0000e+00
      0.443      0.000     3.8520     49.916    116.371 124.161683    10.9800     0.4593     0.0426     0.1269 1.1612e-01    -0.1283      0.434      0.630    28.3355 0.0000e+00
      0.443      0.000     3.8631     49.970    116.370 124.164062    10.9800     0.4517     0.0426     0.1269 1.1592e-01    -0.0376      0.435      0.630    28.3389 0.0000e+00
      0.443      0.000     3.8714     50.008    116.373 124.174715    10.9800     0.4784     0.0426     0.1269 1.1605e-01    -0.0376      0.435      0.630    28.3406 0.0000e+00
      0.443      0.000     3.8776     50.022    116.369 124.180476    10.9800     0.4593     0.0426     0.1269 1.1600e-01    -0.1131      0.435      0.630    28.3407 0.0000e+00
      0.443      0.000     3.8825     50.022    116.359 124.178881    10.9800     0.4631     0.0426     0.1692 1.1605e-01    -0.1434      0.435      0.630    28.3406 0.0000e+00
      0.443      0.000     3.8867     50.039    116.352 124.177508    10.9800     0.4784     0.0426     0.1692 1.1595e-01    -0.0678      0.435      0.630    28.3419 0.0000e+00
      0.443      0.001     3.8894     50.100    116.351 124.179994    10.9800     0.4746     0.0426     0.1692 1.1592e-01    -0.1434      0.435      0.630    28.3452 0.0000e+00
      0.444      0.001     3.8902     50.208    116.357 124.191002    10.9800     0.4860     0.0426     0.1692 1.1602e-01    -0.1434      0.435      0.631    28.3497 0.0000e+00
      0.444      0.001     3.8899     50.334    116.364 124.205464    11.0700     0.4898     0.0426     0.1269 1.1600e-01    -0.1131      0.435      0.631    28.3536 0.0000e+00
      0.444      0.002     3.8910     50.443    116.367 124.215234    11.0700     0.5394     0.0426     0.1269 1.1600e-01    -0.0980      0.436      0.631    28.3562 0.0000e+00
      0.445      0.002     3.8957     50.510    116.374 124.226920    11.0700     0.5547     0.0426     0.1269 1.1610e-01    -0.1131      0.436      0.632    28.3578 0.0000e+00
      0.445      0.003     3.9039     50.534    116.388 124.239637    11.0700     0.5356     0.0426     0.1269 1.1612e-01    -0.0829      0.436      0.633    28.3598 0.0000e+00
      0.446      0.004     3.9136     50.542    116.399 124.244772    11.0700     0.5394     0.0426     0.1269 1.1617e-01    -0.1434      0.437      0.634    28.3626 0.0000e+00
      0.447      0.005     3.9219     50.561    116.409 124.247694    11.0700     0.5280     0.0426     0.1692 1.1633e-01    -0.1585      0.438      0.635    28.3655 0.0000e+00
      0.448      0.006     3.9270     50.591    116.417 124.253182    11.0700     0.4746     0.0426     0.1692 1.1620e-01    -0.0678      0.440      0.637    28.3671 0.0000e+00
      0.450      0.007     3.9289     50.623    116.417 124.254698    11.0700     0.4555     0.0426     0.1692 1.1617e-01    -0.1283      0.442      0.640    28.3663 0.0000e+00
      0.452      0.008     3.9297     50.665    116.410 124.252645    11.0700     0.4555     0.0426     0.1692 1.1600e-01    -0.1283      0.444      0.643    28.3634 0.0000e+00
      0.455      0.008     3.9314     50.733    116.399 124.250479    11.0700     0.4708     0.0426     0.2961 1.1605e-01    -0.0980      0.446      0.647    28.3603 0.0000e+00
      0.457      0.008     3.9338     50.819    116.384 124.247620    11.0700     0.4822     0.0426     0.2961 1.1600e-01    -0.1283      0.448      0.650    28.3588 0.0000e+00
      0.459      0.007     3.9362     50.886    116.371 124.247311    11.0700     0.4479     0.0426     0.2961 1.1600e-01    -0.1283      0.451      0.654    28.3594 0.0000e+00
      0.461      0.006     3.9393     50.889    116.365 124.253470    11.0700     0.4669     0.0426     0.2961 1.1612e-01    -0.0527      0.453      0.656    28.3619 0.0000e+00
      0.463      0.004     3.9443     50.807    116.366 124.263740    11.2500     0.4631     0.0426     0.2115 1.1602e-01    -0.1131      0.454      0.658    28.3660 0.0000e+00
      0.464      0.002     3.9506     50.651    116.371 124.272857    11.2500     0.4479     0.0426     0.2115 1.1612e-01    -0.0829      0.455      0.660    28.3713 0.0000e+00
      0.464     -0.001     3.9554     50.451    116.379 124.279251    11.2500     0.4708     0.0426     0.2115 1.1600e-01    -0.0678      0.455      0.660    28.3771 0.0000e+00
      0.463     -0.004     3.9553     50.235    116.397 124.288629    11.2500     0.4860     0.0426     0.2115 1.1605e-01    -0.0980      0.454      0.659    28.3825 0.0000e+00
      0.462     -0.007     3.9487     50.027    116.421 124.299491    11.2500     0.4593     0.0426     0.2115 1.1595e-01    -0.1434      0.453      0.657    28.3866 0.0000e+00
      0.460     -0.010     3.9364     49.841    116.438 124.302725    11.2500     0.4708     0.0426     0.1692 1.1612e-01    -0.1283      0.451      0.655    28.3884 0.0000e+00
      0.457     -0.013     3.9209     49.689    116.449 124.299195    11.2500     0.4860     0.0426     0.1692 1.1612e-01    -0.0829      0.449      0.651    28.3873 0.0000e+00
      0.454     -0.016     3.9044     49.586    116.461 124.299961    11.2500     0.4364     0.0426     0.1692 1.1617e-01    -0.0829      0.445      0.645    28.3830 0.0000e+00
      0.449     -0.020     3.8888     49.525    116.474 124.309229    11.2500     0.4440     0.0426     0.1692 1.1595e-01    -0.1283      0.440      0.639    28.3767 0.0000e+00
      0.443     -0.022     3.8748     49.482    116.477 124.317464    11.2500     0.4593     0.0000     0.2115 1.1643e-01    -0.0527      0.435      0.631    28.3702 0.0000e+00
      0.437     -0.023     3.8634     49.443    116.468 124.318862    11.2500     0.4669     0.0000     0.2115 1.1607e-01    -0.1283      0.428      0.621    28.3641 0.0000e+00
      0.430     -0.024     3.8556     49.425    116.459 124.317798    11.2500     0.4746     0.0000     0.2115 1.1595e-01    -0.0980      0.422      0.611    28.3589 0.0000e+00
      0.423     -0.023     3.8510     49.474    116.459 124.315990    11.2500     0.4708     0.0000     0.2115 1.1610e-01    -0.0527      0.415      0.602    28.3568 0.0000e+00
      0.417     -0.022     3.8476     49.651    116.470 124.314959    11.2500     0.4669     0.0426     0.1269 1.1610e-01     0.0228      0.409      0.593    28.3589 0.0000e+00
      0.412     -0.020     3.8442     50.001    116.500 124.324430    11.2500     0.4708     0.0426     0.1269 1.1623e-01    -0.1736      0.404      0.586    28.3637 0.0000e+00
      0.408     -0.018     3.8426     50.506    116.551 124.348930    11.2500     0.4555     0.0426     0.1269 1.1605e-01    -0.1283      0.400      0.580    28.3672 0.0000e+00
      0.404     -0.017     3.8464     51.092    116.607 124.380983    11.2500     0.4593     0.0426     0.1269 1.1600e-01    -0.1131      0.396      0.574    28.3667 0.0000e+00
      0.400     -0.017     3.8606     51.681    116.650 124.409127    11.2500     0.4708     0.0426     0.1269 1.1612e-01    -0.0376      0.392      0.568    28.3613 0.0000e+00
      0.395     -0.017     3.8884     52.249    116.680 124.436864    11.2500     0.4440     0.0426     0.1269 1.1597e-01    -0.1131      0.388      0.562    28.3512 0.0000e+00
      0.391     -0.017     3.9285     52.838    116.719 124.487597    11.2500     0.4822     0.0426     0.1269 1.1617e-01    -0.0225      0.383      0.556    28.3384 0.0000e+00
      0.387     -0.018     3.9749     53.562    116.783 124.584857    11.2500     0.4517     0.0426     0.1269 1.1615e-01    -0.0980      0.379      0.550    28.3266 0.0000e+00
      0.383     -0.020     4.0212     54.605    116.889 124.750579    11.2500     0.4669     0.0426     0.1269 1.1610e-01    -0.0980      0.375      0.544    28.3189 0.0000e+00
      0.378     -0.022     4.0653     56.258    117.063 125.024956    11.1600     0.4708     0.0426     0.1269 1.1623e-01    -0.0980      0.371      0.537    28.3169 0.0000e+00
      0.372     -0.026     4.1105     58.994    117.360 125.485155    11.1600     0.4517     0.0426     0.1269 1.1617e-01    -0.0376      0.365      0.530    28.3211 0.0000e+00
      0.366     -0.031     4.1654     63.556    117.712 126.075826    11.1600     0.4593     0.0426     0.1269 1.1612e-01    -0.0376      0.359      0.520    28.3330 0.0000e+00
      0.358     -0.036     4.2441     70.733    117.921 126.574334    11.1600     0.4555     0.0426     0.1269 1.1595e-01    -0.1434      0.351      0.509    28.3555 0.0000e+00
      0.348     -0.043     4.3686     80.535    117.973 126.907549    11.1600     0.4555     0.0426     0.2115 1.1612e-01    -0.0980      0.341      0.495    28.3933 0.0000e+00
      0.337     -0.050     4.5747     91.788    117.985 127.152344    11.1600     0.4746     0.0426     0.2115 1.1630e-01    -0.1283      0.330      0.479    28.4538 0.0000e+00
      0.323     -0.056     4.9191    102.870    117.986 127.331988    11.1600     0.4517     0.0426     0.2115 1.1605e-01    -0.0678      0.316      0.459    28.5450 0.0000e+00
      0.307     -0.061     5.4627    112.463    117.955 127.430363    11.1600     0.4669     0.0426     0.2115 1.1590e-01    -0.1283      0.301      0.437    28.6616 0.0000e+00
      0.290     -0.065     6.2074    119.699    117.900 127.463701    11.0700     0.4517     0.0426     0.1692 1.1602e-01    -0.0980      0.284      0.412    28.7794 0.0000e+00
      0.271     -0.066     7.0644    124.122    117.849 127.472911    11.0700     0.4936     0.0426     0.1692 1.1600e-01    -0.0829      0.266      0.386    28.8780 0.0000e+00
      0.253     -0.066     7.9091    125.692    117.811 127.476459    11.0700     0.4593     0.0426     0.1692 1.1600e-01    -0.1585      0.248      0.360    28.9536 0.0000e+00
      0.236     -0.064     8.6404    124.832    117.779 127.475292    11.0700     0.4212     0.0426     0.1692 1.1610e-01    -0.0527      0.231      0.335    29.0092 0.0000e+00
      0.220     -0.061     9.1918    122.355    117.753 127.473101    11.0700     0.3868     0.0426     0.1692 1.1610e-01    -0.1585      0.215      0.312    29.0488 0.0000e+00
      0.205     -0.057     9.5284    119.185    117.738 127.477308    11.0700     0.4021     0.0426     0.1692 1.1600e-01    -0.0980      0.201      0.291    29.0761 0.0000e+00
      0.191     -0.053     9.6467    116.010    117.726 127.481030    11.0700     0.4135     0.0426     0.1692 1.1612e-01    -0.1585      0.187      0.271    29.0950 0.0000e+00
      0.177     -0.048     9.5790    113.198    117.711 127.477257    11.0700     0.4708     0.0426     0.1692 1.1617e-01    -0.0678      0.174      0.252    29.1090 0.0000e+00
      0.165     -0.043     9.3875    110.910    117.708 127.484994    11.0700     0.4708     0.0426     0.1692 1.1605e-01    -0.0980      0.162      0.235    29.1200 0.0000e+00
      0.155     -0.037     9.1431    109.173    117.719 127.506304    10.9800     0.4517     0.0426     0.1692 1.1617e-01    -0.1585      0.152      0.220    29.1289 0.0000e+00
      0.146     -0.032     8.8985    107.912    117.732 127.526859    10.9800     0.4593     0.0426     0.1692 1.1602e-01    -0.1283      0.143      0.208    29.1359 0.0000e+00
      0.139     -0.027     8.6820    107.027    117.743 127.544138    10.9800     0.4708     0.0426     0.1692 1.1610e-01    -0.1434      0.136      0.197    29.1415 0.0000e+00
      0.133     -0.022     8.5059    106.440    117.749 127.554745    10.9800     0.4669     0.0426     0.1692 1.1600e-01    -0.0074      0.131      0.189    29.1460 0.0000e+00
      0.129     -0.018     8.3721    106.080    117.757 127.565510    10.9800     0.4669     0.0426     0.0846 1.1602e-01    -0.0678      0.126      0.183    29.1498 0.0000e+00
      0.125     -0.015     8.2750    105.878    117.769 127.579304    10.9800     0.4708     0.0426     0.0846 1.1605e-01    -0.0678      0.122      0.177    29.1528 0.0000e+00
      0.121     -0.012     8.2068    105.785    117.769 127.579796    10.9800     0.4593     0.0426     0.0846 1.1602e-01     0.1890      0.119      0.172    29.1550 0.0000e+00
      0.119     -0.010     8.1615    105.758    117.751 127.559111    10.9800     0.4555     0.0426     0.0846 1.1605e-01     0.1588      0.116      0.169    29.1566 0.0000e+00
      0.117     -0.008     8.1338    105.747    117.727 127.531745    10.9800     0.4708     0.0426     0.1692 1.1612e-01     0.2494      0.114      0.166    29.1576 0.0000e+00
      0.115     -0.007     8.1182    105.720    117.712 127.514411    10.9800     0.4708     0.0426     0.1692 1.1610e-01     0.1134      0.113      0.164    29.1581 0.0000e+00
      0.114     -0.006     8.1111    105.672    117.702 127.502487    10.9800     0.5356     0.0426     0.1692 1.1610e-01    -0.0225      0.112      0.162    29.1582 0.0000e+00
      0.112     -0.006     8.1091    105.621    117.694 127.492794    10.9800     0.5509     0.0426     0.1692 1.1605e-01    -0.1585      0.110      0.160    29.1578 0.0000e+00
      0.110     -0.006     8.1083    105.591    117.700 127.498754    10.9800     0.5242     0.0426     0.1692 1.1615e-01     0.0077      0.108      0.157    29.1574 0.0000e+00
      0.109     -0.007     8.1063    105.584    117.708 127.505950    10.9800     0.5280     0.0426     0.1269 1.1610e-01    -0.1283      0.107      0.155    29.1569 0.0000e+00
      0.107     -0.008     8.1027    105.582    117.700 127.496290    10.9800     0.5089     0.0426     0.1269 1.1612e-01    -0.0074      0.105      0.152    29.1565 0.0000e+00
      0.105     -0.008     8.0988    105.565    117.709 127.505216    10.9800     0.5280     0.0426     0.1269 1.1612e-01    -0.0980      0.103      0.150    29.1561 0.0000e+00
      0.103     -0.009     8.0966    105.522    117.758 127.557120    10.9800     0.5432     0.0426     0.1269 1.1605e-01    -0.0678      0.101      0.147    29.1557 0.0000e+00
      0.100     -0.009     8.0962    105.462    117.803 127.603811    11.0700     0.5203     0.0426     0.2115 1.1630e-01    -0.1434      0.098      0.143    29.1552 0.0000e+00
      0.098     -0.008     8.0960    105.414    117.808 127.607716    11.0700     0.4746     0.0426     0.2115 1.1617e-01    -0.1283      0.096      0.139    29.1547 0.0000e+00
      0.095     -0.008     8.0948    105.403    117.798 127.593888    11.0700     0.4860     0.0426     0.2115 1.1615e-01    -0.0980      0.093      0.135    29.1542 0.0000e+00
      0.094     -0.007     8.0916    105.426    117.790 127.582651    11.0700     0.4631     0.0426     0.2115 1.2642e-01    -0.1283      0.092      0.133    29.1537 0.0000e+00
      0.093     -0.006     8.0871    105.462    117.785 127.575011    10.9800     0.4708     0.0426     0.1269 1.1610e-01    -0.0678      0.091      0.131    29.1530 0.0000e+00
      0.092     -0.005     8.0836    105.495    117.789 127.576935    10.9800     0.4784     0.0426     0.1269 1.1623e-01    -0.0980      0.090      0.130    29.1521 0.0000e+00
      0.091     -0.004     8.0829    105.526    117.806 127.592937    10.9800     0.4784     0.0426     0.1269 1.1623e-01    -0.1434      0.089      0.129    29.1511 0.0000e+00
      0.089     -0.003     8.0848    105.559    117.822 127.607274    10.9800     0.4517     0.0426     0.1269 1.1600e-01    -0.0678      0.087      0.126    29.1501 0.0000e+00
      0.087     -0.001     8.0876    105.590    117.824 127.607761    10.9800     0.4860     0.0426     0.1269 1.1617e-01    -0.0678      0.086      0.124    29.1491 0.0000e+00
      0.087      0.001     8.0903    105.605    117.818 127.598531    11.0700     0.4936     0.0426     0.1269 1.1597e-01    -0.0376      0.085      0.123    29.1480 0.0000e+00
      0.088      0.003     8.0928    105.607    117.796 127.573118    11.0700     0.4593     0.0426     0.1269 1.1607e-01    -0.1283      0.086      0.124    29.1467 0.0000e+00
      0.089      0.006     8.0955    105.602    117.779 127.552761    11.0700     0.4517     0.0426     0.1269 1.2568e-01    -0.0678      0.088      0.127    29.1455 0.0000e+00
      0.091      0.007     8.0980    105.572    117.783 127.556044    11.0700     0.4784     0.0426     0.1269 1.1617e-01    -0.0376      0.090      0.130    29.1446 0.0000e+00
      0.094      0.008     8.0993    105.488    117.792 127.563831    11.0700     0.5432     0.0852     0.2115 1.1605e-01    -0.0225      0.092      0.134    29.1438 0.0000e+00
      0.097      0.007     8.0996    105.337    117.798 127.570196    11.0700     0.5242     0.0852     0.2115 1.1582e-01    -0.0980      0.095      0.138    29.1430 0.0000e+00
      0.099      0.005     8.0993    105.158    117.809 127.580837    11.0700     0.5470     0.0852     0.2115 1.1592e-01    -0.0829      0.097      0.141    29.1422 0.0000e+00
      0.100      0.003     8.0971    105.019    117.820 127.590588    11.0700     0.5394     0.0852     0.2115 1.1623e-01    -0.0678      0.098      0.143    29.1416 0.0000e+00
      0.101      0.001     8.0907    104.961    117.822 127.590044    11.0700     0.4631     0.0426     0.0846 1.1595e-01    -0.1585      0.099      0.143    29.1412 0.0000e+00
      0.100     -0.001     8.0792    104.977    117.822 127.587062    11.0700     0.4860     0.0426     0.0846 1.1612e-01    -0.0678      0.099      0.143    29.1409 0.0000e+00
      0.100     -0.003     8.0655    105.037    117.831 127.592855    11.0700     0.4593     0.0426     0.0846 1.1620e-01    -0.0980      0.098      0.142    29.1404 0.0000e+00
      0.098     -0.004     8.0550    105.101    117.842 127.600961    11.0700     0.4708     0.0426     0.0846 1.2000e-01    -0.0678      0.096      0.140    29.1396 0.0000e+00
      0.097     -0.004     8.0507    105.144    117.833 127.589530    11.0700     0.4860     0.0426     0.1269 1.1612e-01    -0.0980      0.095      0.138    29.1384 0.0000e+00
      0.096     -0.004     8.0521    105.176    117.806 127.559516    11.0700     0.4517     0.0426     0.1269 1.1628e-01    -0.0376      0.094      0.136    29.1369 0.0000e+00
      0.095     -0.003     8.0570    105.215    117.801 127.554942    11.0700     0.4936     0.0426     0.1269 1.1615e-01    -0.0074      0.093      0.135    29.1353 0.0000e+00
      0.094     -0.003     8.0621    105.269    117.815 127.570584    11.0700     0.4669     0.0426     0.1269 1.1615e-01    -0.1131      0.093      0.134    29.1339 0.0000e+00
      0.094     -0.003     8.0655    105.330    117.810 127.566594    11.0700     0.5432     0.0426     0.1269 1.1600e-01    -0.0527      0.092      0.133    29.1331 0.0000e+00
      0.093     -0.003     8.0679    105.389    117.802 127.557914    11.1600     0.5280     0.0426     0.0846 1.1590e-01    -0.1283      0.092      0.133    29.1328 0.0000e+00
      0.092     -0.004     8.0709    105.447    117.806 127.562241    11.1600     0.5203     0.0426     0.0846 1.1602e-01    -0.1434      0.091      0.132    29.1330 0.0000e+00
      0.091     -0.004     8.0750    105.510    117.809 127.564720    11.1600     0.5242     0.0426     0.0846 1.1615e-01    -0.0980      0.090      0.130    29.1334 0.0000e+00
      0.090     -0.005     8.0797    105.575    117.800 127.554007    11.1600     0.4822     0.0426     0.0846 1.1615e-01    -0.0829      0.089      0.129    29.1338 0.0000e+00
      0.089     -0.006     8.0842    105.639    117.798 127.551256    11.1600     0.5013     0.0426     0.1692 1.1605e-01     0.0228      0.088      0.127    29.1339 0.0000e+00
      0.087     -0.006     8.0886    105.687    117.815 127.567740    11.1600     0.4784     0.0426     0.1692 1.1597e-01    -0.0678      0.086      0.124    29.1338 0.0000e+00
      0.085     -0.005     8.0935    105.701    117.832 127.583842    11.1600     0.4822     0.0426     0.1692 1.1628e-01    -0.0376      0.084      0.121    29.1336 0.0000e+00
      0.083     -0.003     8.0986    105.678    117.842 127.591851    11.1600     0.4784     0.0426     0.1692 1.1625e-01    -0.1434      0.082      0.118    29.1332 0.0000e+00
      0.082      0.000     8.1035    105.645    117.841 127.589899    11.2500     0.4746     0.0426     0.2115 1.1620e-01    -0.0678      0.081      0.116    29.1326 0.0000e+00
      0.082      0.005     8.1073    105.627    117.834 127.581469    11.2500     0.4860     0.0426     0.2115 1.1605e-01    -0.1131      0.081      0.117    29.1318 0.0000e+00
      0.084      0.010     8.1085    105.631    117.834 127.580320    11.2500     0.5051     0.0426     0.2115 1.2131e-01    -0.0678      0.082      0.119    29.1309 0.0000e+00
      0.087      0.016     8.1069    105.646    117.844 127.586146    11.2500     0.4402     0.0426     0.2115 1.1610e-01    -0.0376      0.086      0.124    29.1301 0.0000e+00
      0.092      0.021     8.1044    105.660    117.847 127.580492    11.2500     0.4746     0.0426     0.2115 1.1610e-01    -0.0829      0.090      0.131    29.1296 0.0000e+00
      0.098      0.024     8.1031    105.676    117.841 127.561847    11.4300     0.4936     0.0426     0.2538 1.1615e-01    -0.0074      0.097      0.140    29.1293 0.0000e+00
      0.106      0.027     8.1035    105.696    117.839 127.549252    11.4300     0.4555     0.0426     0.2538 1.1607e-01    -0.1585      0.104      0.151    29.1286 0.0000e+00
      0.115      0.028     8.1049    105.715    117.849 127.555354    11.4300     0.4555     0.0426     0.2538 1.1595e-01    -0.0980      0.113      0.163    29.1265 0.0000e+00
      0.123      0.028     8.1066    105.722    117.862 127.569775    11.4300     0.4593     0.0426     0.2538 1.1595e-01    -0.1585      0.120      0.174    29.1227 0.0000e+00
      0.130      0.026     8.1085    105.705    117.873 127.584353    11.4300     0.4669     0.0426     0.1692 1.1610e-01    -0.1585      0.127      0.184    29.1174 0.0000e+00
      0.136      0.025     8.1107    105.673    117.889 127.606980    11.4300     0.4593     0.0426     0.1692 1.1610e-01    -0.0678      0.133      0.193    29.1130 0.0000e+00
      0.142      0.024     8.1124    105.648    117.899 127.623679    11.4300     0.4212     0.0426     0.1692 1.1617e-01    -0.0678      0.139      0.201    29.1111 0.0000e+00
      0.147      0.023     8.1128    105.639    117.895 127.626897    11.4300     0.4173     0.0426     0.1692 1.1617e-01    -0.0678      0.144      0.209    29.1114 0.0000e+00
      0.153      0.024     8.1114    105.643    117.900 127.637504    11.3400     0.4059     0.0426     0.2115 1.1615e-01    -0.0678      0.149      0.217    29.1126 0.0000e+00
      0.158      0.026     8.1087    105.647    117.909 127.650323    11.3400     0.3830     0.0426     0.2115 1.1617e-01    -0.0527      0.155      0.225    29.1145 0.0000e+00
      0.164      0.029     8.1064    105.629    117.899 127.636759    11.3400     0.5165     0.0426     0.2115 1.1595e-01    -0.1283      0.161      0.234    29.1171 0.0000e+00
      0.171      0.033     8.1053    105.576    117.877 127.605199    11.3400     0.5432     0.0426     0.2115 1.1600e-01    -0.0678      0.168      0.243    29.1202 0.0000e+00
      0.180      0.039     8.1052    105.516    117.868 127.583246    11.3400     0.5203     0.0426     0.0846 1.1605e-01    -0.0678      0.176      0.255    29.1227 0.0000e+00
      0.190      0.046     8.1054    105.483    117.862 127.561043    11.3400     0.5394     0.0426     0.0846 1.1602e-01    -0.0376      0.186      0.270    29.1237 0.0000e+00
      0.202      0.053     8.1041    105.483    117.838 127.516660    11.3400     0.4555     0.0426     0.0846 1.1610e-01    -0.1283      0.198      0.287    29.1226 0.0000e+00
      0.217      0.060     8.1006    105.503    117.815 127.468276    11.3400     0.4593     0.0426     0.0846 1.1610e-01    -0.1434      0.212      0.308    29.1192 0.0000e+00
      0.234      0.066     8.0967    105.533    117.809 127.437003    11.3400     0.4631     0.0426     0.0846 1.1595e-01    -0.0527      0.228      0.332    29.1140 0.0000e+00
      0.252      0.071     8.0951    105.589    117.807 127.412500    11.2500     0.4898     0.0426     0.1692 1.1612e-01    -0.0829      0.247      0.358    29.1075 0.0000e+00
      0.272      0.074     8.0963    105.674    117.804 127.390232    11.2500     0.4784     0.0426     0.1692 1.1612e-01    -0.1283      0.266      0.386    29.0995 0.0000e+00
      0.292      0.076     8.0991    105.773    117.801 127.372263    11.2500     0.4517     0.0426     0.1692 1.1617e-01    -0.0829      0.286      0.415    29.0898 0.0000e+00
      0.312      0.075     8.1029    105.868    117.794 127.353803    11.2500     0.4784     0.0426     0.1692 1.1617e-01    -0.1283      0.305      0.443    29.0794 0.0000e+00
      0.332      0.073     8.1086    105.951    117.785 127.335930    11.0700     0.4784     0.0426     0.2538 1.1597e-01    -0.0678      0.325      0.471    29.0697 0.0000e+00
      0.350      0.070     8.1163    106.014    117.788 127.333887    11.0700     0.4708     0.0426     0.2538 1.1600e-01    -0.0829      0.343      0.498    29.0617 0.0000e+00
      0.368      0.066     8.1247    106.058    117.812 127.355135    11.0700     0.4708     0.0426     0.2538 1.1600e-01    -0.0980      0.361      0.523    29.0556 0.0000e+00
      0.385      0.061     8.1326    106.090    117.839 127.381326    11.0700     0.4631     0.0426     0.2538 1.1600e-01    -0.1283      0.377      0.547    29.0510 0.0000e+00
      0.400      0.056     8.1395    106.103    117.852 127.393432    10.9800     0.4593     0.0426     0.1269 1.1617e-01    -0.1736      0.392      0.569    29.0476 0.0000e+00
      0.414      0.051     8.1448    106.095    117.863 127.404687    10.9800     0.4517     0.0426     0.1269 1.1617e-01    -0.0678      0.405      0.588    29.0450 0.0000e+00
      0.426      0.047     8.1485    106.068    117.886 127.428096    10.9800     0.5165     0.0426     0.1269 1.1620e-01    -0.0829      0.417      0.605    29.0432 0.0000e+00
      0.436      0.045     8.1510    106.024    117.891 127.431883    10.9800     0.4936     0.0426     0.1269 1.1605e-01    -0.1283      0.427      0.620    29.0420 0.0000e+00
      0.446      0.043     8.1521    105.964    117.864 127.399049    10.9800     0.4593     0.0426     0.1269 1.1597e-01    -0.1585      0.437      0.634    29.0413 0.0000e+00
      0.456      0.043     8.1515    105.899    117.833 127.362859    10.8900     0.4898     0.0426     0.1269 1.1605e-01    -0.1736      0.447      0.649    29.0409 0.0000e+00
      0.467      0.044     8.1495    105.836    117.824 127.351680    10.8900     0.4669     0.0426     0.1269 1.1612e-01    -0.1283      0.458      0.664    29.0403 0.0000e+00
      0.479      0.045     8.1463    105.768    117.823 127.348526    10.8900     0.4555     0.0426     0.1269 1.1595e-01     0.0228      0.470      0.681    29.0393 0.0000e+00
      0.491      0.046     8.1418    105.701    117.814 127.336546    10.8900     0.4669     0.0426     0.1269 1.1610e-01    -0.0678      0.482      0.698    29.0381 0.0000e+00
      0.503      0.046     8.1370    105.636    117.807 127.326552    10.8900     0.4669     0.0426     0.0846 1.1617e-01    -0.0074      0.493      0.715    29.0369 0.0000e+00
      0.515      0.047     8.1323    105.573    117.807 127.323885    10.8900     0.5394     0.0426     0.0846 1.1607e-01    -0.0980      0.505      0.732    29.0360 0.0000e+00
      0.527      0.047     8.1272    105.533    117.814 127.327831    10.8900     0.5432     0.0426     0.0846 1.1623e-01    -0.1283      0.517      0.749    29.0351 0.0000e+00
      0.539      0.048     8.1222    105.525    117.818 127.329439    10.8900     0.5089     0.0426     0.0846 1.1617e-01    -0.1585      0.528      0.766    29.0342 0.0000e+00
      0.551      0.050     8.1173    105.543    117.811 127.319132    10.8000     0.5165     0.0426     0.2115 1.1610e-01    -0.1283      0.540      0.783    29.0332 0.0000e+00
      0.564      0.052     8.1127    105.576    117.800 127.304166    10.8000     0.5432     0.0426     0.2115 1.1610e-01    -0.0527      0.553      0.801    29.0320 0.0000e+00
      0.577      0.055     8.1098    105.613    117.792 127.290555    10.8000     0.5432     0.0426     0.2115 1.1605e-01    -0.0074      0.565      0.820    29.0309 0.0000e+00
      0.591      0.060     8.1094    105.645    117.784 127.274670    10.8000     0.5165     0.0426     0.2115 1.1595e-01    -0.0678      0.579      0.840    29.0297 0.0000e+00
      0.606      0.065     8.1109    105.670    117.772 127.252275    10.8900     0.5165     0.0852     0.1692 1.1612e-01    -0.0074      0.594      0.862    29.0284 0.0000e+00
      0.623      0.070     8.1137    105.677    117.757 127.221399    10.8900     0.4593     0.0852     0.1692 1.1582e-01    -0.0376      0.611      0.886    29.0269 0.0000e+00
      0.642      0.075     8.1168    105.642    117.747 127.191816    10.8900     0.4631     0.0852     0.1692 1.1615e-01    -0.0225      0.629      0.913    29.0249 0.0000e+00
      0.663      0.079     8.1196    105.573    117.745 127.169642    10.8900     0.4593     0.0852     0.1692 1.1610e-01    -0.1283      0.650      0.943    29.0221 0.0000e+00
      0.685      0.081     8.1221    105.502    117.749 127.156968    10.8900     0.4822     0.0852     0.1692 1.1602e-01    -0.0074      0.671      0.974    29.0180 0.0000e+00
      0.707      0.081     8.1235    105.461    117.761 127.158415    10.8000     0.4440     0.0426     0.2115 1.1600e-01    -0.0225      0.693      1.006    29.0120 0.0000e+00
      0.729      0.080     8.1219    105.460    117.774 127.166365    10.8000     0.4669     0.0426     0.2115 1.1617e-01    -0.1131      0.715      1.036    29.0041 0.0000e+00
      0.749      0.078     8.1179    105.488    117.780 127.166932    10.8000     0.4669     0.0426     0.2115 1.1612e-01    -0.0829      0.734      1.065    28.9954 0.0000e+00
      0.768      0.077     8.1134    105.528    117.781 127.160266    10.8000     0.4784     0.0426     0.2115 1.1590e-01     0.0077      0.753      1.092    28.9881 0.0000e+00
      0.786      0.076     8.1109    105.575    117.788 127.156596    10.8000     0.5318     0.0426     0.1692 1.1607e-01    -0.1736      0.771      1.118    28.9834 0.0000e+00
      0.804      0.076     8.1112    105.630    117.782 127.136933    10.8000     0.5470     0.0426     0.1692 1.1605e-01    -0.1131      0.789      1.144    28.9807 0.0000e+00
      0.824      0.077     8.1137    105.680    117.755 127.094031    10.8000     0.5089     0.0426     0.1692 1.1602e-01    -0.0678      0.808      1.172    28.9784 0.0000e+00
      0.844      0.079     8.1173    105.714    117.723 127.046464    10.8000     0.5280     0.0426     0.1692 1.1605e-01    -0.1736      0.828      1.201    28.9748 0.0000e+00
      0.865      0.081     8.1217    105.721    117.681 126.987549    10.8000     0.5127     0.0426     0.2115 1.1610e-01    -0.0980      0.848      1.230    28.9699 0.0000e+00
      0.886      0.083     8.1267    105.711    117.635 126.921587    10.8000     0.5547     0.0426     0.2115 1.1617e-01    -0.0980      0.869      1.260    28.9643 0.0000e+00
      0.907      0.086     8.1314    105.700    117.607 126.871004    10.8000     0.5394     0.0426     0.2115 1.1612e-01    -0.0527      0.889      1.289    28.9586 0.0000e+00
      0.928      0.089     8.1347    105.693    117.609 126.848324    10.8000     0.5280     0.0426     0.2115 1.1610e-01    -0.1283      0.910      1.320    28.9530 0.0000e+00
      0.951      0.091     8.1362    105.680    117.648 126.863505    10.8000     0.4784     0.0426     0.2115 1.1605e-01    -0.1131      0.932      1.352    28.9471 0.0000e+00
      0.975      0.093     8.1363    105.665    117.700 126.896580    10.8000     0.4669     0.0426     0.0846 1.1615e-01    -0.1283      0.956      1.387    28.9402 0.0000e+00
      1.001      0.094     8.1367    105.688    117.724 126.904344    10.8000     0.4746     0.0426     0.0846 1.1605e-01    -0.0376      0.981      1.423    28.9314 0.0000e+00
      1.026      0.094     8.1377    105.775    117.716 126.882863    10.8000     0.4708     0.0426     0.0846 1.1605e-01    -0.0376      1.006      1.460    28.9208 0.0000e+00
      1.051      0.093     8.1383    105.895    117.689 126.846419    10.8000     0.5509     0.0426     0.0846 1.1600e-01    -0.0980      1.030      1.494    28.9097 0.0000e+00
      1.074      0.091     8.1385    105.996    117.653 126.803300    10.8900     0.5280     0.0426     0.1692 1.1623e-01    -0.0980      1.053      1.527    28.8999 0.0000e+00
      1.096      0.090     8.1414    106.051    117.638 126.782029    10.8900     0.5585     0.0426     0.1692 1.1600e-01    -0.0527      1.074      1.558    28.8922 0.0000e+00
      1.117      0.090     8.1488    106.068    117.660 126.796943    10.8900     0.5242     0.0426     0.1692 1.1607e-01    -0.0225      1.095      1.589    28.8869 0.0000e+00
      1.139      0.092     8.1585    106.053    117.697 126.824004    10.8900     0.5356     0.0426     0.1692 1.1602e-01    -0.0678      1.117      1.620    28.8837 0.0000e+00
      1.163      0.095     8.1666    106.008    117.717 126.828410    10.8900     0.5280     0.0426     0.0846 1.1612e-01    -0.0829      1.141      1.654    28.8816 0.0000e+00
      1.188      0.098     8.1712    105.928    117.709 126.799328    10.8900     0.5585     0.0426     0.0846 1.1605e-01    -0.0376      1.165      1.689    28.8794 0.0000e+00
      1.214      0.102     8.1729    105.810    117.695 126.763016    10.8900     0.4975     0.0426     0.0846 1.1605e-01    -0.0376      1.191      1.726    28.8760 0.0000e+00
      1.241      0.106     8.1726    105.667    117.698 126.745809    10.8900     0.4517     0.0426     0.0846 1.1597e-01    -0.0980      1.217      1.764    28.8705 0.0000e+00
      1.268      0.109     8.1702    105.533    117.716 126.747118    10.8900     0.5013     0.0426     0.2115 1.1605e-01    -0.0376      1.244      1.803    28.8631 0.0000e+00
      1.296      0.111     8.1653    105.437    117.731 126.747281    10.8900     0.4860     0.0426     0.2115 1.1623e-01    -0.0980      1.271      1.843    28.8544 0.0000e+00
      1.325      0.113     8.1575    105.376    117.732 126.734336    10.8900     0.4593     0.0426     0.2115 1.1602e-01    -0.1283      1.300      1.885    28.8454 0.0000e+00
      1.355      0.112     8.1476    105.327    117.730 126.720836    10.8900     0.5203     0.0426     0.2115 1.1623e-01    -0.0376      1.329      1.928    28.8370 0.0000e+00
      1.385      0.110     8.1383    105.278    117.750 126.733197    10.8900     0.5356     0.0426     0.2115 1.1610e-01    -0.0225      1.359      1.970    28.8294 0.0000e+00
      1.414      0.107     8.1319    105.242    117.786 126.764708    10.9800     0.5127     0.0426     0.1269 1.1605e-01    -0.0678      1.387      2.011    28.8225 0.0000e+00
      1.441      0.103     8.1281    105.240    117.804 126.779751    10.9800     0.5089     0.0426     0.1269 1.1595e-01     0.0681      1.414      2.050    28.8166 0.0000e+00
      1.467      0.099     8.1251    105.267    117.797 126.768331    10.9800     0.5280     0.0426     0.1269 1.1612e-01    -0.1283      1.439      2.086    28.8116 0.0000e+00
      1.490      0.096     8.1218    105.299    117.767 126.733407    10.9800     0.5165     0.0426     0.1269 1.1617e-01    -0.0225      1.462      2.120    28.8076 0.0000e+00
      1.513      0.095     8.1195    105.327    117.738 126.697680    10.8900     0.5203     0.0426     0.2538 1.1602e-01     0.0379      1.484      2.152    28.8046 0.0000e+00
      1.536      0.096     8.1196    105.363    117.733 126.685638    10.8900     0.5280     0.0426     0.2538 1.1612e-01    -0.0527      1.506      2.185    28.8026 0.0000e+00
      1.560      0.097     8.1219    105.415    117.739 126.682064    10.8900     0.5356     0.0426     0.2538 1.1602e-01    -0.0980      1.530      2.219    28.8012 0.0000e+00
      1.585      0.098     8.1245    105.463    117.734 126.665996    10.8900     0.5394     0.0426     0.2538 1.1615e-01    -0.1585      1.555      2.256    28.7999 0.0000e+00
      1.612      0.099     8.1269    105.478    117.726 126.645154    10.9800     0.5242     0.0426     0.0846 1.1600e-01    -0.0527      1.581      2.294    28.7982 0.0000e+00
      1.638      0.099     8.1301    105.463    117.722 126.627984    10.9800     0.5318     0.0426     0.0846 1.1595e-01    -0.1283      1.607      2.331    28.7953 0.0000e+00
      1.664      0.098     8.1347    105.447    117.708 126.599904    10.9800     0.5280     0.0426     0.0846 1.1602e-01    -0.0980      1.632      2.367    28.7912 0.0000e+00
      1.688      0.096     8.1392    105.455    117.690 126.563430    10.9800     0.5432     0.0426     0.0846 1.1605e-01     0.0681      1.656      2.402    28.7863 0.0000e+00
      1.712      0.094     8.1411    105.485    117.684 126.538848    10.9800     0.5280     0.0426     0.0846 1.1602e-01    -0.0376      1.679      2.435    28.7812 0.0000e+00
      1.735      0.093     8.1406    105.516    117.683 126.519601    10.9800     0.5280     0.0426     0.0846 1.1600e-01    -0.0678      1.702      2.469    28.7760 0.0000e+00
      1.759      0.091     8.1402    105.527    117.670 126.488550    10.9800     0.5280     0.0426     0.0846 1.1610e-01    -0.0980      1.725      2.502    28.7701 0.0000e+00
      1.782      0.089     8.1418    105.510    117.661 126.465427    10.9800     0.5280     0.0426     0.0846 1.1612e-01    -0.0527      1.748      2.536    28.7630 0.0000e+00
      1.806      0.087     8.1453    105.478    117.682 126.476080    10.9800     0.5318     0.0426     0.0846 1.1595e-01    -0.1585      1.771      2.568    28.7550 0.0000e+00
      1.828      0.084     8.1488    105.459    117.708 126.495335    10.8900     0.5318     0.0426     0.1269 1.1617e-01    -0.0980      1.793      2.600    28.7473 0.0000e+00
      1.849      0.080     8.1506    105.459    117.711 126.492311    10.8900     0.5509     0.0426     0.1269 1.1595e-01    -0.0678      1.813      2.630    28.7403 0.0000e+00
      1.869      0.077     8.1502    105.468    117.706 126.482209    10.8900     0.5356     0.0426     0.1269 1.1615e-01    -0.0678      1.833      2.658    28.7342 0.0000e+00
      1.887      0.075     8.1484    105.499    117.710 126.482343    10.8900     0.5432     0.0426     0.1269 1.1612e-01    -0.1131      1.851      2.684    28.7292 0.0000e+00
      1.905      0.074     8.1475    105.582    117.716 126.484747    10.8900     0.5051     0.0426     0.1269 1.1605e-01    -0.0829      1.868      2.710    28.7257 0.0000e+00
      1.923      0.075     8.1478    105.719    117.715 126.478054    10.8900     0.5776     0.0426     0.1269 1.1610e-01    -0.1283      1.886      2.735    28.7232 0.0000e+00
      1.942      0.077     8.1488    105.874    117.700 126.456479    10.8900     0.5585     0.0426     0.1269 1.1612e-01    -0.0980      1.904      2.762    28.7212 0.0000e+00
      1.961      0.079     8.1515    106.002    117.669 126.418269    10.8900     0.5699     0.0426     0.1269 1.1597e-01    -0.1434      1.923      2.789    28.7193 0.0000e+00
      1.982      0.081     8.1581    106.074    117.638 126.381247    10.8900     0.5585     0.0426     0.1269 1.1605e-01    -0.1585      1.944      2.819    28.7175 0.0000e+00
      2.004      0.082     8.1690    106.083    117.625 126.363554    10.8900     0.5356     0.0426     0.1269 1.1612e-01    -0.1131      1.965      2.850    28.7153 0.0000e+00
      2.026      0.083     8.1813    106.048    117.630 126.364471    10.8900     0.5623     0.0426     0.1269 1.1610e-01    -0.2038      1.987      2.881    28.7130 0.0000e+00
      2.047      0.082     8.1915    105.994    117.654 126.384245    10.8900     0.5242     0.0426     0.1269 1.1610e-01    -0.0678      2.008      2.912    28.7111 0.0000e+00
      2.068      0.080     8.1974    105.919    117.681 126.408139    10.8900     0.5318     0.0426     0.1269 1.1605e-01    -0.0980      2.028      2.942    28.7093 0.0000e+00
      2.088      0.078     8.1983    105.827    117.704 126.426516    10.8900     0.5280     0.0426     0.2115 1.1612e-01    -0.0074      2.048      2.970    28.7076 0.0000e+00
      2.108      0.076     8.1959    105.744    117.728 126.448279    10.8900     0.5280     0.0426     0.2115 1.1605e-01    -0.1736      2.067      2.998    28.7056 0.0000e+00
      2.127      0.073     8.1920    105.677    117.741 126.459221    10.8900     0.5509     0.0426     0.2115 1.1628e-01    -0.0829      2.086      3.025    28.7034 0.0000e+00
      2.145      0.070     8.1865    105.619    117.734 126.450256    10.8900     0.5432     0.0426     0.2115 1.1605e-01    -0.1434      2.104      3.051    28.7009 0.0000e+00
      2.163      0.066     8.1798    105.578    117.717 126.430997    10.8900     0.5165     0.0426     0.1692 1.1612e-01     0.0228      2.121      3.077    28.6985 0.0000e+00
      2.180      0.063     8.1736    105.561    117.695 126.408314    10.8900     0.5165     0.0426     0.1692 1.1612e-01    -0.1434      2.138      3.101    28.6965 0.0000e+00
      2.195      0.060     8.1686    105.556    117.689 126.404170    10.8900     0.5203     0.0426     0.1692 1.1612e-01    -0.0980      2.153      3.123    28.6952 0.0000e+00
      2.209      0.058     8.1643    105.555    117.706 126.425466    10.8900     0.5432     0.0426     0.1692 1.1600e-01    -0.1131      2.167      3.143    28.6945 0.0000e+00
      2.223      0.056     8.1611    105.564    117.713 126.433860    10.8900     0.5165     0.0426     0.2538 1.1612e-01    -0.0678      2.180      3.162    28.6944 0.0000e+00
      2.236      0.056     8.1597    105.587    117.688 126.407579    10.8900     0.5242     0.0426     0.2538 1.1612e-01    -0.0829      2.193      3.181    28.6948 0.0000e+00
      2.250      0.057     8.1592    105.620    117.664 126.379634    10.8900     0.5432     0.0426     0.2538 1.1625e-01    -0.0376      2.207      3.200    28.6957 0.0000e+00
      2.265      0.059     8.1590    105.643    117.666 126.378589    10.8900     0.5280     0.0426     0.2538 1.1612e-01    -0.0376      2.221      3.221    28.6967 0.0000e+00
      2.280      0.062     8.1596    105.628    117.682 126.392159    10.8900     0.5699     0.0426     0.2538 1.1607e-01    -0.0376      2.236      3.244    28.6975 0.0000e+00
      2.297      0.064     8.1614    105.578    117.678 126.383946    10.8900     0.5776     0.0852     0.1692 1.1615e-01    -0.1585      2.252      3.267    28.6974 0.0000e+00
      2.313      0.067     8.1641    105.521    117.645 126.343754    10.8900     0.5585     0.0852     0.1692 1.1610e-01    -0.0980      2.269      3.290    28.6966 0.0000e+00
      2.331      0.070     8.1660    105.489    117.611 126.300883    10.8900     0.5623     0.0852     0.1692 1.1600e-01    -0.0980      2.286      3.315    28.6953 0.0000e+00
      2.348      0.074     8.1651    105.502    117.591 126.271914    10.8900     0.5127     0.0852     0.1692 1.1595e-01     0.0077      2.303      3.340    28.6938 0.0000e+00
      2.367      0.078     8.1615    105.561    117.582 126.253123    10.8900     0.5432     0.0852     0.2115 1.1612e-01    -0.0074      2.321      3.367    28.6920 0.0000e+00
      2.387      0.083     8.1574    105.645    117.584 126.243500    10.8900     0.5089     0.0852     0.2115 1.1610e-01    -0.0678      2.341      3.395    28.6899 0.0000e+00
      2.409      0.087     8.1552    105.734    117.600 126.248481    10.8900     0.5470     0.0852     0.2115 1.1612e-01    -0.0829      2.362      3.427    28.6875 0.0000e+00
      2.433      0.090     8.1567    105.800    117.618 126.257390    10.8900     0.5394     0.0852     0.2115 1.1612e-01    -0.0527      2.386      3.460    28.6845 0.0000e+00
      2.457      0.091     8.1618    105.825    117.622 126.252592    10.8900     0.5127     0.0000     0.1269 1.1602e-01    -0.0829      2.410      3.495    28.6804 0.0000e+00
      2.482      0.091     8.1691    105.810    117.618 126.240811    10.8900     0.5356     0.0000     0.1269 1.1612e-01    -0.0980      2.434      3.530    28.6754 0.0000e+00
      2.505      0.089     8.1767    105.763    117.617 126.234912    10.8900     0.5165     0.0000     0.1269 1.1605e-01    -0.0074      2.456      3.563    28.6702 0.0000e+00
      2.527      0.088     8.1824    105.690    117.621 126.233322    10.8900     0.5127     0.0000     0.1269 1.1597e-01    -0.0829      2.478      3.595    28.6656 0.0000e+00
      2.548      0.088     8.1849    105.602    117.630 126.237618    10.8900     0.5165     0.0426     0.0000 1.1612e-01     0.0681      2.499      3.625    28.6618 0.0000e+00
      2.570      0.088     8.1842    105.499    117.641 126.242941    10.8900     0.5242     0.0426     0.0000 1.1587e-01    -0.0980      2.520      3.655    28.6589 0.0000e+00
      2.592      0.089     8.1809    105.388    117.643 126.238706    10.8900     0.5203     0.0426     0.0000 1.1623e-01    -0.1283      2.541      3.686    28.6565 0.0000e+00
      2.615      0.091     8.1756    105.300    117.647 126.235789    10.8900     0.5356     0.0426     0.0000 1.1612e-01    -0.1283      2.564      3.719    28.6542 0.0000e+00
      2.639      0.093     8.1690    105.261    117.655 126.235412    10.8900     0.5432     0.0426     0.0000 1.1623e-01    -0.0678      2.588      3.754    28.6518 0.0000e+00
      2.664      0.094     8.1615    105.263    117.653 126.223468    10.8900     0.5356     0.0426     0.2115 1.1617e-01    -0.1283      2.612      3.789    28.6493 0.0000e+00
      2.688      0.096     8.1533    105.272    117.643 126.200773    10.8900     0.5089     0.0426     0.2115 1.1610e-01    -0.0074      2.636      3.824    28.6465 0.0000e+00
      2.712      0.096     8.1469    105.263    117.632 126.173280    10.8900     0.5318     0.0426     0.2115 1.1600e-01    -0.0678      2.660      3.858    28.6432 0.0000e+00
      2.737      0.096     8.1445    105.230    117.625 126.147662    10.8900     0.5165     0.0426     0.2115 1.1612e-01    -0.0376      2.684      3.893    28.6396 0.0000e+00
      2.761      0.096     8.1452    105.185    117.639 126.145101    10.8900     0.5356     0.0426     0.1269 1.1597e-01    -0.0980      2.708      3.928    28.6355 0.0000e+00
      2.786      0.095     8.1467    105.141    117.664 126.156906    10.8900     0.5509     0.0426     0.1269 1.1610e-01    -0.1283      2.732      3.963    28.6302 0.0000e+00
      2.811      0.093     8.1469    105.104    117.666 126.146209    10.8900     0.5585     0.0426     0.1269 1.1592e-01    -0.0980      2.757      3.998    28.6236 0.0000e+00
      2.835      0.091     8.1454    105.075    117.639 126.108155    10.8900     0.5509     0.0426     0.1269 1.1620e-01    -0.1585      2.780      4.032    28.6161 0.0000e+00
      2.857      0.089     8.1430    105.055    117.613 126.070612    10.8900     0.5623     0.0426     0.2538 1.1605e-01     0.0228      2.802      4.064    28.6087 0.0000e+00
      2.879      0.088     8.1406    105.050    117.603 126.049582    10.8900     0.5814     0.0426     0.2538 1.1595e-01    -0.0678      2.823      4.094    28.6022 0.0000e+00
      2.899      0.087     8.1384    105.069    117.587 126.019445    10.8900     0.5661     0.0426     0.2538 1.1600e-01    -0.1283      2.844      4.124    28.5969 0.0000e+00
      2.921      0.088     8.1368    105.110    117.550 125.966163    10.8900     0.5242     0.0426     0.2538 1.1600e-01    -0.1585      2.865      4.155    28.5927 0.0000e+00
      2.945      0.088     8.1358    105.159    117.516 125.917544    10.8900     0.5356     0.0426     0.2538 1.1610e-01    -0.0829      2.888      4.188    28.5887 0.0000e+00
      2.968      0.088     8.1361    105.198    117.508 125.900639    10.8900     0.5165     0.0000     0.0846 1.1612e-01    -0.0980      2.911      4.222    28.5842 0.0000e+00
      2.992      0.086     8.1383    105.206    117.520 125.906939    10.8900     0.5089     0.0000     0.0846 1.1617e-01    -0.0980      2.934      4.255    28.5787 0.0000e+00
      3.014      0.084     8.1423    105.176    117.534 125.918114    10.8900     0.5470     0.0000     0.0846 1.1628e-01     0.2343      2.956      4.287    28.5729 0.0000e+00
      3.035      0.082     8.1469    105.109    117.549 125.929140    10.8900     0.5852     0.0000     0.0846 1.1600e-01     0.2192      2.976      4.316    28.5678 0.0000e+00
      3.054      0.081     8.1504    105.011    117.549 125.922951    10.9800     0.5738     0.0426     0.1692 1.1602e-01     0.0228      2.995      4.344    28.5641 0.0000e+00
      3.073      0.080     8.1514    104.876    117.528 125.889891    10.9800     0.5661     0.0426     0.1692 1.1605e-01     0.2192      3.014      4.371    28.5615 0.0000e+00
      3.093      0.081     8.1493    104.705    117.500 125.845155    10.9800     0.5966     0.0426     0.1692 1.1612e-01     0.1437      3.033      4.399    28.5596 0.0000e+00
      3.114      0.082     8.1444    104.534    117.474 125.800822    10.9800     0.5509     0.0426     0.1692 1.1610e-01     0.2041      3.053      4.428    28.5578 0.0000e+00
      3.136      0.082     8.1372    104.408    117.460 125.769079    10.9800     0.5661     0.0852     0.1692 1.1610e-01     0.1890      3.075      4.460    28.5550 0.0000e+00
      3.158      0.082     8.1274    104.348    117.463 125.757466    10.9800     0.5738     0.0852     0.1692 1.1605e-01     0.1286      3.097      4.491    28.5505 0.0000e+00
      3.180      0.081     8.1150    104.339    117.472 125.754883    10.9800     0.6272     0.0852     0.1692 1.1617e-01     0.3854      3.118      4.522    28.5445 0.0000e+00
      3.200      0.078     8.1028    104.357    117.477 125.752638    10.9800     0.6462     0.0852     0.1692 1.1607e-01     0.3552      3.138      4.552    28.5373 0.0000e+00
      3.220      0.074     8.0940    104.390    117.479 125.750130    10.9800     0.6348     0.0426     0.0846 1.1623e-01     0.4609      3.157      4.579    28.5301 0.0000e+00
      3.238      0.071     8.0903    104.434    117.488 125.758696    10.9800     0.6272     0.0426     0.0846 1.1590e-01     0.4156      3.175      4.605    28.5237 0.0000e+00
      3.255      0.068     8.0902    104.476    117.515 125.788623    10.9800     0.6157     0.0426     0.0846 1.1612e-01     0.3552      3.192      4.630    28.5188 0.0000e+00
      3.271      0.066     8.0921    104.499    117.546 125.823882    10.9800     0.6348     0.0426     0.0846 1.1612e-01     0.3854      3.208      4.653    28.5154 0.0000e+00
      3.287      0.066     8.0950    104.500    117.551 125.827858    10.9800     0.6539     0.0426     0.0846 1.1620e-01     0.4911      3.223      4.675    28.5134 0.0000e+00
      3.303      0.067     8.0984    104.486    117.503 125.771596    11.1600     0.6577     0.0426     0.2538 1.1615e-01     0.3552      3.239      4.698    28.5129 0.0000e+00
      3.319      0.070     8.1016    104.466    117.416 125.670106    11.1600     0.6386     0.0426     0.2538 1.1612e-01     0.6422      3.255      4.721    28.5135 0.0000e+00
      3.338      0.073     8.1034    104.438    117.337 125.572356    11.1600     0.6615     0.0426     0.2538 1.1607e-01     0.7177      3.273      4.747    28.5140 0.0000e+00
      3.357      0.075     8.1035    104.406    117.290 125.508302    11.1600     0.6424     0.0426     0.2538 1.1607e-01     0.6422      3.292      4.775    28.5135 0.0000e+00
      3.377      0.077     8.1027    104.376    117.258 125.458861    11.2500     0.6386     0.0426     0.2115 1.1620e-01     0.7479      3.312      4.803    28.5116 0.0000e+00
      3.398      0.078     8.1017    104.363    117.211 125.394840    11.2500     0.6844     0.0426     0.2115 1.1605e-01     0.9745      3.332      4.833    28.5078 0.0000e+00
      3.418      0.078     8.1003    104.368    117.153 125.319176    11.2500     0.6996     0.0426     0.2115 1.1600e-01     0.8386      3.352      4.862    28.5026 0.0000e+00
      3.438      0.077     8.0986    104.375    117.101 125.251706    11.2500     0.6806     0.0426     0.2115 1.1605e-01     0.9594      3.372      4.890    28.4966 0.0000e+00
      3.458      0.076     8.0972    104.372    117.058 125.194447    11.5200     0.7073     0.0426     0.1692 1.1617e-01     0.8386      3.391      4.918    28.4903 0.0000e+00
      3.477      0.074     8.0971    104.349    117.021 125.144132    11.5200     0.7454     0.0426     0.1692 1.1605e-01     1.1407      3.410      4.945    28.4843 0.0000e+00
      3.495      0.073     8.0982    104.293    116.981 125.091346    11.5200     0.7569     0.0426     0.1692 1.1602e-01     1.2162      3.428      4.971    28.4787 0.0000e+00
      3.513      0.072     8.0996    104.183    116.896 124.990000    11.5200     0.7645     0.0426     0.1692 1.1612e-01     1.2011      3.446      4.997    28.4735 0.0000e+00
      3.531      0.071     8.1000    104.016    116.756 124.827072    11.5200     0.7416     0.0426     0.1692 1.1595e-01     1.2011      3.463      5.023    28.4685 0.0000e+00
      3.549      0.071     8.0989    103.813    116.577 124.621139    11.5200     0.7492     0.0426     0.0846 1.1602e-01     1.6543      3.481      5.048    28.4639 0.0000e+00
      3.567      0.070     8.0951    103.593    116.325 124.337292    11.5200     0.7492     0.0426     0.0846 1.1623e-01     1.7601      3.498      5.074    28.4596 0.0000e+00
      3.585      0.069     8.0872    103.360    115.937 123.909841    11.5200     0.7569     0.0426     0.0846 1.1605e-01     1.6845      3.516      5.100    28.4549 0.0000e+00
      3.603      0.068     8.0751    103.129    115.318 123.238805    11.5200     0.7187     0.0426     0.0846 1.1612e-01     1.5939      3.534      5.125    28.4493 0.0000e+00
      3.621      0.067     8.0602    102.930    114.280 122.123231    12.1500     0.8522     0.0426     0.3384 1.1600e-01     2.1226      3.551      5.150    28.4431 0.0000e+00
      3.638      0.066     8.0440    102.794    112.515 120.233620    12.1500     0.8370     0.0426     0.3384 1.1595e-01     2.1377      3.567      5.174    28.4369 0.0000e+00
      3.654      0.065     8.0267    102.734    109.561 117.074079    12.1500     0.8179     0.0426     0.3384 1.1602e-01     2.1075      3.583      5.198    28.4312 0.0000e+00
      3.670      0.064     8.0095    102.732    104.643 111.816069    12.1500     0.8293     0.0426     0.3384 1.1600e-01     2.1528      3.599      5.220    28.4267 0.0000e+00
      3.686      0.063     7.9945    102.753     96.453 103.061456    12.1500     0.8217     0.0426     0.2115 1.1612e-01     2.5758      3.615      5.243    28.4233 0.0000e+00
      3.702      0.063     7.9843    102.779     82.817  88.491682    12.1500     0.8103     0.0426     0.2115 1.1605e-01     2.4852      3.630      5.266    28.4207 0.0000e+00
      3.718      0.063     7.9800    102.808     60.090  64.217470    12.1500     0.8332     0.0426     0.2115 1.1595e-01     2.4549      3.646      5.289    28.4180 0.0000e+00
      3.734      0.062     7.9804    102.826     22.218  23.775700    12.1500     0.8217     0.0426     0.2115 1.1600e-01     2.5003      3.662      5.312    28.4142 0.0000e+00
      3.750      0.062     7.9828    102.808    -40.883 -43.596091    12.3300     0.8141     0.0426     0.2538 1.1600e-01     2.8779      3.678      5.334    28.4091 0.0000e+00
      3.766      0.061     7.9857    102.735   -146.037-155.859713    12.3300     0.8141     0.0426     0.2538 1.1605e-01     2.7118      3.693      5.357    28.4029 0.0000e+00
      3.781      0.061     7.9889    102.617   -321.272-342.932127    12.3300     0.8217     0.0426     0.2538 1.1615e-01     2.7722      3.708      5.379    28.3961 0.0000e+00
      3.797      0.061     7.9913    102.471   -430.770-459.846424    12.3300     0.8484     0.0426     0.2538 1.1605e-01     2.7571      3.723      5.400    28.3888 0.0000e+00
      3.812      0.060     7.9910    102.301   -321.212-342.946870    12.3300     0.8103     0.0426     0.2538 1.1602e-01     2.7873      3.738      5.422    28.3808 0.0000e+00
      3.827      0.060     7.9869    102.091   -145.948-155.913143    12.6900     0.8293     0.0852     0.2538 1.1605e-01     2.7873      3.753      5.444    28.3713 0.0000e+00
      3.843      0.060     7.9795    101.831    -40.802 -43.714468    12.6900     0.8446     0.0852     0.2538 1.1607e-01     2.7873      3.768      5.466    28.3594 0.0000e+00
      3.858      0.060     7.9704    101.543     22.285  23.596809    12.6900     0.8217     0.0852     0.2538 1.1610e-01     2.7722      3.784      5.488    28.3440 0.0000e+00
      3.873      0.060     7.9597    101.261     60.148  63.986368    12.6900     0.9323     0.0852     0.2538 1.1610e-01     2.7873      3.799      5.509    28.3257 0.0000e+00
      3.888      0.060     7.9456    100.999     82.851  88.188744    13.4100     0.9438     0.0426     0.2538 1.1605e-01     2.8628      3.813      5.530    28.3079 0.0000e+00
      3.903      0.061     7.9274    100.761     96.446 102.659905    13.4100     0.9171     0.0426     0.2538 1.1612e-01     2.7269      3.827      5.551    28.2932 0.0000e+00
      3.918      0.062     7.9065    100.542    104.591 111.300841    13.4100     0.9285     0.0426     0.2538 1.1620e-01     2.6815      3.843      5.573    28.2816 0.0000e+00
      3.934      0.063     7.8860    100.310    109.461 116.431805    13.4100     1.0887     0.0426     0.2538 1.1600e-01     4.2224      3.859      5.597    28.2708 0.0000e+00
      3.951      0.064     7.8673     99.991    112.359 119.451061    13.4100     1.0659     0.0852     0.3384 1.1612e-01     4.2526      3.875      5.621    28.2578 0.0000e+00
      3.968      0.064     7.8512     99.479    114.082 121.213757    13.4100     1.0697     0.0852     0.3384 1.1597e-01     4.1771      3.892      5.645    28.2406 0.0000e+00
      3.985      0.063     7.8372     98.694    115.125 122.247960    13.4100     1.0735     0.0852     0.3384 1.1612e-01     4.2073      3.908      5.668    28.2176 0.0000e+00
      4.001      0.061     7.8230     97.646    115.784 122.873468    13.4100     1.4321     0.0852     0.3384 1.1597e-01     8.7996      3.924      5.691    28.1891 0.0000e+00
      4.017      0.058     7.8025     96.439    116.210 123.261080    13.4100     1.4283     0.0852     0.3384 1.1600e-01     8.6184      3.939      5.713    28.1573 0.0000e+00
      4.032      0.053     7.7670     95.219    116.480 123.502152    13.3200     1.4359     0.0852     0.2961 1.1605e-01     8.7090      3.954      5.735    28.1243 0.0000e+00
      4.045      0.049     7.7103     94.140    116.648 123.654963    13.3200     1.4168     0.0852     0.2961 1.1612e-01     8.6637      3.967      5.754    28.0904 0.0000e+00
      4.057      0.044     7.6329     93.315    116.752 123.752262    13.3200     1.7258     0.0852     0.2961 1.1602e-01    13.0143      3.978      5.770    28.0571 0.0000e+00
      4.067      0.039     7.5424     92.801    116.799 123.795987    13.3200     1.7373     0.0852     0.2961 1.1602e-01    13.0899      3.988      5.785    28.0287 0.0000e+00
      4.076      0.034     7.4496     92.626    116.810 123.803801    13.5000     1.7563     0.0852     0.1692 1.1592e-01    13.0899      3.997      5.797    28.0088 0.0000e+00
      4.083      0.031     7.3668     92.758    116.826 123.817800    13.5000     1.7334     0.0852     0.1692 1.1605e-01    13.0294      4.004      5.808    27.9972 0.0000e+00
      4.090      0.028     7.3030     93.103    116.852 123.841719    13.5000     1.7563     0.0852     0.1692 1.1600e-01    17.3650      4.011      5.818    27.9913 0.0000e+00
      4.097      0.026     7.2631     93.536    116.883 123.867929    13.5000     1.7754     0.0852     0.1692 1.1615e-01    17.5161      4.018      5.827    27.9886 0.0000e+00
      4.103      0.024     7.2496     93.937    116.923 123.899420    13.4100     1.7411     0.0852     0.2115 1.1592e-01    17.4707      4.024      5.836    27.9871 0.0000e+00
      4.109      0.023     7.2602     94.223    116.959 123.926583    13.4100     1.7144     0.0852     0.2115 1.1620e-01    17.4254      4.029      5.844    27.9857 0.0000e+00
      4.115      0.022     7.2875     94.366    116.996 123.958659    13.4100     1.7868     0.0852     0.2115 1.1623e-01    21.6854      4.035      5.852    27.9840 0.0000e+00
      4.120      0.021     7.3217     94.383    117.029 123.996199    13.4100     1.7945     0.0852     0.2115 1.1612e-01    21.5797      4.040      5.860    27.9812 0.0000e+00
      4.125      0.020     7.3537     94.304    117.034 124.021202    13.6800     1.8021     0.0426     0.2961 1.1607e-01    21.5948      4.045      5.867    27.9767 0.0000e+00
      4.130      0.019     7.3767     94.188    117.018 124.040338    13.6800     1.7945     0.0426     0.2961 1.1612e-01    21.5797      4.050      5.874    27.9718 0.0000e+00
      4.135      0.018     7.3884     94.106    116.984 124.050709    13.6800     1.7220     0.0426     0.2961 1.1612e-01    19.1324      4.055      5.881    27.9688 0.0000e+00
      4.139      0.017     7.3894     94.115    116.933 124.043080    13.6800     1.7601     0.0426     0.2961 1.1605e-01    19.1627      4.059      5.888    27.9703 0.0000e+00
      4.144      0.017     7.3822     94.242    116.888 124.035427    13.6800     1.7449     0.0426     0.2961 1.1607e-01    19.1022      4.063      5.894    27.9787 0.0000e+00
      4.148      0.016     7.3710     94.498    116.863 124.041716    14.2200     1.7487     0.0852     0.3384 1.1605e-01    19.0569      4.067      5.899    27.9942 0.0000e+00
      4.151      0.015     7.3621     94.887    116.853 124.051623    14.2200     1.2490     0.0852     0.3384 1.1623e-01     9.7060      4.071      5.905    28.0138 0.0000e+00
      4.155      0.014     7.3602     95.394    116.849 124.051786    14.2200     1.2451     0.0852     0.3384 1.1607e-01     9.7665      4.075      5.910    28.0336 0.0000e+00
      4.159      0.013     7.3679     95.970    116.859 124.050252    14.2200     1.2566     0.0852     0.3384 1.1587e-01     9.7211      4.078      5.915    28.0510 0.0000e+00
      4.162      0.011     7.3861     96.526    116.870 124.042607    13.8600     1.2413     0.0852     0.2115 1.1612e-01     9.6456      4.082      5.920    28.0647 0.0000e+00
      4.165      0.010     7.4154     96.960    116.869 124.024811    13.8600     1.2909     0.0852     0.2115 1.1612e-01     7.7724      4.084      5.924    28.0735 0.0000e+00
      4.167      0.009     7.4548     97.205    116.884 124.030128    13.8600     1.3100     0.0852     0.2115 1.1602e-01     7.8026      4.087      5.927    28.0754 0.0000e+00
      4.169      0.008     7.5005     97.258    116.922 124.061977    13.8600     1.2909     0.0852     0.2115 1.1607e-01     7.7120      4.089      5.930    28.0701 0.0000e+00
      4.171      0.007     7.5450     97.164    116.956 124.090840    13.8600     1.3024     0.0852     0.2115 1.1612e-01     7.8026      4.091      5.933    28.0618 0.0000e+00
      4.172      0.006     7.5799     96.972    116.982 124.112407    13.8600     1.3710     0.0852     0.2115 1.1595e-01     7.5005      4.092      5.935    28.0547 0.0000e+00
      4.174      0.006     7.5997     96.712    116.999 124.132428    13.8600     1.3825     0.0852     0.2115 1.1607e-01     7.5911      4.094      5.937    28.0499 0.0000e+00
      4.175      0.006     7.6043     96.410    116.998 124.144239    13.8600     1.3748     0.0852     0.2115 1.1610e-01     7.5005      4.095      5.939    28.0465 0.0000e+00
      4.177      0.006     7.5973     96.115    116.977 124.142987    13.8600     1.3787     0.0852     0.2115 1.1607e-01     7.5307      4.096      5.941    28.0435 0.0000e+00
      4.178      0.006     7.5827     95.895    116.948 124.136342    13.9500     1.3748     0.0426     0.2961 1.1617e-01     7.1077      4.098      5.943    28.0410 0.0000e+00
      4.180      0.006     7.5623     95.792    116.934 124.142541    13.9500     1.3748     0.0426     0.2961 1.1623e-01     7.0473      4.099      5.945    28.0416 0.0000e+00
      4.181      0.006     7.5379     95.804    116.938 124.163240    13.9500     1.3939     0.0426     0.2961 1.1600e-01     7.1228      4.101      5.947    28.0471 0.0000e+00
      4.183      0.006     7.5137     95.900    116.949 124.183951    13.9500     1.3710     0.0426     0.2961 1.1620e-01     7.0775      4.102      5.950    28.0563 0.0000e+00
      4.185      0.006     7.4951     96.052    116.964 124.206197    14.8500     1.2566     0.0852     0.1692 1.1605e-01     6.3071      4.104      5.952    28.0665 0.0000e+00
      4.186      0.006     7.4858     96.233    116.982 124.231908    14.8500     1.2604     0.0852     0.1692 1.1615e-01     6.2769      4.105      5.954    28.0758 0.0000e+00
      4.188      0.006     7.4858     96.412    116.994 124.247933    14.8500     1.2680     0.0852     0.1692 1.1605e-01     6.4430      4.107      5.956    28.0826 0.0000e+00
      4.189      0.005     7.4928     96.549    116.994 124.250544    14.8500     1.2261     0.0852     0.1692 1.1597e-01     6.3675      4.108      5.958    28.0866 0.0000e+00
      4.190      0.005     7.5042     96.615    116.996 124.256443    15.0300     1.1193     0.1278     0.4230 1.1600e-01     5.8992      4.109      5.960    28.0895 0.0000e+00
      4.192      0.005     7.5180     96.614    117.009 124.275204    15.0300     1.1040     0.1278     0.4230 1.1610e-01     5.9445      4.111      5.962    28.0922 0.0000e+00
      4.193      0.005     7.5318     96.584    117.016 124.285823    15.0300     1.0964     0.1278     0.4230 1.1605e-01     5.9445      4.112      5.963    28.0936 0.0000e+00
      4.194      0.005     7.5424     96.559    117.003 124.273124    15.0300     1.1574     0.1278     0.4230 1.1600e-01     5.9294      4.113      5.965    28.0945 0.0000e+00
      4.195      0.004     7.5473     96.545    116.986 124.255730    15.1200     1.0926     0.1278     0.3384 1.1623e-01     5.9445      4.114      5.967    28.0962 0.0000e+00
      4.196      0.004     7.5470     96.531    116.974 124.243007    15.1200     1.1116     0.1278     0.3384 1.1602e-01     5.9445      4.115      5.968    28.0982 0.0000e+00
      4.197      0.004     7.5445     96.509    116.954 124.219557    15.1200     1.1078     0.1278     0.3384 1.1615e-01     5.9143      4.116      5.970    28.0995 0.0000e+00
      4.198      0.004     7.5424     96.464    116.926 124.187131    15.1200     1.1383     0.1278     0.3384 1.1625e-01     5.9596      4.117      5.971    28.1002 0.0000e+00
      4.199      0.004     7.5413     96.377    116.928 124.185098    15.1200     1.1307     0.1278     0.3384 1.1605e-01     5.1590      4.118      5.973    28.1005 0.0000e+00
      4.200      0.004     7.5402     96.249    116.958 124.214915    15.1200     1.1078     0.0852     0.3384 1.1607e-01     5.0986      4.119      5.974    28.1004 0.0000e+00
      4.201      0.005     7.5386     96.091    116.972 124.226514    15.1200     1.1193     0.0852     0.3384 1.1602e-01     5.1741      4.120      5.976    28.0996 0.0000e+00
      4.203      0.005     7.5353     95.922    116.968 124.220986    15.1200     1.1078     0.0852     0.3384 1.1605e-01     5.3101      4.121      5.977    28.0981 0.0000e+00
      4.204      0.006     7.5287     95.776    116.972 124.226869    15.1200     1.1154     0.0852     0.3384 1.1623e-01     4.8720      4.123      5.979    28.0967 0.0000e+00
      4.206      0.006     7.5188     95.688    116.975 124.233727    14.1300     1.1193     0.0852     0.2961 1.1607e-01     4.9324      4.124      5.981    28.0955 0.0000e+00
      4.207      0.007     7.5067     95.668    116.965 124.227383    14.1300     1.1383     0.0852     0.2961 1.1600e-01     4.9324      4.126      5.984    28.0943 0.0000e+00
      4.209      0.007     7.4936     95.699    116.962 124.226153    14.1300     1.1307     0.0852     0.2961 1.1610e-01     4.9324      4.128      5.986    28.0936 0.0000e+00
      4.211      0.007     7.4821     95.749    116.984 124.249716    14.1300     1.1498     0.0852     0.2961 1.1617e-01     4.8418      4.130      5.989    28.0944 0.0000e+00
      4.213      0.007     7.4750     95.799    117.016 124.284349    16.6500     1.1612     0.0852     0.3384 1.1602e-01     4.9928      4.131      5.992    28.0961 0.0000e+00
      4.215      0.007     7.4732     95.866    117.032 124.305274    16.6500     1.1193     0.0852     0.3384 1.1602e-01     4.9324      4.133      5.995    28.0977 0.0000e+00
      4.217      0.007     7.4755     95.978    117.021 124.304067    16.6500     1.1231     0.0852     0.3384 1.1617e-01     4.8871      4.135      5.997    28.0985 0.0000e+00
      4.219      0.007     7.4794     96.135    117.004 124.298413    16.6500     1.0697     0.0852     0.3384 1.1600e-01     5.1439      4.137      6.000    28.0985 0.0000e+00
      4.220      0.006     7.4833     96.311    117.002 124.304812    16.6500     1.0468     0.0852     0.3384 1.1605e-01     5.0684      4.138      6.002    28.0988 0.0000e+00
      4.222      0.006     7.4883     96.476    117.009 124.312968    18.8100     1.0697     0.1704     0.4230 1.1600e-01     5.1892      4.140      6.004    28.1009 0.0000e+00
      4.223      0.006     7.4965     96.592    117.014 124.313051    18.8100     1.0620     0.1704     0.4230 1.1610e-01     5.1288      4.141      6.006    28.1054 0.0000e+00
      4.225      0.006     7.5080     96.626    117.026 124.313086    18.8100     1.1269     0.1704     0.4230 1.1600e-01     5.1741      4.143      6.008    28.1105 0.0000e+00
      4.226      0.005     7.5213     96.579    117.038 124.307079    18.8100     1.1307     0.1704     0.4230 1.1600e-01     5.1288      4.144      6.010    28.1139 0.0000e+00
      4.227      0.005     7.5341     96.470    117.030 124.271419    16.9200     1.1383     0.1278     0.3807 1.1610e-01     5.1590      4.146      6.013    28.1145 0.0000e+00
      4.229      0.005     7.5434     96.312    117.012 124.222605    16.9200     1.1154     0.1278     0.3807 1.1597e-01     5.2043      4.147      6.015    28.1122 0.0000e+00
      4.231      0.005     7.5468     96.116    117.014 124.205637    16.9200     1.1383     0.1278     0.3807 1.1610e-01     5.0684      4.149      6.017    28.1068 0.0000e+00
      4.232      0.005     7.5443     95.894    117.043 124.231992    16.9200     1.1307     0.1278     0.3807 1.1623e-01     5.1137      4.150      6.019    28.0985 0.0000e+00
      4.233      0.004     7.5373     95.667    117.066 124.262685    17.0100     1.1498     0.1278     0.4230 1.1615e-01     5.2043      4.151      6.020    28.0870 0.0000e+00
      4.234      0.004     7.5266     95.481    117.055 124.263885    17.0100     1.1154     0.1278     0.4230 1.1612e-01     5.2345      4.152      6.022    28.0745 0.0000e+00
      4.235      0.003     7.5124     95.374    117.032 124.249919    17.0100     1.1116     0.1278     0.4230 1.1623e-01     5.0684      4.153      6.023    28.0662 0.0000e+00
      4.236      0.003     7.4953     95.354    117.016 124.239074    17.0100     1.1231     0.1278     0.4230 1.1605e-01     4.4792      4.154      6.024    28.0643 0.0000e+00
      4.236      0.002     7.4771     95.410    117.014 124.236459    16.2900     1.1231     0.1278     0.3807 1.1590e-01     4.4490      4.154      6.025    28.0673 0.0000e+00
      4.237      0.002     7.4619     95.526    117.017 124.233375    16.2900     1.1002     0.1278     0.3807 1.1610e-01     4.4339      4.155      6.026    28.0725 0.0000e+00
      4.237      0.001     7.4529     95.682    116.991 124.194986    16.2900     1.1460     0.1278     0.3807 1.1605e-01     4.4339      4.155      6.026    28.0772 0.0000e+00
      4.237      0.001     7.4510     95.844    116.939 124.125059    16.2900     1.0582     0.1278     0.3807 1.1615e-01     4.3433      4.155      6.027    28.0796 0.0000e+00
      4.238      0.001     7.4555     95.986    116.911 124.074971    16.2900     1.0620     0.1278     0.3807 1.1617e-01     4.3735      4.156      6.027    28.0792 0.0000e+00
      4.238      0.001     7.4649     96.080    116.907 124.049370    17.4600     1.0697     0.2130     0.8037 1.1617e-01     4.4188      4.156      6.028    28.0764 0.0000e+00
      4.238      0.001     7.4777     96.100    116.907 124.029424    17.4600     1.0506     0.2130     0.8037 1.1592e-01     4.5396      4.156      6.028    28.0720 0.0000e+00
      4.238      0.000     7.4912     96.052    116.917 124.021817    17.4600     1.0163     0.2130     0.8037 1.1605e-01     4.4792      4.156      6.028    28.0656 0.0000e+00
      4.238      0.000     7.5034     95.961    116.941 124.032523    17.4600     0.9934     0.2130     0.8037 1.1602e-01     4.4943      4.156      6.028    28.0571 0.0000e+00
      4.238      0.000     7.5120     95.847    116.979 124.064393    22.5000     1.0048     0.2556     1.4805 1.1600e-01     4.3735      4.156      6.028    28.0478 0.0000e+00
      4.238 -3.885e-07     7.5148     95.722    117.029 124.117925    22.5000     1.0163     0.2556     1.4805 1.1605e-01     4.3584      4.156      6.028    28.0391 0.0000e+00
      4.238 -4.995e-07     7.5120     95.596    117.075 124.175382    22.5000     1.1154     0.2556     1.4805 1.1607e-01     4.6907      4.156      6.028    28.0314 0.0000e+00
      4.238 -6.422e-07     7.5057     95.480    117.103 124.220075    22.5000     1.1002     0.2556     1.4805 1.1600e-01     4.8267      4.156      6.028    28.0252 0.0000e+00
      4.238 -8.257e-07     7.4972     95.397    117.114 124.255920    26.7300     1.1154     1.1076     1.1844 1.1597e-01     4.6907      4.156      6.028    28.0219 0.0000e+00
      4.238      0.000     7.4874     95.382    117.113 124.288476    26.7300     1.1498     1.1076     1.1844 1.1605e-01     4.6303      4.156      6.028    28.0221 0.0000e+00
      4.238      0.000     7.4771     95.460    117.098 124.312421    26.7300     1.1116     1.1076     1.1844 1.1590e-01     4.7209      4.156      6.028    28.0255 0.0000e+00
      4.238      0.000     7.4671     95.642    117.061 124.310136    26.7300     1.1193     1.1076     1.1844 1.1615e-01     4.5698      4.156      6.028    28.0320 0.0000e+00
      4.238      0.000     7.4593     95.931    117.004 124.273012    26.7300     1.1078     1.1076     1.1844 1.1615e-01     4.6756      4.156      6.028    28.0423 0.0000e+00
      4.238     -0.000     7.4562     96.311    116.937 124.207157    33.0300     1.1231     0.7668     0.3384 1.1605e-01     4.7209      4.156      6.028    28.0566 0.0000e+00
      4.238     -0.000     7.4601     96.733    116.882 124.133023    33.0300     1.2375     0.7668     0.3384 1.1615e-01     5.3403      4.156      6.028    28.0735 0.0000e+00
      4.238     -0.000     7.4722     97.128    116.876 124.090861    33.0300     1.2604     0.7668     0.3384 1.1600e-01     5.5216      4.156      6.028    28.0894 0.0000e+00
      4.238     -0.000     7.4935     97.419    116.908 124.077428    33.0300     1.2642     0.7668     0.3384 1.1607e-01     5.4913      4.156      6.028    28.0995 0.0000e+00
      4.238      0.000     7.5229     97.538    116.920 124.041122    32.9400     1.2375     0.9372     0.1269 1.1590e-01     5.4611      4.156      6.028    28.1017 0.0000e+00
      4.238      0.000     7.5568     97.446    116.895 123.964254    32.9400     1.1879     0.9372     0.1269 1.1612e-01     5.5518      4.156      6.028    28.0950 0.0000e+00
      4.238      0.000     7.5897     97.152    116.860 123.880344    32.9400     1.1841     0.9372     0.1269 1.1595e-01     5.5971      4.156      6.028    28.0796 0.0000e+00
      4.238      0.000     7.6151     96.707    116.849 123.831032    32.9400     1.1841     0.9372     0.1269 1.1602e-01     5.6424      4.156      6.028    28.0596 0.0000e+00
      4.238      0.000     7.6272     96.183    116.873 123.829176    31.3200     1.1841     1.0224     0.0846 1.1617e-01     5.6273      4.156      6.028    28.0384 0.0000e+00
      4.238      0.000     7.6230     95.654    116.911 123.848271    31.3200     1.3062     1.0224     0.0846 1.1607e-01     5.8086      4.156      6.028    28.0168 0.0000e+00
      4.238      0.000     7.6026     95.178    116.935 123.857397    31.3200     1.3062     1.0224     0.0846 1.1612e-01     5.8992      4.156      6.028    27.9970 0.0000e+00
      4.238      0.000     7.5699     94.811    116.956 123.864990    31.3200     1.3253     1.0224     0.0846 1.1612e-01     5.8086      4.156      6.028    27.9810 0.0000e+00
      4.238      0.000     7.5305     94.592    116.979 123.873073    28.6200     1.3138     0.6390     0.0846 1.1612e-01     5.8086      4.156      6.028    27.9690 0.0000e+00
      4.238      0.000     7.4902     94.536    116.978 123.855793    28.6200     1.3443     0.6390     0.0846 1.1612e-01     6.5790      4.156      6.028    27.9602 0.0000e+00
      4.238      0.000     7.4540     94.626    116.960 123.822545    28.6200     1.3024     0.6390     0.0846 1.1628e-01     6.5790      4.156      6.028    27.9532 0.0000e+00
      4.238      0.000     7.4260     94.820    116.952 123.802474    28.6200     1.3100     0.6390     0.0846 1.1595e-01     6.5337      4.156      6.028    27.9467 0.0000e+00
      4.238      0.000     7.4097     95.061    116.950 123.792228    28.6200     1.3138     0.6390     0.0846 1.1617e-01     6.6092      4.156      6.028    27.9401 0.0000e+00
      4.238      0.000     7.4062     95.292    116.938 123.775070    26.9100     1.2986     0.2556     0.0846 1.1612e-01     7.5911      4.156      6.028    27.9333 0.0000e+00
      4.238      0.000     7.4141     95.479    116.918 123.752426    26.9100     1.2871     0.2556     0.0846 1.1602e-01     7.4854      4.156      6.027    27.9270 0.0000e+00
      4.238      0.000     7.4300     95.627    116.896 123.728262    26.9100     1.3062     0.2556     0.0846 1.1615e-01     7.5005      4.156      6.027    27.9219 0.0000e+00
      4.238      0.000     7.4494     95.757    116.868 123.696135    26.9100     1.3100     0.2556     0.0846 1.1630e-01     7.5760      4.156      6.027    27.9184 0.0000e+00
      4.237     -0.001     7.4677     95.884    116.849 123.673484    26.7300     1.4283     0.1704     0.0846 1.1612e-01     7.8026      4.155      6.027    27.9166 0.0000e+00
      4.237     -0.001     7.4825     96.011    116.859 123.680279    26.7300     1.4359     0.1704     0.0846 1.1607e-01     7.7120      4.155      6.026    27.9160 0.0000e+00
      4.237     -0.001     7.4941     96.143    116.885 123.702325    26.7300     1.4283     0.1704     0.0846 1.1605e-01     7.7875      4.155      6.026    27.9155 0.0000e+00
      4.237     -0.001     7.5044     96.285    116.903 123.715492    26.7300     1.4283     0.1704     0.0846 1.1612e-01     7.7422      4.155      6.026    27.9148 0.0000e+00
      4.237     -0.002     7.5145     96.419    116.907 123.713287    24.1200     1.4206     0.1704     0.0423 1.1605e-01     8.1803      4.155      6.026    27.9135 0.0000e+00
      4.236     -0.002     7.5247     96.504    116.905 123.705126    24.1200     1.4168     0.1704     0.0423 1.1605e-01     8.3011      4.154      6.025    27.9117 0.0000e+00
      4.236     -0.003     7.5354     96.485    116.893 123.684830    24.1200     1.4244     0.1704     0.0423 1.1607e-01     8.3011      4.154      6.024    27.9095 0.0000e+00
      4.235     -0.003     7.5468     96.320    116.874 123.656990    24.1200     1.4435     0.1704     0.0423 1.1600e-01     8.3313      4.153      6.023    27.9071 0.0000e+00
      4.234     -0.004     7.5576     96.006    116.886 123.660197    24.1200     1.5694     0.1704     0.0423 1.1612e-01     8.6486      4.152      6.022    27.9045 0.0000e+00
      4.233     -0.006     7.5647     95.572    116.940 123.705308    21.1500     1.5541     0.2130     0.1269 1.1607e-01     8.4975      4.151      6.020    27.9016 0.0000e+00
      4.231     -0.008     7.5636     95.061    117.009 123.764340    21.1500     1.5770     0.2130     0.1269 1.1615e-01     8.4975      4.150      6.018    27.8985 0.0000e+00
      4.229     -0.010     7.5512     94.507    117.075 123.819023    21.1500     1.5808     0.2130     0.1269 1.1612e-01     8.5126      4.148      6.015    27.8950 0.0000e+00
      4.227     -0.012     7.5271     93.930    117.116 123.847926    21.1500     1.8135     0.2130     0.1269 1.1610e-01     8.9809      4.145      6.011    27.8909 0.0000e+00
      4.223     -0.014     7.4937     93.345    117.108 123.828746    19.1700     1.7868     0.2556     0.5076 1.1612e-01     9.0111      4.141      6.006    27.8859 0.0000e+00
      4.219     -0.016     7.4544     92.790    117.077 123.786377    19.1700     1.8059     0.2556     0.5076 1.1605e-01     8.9356      4.137      6.000    27.8800 0.0000e+00
      4.214     -0.017     7.4118     92.306    117.057 123.757537    19.1700     1.8135     0.2556     0.5076 1.1597e-01     8.9960      4.132      5.994    27.8736 0.0000e+00
      4.209     -0.018     7.3674     91.920    117.047 123.740538    19.1700     1.7411     0.2556     0.5076 1.1600e-01     9.4341      4.128      5.987    27.8675 0.0000e+00
      4.204     -0.018     7.3222     91.642    117.046 123.730845    13.2300     1.7640     0.0852     0.2538 1.1602e-01     9.4190      4.123      5.980    27.8626 0.0000e+00
      4.200     -0.018     7.2791     91.450    117.058 123.733878    13.2300     1.7525     0.0852     0.2538 1.1605e-01     9.4794      4.118      5.973    27.8588 0.0000e+00
      4.195     -0.018     7.2415     91.297    117.071 123.738438    13.2300     1.7296     0.0852     0.2538 1.1600e-01     9.3888      4.114      5.966    27.8557 0.0000e+00
      4.191     -0.017     7.2116     91.160    117.073 123.733739    13.2300     1.6075     0.0852     0.2538 1.1605e-01    12.8180      4.110      5.960    27.8527 0.0000e+00
      4.186     -0.017     7.1903     91.029    117.074 123.730531    18.8100     1.6266     0.0852     0.5499 1.1605e-01    12.7726      4.105      5.954    27.8491 0.0000e+00
      4.182     -0.017     7.1757     90.889    117.087 123.743962    18.8100     1.6190     0.0852     0.5499 1.1605e-01    12.8029      4.101      5.948    27.8451 0.0000e+00
      4.178     -0.017     7.1642     90.729    117.113 123.773613    18.8100     1.6228     0.0852     0.5499 1.1605e-01    12.7273      4.097      5.942    27.8411 0.0000e+00
      4.174     -0.018     7.1538     90.562    117.132 123.797382    18.8100     1.9280     0.0852     0.5499 1.1623e-01    19.1324      4.093      5.936    27.8380 0.0000e+00
      4.169     -0.019     7.1438     90.421    117.097 123.765588    18.8100     1.9242     0.0852     0.5499 1.1607e-01    19.0871      4.089      5.930    27.8363 0.0000e+00
      4.164     -0.021     7.1329     90.336    116.968 123.635742    15.1200     1.9280     0.1278     0.2538 1.1590e-01    19.0720      4.084      5.923    27.8360 0.0000e+00
      4.159     -0.024     7.1201     90.332    116.721 123.381222    15.1200     1.9432     0.1278     0.2538 1.1602e-01    19.1476      4.079      5.916    27.8370 0.0000e+00
      4.153     -0.028     7.1068     90.432    116.312 122.954162    15.1200     1.9280     0.1278     0.2538 1.1600e-01    20.5525      4.073      5.907    27.8389 0.0000e+00
      4.146     -0.034     7.0954     90.652    115.662 122.272691    15.1200     1.9509     0.1278     0.2538 1.1615e-01    20.5827      4.066      5.897    27.8415 0.0000e+00
      4.137     -0.040     7.0884     90.970    114.615 121.171090    19.0800     1.9242     0.2556     0.5922 1.1612e-01    20.6280      4.057      5.884    27.8446 0.0000e+00
      4.127     -0.048     7.0877     91.322    112.878 119.339592    19.0800     1.9318     0.2556     0.5922 1.1600e-01    20.5676      4.047      5.869    27.8480 0.0000e+00
      4.114     -0.056     7.0950     91.641    109.967 116.265792    19.0800     1.5465     0.2556     0.5922 1.1615e-01    10.5973      4.035      5.851    27.8518 0.0000e+00
      4.099     -0.063     7.1117     91.903    105.085 111.106000    19.0800     1.5656     0.2556     0.5922 1.1605e-01    10.6275      4.020      5.830    27.8561 0.0000e+00
      4.081     -0.070     7.1359     92.136     96.924 102.472270    18.3600     1.5656     0.2130     0.5499 1.1600e-01    10.6577      4.002      5.805    27.8617 0.0000e+00
      4.061     -0.075     7.1625     92.387     83.314  88.058274    18.3600     1.5618     0.2130     0.5499 1.1597e-01    10.6124      3.983      5.776    27.8694 0.0000e+00
      4.040     -0.077     7.1861     92.701     60.601  63.974268    18.3600     1.6152     0.2130     0.5499 1.1605e-01   107.0217      3.962      5.746    27.8806 0.0000e+00
      4.019     -0.079     7.2046     93.123     22.672  23.703820    18.3600     1.6228     0.2130     0.5499 1.1595e-01   107.0217      3.941      5.716    27.8969 0.0000e+00
      3.998     -0.079     7.2198     93.692    -40.621 -43.569876    18.3600     1.6304     0.2130     0.5499 1.1590e-01   106.9008      3.921      5.687    27.9206 0.0000e+00
      3.979     -0.079     7.2353     94.431   -146.135-155.808474    21.6000     1.6304     0.4686     0.5076 1.1600e-01   107.0066      3.902      5.660    27.9534 0.0000e+00
      3.960     -0.080     7.2545     95.333   -321.943-342.912249    21.6000     1.3939     0.4686     0.5076 1.1623e-01   336.8811      3.884      5.633    27.9952 0.0000e+00
      3.941     -0.083     7.2814     96.357   -431.858-459.886631    21.6000     1.3939     0.4686     0.5076 1.1615e-01   336.9264      3.865      5.606    28.0431 0.0000e+00
      3.920     -0.087     7.3196     97.433   -322.146-343.045888    21.6000     1.3787     0.4686     0.5076 1.1605e-01   336.9416      3.844      5.576    28.0916 0.0000e+00
      3.898     -0.093     7.3718     98.460   -146.514-156.031360    16.7400     1.3825     0.1704     0.4230 1.1595e-01   337.0322      3.822      5.544    28.1348 0.0000e+00
      3.873     -0.097     7.4380     99.308    -41.121 -43.795386    16.7400     1.3710     0.1704     0.4230 1.1615e-01   205.8177      3.798      5.509    28.1683 0.0000e+00
      3.846     -0.101     7.5151     99.887     22.117  23.569619    16.7400     1.3558     0.1704     0.4230 1.1615e-01   205.8328      3.772      5.471    28.1904 0.0000e+00
      3.819     -0.102     7.5972    100.211     60.052  64.001648    16.7400     1.3634     0.1704     0.4230 1.1620e-01   205.9688      3.745      5.431    28.2032 0.0000e+00
      3.791     -0.101     7.6760    100.386     82.808  88.270575    16.1100     1.3787     0.1704     0.2115 1.1617e-01   205.8782      3.718      5.392    28.2117 0.0000e+00
      3.765     -0.097     7.7406    100.529     96.468 102.848117    16.1100     1.3024     0.1704     0.2115 1.1607e-01   146.4495      3.692      5.355    28.2220 0.0000e+00
      3.740     -0.092     7.7836    100.702    104.671 111.605614    16.1100     1.3176     0.1704     0.2115 1.1605e-01   146.5703      3.668      5.319    28.2372 0.0000e+00
      3.718     -0.086     7.8063    100.925    109.595 116.862396    16.1100     1.2986     0.1704     0.2115 1.1617e-01   146.4343      3.646      5.287    28.2555 0.0000e+00
      3.697     -0.081     7.8175    101.197    112.565 120.032273    18.0900     1.3100     0.2130     0.2961 1.1620e-01   146.4646      3.626      5.258    28.2732 0.0000e+00
      3.679     -0.077     7.8266    101.495    114.376 121.972551    18.0900     1.0430     0.2130     0.2961 1.1615e-01    62.3066      3.607      5.232    28.2876 0.0000e+00
      3.661     -0.077     7.8387    101.768    115.482 123.170625    18.0900     1.0163     0.2130     0.2961 1.1615e-01    62.2009      3.590      5.206    28.2977 0.0000e+00
      3.643     -0.081     7.8552    101.965    116.147 123.907968    18.0900     0.9743     0.2130     0.2961 1.1592e-01    62.1405      3.573      5.181    28.3036 0.0000e+00
      3.624     -0.089     7.8759    102.070    116.555 124.375205    18.0900     0.9972     0.2130     0.2961 1.1600e-01    62.1405      3.554      5.154    28.3072 0.0000e+00
      3.602     -0.099     7.8984    102.123    116.824 124.692935    16.0200     0.7569     0.2130     0.3384 1.1607e-01    28.1359      3.533      5.123    28.3121 0.0000e+00
      3.576     -0.109     7.9185    102.197    117.008 124.913874    16.0200     0.7340     0.2130     0.3384 1.1592e-01    28.0452      3.507      5.086    28.3207 0.0000e+00
      3.545     -0.118     7.9321    102.333    117.119 125.054925    16.0200     0.7416     0.2130     0.3384 1.1615e-01    28.0906      3.477      5.043    28.3332 0.0000e+00
      3.511     -0.124     7.9383    102.524    117.182 125.145699    16.0200     0.7645     0.2130     0.3384 1.1595e-01    28.0906      3.443      4.993    28.3475 0.0000e+00
      3.475     -0.124     7.9406    102.742    117.231 125.222407    16.3800     0.6920     0.1704     0.2538 1.1605e-01    10.6124      3.408      4.942    28.3605 0.0000e+00
      3.440     -0.118     7.9448    102.954    117.273 125.293501    16.3800     0.7149     0.1704     0.2538 1.1605e-01    10.6577      3.373      4.893    28.3714 0.0000e+00
      3.409     -0.108     7.9540    103.132    117.297 125.345929    16.3800     0.7073     0.1704     0.2538 1.1592e-01    10.6124      3.343      4.848    28.3811 0.0000e+00
      3.382     -0.095     7.9674    103.262    117.304 125.377667    16.3800     0.7073     0.1704     0.2538 1.1612e-01    10.6728      3.317      4.811    28.3909 0.0000e+00
      3.361     -0.082     7.9829    103.340    117.309 125.405182    16.2900     0.6233     0.1704     0.3384 1.1612e-01     3.4520      3.296      4.780    28.4013 0.0000e+00
      3.343     -0.070     7.9978    103.381    117.320 125.433812    16.2900     0.6233     0.1704     0.3384 1.1612e-01     3.5426      3.279      4.755    28.4126 0.0000e+00
      3.328     -0.060     8.0100    103.403    117.319 125.445183    16.2900     0.6500     0.1704     0.3384 1.1612e-01     3.4520      3.264      4.734    28.4241 0.0000e+00
      3.316     -0.054     8.0186    103.434    117.299 125.432322    16.2900     0.6310     0.1704     0.3384 1.1623e-01     3.4520      3.252      4.716    28.4347 0.0000e+00
      3.304     -0.051     8.0234    103.499    117.256 125.391802    16.2900     0.7111     0.1704     0.3384 1.1612e-01     2.7722      3.240      4.699    28.4439 0.0000e+00
      3.292     -0.050     8.0255    103.591    117.197 125.330822    12.8700     0.7111     0.1278     0.3384 1.1610e-01     2.8024      3.229      4.683    28.4512 0.0000e+00
      3.280     -0.051     8.0265    103.690    117.151 125.279142    12.8700     0.7035     0.1278     0.3384 1.1605e-01     2.7722      3.217      4.666    28.4564 0.0000e+00
      3.268     -0.053     8.0284    103.776    117.128 125.248991    12.8700     0.7263     0.1278     0.3384 1.1615e-01     2.7722      3.205      4.648    28.4602 0.0000e+00
      3.253     -0.055     8.0331    103.820    117.134 125.248333    12.8700     0.6424     0.1278     0.3384 1.1595e-01     2.3190      3.190      4.627    28.4625 0.0000e+00
      3.238     -0.055     8.0401    103.814    117.162 125.268989    11.6100     0.6462     0.0426     0.2115 1.1623e-01     2.3492      3.175      4.605    28.4633 0.0000e+00
      3.222     -0.055     8.0480    103.761    117.192 125.292459    11.6100     0.6310     0.0426     0.2115 1.1605e-01     2.3643      3.160      4.583    28.4624 0.0000e+00
      3.208     -0.055     8.0550    103.664    117.223 125.316997    11.6100     0.6233     0.0426     0.2115 1.1600e-01     2.3039      3.146      4.563    28.4601 0.0000e+00
      3.195     -0.055     8.0589    103.533    117.244 125.333139    11.6100     0.6424     0.0426     0.2115 1.1612e-01     2.1075      3.133      4.545    28.4568 0.0000e+00
      3.183     -0.056     8.0589    103.383    117.255 125.341188    12.1500     0.6882     0.0852     0.1269 1.1580e-01     1.3220      3.121      4.527    28.4529 0.0000e+00
      3.170     -0.060     8.0554    103.217    117.270 125.355295    12.1500     0.7073     0.0852     0.1269 1.1610e-01     1.3975      3.109      4.508    28.4490 0.0000e+00
      3.155     -0.067     8.0484    103.033    117.287 125.375220    12.1500     0.6653     0.0852     0.1269 1.1595e-01     1.3371      3.094      4.488    28.4455 0.0000e+00
      3.138     -0.077     8.0385    102.863    117.310 125.402275    12.1500     0.6729     0.0852     0.1269 1.1610e-01     1.3371      3.078      4.464    28.4428 0.0000e+00
      3.118     -0.087     8.0271    102.757    117.337 125.433672    13.9500     0.6386     0.0852     0.1692 1.1600e-01     2.5305      3.058      4.435    28.4411 0.0000e+00
      3.094     -0.097     8.0143    102.749    117.356 125.455775    13.9500     0.6348     0.0852     0.1692 1.1600e-01     2.5909      3.034      4.401    28.4405 0.0000e+00
      3.066     -0.104     7.9999    102.840    117.373 125.476477    13.9500     0.6310     0.0852     0.1692 1.1623e-01     2.5003      3.007      4.361    28.4409 0.0000e+00
      3.036     -0.107     7.9866    103.000    117.389 125.497299    13.9500     0.6233     0.0852     0.1692 1.1607e-01     2.4852      2.977      4.318    28.4420 0.0000e+00
      3.005     -0.108     7.9782    103.187    117.393 125.505786    13.9500     0.5776     0.0852     0.1692 1.1610e-01     1.8507      2.947      4.275    28.4430 0.0000e+00
      2.977     -0.104     7.9775    103.375    117.390 125.510203    16.4700     0.5776     0.1278     0.2961 1.1617e-01     1.8658      2.919      4.234    28.4439 0.0000e+00
      2.951     -0.099     7.9844    103.556    117.397 125.525735    16.4700     0.5852     0.1278     0.2961 1.1612e-01     1.9564      2.894      4.197    28.4449 0.0000e+00
      2.926     -0.091     7.9966    103.710    117.410 125.550522    16.4700     0.5890     0.1278     0.2961 1.1595e-01     1.8507      2.870      4.163    28.4465 0.0000e+00
      2.904     -0.082     8.0108    103.809    117.422 125.577169    16.4700     0.5661     0.1278     0.2961 1.1602e-01     1.2313      2.848      4.131    28.4487 0.0000e+00
      2.884     -0.073     8.0250    103.847    117.443 125.614782    15.7500     0.5699     0.1704     0.3384 1.1590e-01     1.0652      2.828      4.102    28.4516 0.0000e+00
      2.866     -0.064     8.0386    103.856    117.479 125.669392    15.7500     0.5661     0.1704     0.3384 1.1600e-01     1.2011      2.810      4.076    28.4554 0.0000e+00
      2.851     -0.056     8.0499    103.879    117.521 125.731550    15.7500     0.5738     0.1704     0.3384 1.1595e-01     1.0500      2.796      4.055    28.4600 0.0000e+00
      2.838     -0.048     8.0567    103.934    117.548 125.775817    15.7500     0.6233     0.1704     0.3384 1.1600e-01     1.6241      2.783      4.037    28.4656 0.0000e+00
      2.828     -0.043     8.0588    104.007    117.538 125.777982    13.2300     0.6348     0.0852     0.1269 1.1595e-01     1.6845      2.773      4.023    28.4720 0.0000e+00
      2.819     -0.040     8.0585    104.075    117.506 125.750629    13.2300     0.6233     0.0852     0.1269 1.1623e-01     1.6241      2.765      4.010    28.4788 0.0000e+00
      2.811     -0.040     8.0592    104.138    117.474 125.718478    13.2300     0.6500     0.0852     0.1269 1.1595e-01     1.6392      2.757      3.998    28.4861 0.0000e+00
      2.802     -0.043     8.0625    104.210    117.456 125.696965    13.2300     0.6577     0.0852     0.1269 1.1590e-01     1.3371      2.748      3.985    28.4931 0.0000e+00
      2.792     -0.049     8.0674    104.284    117.459 125.696361    13.2300     0.6272     0.0852     0.1269 1.1617e-01     1.3220      2.738      3.971    28.4984 0.0000e+00
      2.779     -0.057     8.0723    104.340    117.470 125.704497    12.0600     0.6386     0.0852     0.1692 1.1612e-01     1.4126      2.725      3.953    28.5013 0.0000e+00
      2.764     -0.069     8.0771    104.361    117.477 125.707537    12.0600     0.6462     0.0852     0.1692 1.1617e-01     1.3673      2.711      3.932    28.5021 0.0000e+00
      2.746     -0.082     8.0828    104.337    117.478 125.706292    12.0600     0.6233     0.0852     0.1692 1.1605e-01     2.1528      2.693      3.906    28.5015 0.0000e+00
      2.725     -0.098     8.0887    104.265    117.469 125.692426    12.0600     0.6539     0.0852     0.1692 1.1620e-01     2.1075      2.672      3.876    28.5000 0.0000e+00
      2.699     -0.113     8.0933    104.162    117.448 125.666242    11.2500     0.6348     0.0426     0.1692 1.1612e-01     2.1528      2.647      3.839    28.4981 0.0000e+00
      2.667     -0.128     8.0952    104.062    117.418 125.632765    11.2500     0.6577     0.0426     0.1692 1.1602e-01     2.0169      2.615      3.793    28.4964 0.0000e+00
      2.630     -0.140     8.0935    103.988    117.383 125.597072    11.2500     0.5585     0.0426     0.1692 1.1590e-01     4.9324      2.579      3.741    28.4950 0.0000e+00
      2.590     -0.146     8.0881    103.938    117.366 125.585659    11.2500     0.5890     0.0426     0.1692 1.1620e-01     4.8720      2.540      3.683    28.4935 0.0000e+00
      2.548     -0.148     8.0804    103.912    117.374 125.607489    12.5100     0.5776     0.0852     0.2538 1.1612e-01     4.9324      2.499      3.624    28.4920 0.0000e+00
      2.508     -0.145     8.0728    103.928    117.388 125.640373    12.5100     0.5661     0.0852     0.2538 1.1612e-01     4.9324      2.459      3.567    28.4911 0.0000e+00
      2.470     -0.139     8.0669    103.997    117.402 125.675072    12.5100     0.5165     0.0852     0.2538 1.1595e-01     1.4277      2.423      3.514    28.4918 0.0000e+00
      2.437     -0.132     8.0626    104.112    117.419 125.712838    12.5100     0.5432     0.0852     0.2538 1.1615e-01     1.3975      2.390      3.466    28.4948 0.0000e+00
      2.406     -0.127     8.0598    104.247    117.430 125.739735    14.4000     0.5318     0.1278     0.2115 1.1612e-01     1.3522      2.360      3.422    28.5003 0.0000e+00
      2.377     -0.125     8.0600    104.360    117.428 125.746928    14.4000     0.5280     0.1278     0.2115 1.1595e-01     1.3824      2.331      3.381    28.5079 0.0000e+00
      2.347     -0.126     8.0641    104.430    117.428 125.752344    14.4000     0.5242     0.1278     0.2115 1.1623e-01     0.6271      2.302      3.339    28.5165 0.0000e+00
      2.316     -0.129     8.0718    104.480    117.441 125.769430    14.4000     0.5203     0.1278     0.2115 1.1600e-01     0.7177      2.271      3.293    28.5247 0.0000e+00
      2.282     -0.133     8.0814    104.530    117.463 125.794741    14.4000     0.5165     0.1278     0.2115 1.1602e-01     0.6573      2.237      3.245    28.5311 0.0000e+00
      2.246     -0.136     8.0895    104.572    117.495 125.831024    12.6900     0.5509     0.1278     0.2538 1.1612e-01     0.6120      2.202      3.194    28.5352 0.0000e+00
      2.209     -0.139     8.0947    104.587    117.539 125.883952    12.6900     0.5432     0.1278     0.2538 1.1617e-01     0.9594      2.166      3.142    28.5376 0.0000e+00
      2.173     -0.141     8.0983    104.562    117.586 125.943630    12.6900     0.5203     0.1278     0.2538 1.1605e-01     0.8083      2.131      3.091    28.5389 0.0000e+00
      2.138     -0.143     8.1021    104.508    117.614 125.985955    12.6900     0.5165     0.1278     0.2538 1.1595e-01     0.9141      2.096      3.041    28.5397 0.0000e+00
      2.103     -0.147     8.1052    104.457    117.621 126.006208    12.4200     0.5318     0.0852     0.0846 1.1602e-01     0.8839      2.062      2.991    28.5409 0.0000e+00
      2.066     -0.153     8.1060    104.431    117.613 126.009791    12.4200     0.5203     0.0852     0.0846 1.1612e-01     0.3249      2.026      2.939    28.5434 0.0000e+00
      2.027     -0.159     8.1035    104.429    117.604 126.009665    12.4200     0.5280     0.0852     0.0846 1.1605e-01     0.4156      1.988      2.884    28.5473 0.0000e+00
      1.985     -0.165     8.0986    104.463    117.615 126.029809    12.4200     0.5356     0.0852     0.0846 1.1602e-01     0.3854      1.947      2.824    28.5522 0.0000e+00
      1.941     -0.168     8.0939    104.558    117.636 126.063587    11.7900     0.5470     0.0426     0.1269 1.1605e-01     0.5062      1.903      2.760    28.5577 0.0000e+00
      1.894     -0.168     8.0912    104.718    117.650 126.095998    11.7900     0.5165     0.0426     0.1269 1.1617e-01     0.4458      1.858      2.695    28.5627 0.0000e+00
      1.849     -0.164     8.0904    104.920    117.657 126.129683    11.7900     0.5203     0.0426     0.1269 1.1610e-01     0.3552      1.813      2.630    28.5667 0.0000e+00
      1.805     -0.155     8.0925    105.128    117.662 126.167623    11.7900     0.5318     0.0426     0.1269 1.1602e-01     0.4911      1.771      2.568    28.5703 0.0000e+00
      1.766     -0.144     8.0992    105.311    117.667 126.207933    11.7900     0.5280     0.0426     0.1269 1.1617e-01     0.3552      1.732      2.512    28.5751 0.0000e+00
      1.732     -0.132     8.1105    105.446    117.665 126.235352    12.2400     0.5165     0.0852     0.0846 1.1600e-01    -0.0376      1.698      2.463    28.5826 0.0000e+00
      1.701     -0.122     8.1246    105.518    117.647 126.235186    12.2400     0.5280     0.0852     0.0846 1.1607e-01    -0.1131      1.668      2.420    28.5935 0.0000e+00
      1.674     -0.115     8.1387    105.526    117.622 126.215394    12.2400     0.5165     0.0852     0.0846 1.1612e-01    -0.0527      1.642      2.381    28.6073 0.0000e+00
      1.648     -0.114     8.1508    105.468    117.606 126.196710    12.2400     0.5242     0.0852     0.0846 1.1605e-01    -0.1131      1.616      2.345    28.6220 0.0000e+00
      1.622     -0.120     8.1594    105.346    117.604 126.192158    11.8800     0.5509     0.0852     0.1269 1.1610e-01    -0.1283      1.591      2.307    28.6348 0.0000e+00
      1.594     -0.130     8.1638    105.178    117.607 126.198523    11.8800     0.5509     0.0852     0.1269 1.1597e-01    -0.0074      1.563      2.267    28.6432 0.0000e+00
      1.561     -0.144     8.1640    105.001    117.612 126.211500    11.8800     0.5242     0.0852     0.1269 1.1602e-01    -0.0980      1.531      2.221    28.6462 0.0000e+00
      1.523     -0.158     8.1596    104.865    117.628 126.240554    11.8800     0.5280     0.0852     0.1269 1.1615e-01    -0.1585      1.493      2.166    28.6454 0.0000e+00
      1.478     -0.167     8.1503    104.808    117.670 126.301435    11.6100     0.5165     0.0852     0.1692 1.1602e-01     0.1588      1.449      2.102    28.6443 0.0000e+00
      1.428     -0.170     8.1372    104.824    117.732 126.390370    11.6100     0.5280     0.0852     0.1692 1.1610e-01     0.3098      1.400      2.031    28.6457 0.0000e+00
      1.378     -0.166     8.1230    104.892    117.786 126.475053    11.6100     0.5165     0.0852     0.1692 1.1595e-01     0.1890      1.351      1.960    28.6492 0.0000e+00
      1.332     -0.153     8.1118    104.987    117.812 126.528044    11.6100     0.5509     0.0852     0.1692 1.1617e-01     0.1286      1.306      1.894    28.6539 0.0000e+00
      1.294     -0.136     8.1064    105.068    117.812 126.547469    13.1400     0.5203     0.1278     0.2538 1.1610e-01    -0.1131      1.268      1.840    28.6606 0.0000e+00
      1.263     -0.116     8.1063    105.107    117.798 126.546513    13.1400     0.5280     0.1278     0.2538 1.1623e-01    -0.0980      1.239      1.796    28.6701 0.0000e+00
      1.239     -0.097     8.1100    105.114    117.766 126.522919    13.1400     0.5165     0.1278     0.2538 1.1612e-01    -0.0074      1.215      1.762    28.6816 0.0000e+00
      1.219     -0.082     8.1157    105.112    117.708 126.468397    13.1400     0.5203     0.1278     0.2538 1.1607e-01    -0.0527      1.195      1.734    28.6925 0.0000e+00
      1.202     -0.071     8.1208    105.117    117.648 126.406424    13.1400     0.5242     0.1278     0.2538 1.1592e-01     0.3854      1.179      1.709    28.7008 0.0000e+00
      1.186     -0.065     8.1230    105.123    117.607 126.362494    15.3900     0.5013     0.2130     0.2115 1.1617e-01     0.4005      1.163      1.687    28.7067 0.0000e+00
      1.172     -0.062     8.1228    105.112    117.589 126.340898    15.3900     0.5280     0.2130     0.2115 1.1617e-01     0.3854      1.149      1.666    28.7112 0.0000e+00
      1.158     -0.064     8.1223    105.072    117.603 126.353886    15.3900     0.5432     0.2130     0.2115 1.1602e-01     0.3703      1.135      1.646    28.7142 0.0000e+00
      1.143     -0.070     8.1225    105.002    117.652 126.406920    15.3900     0.5814     0.2130     0.2115 1.1595e-01     6.5941      1.121      1.625    28.7155 0.0000e+00
      1.126     -0.079     8.1229    104.910    117.704 126.468123    19.6200     0.5509     0.4260     0.3807 1.1605e-01     6.5035      1.104      1.602    28.7152 0.0000e+00
      1.106     -0.091     8.1222    104.815    117.736 126.507796    19.6200     0.5623     0.4260     0.3807 1.1605e-01     6.5337      1.085      1.573    28.7142 0.0000e+00
      1.082     -0.103     8.1193    104.743    117.740 126.516510    19.6200     0.5852     0.4260     0.3807 1.1625e-01     6.6545      1.061      1.539    28.7134 0.0000e+00
      1.052     -0.115     8.1138    104.716    117.720 126.496590    19.6200     0.5051     0.4260     0.3807 1.1600e-01    10.4311      1.032      1.496    28.7138 0.0000e+00
      1.019     -0.123     8.1064    104.728    117.704 126.478739    18.0900     0.5089     0.7242     0.2538 1.1605e-01    10.4916      0.999      1.449    28.7158 0.0000e+00
      0.983     -0.127     8.0987    104.755    117.716 126.494214    18.0900     0.5280     0.7242     0.2538 1.1602e-01    10.3858      0.964      1.399    28.7183 0.0000e+00
      0.948     -0.126     8.0930    104.775    117.752 126.539137    18.0900     0.5242     0.7242     0.2538 1.1602e-01    10.3405      0.930      1.349    28.7200 0.0000e+00
      0.915     -0.121     8.0908    104.786    117.788 126.589471    18.0900     0.5432     0.7242     0.2538 1.1605e-01    13.7546      0.897      1.301    28.7205 0.0000e+00
      0.883     -0.112     8.0917    104.784    117.804 126.622624    18.0900     0.5127     0.7242     0.2538 1.1602e-01    13.7848      0.866      1.256    28.7207 0.0000e+00
      0.856     -0.100     8.0936    104.760    117.799 126.635431    17.6400     0.5280     0.2982     0.2115 1.1607e-01    13.6639      0.839      1.217    28.7218 0.0000e+00
      0.831     -0.089     8.0948    104.720    117.779 126.633310    17.6400     0.5242     0.2982     0.2115 1.1605e-01    13.6639      0.815      1.182    28.7245 0.0000e+00
      0.811     -0.078     8.0950    104.699    117.739 126.609694    17.6400     0.5318     0.2982     0.2115 1.1602e-01    12.8331      0.795      1.153    28.7292 0.0000e+00
      0.794     -0.068     8.0939    104.727    117.689 126.572292    17.6400     0.5203     0.2982     0.2115 1.1605e-01    12.7273      0.779      1.129    28.7360 0.0000e+00
      0.779     -0.062     8.0909    104.804    117.661 126.553152    14.5800     0.5280     0.1704     0.3384 1.1612e-01    12.8331      0.764      1.108    28.7439 0.0000e+00
      0.766     -0.059     8.0867    104.909    117.663 126.563176    14.5800     0.5280     0.1704     0.3384 1.1590e-01    12.7726      0.751      1.089    28.7522 0.0000e+00
      0.753     -0.060     8.0839    105.002    117.673 126.581027    14.5800     0.5509     0.1704     0.3384 1.1607e-01     9.6305      0.738      1.071    28.7603 0.0000e+00
      0.739     -0.065     8.0851    105.046    117.669 126.581452    14.5800     0.5776     0.1704     0.3384 1.1602e-01     9.7665      0.725      1.051    28.7670 0.0000e+00
      0.723     -0.074     8.0904    105.039    117.645 126.558561    12.4200     0.5814     0.1278     0.1692 1.1605e-01     9.7060      0.709      1.029    28.7718 0.0000e+00
      0.705     -0.086     8.0980    105.014    117.625 126.540266    12.4200     0.5623     0.1278     0.1692 1.1612e-01     9.7665      0.691      1.002    28.7752 0.0000e+00
      0.682     -0.099     8.1047    105.005    117.618 126.535695    12.4200     0.5318     0.1278     0.1692 1.1620e-01     7.9990      0.669      0.970    28.7780 0.0000e+00
      0.655     -0.111     8.1079    105.010    117.611 126.527624    12.4200     0.5013     0.1278     0.1692 1.1607e-01     7.9839      0.642      0.931    28.7801 0.0000e+00
      0.623     -0.122     8.1071    105.011    117.611 126.525904    17.1000     0.5165     0.2130     0.2538 1.1607e-01     8.1501      0.611      0.886    28.7814 0.0000e+00
      0.588     -0.129     8.1050    105.005    117.625 126.538081    17.1000     0.5127     0.2130     0.2538 1.1610e-01     8.0896      0.576      0.836    28.7828 0.0000e+00
      0.551     -0.131     8.1041    105.001    117.636 126.547393    17.1000     0.4708     0.2130     0.2538 1.1617e-01     8.5882      0.541      0.784    28.7839 0.0000e+00
      0.515     -0.129     8.1044    104.993    117.644 126.556322    17.1000     0.4364     0.2130     0.2538 1.1600e-01     8.5126      0.505      0.733    28.7842 0.0000e+00
      0.481     -0.122     8.1046    104.959    117.659 126.575253    17.1000     0.4708     0.2130     0.2538 1.1610e-01     8.5579      0.472      0.685    28.7833 0.0000e+00
      0.450     -0.111     8.1044    104.889    117.668 126.593228    17.8200     0.4631     0.1704     0.2538 1.1623e-01     8.4824      0.441      0.641    28.7819 0.0000e+00
      0.423     -0.098     8.1043    104.793    117.666 126.603034    17.8200     0.5165     0.1704     0.2538 1.1615e-01     6.3071      0.415      0.602    28.7809 0.0000e+00
      0.399     -0.084     8.1036    104.699    117.660 126.611289    17.8200     0.5394     0.1704     0.2538 1.1623e-01     6.3675      0.391      0.568    28.7809 0.0000e+00
      0.380     -0.071     8.1008    104.644    117.655 126.620195    17.8200     0.5318     0.1704     0.2538 1.1610e-01     6.3977      0.373      0.541    28.7823 0.0000e+00
      0.365     -0.058     8.0949    104.646    117.652 126.628128    13.7700     0.5318     0.1278     0.1692 1.1597e-01     6.3977      0.358      0.519    28.7856 0.0000e+00
      0.353     -0.048     8.0868    104.684    117.654 126.641203    13.7700     0.5127     0.1278     0.1692 1.1607e-01    10.9145      0.346      0.502    28.7908 0.0000e+00
      0.343     -0.040     8.0787    104.722    117.655 126.652904    13.7700     0.5356     0.1278     0.1692 1.1610e-01    10.7635      0.336      0.488    28.7968 0.0000e+00
      0.335     -0.034     8.0736    104.737    117.651 126.660349    13.7700     0.5280     0.1278     0.1692 1.1612e-01    10.7786      0.328      0.476    28.8027 0.0000e+00
      0.328     -0.031     8.0731    104.721    117.659 126.679529    13.0500     0.5280     0.1278     0.2538 1.1605e-01    10.7786      0.321      0.466    28.8077 0.0000e+00
      0.321     -0.032     8.0754    104.689    117.674 126.705556    13.0500     0.5509     0.1278     0.2538 1.1605e-01     4.1167      0.315      0.457    28.8123 0.0000e+00
      0.315     -0.035     8.0776    104.660    117.682 126.723361    13.0500     0.5890     0.1278     0.2538 1.1602e-01     4.0109      0.308      0.447    28.8170 0.0000e+00
      0.307     -0.041     8.0781    104.640    117.688 126.739691    13.0500     0.5928     0.1278     0.2538 1.1620e-01     3.9958      0.301      0.437    28.8218 0.0000e+00
      0.297     -0.050     8.0762    104.643    117.689 126.750900    13.0500     0.5852     0.1278     0.2538 1.1590e-01     3.9354      0.291      0.422    28.8264 0.0000e+00
      0.284     -0.063     8.0732    104.686    117.659 126.729961    20.9700     0.5242     0.3408     0.3384 1.1610e-01     3.5275      0.278      0.404    28.8306 0.0000e+00
      0.267     -0.078     8.0703    104.774    117.615 126.695304    20.9700     0.5165     0.3408     0.3384 1.1605e-01     3.5124      0.262      0.380    28.8346 0.0000e+00
      0.246     -0.095     8.0683    104.881    117.603 126.697715    20.9700     0.5432     0.3408     0.3384 1.1607e-01     3.4973      0.242      0.350    28.8385 0.0000e+00
      0.220     -0.112     8.0678    104.956    117.625 126.739839    20.9700     0.5165     0.3408     0.3384 1.1602e-01     3.3915      0.216      0.313    28.8427 0.0000e+00
      0.188     -0.127     8.0705    104.943    117.657 126.800895    18.3600     0.4631     0.2982     0.3807 1.1592e-01     8.4522      0.185      0.268    28.8476 0.0000e+00
      0.152     -0.139     8.0764    104.809    117.685 126.867150    18.3600     0.4669     0.2982     0.3807 1.1623e-01     8.5277      0.149      0.216    28.8534 0.0000e+00
      0.112     -0.146     8.0838    104.534    117.697 126.920259    18.3600     0.4784     0.2982     0.3807 1.1605e-01     8.4673      0.110      0.160    28.8598 0.0000e+00
      0.071     -0.145     8.0885    104.075    117.702 126.960381    18.3600     0.4746     0.2982     0.3807 1.1945e-01     8.4824      0.070      0.101    28.8676 0.0000e+00
      0.029     -0.134     8.0860    103.366    117.710 126.998218    17.3700     0.4135     0.2556     0.2538 1.1615e-01     2.7873      0.029      0.041    28.8786 0.0000e+00
     -0.010     -0.111     8.0735    102.378    117.719 127.031855    17.3700     0.4021     0.2556     0.2538 1.1612e-01     2.7571     -0.009     -0.014    28.8939 0.0000e+00
     -0.041     -0.078     8.0499    101.240    117.727 127.066260    17.3700     0.3639     0.2556     0.2538 1.1605e-01     2.7873     -0.040     -0.059    28.9109 0.0000e+00
     -0.062     -0.036     8.0125    100.226    117.730 127.096601    17.3700     0.3792     0.2556     0.2538 1.1615e-01     2.8024     -0.061     -0.088    28.9260 0.0000e+00
     -0.067      0.007     7.9562     99.560    117.711 127.104958   104.0400     0.4059     0.0852     1.4805 1.1602e-01     2.8326     -0.066     -0.096    28.9382 0.0000e+00
     -0.056      0.045     7.8788     99.287    117.666 127.081554   104.0400     0.5432     0.0852     1.4805 1.1676e-01    38.1666     -0.054     -0.079    28.9488 0.0000e+00
     -0.029      0.070     7.7897     99.346    117.568 126.998140   104.0400     0.5738     0.0852     1.4805 1.1623e-01    38.1968     -0.028     -0.041    28.9594 0.0000e+00
      0.005      0.078     7.7101     99.684    117.386 126.820466   104.0400     0.5699     0.0852     1.4805 1.1602e-01    38.1514      0.005      0.008    28.9712 0.0000e+00
      0.037      0.068     7.6572    100.250    117.105 126.529167   104.0400     0.5585     0.0852     1.4805 1.1612e-01    38.2723      0.037      0.053    28.9832 0.0000e+00
      0.059      0.042     7.6348    100.933    116.666 126.058571    44.6400     0.4669     0.5112     0.5076 1.1615e-01     6.3373      0.058      0.085    28.9939 0.0000e+00
      0.068      0.007     7.6381    101.555    115.926 125.261174    44.6400     0.4746     0.5112     0.5076 1.1615e-01     6.4430      0.067      0.097    29.0035 0.0000e+00
      0.061     -0.027     7.6629    101.920    115.456 124.756496    44.6400     0.4708     0.5112     0.5076 1.1607e-01     6.3071      0.061      0.088    29.0116 0.0000e+00
      0.042     -0.050     7.7057    101.905    115.911 125.254119    44.6400     0.4669     0.5112     0.5076 1.1600e-01     6.4128      0.041      0.060    29.0167 0.0000e+00
      0.015     -0.057     7.7580    101.506    116.644 126.052586    26.5500     0.5318     0.6816     0.5499 1.1623e-01    28.4380      0.015      0.021    29.0185 0.0000e+00
     -0.012     -0.045     7.8057    100.832    117.077 126.526660    26.5500     0.5280     0.6816     0.5499 1.1600e-01    28.4531     -0.012     -0.017    29.0193 0.0000e+00
     -0.031     -0.018     7.8336    100.096    117.322 126.798759    26.5500     0.5356     0.6816     0.5499 1.1612e-01    28.3172     -0.030     -0.044    29.0209 0.0000e+00
     -0.035      0.018     7.8320     99.569    117.460 126.953448    26.5500     0.5280     0.6816     0.5499 1.1582e-01    28.3927     -0.034     -0.050    29.0234 0.0000e+00
     -0.020      0.053     7.8010     99.428    117.544 127.047985   178.3800     0.5852     0.3408     1.7766 1.1612e-01    35.7495     -0.020     -0.030    29.0261 0.0000e+00
      0.008      0.078     7.7488     99.669    117.581 127.089572   178.3800     0.5738     0.3408     1.7766 1.1615e-01    35.7948      0.008      0.011    29.0289 0.0000e+00
      0.043      0.087     7.6919    100.192    117.575 127.083295   178.3800     0.5928     0.3408     1.7766 1.1615e-01    35.8402      0.043      0.061    29.0317 0.0000e+00
      0.077      0.077     7.6510    100.870    117.566 127.069500   178.3800     0.5585     0.3408     1.7766 1.1617e-01    35.7344      0.075      0.109    29.0342 0.0000e+00
      0.102      0.051     7.6400    101.554    117.574 127.074524   178.3800     0.5432     0.3408     1.7766 1.1612e-01    25.4620      0.100      0.144    29.0358 0.0000e+00
      0.114      0.015     7.6584    102.097    117.600 127.099706    21.8700     0.5280     0.4686     0.3384 1.1605e-01    25.4016      0.111      0.162    29.0367 0.0000e+00
      0.111     -0.023     7.6986    102.385    117.633 127.135754    21.8700     0.5394     0.4686     0.3384 1.1595e-01    25.3865      0.109      0.158    29.0365 0.0000e+00
      0.095     -0.054     7.7509    102.379    117.665 127.176273    21.8700     0.5280     0.4686     0.3384 1.1617e-01    25.4167      0.093      0.134    29.0350 0.0000e+00
      0.068     -0.070     7.8037    102.106    117.698 127.224064    21.8700     0.5470     0.4686     0.3384 1.1600e-01    18.6339      0.066      0.096    29.0333 0.0000e+00
      0.036     -0.068     7.8456    101.640    117.729 127.275866    26.1900     0.5356     0.6390     0.2961 1.1605e-01    18.7397      0.036      0.052    29.0320 0.0000e+00
      0.008     -0.048     7.8677    101.100    117.748 127.315477    26.1900     0.5089     0.6390     0.2961 1.1607e-01    18.6037      0.008      0.011    29.0321 0.0000e+00
     -0.009     -0.016     7.8669    100.629    117.740 127.325447    26.1900     0.5165     0.6390     0.2961 1.1597e-01    18.7095     -0.009     -0.013    29.0347 0.0000e+00
     -0.009      0.022     7.8452    100.399    117.705 127.298432    26.1900     0.5203     0.6390     0.2961 1.1617e-01    24.3744     -0.009     -0.013    29.0399 0.0000e+00
      0.009      0.056     7.8085    100.542    117.670 127.261245   119.8800     0.5089     0.5538     0.4230 1.1617e-01    24.2384      0.009      0.013    29.0473 0.0000e+00
      0.040      0.078     7.7658    101.042    117.664 127.251992   119.8800     0.5280     0.5538     0.4230 1.1600e-01    24.1931      0.039      0.056    29.0558 0.0000e+00
      0.073      0.084     7.7286    101.743    117.672 127.256200   119.8800     0.5242     0.5538     0.4230 1.1610e-01    24.3593      0.072      0.104    29.0634 0.0000e+00
      0.103      0.071     7.7103    102.466    117.667 127.248976   119.8800     0.5280     0.5538     0.4230 1.1607e-01    19.5856      0.101      0.147    29.0680 0.0000e+00
      0.125      0.042     7.7212    103.061    117.663 127.246404    18.9900     0.5280     0.2982     0.2115 1.1595e-01    19.5705      0.122      0.177    29.0687 0.0000e+00
      0.134      0.001     7.7598    103.410    117.666 127.251800    18.9900     0.5547     0.2982     0.2115 1.1600e-01    19.6461      0.131      0.190    29.0671 0.0000e+00
      0.130     -0.045     7.8138    103.458    117.634 127.218579    18.9900     0.5165     0.2982     0.2115 1.1615e-01    19.6159      0.127      0.185    29.0654 0.0000e+00
      0.112     -0.093     7.8694    103.225    117.546 127.121874    18.9900     0.4784     0.2982     0.2115 1.1605e-01    12.8331      0.110      0.159    29.0647 0.0000e+00
      0.080     -0.137     7.9151    102.740    117.399 126.961912    18.9900     0.4822     0.2982     0.2115 1.1615e-01    12.8029      0.078      0.113    29.0651 0.0000e+00
      0.034     -0.174     7.9417    102.028    117.157 126.700038    21.7800     0.4555     0.4260     0.2961 1.1595e-01    12.8029      0.034      0.049    29.0661 0.0000e+00
     -0.021     -0.201     7.9454    101.127    116.767 126.276425    21.7800     0.4669     0.4260     0.2961 1.1617e-01    12.8331     -0.020     -0.030    29.0666 0.0000e+00
     -0.082     -0.216     7.9275    100.117    116.135 125.588114    21.7800     0.4898     0.4260     0.2961 1.1617e-01     9.2377     -0.080     -0.116    29.0663 0.0000e+00
     -0.145     -0.218     7.8903     99.135    115.081 124.441552    21.7800     0.4860     0.4260     0.2961 1.1612e-01     9.1622     -0.142     -0.206    29.0658 0.0000e+00
     -0.206     -0.208     7.8357     98.310    113.300 122.506976    25.5600     0.4708     0.3408     0.2538 1.1610e-01     9.1622     -0.202     -0.293    29.0654 0.0000e+00
     -0.261     -0.189     7.7667     97.644    110.276 119.226477    25.5600     0.4822     0.3408     0.2538 1.1605e-01     9.1622     -0.256     -0.372    29.0644 0.0000e+00
     -0.308     -0.164     7.6893     96.974    105.168 113.693238    25.5600     1.0239     0.3408     0.2538 1.1597e-01    26.7008     -0.302     -0.438    29.0624 0.0000e+00
     -0.346     -0.137     7.6143     96.070     96.602 104.423724    25.5600     0.9857     0.3408     0.2538 1.1607e-01    26.6857     -0.339     -0.492    29.0591 0.0000e+00
     -0.375     -0.111     7.5516     94.794     82.290  88.946064   306.5400     1.0163     0.1704     3.0456 1.1623e-01    26.6403     -0.367     -0.533    29.0547 0.0000e+00
     -0.397     -0.088     7.5012     93.246     63.242  68.353577   306.5400     0.9934     0.1704     3.0456 1.1628e-01    26.6403     -0.390     -0.565    29.0493 0.0000e+00
     -0.415     -0.069     7.4507     91.719     45.803  49.502655   306.5400    -0.0976     0.1704     3.0456 1.1600e-01     9.3586     -0.407     -0.590    29.0432 0.0000e+00
     -0.429     -0.053     7.3821     90.550     33.681  36.399738   306.5400    -0.0633     0.1704     3.0456 1.1595e-01     9.4190     -0.420     -0.610    29.0372 0.0000e+00
     -0.440     -0.042     7.2849     89.969     25.730  27.805348   306.5400    -0.0709     0.1704     3.0456 1.1620e-01     9.5399     -0.431     -0.625    29.0318 0.0000e+00
     -0.448     -0.032     7.1669     90.016     20.517  22.170036   135.3600    -0.0862     0.4686    -0.0846 1.1612e-01     9.4341     -0.439     -0.637    29.0272 0.0000e+00
     -0.454     -0.025     7.0503     90.591     17.033  18.405029   135.3600    -0.2922     0.4686    -0.0846 1.1612e-01     3.4218     -0.446     -0.646    29.0235 0.0000e+00
     -0.459     -0.020     6.9610     91.532     14.547  15.717253   135.3600    -0.2769     0.4686    -0.0846 1.1600e-01     3.4671     -0.451     -0.653    29.0205 0.0000e+00
     -0.463     -0.015     6.9167     92.631     12.767  13.793914   135.3600    -0.2541     0.4686    -0.0846 1.1623e-01     3.4369     -0.454     -0.659    29.0180 0.0000e+00
     -0.466     -0.012     6.9207     93.659     11.442  12.360905   157.4100    -0.2731     0.0426    -0.2115 1.1612e-01     3.4822     -0.457     -0.663    29.0159 0.0000e+00
     -0.469     -0.010     6.9652     94.440     10.334  11.163427   157.4100    -0.2617     0.0426    -0.2115 1.1600e-01     2.8477     -0.460     -0.667    29.0138 0.0000e+00
     -0.470     -0.008     7.0379     94.901      9.422  10.178602   157.4100    -0.2617     0.0426    -0.2115 1.1623e-01     2.7873     -0.461     -0.669    29.0119 0.0000e+00
     -0.472     -0.006     7.1226     95.076      8.756   9.458155   157.4100    -0.2541     0.0426    -0.2115 1.1617e-01     2.6815     -0.463     -0.671    29.0099 0.0000e+00
     -0.473     -0.005     7.2019     95.059      8.267   8.929335   177.5700    -0.2655     0.0000     4.1877 1.2325e-01     2.7722     -0.464     -0.673    29.0078 0.0000e+00
     -0.474     -0.005     7.2622     94.951      7.887   8.518763   177.5700    -0.2769     0.0000     4.1877 1.1600e-01     2.7571     -0.465     -0.674    29.0058 0.0000e+00
     -0.474     -0.004     7.2980     94.834      7.648   8.260185   177.5700    -0.2731     0.0000     4.1877 1.1691e-01     2.7571     -0.465     -0.675    29.0039 0.0000e+00
     -0.475     -0.004     7.3117     94.782      7.570   8.176157   177.5700    -0.2541     0.0000     4.1877 1.1602e-01     2.7873     -0.466     -0.676    29.0020 0.0000e+00
     -0.475 -9.990e-29     7.3106 -9.990e-29 -9.990e-29 -9.990e-29   168.1200 -9.990e-29     0.0000    -0.1269 1.1607e-01 -9.990e-29     -0.466     -0.676    29.0004 0.0000e+00
     -0.476 -9.990e-29     7.3025 -9.990e-29 -9.990e-29 -9.990e-29   168.1200 -9.990e-29     0.0000    -0.1269 1.1924e-01 -9.990e-29     -0.467     -0.677    28.9989 0.0000e+00
     -0.476 -9.990e-29     7.2936 -9.990e-29 -9.990e-29 -9.990e-29   168.1200 -9.990e-29     0.0000    -0.1269 1.1600e-01 -9.990e-29     -0.467     -0.677    28.9979 0.0000e+00
     -0.476 -9.990e-29     7.2897 -9.990e-29 -9.990e-29 -9.990e-29   168.1200 -9.990e-29     0.0000    -0.1269 1.1610e-01 -9.990e-29     -0.467     -0.677    28.9975 0.0000e+00
