* Sea-Bird SBE19plus  Data File:
* FileName = C:\R\Reservoirs\Data\DataNotYetUploadedToEDI\Raw_CTD\RawDownloads\073124_ccr88_S8188_0011.hex
* Software version 2.8.0.119
* Temperature SN = 8188
* Conductivity SN = 8188
* System UpLoad Time = Aug 02 2024 14:08:03
* <ApplicationData>
* <Seaterm232>
* <SoftwareVersion>2.8.0.119</SoftwareVersion>
* <BuildDate>07-Nov-2018</BuildDate>
* </Seaterm232>
* </ApplicationData>
* <InstrumentState>
* <HardwareData DeviceType='SBE19plus' SerialNumber='01908188'>
*
*    <Manufacturer>Sea-Bird Electronics, Inc.</Manufacturer>
*
*    <FirmwareVersion>3.1.8</FirmwareVersion>
*
*    <FirmwareDate>Mar  9 2016 16:22:29</FirmwareDate>
*
*    <CommandSetVersion>1.4</CommandSetVersion>
*
*    <PCBAssembly PCBSerialNum='260079' AssemblyNum='41054K'/>
*
*    <PCBAssembly PCBSerialNum='260083' AssemblyNum='41059E'/>
*
*    <PCBAssembly PCBSerialNum='260085' AssemblyNum='41606B'/>
*
*    <PCBAssembly PCBSerialNum='260081' AssemblyNum='41967C'/>
*
*    <MfgDate>30 Mar 2022</MfgDate>
*
*    <InternalSensors>
*
*       <Sensor id='Main Temperature'>
*
*          <type>temperature0</type>
*
*          <SerialNumber>01908188</SerialNumber>
*
*       </Sensor>
*
*       <Sensor id='Main Conductivity'>
*
*          <type>conductivity-0</type>
*
*          <SerialNumber>01908188</SerialNumber>
*
*       </Sensor>
*
*       <Sensor id='Main Pressure'>
*
*          <type>strain-0</type>
*
*          <SerialNumber>12220741</SerialNumber>
*
*       </Sensor>
*
*    </InternalSensors>
*
*    <ExternalSensors>
*
*       <Sensor id='volt 0'>
*
*          <type>CHL</type>
*
*          <SerialNumber>FLNTURT-7096</SerialNumber>
*
*       </Sensor>
*
*       <Sensor id='volt 1'>
*
*          <type>NTU</type>
*
*          <SerialNumber>FLNTURT-7096</SerialNumber>
*
*       </Sensor>
*
*       <Sensor id='volt 2'>
*
*          <type>OXY</type>
*
*          <SerialNumber>43-4269</SerialNumber>
*
*       </Sensor>
*
*       <Sensor id='volt 3'>
*
*          <type>not assigned</type>
*
*          <SerialNumber>not assigned</SerialNumber>
*
*       </Sensor>
*
*       <Sensor id='volt 4'>
*
*          <type>PAR</type>
*
*          <SerialNumber>PARLOGICSW-2209</SerialNumber>
*
*       </Sensor>
*
*       <Sensor id='volt 5'>
*
*          <type>not assigned</type>
*
*          <SerialNumber>not assigned</SerialNumber>
*
*       </Sensor>
*
*       <Sensor id='serial'>
*
*          <type>WETLABS</type>
*
*          <SerialNumber>FL3-7350</SerialNumber>
*
*       </Sensor>
*
*    </ExternalSensors>
*
* </HardwareData>
* <StatusData DeviceType='SBE19plus' SerialNumber='01908188'>
*
*    <DateTime>2024-08-02T14:04:34</DateTime>
*
*    <LoggingState>not logging</LoggingState>
*
*    <EventSummary numEvents='0'/>
*
*    <Power>
*
*       <vMain>12.5</vMain>
*
*       <vLith>8.6</vLith>
*
*       <iMain>61.8</iMain>
*
*       <iPump>49.3</iPump>
*
*       <iExt01>22.3</iExt01>
*
*       <iExt2345>20.5</iExt2345>
*
*       <iSerial>54.0</iSerial>
*
*    </Power>
*
*    <MemorySummary>
*
*       <Bytes>301425</Bytes>
*
*       <Samples>12057</Samples>
*
*       <SamplesFree>2619868</SamplesFree>
*
*       <SampleLength>25</SampleLength>
*
*       <Profiles>11</Profiles>
*
*    </MemorySummary>
*
* </StatusData>
* <ConfigurationData DeviceType='SBE19plus' SerialNumber='01908188'>
*
*    <ProfileMode>
*
*       <ScansToAverage>1</ScansToAverage>
*
*       <MinimumCondFreq>2</MinimumCondFreq>
*
*       <PumpDelay>90</PumpDelay>
*
*       <AutoRun>no</AutoRun>
*
*       <IgnoreSwitch>no</IgnoreSwitch>
*
*    </ProfileMode>
*
*    <Battery>
*
*       <Type>alkaline</Type>
*
*       <CutOff>7.5</CutOff>
*
*    </Battery>
*
*    <DataChannels>
*
*       <ExtVolt0>yes</ExtVolt0>
*
*       <ExtVolt1>yes</ExtVolt1>
*
*       <ExtVolt2>yes</ExtVolt2>
*
*       <ExtVolt3>no</ExtVolt3>
*
*       <ExtVolt4>yes</ExtVolt4>
*
*       <ExtVolt5>no</ExtVolt5>
*
*       <SBE38>no</SBE38>
*
*       <WETLABS>yes</WETLABS>
*
*       <OPTODE>no</OPTODE>
*
*       <SBE63>no</SBE63>
*
*       <SeaFET>no</SeaFET>
*
*       <GTD>no</GTD>
*
*    </DataChannels>
*
*    <EchoCharacters>yes</EchoCharacters>
*
*    <OutputExecutedTag>yes</OutputExecutedTag>
*
*    <OutputFormat>raw HEX</OutputFormat>
*
* </ConfigurationData>
* <CalibrationCoefficients DeviceType='SBE19plus' SerialNumber='01908188'>
*
*    <Calibration format='TEMP1' id='Main Temperature'>
*
*       <SerialNum>01908188</SerialNum>
*
*       <CalDate>07-May-24</CalDate>
*
*       <TA0>1.249325e-03</TA0>
*
*       <TA1>2.751683e-04</TA1>
*
*       <TA2>-1.314205e-06</TA2>
*
*       <TA3>1.914222e-07</TA3>
*
*       <TOFFSET>0.000000e+00</TOFFSET>
*
*    </Calibration>
*
*    <Calibration format='WBCOND0' id='Main Conductivity'>
*
*       <SerialNum>01908188</SerialNum>
*
*       <CalDate>07-May-24</CalDate>
*
*       <G>-1.014855e+00</G>
*
*       <H>1.444624e-01</H>
*
*       <I>-3.430060e-04</I>
*
*       <J>4.842261e-05</J>
*
*       <CPCOR>-9.570000e-08</CPCOR>
*
*       <CTCOR>3.250000e-06</CTCOR>
*
*       <CSLOPE>1.000000e+00</CSLOPE>
*
*    </Calibration>
*
*    <Calibration format='STRAIN0' id='Main Pressure'>
*
*       <SerialNum>12220741</SerialNum>
*
*       <CalDate>03-Apr-24</CalDate>
*
*       <PA0>7.209200e-02</PA0>
*
*       <PA1>4.836684e-04</PA1>
*
*       <PA2>-3.501227e-12</PA2>
*
*       <PTCA0>5.244614e+05</PTCA0>
*
*       <PTCA1>2.020364e+01</PTCA1>
*
*       <PTCA2>-6.074616e-01</PTCA2>
*
*       <PTCB0>2.522087e+01</PTCB0>
*
*       <PTCB1>5.750000e-04</PTCB1>
*
*       <PTCB2>0.000000e+00</PTCB2>
*
*       <PTEMPA0>-5.770713e+01</PTEMPA0>
*
*       <PTEMPA1>5.343973e+01</PTEMPA1>
*
*       <PTEMPA2>-5.775530e-01</PTEMPA2>
*
*       <POFFSET>7.020000e-01</POFFSET>
*
*       <PRANGE>1.600000e+02</PRANGE>
*
*    </Calibration>
*
*    <Calibration format='VOLT0' id='Volt 0'>
*
*       <OFFSET>-4.657200e-02</OFFSET>
*
*       <SLOPE>1.248989e+00</SLOPE>
*
*    </Calibration>
*
*    <Calibration format='VOLT0' id='Volt 1'>
*
*       <OFFSET>-4.600800e-02</OFFSET>
*
*       <SLOPE>1.249849e+00</SLOPE>
*
*    </Calibration>
*
*    <Calibration format='VOLT0' id='Volt 2'>
*
*       <OFFSET>-4.668000e-02</OFFSET>
*
*       <SLOPE>1.250379e+00</SLOPE>
*
*    </Calibration>
*
*    <Calibration format='VOLT0' id='Volt 3'>
*
*       <OFFSET>-4.643200e-02</OFFSET>
*
*       <SLOPE>1.251002e+00</SLOPE>
*
*    </Calibration>
*
*    <Calibration format='VOLT0' id='Volt 4'>
*
*       <OFFSET>-4.606100e-02</OFFSET>
*
*       <SLOPE>1.249962e+00</SLOPE>
*
*    </Calibration>
*
*    <Calibration format='VOLT0' id='Volt 5'>
*
*       <OFFSET>-4.642700e-02</OFFSET>
*
*       <SLOPE>1.248530e+00</SLOPE>
*
*    </Calibration>
*
*    <Calibration format='FREQ0' id='external frequency channel'>
*
*       <EXTFREQSF>1.000018e+00</EXTFREQSF>
*
*    </Calibration>
*
* </CalibrationCoefficients>
* <EventCounters DeviceType='SBE19plus' SerialNumber='01908188'>
*
*    <EventSummary numEvents='0'/>
*
* </EventCounters></InstrumentState>
* <Headers>
*
* cast  11 01 Aug 2024 13:16:37 samples 11033 to 12057, avg = 1, stop = mag switch
*
# nquan = 16
# nvalues = 1025                        
# units = specified
# name 0 = depFM: Depth [fresh water, m]
# name 1 = dz/dtM: Descent Rate [m/s]
# name 2 = sbeox0Mg/L: Oxygen, SBE 43 [mg/l]
# name 3 = sbeox0PS: Oxygen, SBE 43 [% saturation]
# name 4 = specc: Specific Conductance [uS/cm]
# name 5 = c0uS/cm: Conductivity [uS/cm]
# name 6 = wetCDOM: Fluorescence, WET Labs CDOM [mg/m^3]
# name 7 = flECO-AFL: Fluorescence, WET Labs ECO-AFL/FL [mg/m^3]
# name 8 = flECO-AFL1: Fluorescence, WET Labs ECO-AFL/FL, 2 [mg/m^3]
# name 9 = flECO-AFL2: Fluorescence, WET Labs ECO-AFL/FL, 3 [mg/m^3]
# name 10 = par/sat/log: PAR/Logarithmic, Satlantic
# name 11 = turbWETntu0: Turbidity, WET Labs ECO [NTU]
# name 12 = prdM: Pressure, Strain Gauge [db]
# name 13 = prdE: Pressure, Strain Gauge [psi]
# name 14 = tv290C: Temperature [ITS-90, deg C]
# name 15 = flag:  0.000e+00
# span 0 =     -0.398,      4.169       
# span 1 =     -0.243,      0.167       
# span 2 =     4.3016,     9.9571       
# span 3 =     55.440,    129.947       
# span 4 =   -437.360,    117.880       
# span 5 =-461.374287, 127.659077       
# span 6 =    -4.5000,    21.6000       
# span 7 =    -0.3303,     3.0724       
# span 8 =    -2.1300,     0.1278       
# span 9 =    -2.0304,     1.0152       
# span 10 = 7.0187e+01, 9.1348e+02      
# span 11 =    -1.3972,    22.6674      
# span 12 =     -0.390,      4.088      
# span 13 =     -0.566,      5.930      
# span 14 =    25.5085,    29.3850      
# span 15 = 0.0000e+00, 0.0000e+00      
# interval = seconds: 0.25
# start_time = Aug 01 2024 13:16:37 [Instrument's time stamp, header]
# bad_flag = -9.990e-29
# <Sensors count="10" >
#   <sensor Channel="1" >
#     <!-- Count, Temperature -->
#     <TemperatureSensor SensorID="58" >
#       <SerialNumber>8188</SerialNumber>
#       <CalibrationDate>07-May-24</CalibrationDate>
#       <A0>1.24932504e-003</A0>
#       <A1>2.75168293e-004</A1>
#       <A2>-1.31420465e-006</A2>
#       <A3>1.91422179e-007</A3>
#       <Slope>1.00000000</Slope>
#       <Offset>0.0000</Offset>
#     </TemperatureSensor>
#   </sensor>
#   <sensor Channel="2" >
#     <!-- Frequency 0, Conductivity -->
#     <ConductivitySensor SensorID="3" >
#       <SerialNumber>8188</SerialNumber>
#       <CalibrationDate>07-May-24</CalibrationDate>
#       <UseG_J>1</UseG_J>
#       <!-- Cell const and series R are applicable only for wide range sensors. -->
#       <SeriesR>0.0000</SeriesR>
#       <CellConst>2000.0000</CellConst>
#       <ConductivityType>0</ConductivityType>
#       <Coefficients equation="0" >
#         <A>0.00000000e+000</A>
#         <B>0.00000000e+000</B>
#         <C>0.00000000e+000</C>
#         <D>0.00000000e+000</D>
#         <M>0.0</M>
#         <CPcor>-9.57000000e-008</CPcor>
#       </Coefficients>
#       <Coefficients equation="1" >
#         <G>-1.01485473e+000</G>
#         <H>1.44462400e-001</H>
#         <I>-3.43006030e-004</I>
#         <J>4.84226116e-005</J>
#         <CPcor>-9.57000000e-008</CPcor>
#         <CTcor>3.2500e-006</CTcor>
#         <!-- WBOTC not applicable unless ConductivityType = 1. -->
#         <WBOTC>0.00000000e+000</WBOTC>
#       </Coefficients>
#       <Slope>1.00000000</Slope>
#       <Offset>0.00000</Offset>
#     </ConductivitySensor>
#   </sensor>
#   <sensor Channel="3" >
#     <!-- Count, Pressure, Strain Gauge -->
#     <PressureSensor SensorID="46" >
#       <SerialNumber>8188</SerialNumber>
#       <CalibrationDate>03-Apr-24</CalibrationDate>
#       <PA0>7.20920045e-002</PA0>
#       <PA1>4.83668449e-004</PA1>
#       <PA2>-3.50122678e-012</PA2>
#       <PTEMPA0>-5.77071299e+001</PTEMPA0>
#       <PTEMPA1>5.34397285e+001</PTEMPA1>
#       <PTEMPA2>-5.77553003e-001</PTEMPA2>
#       <PTCA0>5.24461366e+005</PTCA0>
#       <PTCA1>2.02036405e+001</PTCA1>
#       <PTCA2>-6.07461634e-001</PTCA2>
#       <PTCB0>2.52208750e+001</PTCB0>
#       <PTCB1>5.75000000e-004</PTCB1>
#       <PTCB2>0.00000000e+000</PTCB2>
#       <Offset>0.000000</Offset>
#     </PressureSensor>
#   </sensor>
#   <sensor Channel="4" >
#     <!-- A/D voltage 0, Fluorometer, WET Labs ECO-AFL/FL -->
#     <FluoroWetlabECO_AFL_FL_Sensor SensorID="20" >
#       <SerialNumber>FLNTURT-7096</SerialNumber>
#       <CalibrationDate>21-Mar-2024</CalibrationDate>
#       <ScaleFactor>5.00000000e+001</ScaleFactor>
#       <!-- Dark output -->
#       <Vblank>0.0710</Vblank>
#     </FluoroWetlabECO_AFL_FL_Sensor>
#   </sensor>
#   <sensor Channel="5" >
#     <!-- A/D voltage 1, Turbidity Meter, WET Labs, ECO-NTU -->
#     <TurbidityMeter SensorID="67" >
#       <SerialNumber>FLNTURT-7096</SerialNumber>
#       <CalibrationDate>21-Mar-2024</CalibrationDate>
#       <ScaleFactor>198.000000</ScaleFactor>
#       <!-- Dark output -->
#       <DarkVoltage>0.070000</DarkVoltage>
#     </TurbidityMeter>
#   </sensor>
#   <sensor Channel="6" >
#     <!-- A/D voltage 2, Oxygen, SBE 43 -->
#     <OxygenSensor SensorID="38" >
#       <SerialNumber>4269</SerialNumber>
#       <CalibrationDate>08-May-24</CalibrationDate>
#       <Use2007Equation>1</Use2007Equation>
#       <CalibrationCoefficients equation="0" >
#         <!-- Coefficients for Owens-Millard equation. -->
#         <Boc>0.0000</Boc>
#         <Soc>0.0000e+000</Soc>
#         <offset>0.0000</offset>
#         <Pcor>0.00e+000</Pcor>
#         <Tcor>0.0000</Tcor>
#         <Tau>0.0</Tau>
#       </CalibrationCoefficients>
#       <CalibrationCoefficients equation="1" >
#         <!-- Coefficients for Sea-Bird equation - SBE calibration in 2007 and later. -->
#         <Soc>4.3983e-001</Soc>
#         <offset>-0.4978</offset>
#         <A>-4.5504e-003</A>
#         <B> 2.4929e-004</B>
#         <C>-4.1306e-006</C>
#         <D0> 2.5826e+000</D0>
#         <D1> 1.92634e-004</D1>
#         <D2>-4.64803e-002</D2>
#         <E> 3.6000e-002</E>
#         <Tau20> 1.9700</Tau20>
#         <H1>-3.3000e-002</H1>
#         <H2> 5.0000e+003</H2>
#         <H3> 1.4500e+003</H3>
#       </CalibrationCoefficients>
#     </OxygenSensor>
#   </sensor>
#   <sensor Channel="7" >
#     <!-- A/D voltage 3, PAR/Logarithmic, Satlantic -->
#     <PARLog_SatlanticSensor SensorID="76" >
#       <SerialNumber>2209</SerialNumber>
#       <CalibrationDate>14-Jan-2022</CalibrationDate>
#       <a0>9.8861e-001</a0>
#       <a1>8.0845e-001</a1>
#       <Im>1.3589e+000</Im>
#       <Multiplier>1.0000e+000</Multiplier>
#     </PARLog_SatlanticSensor>
#   </sensor>
#   <sensor Channel="8" >
#     <!-- Serial RS-232, Fluorometer, WET Labs ECO-AFL/FL, 2 -->
#     <FluoroWetlabECO_AFL_FL_Sensor SensorID="20" >
#       <SerialNumber>FL3-7350</SerialNumber>
#       <CalibrationDate>10-Mar-2022</CalibrationDate>
#       <ScaleFactor>4.26000000e-002</ScaleFactor>
#       <!-- Dark output -->
#       <Vblank>50.0000</Vblank>
#     </FluoroWetlabECO_AFL_FL_Sensor>
#   </sensor>
#   <sensor Channel="9" >
#     <!-- Serial RS-232, Fluorometer, WET Labs ECO-AFL/FL, 3 -->
#     <FluoroWetlabECO_AFL_FL_Sensor SensorID="20" >
#       <SerialNumber>FL3-7350</SerialNumber>
#       <CalibrationDate>10-Mar-2022</CalibrationDate>
#       <ScaleFactor>4.23000000e-002</ScaleFactor>
#       <!-- Dark output -->
#       <Vblank>48.0000</Vblank>
#     </FluoroWetlabECO_AFL_FL_Sensor>
#   </sensor>
#   <sensor Channel="10" >
#     <!-- Serial RS-232, Fluorometer, WET Labs ECO CDOM -->
#     <FluoroWetlabCDOM_Sensor SensorID="19" >
#       <SerialNumber>FL3-7350</SerialNumber>
#       <CalibrationDate>10-Mar-2022</CalibrationDate>
#       <ScaleFactor>0.090</ScaleFactor>
#       <!-- Dark output -->
#       <Vblank>50.000</Vblank>
#     </FluoroWetlabCDOM_Sensor>
#   </sensor>
# </Sensors>
# datcnv_date = Aug 02 2024 14:31:43, 7.26.7.129 [datcnv_vars = 15]
# datcnv_in = C:\R\Reservoirs\Data\DataNotYetUploadedToEDI\Raw_CTD\RawDownloads\080124_ccr88_S8188011.hex C:\R\Reservoirs\Data\DataNotYetUploadedToEDI\Raw_CTD\RawDownloads\SBE19plusV2_8188_start20240601.xmlcon
# datcnv_skipover = 0
# datcnv_ox_hysteresis_correction = yes
# datcnv_ox_tau_correction = yes
# filter_date = Aug 02 2024 14:33:18, 7.26.7.129
# filter_in = C:\R\Reservoirs\Data\DataNotYetUploadedToEDI\Raw_CTD\RawDownloads\080124_ccr88_S8188011.cnv
# filter_low_pass_tc_A = 0.500
# filter_low_pass_tc_B = 1.000
# filter_low_pass_A_vars = sbeox0Mg/L sbeox0PS specc c0uS/cm tv290C
# filter_low_pass_B_vars = depFM dz/dtM prdM prdE
# alignctd_date = Aug 02 2024 14:33:58, 7.26.7.129
# alignctd_in = C:\R\Reservoirs\Data\DataNotYetUploadedToEDI\Raw_CTD\RawDownloads\080124_ccr88_S8188011.cnv
# alignctd_adv = dz/dtM 1.000, sbeox0PS 1.000, specc 1.000, c0uS/cm 1.000, flECO-AFL 1.000, turbWETntu0 1.000                                                                                                                        
# file_type = ascii
*END*
     -0.398      0.001     7.0528     85.982      1.269   1.282917    -4.5000    -0.2846    -2.1300    -2.0304 7.6008e+02    -1.2008     -0.390     -0.566    25.5085 0.0000e+00
     -0.398      0.001     7.0510     85.902      1.287   1.300879    -4.5000    -0.3189    -2.1300    -2.0304 8.6405e+02    -1.2461     -0.390     -0.566    25.5097 0.0000e+00
     -0.398      0.001     7.0481     85.824      1.282   1.296386    -4.5000    -0.2884    -2.1300    -2.0304 8.4035e+02    -1.2310     -0.390     -0.565    25.5114 0.0000e+00
     -0.398      0.002     7.0435     85.760      1.271   1.286138     0.0000    -0.3265     0.1278     0.0846 7.9315e+02    -1.3972     -0.390     -0.565    25.5134 0.0000e+00
     -0.397      0.002     7.0376     85.713      1.271   1.287289     0.0000    -0.3075     0.1278     0.0846 7.3426e+02    -1.2763     -0.389     -0.564    25.5153 0.0000e+00
     -0.397      0.003     7.0308     85.673      1.282   1.300147     0.0000    -0.3075     0.1278     0.0846 7.0948e+02    -1.2008     -0.389     -0.564    25.5171 0.0000e+00
     -0.396      0.003     7.0242     85.629      1.309   1.330128     0.0000    -0.3075     0.1278     0.0846 7.0533e+02    -1.2763     -0.388     -0.563    25.5187 0.0000e+00
     -0.395      0.004     7.0188     85.580      1.381   1.407103     0.0000    -0.3075     0.1278     0.0846 7.2334e+02    -1.3368     -0.387     -0.561    25.5201 0.0000e+00
     -0.394      0.006     7.0148     85.533      1.537   1.573475     0.0000    -0.2922     0.0426     0.1269 6.4788e+02    -1.2612     -0.386     -0.560    25.5214 0.0000e+00
     -0.392      0.007     7.0113     85.482      1.837   1.889519     0.0000    -0.3075     0.0426     0.1269 6.4339e+02    -1.2914     -0.385     -0.558    25.5230 0.0000e+00
     -0.390      0.010     7.0074     85.424      2.370   2.451444     0.0000    -0.3151     0.0426     0.1269 5.6462e+02    -1.3217     -0.383     -0.555    25.5250 0.0000e+00
     -0.388      0.012     7.0030     85.365      3.289   3.417052     0.0000    -0.3151     0.0426     0.1269 5.6462e+02    -1.2008     -0.380     -0.551    25.5278 0.0000e+00
     -0.385      0.016     6.9986     85.315      4.852   5.059748     0.0000    -0.3036     0.0000     0.1692 5.4854e+02    -1.3066     -0.377     -0.547    25.5322 0.0000e+00
     -0.381      0.020     6.9936     85.280      7.494   7.833494     0.0000    -0.2884     0.0000     0.1692 5.3465e+02    -1.1857     -0.373     -0.541    25.5390 0.0000e+00
     -0.376      0.026     6.9875     85.267     11.914  12.473978     0.0000    -0.3036     0.0000     0.1692 5.1604e+02    -1.2763     -0.368     -0.534    25.5501 0.0000e+00
     -0.369      0.033     6.9804     85.276     19.267  20.194797     0.0000    -0.2998     0.0000     0.1692 3.6632e+02    -1.3066     -0.362     -0.525    25.5684 0.0000e+00
     -0.360      0.043     6.9725     85.302     31.450  32.989212     0.0000    -0.3113     0.1278     0.0846 5.7017e+02    -1.2461     -0.353     -0.512    25.5986 0.0000e+00
     -0.349      0.055     6.9634     85.346     49.218  51.737200     0.0000    -0.3075     0.1278     0.0846 6.8138e+02    -1.2008     -0.343     -0.497    25.6488 0.0000e+00
     -0.335      0.070     6.9520     85.408     69.640  73.525959     0.0000    -0.3303     0.1278     0.0846 7.5662e+02    -1.3368     -0.329     -0.477    25.7324 0.0000e+00
     -0.317      0.086     6.9355     85.480     87.519  92.909718     0.0000    -0.0976     0.1278     0.0846 8.0741e+02     0.3854     -0.311     -0.451    25.8718 0.0000e+00
     -0.294      0.103     6.9088     85.563     99.651 106.363272     1.3500    -0.0709     0.0426     0.1692 8.5881e+02     0.4609     -0.288     -0.418    26.1040 0.0000e+00
     -0.264      0.120     6.8664     85.663    106.799 114.548009     1.3500    -0.0557     0.0426     0.1692 8.8149e+02     0.3400     -0.259     -0.376    26.4750 0.0000e+00
     -0.230      0.135     6.8101     85.782    110.991 119.528517     1.3500    -0.0671     0.0426     0.1692 8.8111e+02     0.3249     -0.225     -0.327    26.9731 0.0000e+00
     -0.192      0.148     6.7514     85.929    113.417 122.530913     1.3500     0.1084     0.0426     0.1692 8.9871e+02     0.1588     -0.188     -0.273    27.5019 0.0000e+00
     -0.151      0.157     6.7008     86.125    114.786 124.297832     1.3500     0.1007     0.0426     0.1692 9.1348e+02     0.2192     -0.148     -0.215    27.9751 0.0000e+00
     -0.109      0.164     6.6619     86.392    115.526 125.292461     7.7400     0.0931     0.0852     0.0846 9.1348e+02     0.2192     -0.107     -0.155    28.3661 0.0000e+00
     -0.066      0.167     6.6345     86.738    115.921 125.830064     7.7400     0.1160     0.0852     0.0846 8.9656e+02     0.2192     -0.065     -0.094    28.6747 0.0000e+00
     -0.022      0.167     6.6185     87.168    116.154 126.122039     7.7400     0.1846     0.0852     0.0846 8.9793e+02     0.1437     -0.022     -0.031    28.9070 0.0000e+00
      0.023      0.163     6.6142     87.674    116.315 126.280261     7.7400     0.1732     0.0852     0.0846 8.8456e+02     0.1890      0.022      0.032    29.0721 0.0000e+00
      0.066      0.154     6.6219     88.231    116.437 126.370925    10.8000     0.2152     0.0426     0.2538 8.4162e+02     0.0983      0.065      0.095    29.1806 0.0000e+00
      0.107      0.141     6.6411     88.802    116.537 126.446216    10.8000     0.1846     0.0426     0.2538 5.7440e+02     0.1890      0.105      0.153    29.2433 0.0000e+00
      0.143      0.125     6.6709     89.354    116.622 126.534208    10.8000     0.1732     0.0426     0.2538 4.9025e+02     0.1588      0.140      0.204    29.2692 0.0000e+00
      0.173      0.107     6.7097     89.875    116.687 126.626352    10.8000     0.1846     0.0426     0.2538 5.1560e+02     0.1739      0.169      0.246    29.2680 0.0000e+00
      0.196      0.089     6.7540     90.380    116.722 126.703203    10.9800     0.1923     0.0852     0.1692 5.1717e+02     0.2192      0.193      0.280    29.2537 0.0000e+00
      0.215      0.073     6.7991     90.919    116.736 126.763246    10.9800     0.1656     0.0852     0.1692 5.2327e+02     0.0983      0.211      0.306    29.2416 0.0000e+00
      0.230      0.058     6.8414     91.526    116.737 126.806490    10.9800     0.1732     0.0852     0.1692 4.9960e+02     0.1286      0.226      0.327    29.2407 0.0000e+00
      0.242      0.046     6.8800     92.169    116.730 126.834464    10.9800     0.1770     0.0852     0.1692 5.0594e+02     0.1286      0.238      0.345    29.2511 0.0000e+00
      0.252      0.037     6.9166     92.731    116.723 126.854630    10.9800     0.1732     0.0426     0.2115 5.3955e+02     0.1588      0.247      0.358    29.2681 0.0000e+00
      0.259      0.029     6.9555     93.017    116.718 126.868366    10.9800     0.1465     0.0426     0.2115 5.3535e+02     0.1286      0.255      0.369    29.2872 0.0000e+00
      0.265      0.023     6.9998     92.870    116.716 126.879335    10.9800     0.1846     0.0426     0.2115 5.1728e+02     0.1286      0.261      0.378    29.3055 0.0000e+00
      0.270      0.018     7.0470     92.316    116.716 126.886459    10.9800     0.1694     0.0426     0.2115 5.1381e+02     0.2192      0.265      0.385    29.3210 0.0000e+00
      0.274      0.014     7.0886     91.508    116.702 126.875633    10.9800     0.1732     0.0426     0.2115 5.0145e+02     0.0983      0.269      0.390    29.3329 0.0000e+00
      0.276      0.011     7.1094     90.576    116.667 126.839966    10.9800     0.1732     0.0426     0.1692 5.0287e+02     0.1739      0.271      0.394    29.3413 0.0000e+00
      0.279      0.009     7.0975     89.566    116.618 126.785955    10.9800     0.2037     0.0426     0.1692 5.2202e+02     0.0983      0.273      0.397    29.3468 0.0000e+00
      0.281      0.008     7.0547     88.488    116.568 126.729211    10.9800     0.1732     0.0426     0.1692 5.1069e+02     0.1890      0.275      0.400    29.3501 0.0000e+00
      0.282      0.006     6.9927     87.396    116.536 126.690620    10.9800     0.1961     0.0426     0.1692 5.1102e+02     0.1890      0.277      0.402    29.3520 0.0000e+00
      0.284      0.005     6.9215     86.404    116.529 126.681898    10.8900     0.2152     0.0426     0.2538 5.1403e+02     0.1286      0.279      0.404    29.3528 0.0000e+00
      0.285      0.005     6.8444     85.597    116.539 126.692718    10.8900     0.1999     0.0426     0.2538 5.0792e+02     0.1588      0.280      0.406    29.3525 0.0000e+00
      0.286      0.004     6.7621     84.943    116.555 126.709957    10.8900     0.1694     0.0426     0.2538 5.1191e+02     0.1890      0.281      0.407    29.3512 0.0000e+00
      0.286      0.004     6.6788     84.341    116.576 126.730208    10.8900     0.1923     0.0426     0.2538 5.2145e+02     0.2041      0.281      0.408    29.3498 0.0000e+00
      0.287      0.003     6.6031     83.735    116.597 126.748868    10.8900     0.1923     0.0426     0.1269 5.1325e+02     0.2645      0.282      0.409    29.3491 0.0000e+00
      0.288      0.003     6.5414     83.179    116.614 126.764908    10.8900     0.1846     0.0426     0.1269 5.1080e+02    -0.1585      0.283      0.410    29.3492 0.0000e+00
      0.289      0.003     6.4915     82.785    116.631 126.782606    10.8900     0.1885     0.0426     0.1269 5.1807e+02     0.0228      0.284      0.411    29.3490 0.0000e+00
      0.290      0.003     6.4455     82.630    116.644 126.796678    10.8900     0.1656     0.0426     0.1269 5.2032e+02    -0.0980      0.285      0.412    29.3480 0.0000e+00
      0.291      0.002     6.3994     82.695    116.645 126.796868    10.8900     0.1846     0.0426     0.1269 5.2361e+02    -0.0980      0.285      0.413    29.3466 0.0000e+00
      0.291      0.002     6.3570     82.910    116.634 126.783229    10.9800     0.2609     0.0426     0.2115 5.1470e+02    -0.3246      0.285      0.414    29.3455 0.0000e+00
      0.291      0.002     6.3270     83.230    116.614 126.760126    10.9800     0.2495     0.0426     0.2115 5.1953e+02    -0.2793      0.285      0.414    29.3451 0.0000e+00
      0.292      0.002     6.3151     83.666    116.585 126.729401    10.9800     0.2075     0.0426     0.2115 5.2010e+02    -0.3246      0.286      0.414    29.3450 0.0000e+00
      0.292      0.002     6.3201     84.270    116.545 126.688865    10.9800     0.2342     0.0426     0.2115 5.1202e+02    -0.2340      0.286      0.415    29.3445 0.0000e+00
      0.293      0.001     6.3367     85.080    116.489 126.631710    10.8000     0.2609     0.0852     0.0846 5.1762e+02    -0.2038      0.287      0.416    29.3437 0.0000e+00
      0.293      0.001     6.3612     86.079    116.406 126.544695    10.8000     0.2419     0.0852     0.0846 5.1202e+02    -0.3700      0.287      0.417    29.3433 0.0000e+00
      0.293      0.001     6.3945     87.179    116.272 126.402617    10.8000     0.2648     0.0852     0.0846 5.1247e+02    -0.2491      0.288      0.417    29.3437 0.0000e+00
      0.293      0.001     6.4404     88.258    116.051 126.163586    10.8000     0.2571     0.0852     0.0846 5.1213e+02    -0.2038      0.288      0.417    29.3449 0.0000e+00
      0.293      0.001     6.5022     89.196    115.678 125.757857    10.8900     0.2495     0.0426     0.1269 5.1886e+02    -0.0980      0.288      0.417    29.3465 0.0000e+00
      0.293      0.001     6.5784     89.889    115.051 125.075235    10.8900     0.2228     0.0426     0.1269 5.0792e+02    -0.0678      0.288      0.417    29.3480 0.0000e+00
      0.293      0.001     6.6623     90.253    114.009 123.941692    10.8900     0.2419     0.0426     0.1269 5.1694e+02    -0.0376      0.288      0.417    29.3492 0.0000e+00
      0.294      0.000     6.7447     90.254    112.277 122.058951    10.8900     0.2381     0.0426     0.1269 5.2157e+02     0.0077      0.288      0.418    29.3499 0.0000e+00
      0.294      0.000     6.8164     89.928    109.391 118.920946    10.9800     0.2495     0.0426     0.0846 5.1649e+02    -0.0678      0.288      0.418    29.3500 0.0000e+00
      0.294      0.000     6.8694     89.363    104.575 113.684873    10.9800     0.2457     0.0426     0.0846 5.1414e+02     0.0530      0.288      0.418    29.3496 0.0000e+00
      0.294      0.000     6.8973     88.661     96.543 104.950443    10.9800     0.2228     0.0426     0.0846 5.1582e+02    -0.1283      0.288      0.418    29.3491 0.0000e+00
      0.294      0.000     6.8973     87.918     83.156  90.392478    10.9800     0.2342     0.0426     0.0846 5.1987e+02    -0.0376      0.288      0.418    29.3487 0.0000e+00
      0.294      0.000     6.8724     87.237     60.845  66.132855    10.9800     0.1846     0.0426     0.0846 5.0814e+02     0.0228      0.288      0.418    29.3485 0.0000e+00
      0.294      0.000     6.8294     86.721     23.659  25.704342    10.9800     0.1808     0.0426     0.0000 5.1683e+02     0.0228      0.289      0.418    29.3478 0.0000e+00
      0.294      0.000     6.7759     86.438    -38.316 -41.665997    10.9800     0.1808     0.0426     0.0000 5.0660e+02    -0.0074      0.289      0.419    29.3461 0.0000e+00
      0.294      0.000     6.7195     86.385   -141.604-153.937582    10.9800     0.1846     0.0426     0.0000 5.1526e+02    -0.0829      0.289      0.419    29.3430 0.0000e+00
      0.294      0.000     6.6680     86.474   -313.754-341.055506    10.9800     0.2304     0.0426     0.0000 5.1303e+02    -0.3246      0.289      0.419    29.3389 0.0000e+00
      0.294      0.000     6.6290     86.557   -421.352-458.007638    10.8900     0.2495     0.0852     0.1692 5.0451e+02    -0.2793      0.289      0.419    29.3349 0.0000e+00
      0.294      0.000     6.6078     86.480   -313.759-341.062965    10.8900     0.2304     0.0852     0.1692 5.1392e+02    -0.2340      0.288      0.418    29.3320 0.0000e+00
      0.294      0.000     6.6040     86.150   -141.609-153.950487    10.8900     0.2495     0.0852     0.1692 5.1829e+02    -0.3095      0.288      0.418    29.3305 0.0000e+00
      0.294      0.000     6.6110     85.581    -38.317 -41.685788    10.8900     0.2495     0.0852     0.1692 5.0969e+02    -0.2038      0.288      0.418    29.3302 0.0000e+00
      0.294      0.000     6.6174     84.896     23.664  25.676390    10.9800     0.2152     0.0426     0.1269 5.0969e+02    -0.3700      0.289      0.419    29.3302 0.0000e+00
      0.294      0.000     6.6116     84.269     60.859  66.097292    10.9800     0.2381     0.0426     0.1269 5.1470e+02    -0.2944      0.289      0.419    29.3294 0.0000e+00
      0.294      0.000     6.5864     83.823     83.177  90.345819    10.9800     0.2495     0.0426     0.1269 5.0342e+02    -0.4304      0.289      0.418    29.3273 0.0000e+00
      0.294      0.000     6.5432     83.559     96.566 104.886246    10.9800     0.2419     0.0426     0.1269 5.1571e+02    -0.3700      0.288      0.418    29.3243 0.0000e+00
      0.294      0.000     6.4912     83.373    104.594 113.598020    10.9800     0.2571     0.0426     0.1269 5.1863e+02    -0.4908      0.288      0.417    29.3208 0.0000e+00
      0.294      0.000     6.4435     83.151    109.402 118.808281    10.9800     0.2075     0.0852     0.0846 5.1014e+02    -0.5059      0.288      0.417    29.3172 0.0000e+00
      0.294 4.3891e-07     6.4099     82.855    112.282 121.926439    10.9800     0.2228     0.0852     0.0846 5.2225e+02    -0.5210      0.288      0.418    29.3129 0.0000e+00
      0.294 5.6431e-07     6.3903     82.515    114.020 123.808014    10.9800     0.2304     0.0852     0.0846 5.1616e+02    -0.4606      0.288      0.418    29.3077 0.0000e+00
      0.294 7.2554e-07     6.3767     82.194    115.072 124.950757    10.9800     0.2571     0.0852     0.0846 5.1829e+02    -0.4908      0.288      0.418    29.3014 0.0000e+00
      0.294 9.3283e-07     6.3605     81.928    115.700 125.633387    10.8900     0.2266     0.0426     0.1269 5.1213e+02    -0.5512      0.288      0.418    29.2948 0.0000e+00
      0.294      0.000     6.3384     81.688    116.062 126.023935    10.8900     0.2266     0.0426     0.1269 5.1762e+02    -0.5059      0.288      0.417    29.2894 0.0000e+00
      0.293      0.000     6.3127     81.391    116.266 126.236552    10.8900     0.2381     0.0426     0.1269 5.1919e+02    -0.5663      0.288      0.417    29.2865 0.0000e+00
      0.293      0.000     6.2882     80.962    116.381 126.345942    10.8900     0.2152     0.0426     0.1269 5.1314e+02    -0.5512      0.288      0.417    29.2858 0.0000e+00
      0.294      0.000     6.2680     80.377    116.446 126.397283    10.8000     0.2533     0.0000     0.1692 5.1448e+02    -0.5814      0.288      0.417    29.2858 0.0000e+00
      0.294      0.000     6.2497     79.669    116.480 126.416270    10.8000     0.2152     0.0000     0.1692 5.1481e+02    -0.5210      0.288      0.418    29.2846 0.0000e+00
      0.294      0.000     6.2273     78.932    116.488 126.411967    10.8000     0.2381     0.0000     0.1692 5.1807e+02    -0.5361      0.288      0.418    29.2809 0.0000e+00
      0.294      0.000     6.1953     78.282    116.471 126.387225    10.8000     0.2495     0.0000     0.1692 5.0969e+02    -0.5966      0.288      0.418    29.2743 0.0000e+00
      0.293      0.000     6.1513     77.806    116.436 126.343453    10.7100     0.2228     0.0426     0.0846 5.2202e+02    -0.5814      0.288      0.417    29.2658 0.0000e+00
      0.293      0.000     6.0980     77.527    116.389 126.284985    10.7100     0.2419     0.0426     0.0846 5.1425e+02    -0.5663      0.288      0.417    29.2580 0.0000e+00
      0.294      0.000     6.0421     77.405    116.348 126.228243    10.7100     0.2609     0.0426     0.0846 5.1470e+02    -0.4908      0.288      0.417    29.2527 0.0000e+00
      0.294      0.000     5.9927     77.363    116.319 126.182107    10.7100     0.2571     0.0426     0.0846 5.1526e+02    -0.5663      0.288      0.418    29.2498 0.0000e+00
      0.294      0.000     5.9565     77.296    116.296 126.140275    10.7100     0.2113     0.0426     0.0846 5.1247e+02    -0.5210      0.288      0.418    29.2475 0.0000e+00
      0.294      0.000     5.9355     77.107    116.273 126.097594    10.8900     0.2304     0.0000     0.1269 5.1014e+02    -0.5361      0.288      0.418    29.2442 0.0000e+00
      0.294      0.000     5.9267     76.734    116.249 126.054686    10.8900     0.2419     0.0000     0.1269 5.1358e+02    -0.4908      0.288      0.418    29.2391 0.0000e+00
      0.293      0.000     5.9241     76.165    116.228 126.014115    10.8900     0.2495     0.0000     0.1269 5.0660e+02    -0.5512      0.288      0.417    29.2326 0.0000e+00
      0.293      0.000     5.9198     75.427    116.204 125.971063    10.8900     0.2533     0.0000     0.1269 5.1213e+02    -0.5361      0.288      0.417    29.2254 0.0000e+00
      0.293      0.000     5.9060     74.577    116.178 125.926055    10.8900     0.2457     0.0426     0.2115 5.1504e+02    -0.5814      0.288      0.418    29.2180 0.0000e+00
      0.294      0.000     5.8782     73.672    116.155 125.883094    10.8900     0.2533     0.0426     0.2115 5.0969e+02    -0.5210      0.288      0.418    29.2105 0.0000e+00
      0.294      0.000     5.8354     72.753    116.130 125.838726    10.8900     0.2266     0.0426     0.2115 5.0991e+02    -0.5210      0.288      0.418    29.2030 0.0000e+00
      0.294      0.000     5.7796     71.844    116.103 125.793124    10.8900     0.2495     0.0426     0.2115 5.1616e+02    -0.5814      0.288      0.418    29.1954 0.0000e+00
      0.294      0.000     5.7152     70.966    116.078 125.750134    10.8000     0.2457     0.0426     0.1269 5.1124e+02    -0.5210      0.288      0.418    29.1879 0.0000e+00
      0.294      0.000     5.6466     70.140    116.060 125.714297    10.8000     0.1999     0.0426     0.1269 5.0847e+02    -0.4606      0.288      0.418    29.1805 0.0000e+00
      0.294      0.000     5.5769     69.372    116.050 125.688062    10.8000     0.2381     0.0426     0.1269 5.2134e+02    -0.5210      0.288      0.418    29.1731 0.0000e+00
      0.294      0.000     5.5079     68.651    116.047 125.668432    10.8000     0.2457     0.0426     0.1269 5.0495e+02    -0.5512      0.288      0.418    29.1659 0.0000e+00
      0.294      0.000     5.4412     67.963    116.040 125.646172    10.8000     0.2381     0.0426     0.1269 5.1448e+02    -0.5814      0.288      0.418    29.1589 0.0000e+00
      0.294      0.001     5.3786     67.299    116.028 125.619347    10.6200     0.2266     0.0426     0.2115 5.0836e+02    -0.5663      0.289      0.419    29.1521 0.0000e+00
      0.294      0.001     5.3203     66.661    116.019 125.596808    10.6200     0.2495     0.0426     0.2115 5.1191e+02    -0.5512      0.289      0.419    29.1453 0.0000e+00
      0.294      0.001     5.2656     66.052    116.017 125.582548    10.6200     0.2304     0.0426     0.2115 5.0616e+02    -0.5210      0.289      0.419    29.1387 0.0000e+00
      0.295      0.000     5.2134     65.468    116.021 125.574766    10.6200     0.2342     0.0426     0.2115 5.1025e+02    -0.4606      0.289      0.419    29.1322 0.0000e+00
      0.295      0.000     5.1631     64.903    116.025 125.569384    10.6200     0.2419     0.0426     0.1692 5.0892e+02    -0.5210      0.289      0.419    29.1261 0.0000e+00
      0.295      0.000     5.1146     64.360    116.028 125.562967    10.6200     0.2381     0.0426     0.1692 5.0781e+02    -0.5210      0.289      0.420    29.1205 0.0000e+00
      0.295      0.000     5.0683     63.844    116.027 125.553802    10.6200     0.2419     0.0426     0.1692 5.1225e+02    -0.5814      0.289      0.420    29.1153 0.0000e+00
      0.295      0.000     5.0240     63.361    116.023 125.541447    10.6200     0.2190     0.0426     0.1692 5.0353e+02    -0.6419      0.289      0.420    29.1104 0.0000e+00
      0.295      0.000     4.9810     62.910    116.017 125.526608    10.5300     0.2571     0.0426     0.0846 5.1717e+02    -0.3700      0.289      0.420    29.1059 0.0000e+00
      0.295      0.000     4.9396     62.492    116.008 125.507327    10.5300     0.2724     0.0426     0.0846 5.1694e+02    -0.5966      0.289      0.420    29.1019 0.0000e+00
      0.295      0.000     4.9004     62.104    115.998 125.486468    10.5300     0.2724     0.0426     0.0846 5.0539e+02    -0.5512      0.289      0.420    29.0983 0.0000e+00
      0.296      0.000     4.8636     61.750    115.993 125.470470    10.5300     0.2571     0.0426     0.0846 5.2384e+02    -0.4606      0.290      0.420    29.0950 0.0000e+00
      0.296      0.000     4.8293     61.430    115.992 125.459070    10.6200     0.2381     0.0852     0.1269 5.1280e+02    -0.5814      0.290      0.420    29.0915 0.0000e+00
      0.296      0.000     4.7975     61.122    115.988 125.445225    10.6200     0.2152     0.0852     0.1269 5.1470e+02    -0.5512      0.290      0.420    29.0874 0.0000e+00
      0.296      0.000     4.7681     60.816    115.973 125.421241    10.6200     0.2304     0.0852     0.1269 5.0528e+02    -0.5361      0.290      0.421    29.0829 0.0000e+00
      0.296      0.000     4.7413     60.513    115.954 125.392728    10.6200     0.2648     0.0852     0.1269 5.1548e+02    -0.5512      0.290      0.421    29.0782 0.0000e+00
      0.296      0.000     4.7171     60.222    115.944 125.372088    10.6200     0.2228     0.0852     0.1269 5.1036e+02    -0.5059      0.290      0.421    29.0737 0.0000e+00
      0.296      0.000     4.6938     59.943    115.948 125.365823    10.6200     0.2457     0.0852     0.0846 5.0980e+02    -0.6268      0.290      0.421    29.0699 0.0000e+00
      0.296      0.001     4.6705     59.671    115.961 125.368259    10.6200     0.2342     0.0852     0.0846 5.1919e+02    -0.5059      0.290      0.421    29.0665 0.0000e+00
      0.296      0.001     4.6476     59.401    115.971 125.368042    10.6200     0.2648     0.0852     0.0846 5.1036e+02    -0.6268      0.290      0.421    29.0629 0.0000e+00
      0.296      0.000     4.6255     59.135    115.974 125.361111    10.6200     0.2571     0.0852     0.0846 5.1548e+02    -0.5210      0.290      0.421    29.0588 0.0000e+00
      0.297      0.000     4.6045     58.880    115.975 125.349619    10.5300     0.2571     0.0000     0.1269 5.1515e+02    -0.5059      0.291      0.422    29.0542 0.0000e+00
      0.297      0.000     4.5839     58.640    115.978 125.338504    10.5300     0.2304     0.0000     0.1269 5.0836e+02    -0.5966      0.291      0.422    29.0494 0.0000e+00
      0.296      0.000     4.5636     58.419    115.984 125.328803    10.5300     0.2571     0.0000     0.1269 5.0881e+02    -0.4002      0.291      0.422    29.0447 0.0000e+00
      0.296      0.000     4.5436     58.215    115.994 125.321931    10.5300     0.2228     0.0000     0.1269 5.1136e+02    -0.5663      0.291      0.422    29.0399 0.0000e+00
      0.297      0.001     4.5244     58.024    116.007 125.316053    10.4400     0.2266     0.0426     0.0423 5.0991e+02    -0.4908      0.291      0.422    29.0347 0.0000e+00
      0.297      0.001     4.5065     57.848    116.017 125.305601    10.4400     0.2342     0.0426     0.0423 5.0440e+02    -0.5512      0.291      0.422    29.0286 0.0000e+00
      0.297      0.000     4.4900     57.683    116.027 125.291786    10.4400     0.2495     0.0426     0.0423 5.1358e+02    -0.5210      0.291      0.423    29.0217 0.0000e+00
      0.297      0.000     4.4749     57.530    116.039 125.278928    10.4400     0.2304     0.0426     0.0423 5.0473e+02    -0.6419      0.291      0.423    29.0139 0.0000e+00
      0.297      0.000     4.4609     57.388    116.053 125.267597    10.4400     0.2342     0.0426     0.0423 5.1158e+02    -0.5512      0.291      0.423    29.0053 0.0000e+00
      0.297      0.000     4.4481     57.253    116.066 125.254770    10.4400     0.2419     0.0426     0.0423 5.1191e+02    -0.5361      0.291      0.423    28.9959 0.0000e+00
      0.297      0.000     4.4363     57.121    116.079 125.241028    10.4400     0.2190     0.0426     0.0423 5.0407e+02    -0.5059      0.291      0.423    28.9855 0.0000e+00
      0.297      0.000     4.4254     56.995    116.094 125.226706    10.4400     0.2495     0.0426     0.0423 5.1403e+02    -0.5663      0.291      0.423    28.9743 0.0000e+00
      0.297      0.000     4.4153     56.873    116.112 125.211986    10.4400     0.2419     0.0426     0.0423 4.9517e+02    -0.5210      0.291      0.423    28.9629 0.0000e+00
      0.298      0.000     4.4058     56.756    116.134 125.200943    10.5300     0.2648     0.0426     0.0846 5.2021e+02    -0.4908      0.292      0.423    28.9512 0.0000e+00
      0.298      0.000     4.3966     56.642    116.162 125.194634    10.5300     0.2075     0.0426     0.0846 5.0638e+02    -0.4908      0.292      0.423    28.9392 0.0000e+00
      0.297      0.000     4.3879     56.531    116.192 125.191372    10.5300     0.2457     0.0426     0.0846 5.0925e+02    -0.5361      0.291      0.423    28.9261 0.0000e+00
      0.297      0.000     4.3796     56.427    116.219 125.186286    10.5300     0.2457     0.0426     0.0846 5.1448e+02    -0.5663      0.291      0.423    28.9119 0.0000e+00
      0.297      0.000     4.3717     56.332    116.243 125.178017    10.5300     0.2419     0.0000     0.0846 5.0495e+02    -0.4757      0.291      0.423    28.8966 0.0000e+00
      0.297      0.000     4.3641     56.244    116.266 125.168360    10.5300     0.2419     0.0000     0.0846 5.1987e+02    -0.5512      0.291      0.423    28.8809 0.0000e+00
      0.297      0.000     4.3568     56.164    116.287 125.154739    10.5300     0.2304     0.0000     0.0846 5.0561e+02    -0.5210      0.291      0.423    28.8656 0.0000e+00
      0.297      0.000     4.3499     56.096    116.301 125.133520    10.5300     0.2228     0.0000     0.0846 5.0991e+02    -0.5663      0.291      0.423    28.8509 0.0000e+00
      0.297      0.000     4.3436     56.037    116.302 125.099041    10.6200     0.2342     0.0426     0.1692 5.0265e+02    -0.5512      0.291      0.423    28.8364 0.0000e+00
      0.297      0.000     4.3380     55.984    116.282 125.046110    10.6200     0.2571     0.0426     0.1692 5.1314e+02    -0.4757      0.291      0.423    28.8215 0.0000e+00
      0.297      0.000     4.3330     55.934    116.229 124.960608    10.6200     0.2648     0.0426     0.1692 5.0539e+02    -0.5663      0.291      0.422    28.8059 0.0000e+00
      0.296      0.000     4.3289     55.885    116.115 124.811731    10.6200     0.2266     0.0426     0.1692 5.1014e+02    -0.3246      0.291      0.422    28.7901 0.0000e+00
      0.296      0.000     4.3255     55.840    115.901 124.555776    10.6200     0.2228     0.0426     0.1692 5.1358e+02    -0.3095      0.291      0.422    28.7749 0.0000e+00
      0.296      0.000     4.3225     55.807    115.536 124.136492    10.6200     0.2228     0.0426     0.2115 5.0080e+02    -0.2642      0.291      0.422    28.7612 0.0000e+00
      0.297      0.000     4.3195     55.788    114.922 123.450072    10.6200     0.2686     0.0426     0.2115 5.0737e+02    -0.3095      0.291      0.422    28.7490 0.0000e+00
      0.297      0.000     4.3166     55.779    113.879 122.305466    10.6200     0.2571     0.0426     0.2115 5.0715e+02    -0.5512      0.291      0.422    28.7377 0.0000e+00
      0.296      0.000     4.3140     55.778    112.129 120.405446    10.6200     0.2152     0.0426     0.2115 5.0418e+02    -0.4757      0.291      0.422    28.7264 0.0000e+00
      0.296      0.000     4.3123     55.780    109.215 117.259348    10.7100     0.2266     0.0426     0.1269 5.1705e+02    -0.5512      0.291      0.421    28.7145 0.0000e+00
      0.296      0.000     4.3117     55.790    104.356 112.028209    10.7100     0.2571     0.0426     0.1269 5.0026e+02    -0.4455      0.291      0.421    28.7024 0.0000e+00
      0.296      0.000     4.3120     55.810     96.245 103.309057    10.7100     0.2419     0.0426     0.1269 5.1158e+02    -0.5059      0.291      0.421    28.6909 0.0000e+00
      0.296      0.000     4.3126     55.849     82.709  88.772780    10.7100     0.2304     0.0426     0.1269 5.2361e+02    -0.5059      0.291      0.421    28.6805 0.0000e+00
      0.296      0.000     4.3136     55.911     60.124  64.535035    10.8000     0.2342     0.0426     0.2115 5.0167e+02    -0.5210      0.291      0.422    28.6712 0.0000e+00
      0.296      0.000     4.3150     55.989     22.453  24.124418    10.8000     0.2495     0.0426     0.2115 5.0265e+02    -0.5512      0.291      0.422    28.6621 0.0000e+00
      0.296      0.000     4.3173     56.060    -40.348 -43.227234    10.8000     0.2304     0.0426     0.2115 5.2922e+02    -0.5210      0.291      0.421    28.6525 0.0000e+00
      0.296      0.000     4.3211     56.111   -145.026-155.476360    10.8000     0.2495     0.0426     0.2115 5.0539e+02    -0.6117      0.290      0.421    28.6425 0.0000e+00
      0.296      0.001     4.3267     56.145   -319.499-342.560062    10.8000     0.2381     0.0426     0.2115 5.1717e+02    -0.6117      0.290      0.421    28.6328 0.0000e+00
      0.296      0.001     4.3333     56.170   -428.539-459.488440    10.7100     0.2228     0.0426     0.1692 5.1236e+02    -0.5059      0.291      0.421    28.6241 0.0000e+00
      0.297      0.001     4.3394     56.197   -319.472-342.567509    10.7100     0.2457     0.0426     0.1692 5.1225e+02    -0.6117      0.291      0.422    28.6167 0.0000e+00
      0.297      0.001     4.3440     56.228   -144.978-155.497244    10.7100     0.2228     0.0426     0.1692 5.0517e+02    -0.4757      0.291      0.422    28.6098 0.0000e+00
      0.297      0.001     4.3472     56.258    -40.280 -43.259125    10.7100     0.2495     0.0426     0.1692 5.0936e+02    -0.5663      0.291      0.422    28.6028 0.0000e+00
      0.297      0.000     4.3498     56.282     22.545  24.085015    10.8000     0.2152     0.0426     0.0423 5.0232e+02    -0.5210      0.291      0.422    28.5951 0.0000e+00
      0.297      0.000     4.3524     56.304     60.245  64.489613    10.8000     0.2419     0.0426     0.0423 5.0123e+02    -0.5512      0.291      0.422    28.5869 0.0000e+00
      0.297      0.000     4.3554     56.335     82.869  88.729225    10.8000     0.2495     0.0426     0.0423 5.0781e+02    -0.5814      0.291      0.422    28.5789 0.0000e+00
      0.297      0.001     4.3582     56.384     96.450 103.271751    10.8000     0.2495     0.0426     0.0423 4.9700e+02    -0.5814      0.291      0.422    28.5715 0.0000e+00
      0.297      0.001     4.3606     56.453    104.611 112.003199    10.8000     0.2457     0.0000     0.1269 5.0484e+02    -0.4002      0.292      0.423    28.5645 0.0000e+00
      0.297      0.000     4.3628     56.527    109.526 117.255956    10.8000     0.2342     0.0000     0.1269 5.0980e+02    -0.4908      0.292      0.423    28.5575 0.0000e+00
      0.297      0.000     4.3657     56.592    112.487 120.414749    10.8000     0.2075     0.0000     0.1269 4.8865e+02    -0.4757      0.292      0.423    28.5501 0.0000e+00
      0.297      0.000     4.3702     56.638    114.267 122.309918    10.8000     0.2381     0.0000     0.1269 5.0936e+02    -0.5814      0.292      0.423    28.5421 0.0000e+00
      0.297      0.000     4.3761     56.676    115.340 123.446841    10.8000     0.2190     0.0426     0.0846 5.1381e+02    -0.5663      0.292      0.423    28.5342 0.0000e+00
      0.297      0.000     4.3824     56.722    115.988 124.128697    10.8000     0.2304     0.0426     0.0846 4.9971e+02    -0.5210      0.292      0.423    28.5269 0.0000e+00
      0.297      0.000     4.3879     56.783    116.381 124.537314    10.8000     0.2533     0.0426     0.0846 5.0331e+02    -0.4606      0.292      0.423    28.5203 0.0000e+00
      0.298      0.000     4.3919     56.855    116.620 124.781655    10.8000     0.2686     0.0426     0.0846 5.1303e+02    -0.5361      0.292      0.424    28.5144 0.0000e+00
      0.298      0.000     4.3953     56.932    116.766 124.926877    10.8000     0.2342     0.0426     0.0846 4.9206e+02    -0.5361      0.292      0.424    28.5088 0.0000e+00
      0.297      0.000     4.3993     57.011    116.855 125.011705    10.8000     0.2495     0.0852     0.2961 5.0375e+02    -0.5210      0.292      0.423    28.5032 0.0000e+00
      0.297      0.000     4.4045     57.090    116.904 125.054760    10.8000     0.2381     0.0852     0.2961 5.0407e+02    -0.5663      0.292      0.423    28.4978 0.0000e+00
      0.297      0.000     4.4105     57.174    116.932 125.075524    10.8000     0.2419     0.0852     0.2961 4.9442e+02    -0.5059      0.292      0.423    28.4926 0.0000e+00
      0.298      0.000     4.4169     57.268    116.955 125.091539    10.8000     0.2228     0.0852     0.2961 5.0715e+02    -0.5210      0.292      0.424    28.4879 0.0000e+00
      0.298      0.000     4.4233     57.372    116.974 125.103074    10.8000     0.2457     0.0426     0.1269 5.0320e+02    -0.5210      0.292      0.424    28.4835 0.0000e+00
      0.298      0.000     4.4298     57.482    116.990 125.113203    10.8000     0.2419     0.0426     0.1269 5.0825e+02    -0.5512      0.292      0.424    28.4794 0.0000e+00
      0.297      0.000     4.4366     57.591    117.008 125.124629    10.8000     0.2075     0.0426     0.1269 4.9906e+02    -0.5966      0.292      0.423    28.4754 0.0000e+00
      0.297      0.000     4.4442     57.696    117.026 125.136396    10.8000     0.2495     0.0426     0.1269 5.1113e+02    -0.5059      0.292      0.423    28.4716 0.0000e+00
      0.297      0.000     4.4525     57.792    117.043 125.147640    10.8000     0.2419     0.0000     0.1269 4.9420e+02    -0.5814      0.292      0.423    28.4680 0.0000e+00
      0.297      0.000     4.4613     57.877    117.058 125.157358    10.8000     0.2609     0.0000     0.1269 5.0331e+02    -0.5059      0.292      0.423    28.4647 0.0000e+00
      0.297      0.000     4.4701     57.951    117.074 125.168141    10.8000     0.2304     0.0000     0.1269 5.0627e+02    -0.5512      0.292      0.423    28.4615 0.0000e+00
      0.297      0.000     4.4784     58.023    117.090 125.178861    10.8000     0.2419     0.0000     0.1269 5.0189e+02    -0.5361      0.292      0.423    28.4584 0.0000e+00
      0.298      0.000     4.4861     58.100    117.104 125.188377    10.8000     0.2876     0.0426     0.2115 5.0770e+02    -0.5814      0.292      0.423    28.4554 0.0000e+00
      0.298      0.000     4.4929     58.184    117.116 125.195225    10.8000     0.3143     0.0426     0.2115 5.1069e+02    -0.5210      0.292      0.423    28.4526 0.0000e+00
      0.298      0.000     4.4989     58.267    117.119 125.193226    10.8000     0.2838     0.0426     0.2115 4.9496e+02    -0.5663      0.292      0.423    28.4499 0.0000e+00
      0.297      0.000     4.5046     58.341    117.117 125.185848    10.8000     0.2953     0.0426     0.2115 5.1852e+02    -0.5814      0.292      0.423    28.4473 0.0000e+00
      0.297      0.000     4.5108     58.411    117.120 125.183129    10.8000     0.3105     0.0426     0.2115 4.9939e+02    -0.5512      0.292      0.423    28.4449 0.0000e+00
      0.298      0.000     4.5176     58.488    117.118 125.176341    10.8000     0.2342     0.0426     0.0846 5.0375e+02    -0.6117      0.292      0.423    28.4425 0.0000e+00
      0.298      0.000     4.5242     58.578    117.106 125.159671    10.8000     0.2419     0.0426     0.0846 5.1649e+02    -0.4908      0.292      0.423    28.4401 0.0000e+00
      0.298      0.000     4.5301     58.677    117.099 125.148681    10.8000     0.2419     0.0426     0.0846 4.9982e+02    -0.6117      0.292      0.424    28.4378 0.0000e+00
      0.298      0.000     4.5357     58.778    117.103 125.148445    10.8000     0.2648     0.0426     0.0846 5.2100e+02    -0.4908      0.292      0.424    28.4357 0.0000e+00
      0.298      0.000     4.5419     58.872    117.112 125.154896    10.8000     0.2724     0.0426     0.0846 5.0232e+02    -0.5663      0.292      0.424    28.4337 0.0000e+00
      0.298      0.000     4.5490     58.954    117.126 125.165755    10.8000     0.2304     0.0426     0.0846 5.0123e+02    -0.5512      0.292      0.423    28.4318 0.0000e+00
      0.298      0.000     4.5568     59.026    117.138 125.175913    10.8000     0.2152     0.0426     0.0846 5.2214e+02    -0.4757      0.292      0.423    28.4301 0.0000e+00
      0.298      0.000     4.5647     59.094    117.149 125.184078    10.8000     0.2381     0.0426     0.0846 4.8421e+02    -0.5814      0.292      0.424    28.4285 0.0000e+00
      0.298      0.000     4.5722     59.161    117.155 125.188425    10.8000     0.2648     0.0426     0.0846 5.3037e+02    -0.5361      0.292      0.424    28.4269 0.0000e+00
      0.298      0.000     4.5787     59.233    117.156 125.186112    10.8000     0.2381     0.0426     0.0846 5.0947e+02    -0.5210      0.292      0.424    28.4254 0.0000e+00
      0.298      0.000     4.5844     59.309    117.157 125.184525    10.8000     0.2419     0.0426     0.0846 4.9528e+02    -0.4908      0.292      0.424    28.4239 0.0000e+00
      0.298      0.000     4.5898     59.383    117.166 125.191243    10.8000     0.2419     0.0426     0.0846 5.2612e+02    -0.4455      0.292      0.424    28.4226 0.0000e+00
      0.298      0.000     4.5952     59.448    117.181 125.204057    10.8000     0.2228     0.0426     0.0846 5.0594e+02    -0.5814      0.292      0.423    28.4214 0.0000e+00
      0.298      0.000     4.6008     59.505    117.193 125.214379    10.8000     0.2266     0.0000     0.1692 5.0211e+02    -0.4908      0.292      0.423    28.4202 0.0000e+00
      0.298      0.000     4.6068     59.565    117.201 125.220959    10.8000     0.2304     0.0000     0.1692 5.0903e+02    -0.5361      0.292      0.424    28.4190 0.0000e+00
      0.298      0.000     4.6127     59.645    117.210 125.229553    10.8000     0.2571     0.0000     0.1692 5.0781e+02    -0.5663      0.292      0.424    28.4178 0.0000e+00
      0.298     -0.001     4.6178     59.750    117.216 125.234451    10.8000     0.2686     0.0000     0.1692 5.0440e+02    -0.5361      0.292      0.424    28.4167 0.0000e+00
      0.298     -0.001     4.6223     59.870    117.217 125.232956    10.8900     0.2571     0.0426     0.1692 5.0572e+02    -0.4455      0.292      0.423    28.4156 0.0000e+00
      0.297     -0.001     4.6270     59.987    117.215 125.228671    10.8900     0.2419     0.0426     0.1692 5.0660e+02    -0.5966      0.292      0.423    28.4147 0.0000e+00
      0.297     -0.001     4.6333     60.089    117.213 125.224456    10.8900     0.2266     0.0426     0.1692 5.2032e+02    -0.5059      0.291      0.422    28.4140 0.0000e+00
      0.297     -0.001     4.6415     60.168    117.211 125.219185    10.8900     0.2190     0.0426     0.1692 4.9249e+02    -0.5059      0.291      0.422    28.4134 0.0000e+00
      0.296     -0.001     4.6509     60.231    117.205 125.211454    10.8000     0.2381     0.0426     0.0846 5.1604e+02    -0.5814      0.291      0.422    28.4127 0.0000e+00
      0.296      0.000     4.6601     60.286    117.206 125.211206    10.8000     0.2266     0.0426     0.0846 5.0969e+02    -0.5210      0.291      0.422    28.4118 0.0000e+00
      0.296      0.000     4.6680     60.332    117.211 125.214372    10.8000     0.2457     0.0426     0.0846 5.0407e+02    -0.5814      0.291      0.422    28.4107 0.0000e+00
      0.296     -0.000     4.6743     60.362    117.208 125.209793    10.8000     0.2266     0.0426     0.0846 5.2248e+02    -0.4455      0.290      0.422    28.4097 0.0000e+00
      0.296     -0.000     4.6792     60.379    117.201 125.200248    10.7100     0.2419     0.0426     0.0846 4.9046e+02    -0.5814      0.290      0.421    28.4088 0.0000e+00
      0.296     -0.000     4.6836     60.394    117.198 125.195196    10.7100     0.2419     0.0426     0.0846 5.1314e+02    -0.4908      0.290      0.421    28.4081 0.0000e+00
      0.296     -0.000     4.6872     60.425    117.208 125.205296    10.7100     0.2457     0.0426     0.0846 5.1358e+02    -0.5512      0.290      0.421    28.4075 0.0000e+00
      0.296     -0.000     4.6896     60.487    117.228 125.225237    10.7100     0.2228     0.0426     0.0846 4.9238e+02    -0.5512      0.290      0.421    28.4068 0.0000e+00
      0.296     -0.000     4.6910     60.576    117.246 125.244331    10.7100     0.2419     0.0426     0.0846 5.2509e+02    -0.5663      0.291      0.421    28.4060 0.0000e+00
      0.296      0.000     4.6923     60.674    117.258 125.255665    10.8000     0.2457     0.0000     0.2538 5.0113e+02    -0.5512      0.291      0.421    28.4052 0.0000e+00
      0.296      0.000     4.6947     60.774    117.261 125.258259    10.8000     0.2304     0.0000     0.2538 5.1403e+02    -0.4606      0.290      0.421    28.4046 0.0000e+00
      0.296      0.000     4.6995     60.866    117.264 125.260809    10.8000     0.2419     0.0000     0.2538 5.1582e+02    -0.5663      0.290      0.421    28.4042 0.0000e+00
      0.296      0.000     4.7064     60.941    117.272 125.267996    10.8000     0.2800     0.0000     0.2538 5.0892e+02    -0.4908      0.290      0.421    28.4039 0.0000e+00
      0.296      0.000     4.7141     61.005    117.278 125.273732    10.8000     0.2152     0.0426     0.1692 5.2032e+02    -0.5210      0.290      0.421    28.4036 0.0000e+00
      0.296      0.000     4.7219     61.064    117.276 125.271545    10.8000     0.2571     0.0426     0.1692 4.9895e+02    -0.5210      0.290      0.421    28.4032 0.0000e+00
      0.296      0.000     4.7291     61.115    117.273 125.268854    10.8000     0.2533     0.0426     0.1692 5.1515e+02    -0.5814      0.291      0.421    28.4027 0.0000e+00
      0.296      0.000     4.7350     61.153    117.270 125.264942    10.8000     0.2304     0.0426     0.1692 5.1638e+02    -0.4908      0.291      0.421    28.4023 0.0000e+00
      0.296      0.000     4.7399     61.182    117.264 125.258766    10.8900     0.2190     0.0852     0.0846 5.0331e+02    -0.5210      0.290      0.421    28.4021 0.0000e+00
      0.296      0.000     4.7445     61.222    117.265 125.260683    10.8900     0.2495     0.0852     0.0846 5.1818e+02    -0.5512      0.290      0.421    28.4020 0.0000e+00
      0.296     -0.001     4.7485     61.302    117.274 125.271205    10.8900     0.2571     0.0852     0.0846 4.9550e+02    -0.4908      0.290      0.421    28.4021 0.0000e+00
      0.296     -0.001     4.7514     61.442    117.286 125.285133    10.8900     0.2304     0.0852     0.0846 5.2010e+02    -0.4455      0.290      0.421    28.4021 0.0000e+00
      0.296     -0.002     4.7537     61.649    117.295 125.298180    10.8900     0.2419     0.0852     0.0846 5.0693e+02    -0.5210      0.290      0.420    28.4021 0.0000e+00
      0.295     -0.003     4.7568     61.910    117.304 125.309824    10.8000     0.2648     0.0426     0.0846 5.0803e+02    -0.5361      0.290      0.420    28.4022 0.0000e+00
      0.294     -0.003     4.7630     62.215    117.313 125.323169    10.8000     0.2495     0.0426     0.0846 5.1504e+02    -0.4757      0.289      0.418    28.4027 0.0000e+00
      0.293     -0.004     4.7738     62.559    117.328 125.341775    10.8000     0.2266     0.0426     0.0846 4.9260e+02    -0.4606      0.287      0.417    28.4036 0.0000e+00
      0.292     -0.005     4.7898     62.932    117.345 125.362599    10.8000     0.2381     0.0426     0.0846 5.1504e+02    -0.4908      0.286      0.415    28.4047 0.0000e+00
      0.290     -0.005     4.8100     63.302    117.351 125.371188    10.7100     0.2342     0.0426     0.0846 4.9722e+02    -0.5210      0.285      0.413    28.4059 0.0000e+00
      0.289     -0.006     4.8336     63.622    117.341 125.361828    10.7100     0.2304     0.0426     0.0846 5.1604e+02    -0.5361      0.283      0.411    28.4071 0.0000e+00
      0.287     -0.005     4.8602     63.841    117.327 125.348029    10.7100     0.2419     0.0426     0.0846 5.2544e+02    -0.3700      0.282      0.409    28.4083 0.0000e+00
      0.286     -0.005     4.8890     63.929    117.322 125.342120    10.7100     0.2228     0.0426     0.0846 5.0156e+02    -0.6268      0.280      0.406    28.4096 0.0000e+00
      0.284     -0.004     4.9177     63.880    117.323 125.342523    10.6200     0.2533     0.0426     0.0846 5.3141e+02    -0.4757      0.279      0.404    28.4106 0.0000e+00
      0.283     -0.003     4.9425     63.707    117.323 125.341343    10.6200     0.2495     0.0426     0.0846 5.1638e+02    -0.4002      0.278      0.403    28.4111 0.0000e+00
      0.283     -0.003     4.9595     63.453    117.319 125.338265    10.6200     0.2381     0.0426     0.0846 5.2853e+02    -0.5361      0.277      0.402    28.4113 0.0000e+00
      0.282     -0.002     4.9664     63.182    117.320 125.340471    10.6200     0.2304     0.0426     0.0846 5.3245e+02    -0.5059      0.277      0.401    28.4111 0.0000e+00
      0.282     -0.002     4.9626     62.943    117.322 125.344549    10.6200     0.2419     0.0426     0.1269 5.2635e+02    -0.5814      0.276      0.401    28.4108 0.0000e+00
      0.281     -0.002     4.9491     62.758    117.320 125.343583    10.6200     0.2419     0.0426     0.1269 5.2979e+02    -0.4606      0.276      0.400    28.4106 0.0000e+00
      0.281     -0.002     4.9294     62.616    117.317 125.341316    10.6200     0.2419     0.0426     0.1269 5.2248e+02    -0.5512      0.275      0.399    28.4108 0.0000e+00
      0.280     -0.002     4.9082     62.494    117.317 125.341147    10.6200     0.2533     0.0426     0.1269 5.5682e+02    -0.4606      0.275      0.398    28.4113 0.0000e+00
      0.279     -0.001     4.8897     62.374    117.323 125.347032    10.6200     0.2304     0.0426     0.1269 5.2841e+02    -0.4757      0.274      0.398    28.4121 0.0000e+00
      0.279     -0.001     4.8753     62.249    117.337 125.360540    10.6200     0.2495     0.0426     0.1269 5.3663e+02    -0.5966      0.274      0.397    28.4128 0.0000e+00
      0.279     -0.001     4.8642     62.123    117.350 125.373267    10.6200     0.2381     0.0426     0.1269 5.6205e+02    -0.4908      0.274      0.396    28.4132 0.0000e+00
      0.279     -0.001     4.8547     61.994    117.354 125.376604    10.6200     0.2495     0.0426     0.1269 5.0748e+02    -0.4606      0.273      0.396    28.4130 0.0000e+00
      0.278     -0.001     4.8454     61.859    117.354 125.375441    10.6200     0.2266     0.0426     0.1269 5.4143e+02    -0.6419      0.273      0.396    28.4125 0.0000e+00
      0.278     -0.001     4.8358     61.725    117.356 125.377471    10.6200     0.2533     0.0000     0.1269 5.6083e+02    -0.5210      0.273      0.396    28.4120 0.0000e+00
      0.278     -0.000     4.8260     61.603    117.358 125.379235    10.6200     0.2648     0.0000     0.1269 5.1886e+02    -0.5210      0.273      0.395    28.4115 0.0000e+00
      0.278     -0.000     4.8160     61.504    117.357 125.377201    10.6200     0.2457     0.0000     0.1269 5.3803e+02    -0.5361      0.273      0.395    28.4112 0.0000e+00
      0.278      0.000     4.8056     61.431    117.350 125.370826    10.6200     0.2533     0.0000     0.1269 5.4521e+02    -0.4908      0.273      0.396    28.4110 0.0000e+00
      0.278      0.000     4.7952     61.373    117.346 125.366414    10.6200     0.2495     0.0426     0.0846 5.2750e+02    -0.4455      0.273      0.396    28.4106 0.0000e+00
      0.278      0.000     4.7857     61.316    117.349 125.370791    10.6200     0.2304     0.0426     0.0846 5.4202e+02    -0.4606      0.273      0.396    28.4104 0.0000e+00
      0.278      0.000     4.7780     61.253    117.355 125.377121    10.6200     0.2075     0.0426     0.0846 5.2658e+02    -0.5663      0.273      0.396    28.4103 0.0000e+00
      0.278      0.000     4.7723     61.187    117.356 125.379090    10.6200     0.2266     0.0426     0.0846 5.3395e+02    -0.4455      0.273      0.396    28.4105 0.0000e+00
      0.279      0.000     4.7678     61.124    117.357 125.381225    10.6200     0.2457     0.0426     0.0846 5.4120e+02    -0.3549      0.273      0.396    28.4108 0.0000e+00
      0.279      0.001     4.7634     61.058    117.363 125.388095    10.7100     0.2495     0.0426     0.0846 5.1987e+02    -0.5966      0.273      0.396    28.4110 0.0000e+00
      0.279      0.001     4.7585     60.986    117.370 125.397531    10.7100     0.2419     0.0426     0.0846 5.3698e+02    -0.5059      0.273      0.397    28.4112 0.0000e+00
      0.279      0.001     4.7534     60.912    117.375 125.404047    10.7100     0.2648     0.0426     0.0846 5.3511e+02    -0.4757      0.273      0.397    28.4115 0.0000e+00
      0.279      0.001     4.7484     60.848    117.378 125.409380    10.7100     0.2457     0.0426     0.0846 5.1807e+02    -0.1736      0.274      0.397    28.4119 0.0000e+00
      0.280      0.001     4.7432     60.808    117.385 125.418955    10.5300     0.2609     0.0426     0.1269 5.4037e+02    -0.3549      0.274      0.397    28.4123 0.0000e+00
      0.280      0.001     4.7376     60.786    117.390 125.427320    10.5300     0.2457     0.0426     0.1269 5.2887e+02    -0.2944      0.274      0.398    28.4128 0.0000e+00
      0.280      0.001     4.7317     60.770    117.389 125.428704    10.5300     0.2495     0.0426     0.1269 5.2532e+02    -0.2793      0.274      0.398    28.4134 0.0000e+00
      0.280      0.000     4.7267     60.746    117.389 125.431479    10.5300     0.2533     0.0426     0.1269 5.4037e+02    -0.5210      0.274      0.398    28.4142 0.0000e+00
      0.280      0.000     4.7235     60.717    117.395 125.440388    10.4400     0.2495     0.0426     0.1269 5.3222e+02    -0.4304      0.274      0.398    28.4152 0.0000e+00
      0.280      0.000     4.7217     60.692    117.398 125.445800    10.4400     0.2342     0.0426     0.1269 5.3314e+02    -0.5663      0.274      0.398    28.4164 0.0000e+00
      0.280      0.000     4.7203     60.669    117.391 125.441155    10.4400     0.2228     0.0426     0.1269 5.2248e+02    -0.6268      0.274      0.398    28.4175 0.0000e+00
      0.280      0.000     4.7184     60.634    117.382 125.433220    10.4400     0.2419     0.0426     0.1269 5.4026e+02    -0.4304      0.274      0.398    28.4186 0.0000e+00
      0.280      0.000     4.7161     60.575    117.379 125.431882    10.5300     0.2419     0.0000     0.2115 5.3803e+02    -0.4757      0.274      0.398    28.4197 0.0000e+00
      0.280      0.000     4.7141     60.499    117.382 125.436785    10.5300     0.2419     0.0000     0.2115 5.0331e+02    -0.5512      0.274      0.398    28.4209 0.0000e+00
      0.280      0.000     4.7122     60.422    117.388 125.445235    10.5300     0.2342     0.0000     0.2115 5.4533e+02    -0.5210      0.275      0.398    28.4220 0.0000e+00
      0.280      0.000     4.7094     60.364    117.395 125.455485    10.5300     0.1885     0.0000     0.2115 5.3733e+02    -0.6117      0.275      0.398    28.4229 0.0000e+00
      0.280      0.000     4.7048     60.329    117.402 125.466264    10.5300     0.1770     0.0000     0.2115 5.0353e+02    -0.5663      0.275      0.399    28.4237 0.0000e+00
      0.280      0.000     4.6987     60.310    117.408 125.476448    10.5300     0.1808     0.0426     0.1692 5.4651e+02    -0.5210      0.275      0.399    28.4244 0.0000e+00
      0.280      0.000     4.6927     60.296    117.414 125.484748    10.5300     0.1846     0.0426     0.1692 5.1291e+02    -0.5512      0.275      0.399    28.4252 0.0000e+00
      0.280      0.000     4.6881     60.275    117.420 125.493380    10.5300     0.2495     0.0426     0.1692 5.2259e+02    -0.4908      0.275      0.398    28.4264 0.0000e+00
      0.280      0.000     4.6853     60.240    117.425 125.500643    10.5300     0.2304     0.0426     0.1692 5.4901e+02    -0.5361      0.275      0.398    28.4277 0.0000e+00
      0.280      0.000     4.6837     60.177    117.431 125.508475    10.5300     0.2762     0.0426     0.1269 5.1036e+02    -0.6419      0.275      0.398    28.4291 0.0000e+00
      0.280      0.000     4.6825     60.083    117.438 125.516964    10.5300     0.2304     0.0426     0.1269 5.3118e+02    -0.4002      0.275      0.398    28.4303 0.0000e+00
      0.280      0.000     4.6808     59.980    117.441 125.522370    10.5300     0.2457     0.0426     0.1269 5.2910e+02    -0.4908      0.275      0.398    28.4312 0.0000e+00
      0.280      0.000     4.6780     59.889    117.444 125.528135    10.5300     0.2342     0.0426     0.1269 5.2669e+02    -0.4908      0.275      0.398    28.4319 0.0000e+00
      0.280      0.000     4.6731     59.808    117.446 125.531797    10.5300     0.2075     0.0426     0.1269 5.2441e+02    -0.5361      0.275      0.398    28.4325 0.0000e+00
      0.280      0.000     4.6657     59.722    117.445 125.532330    10.5300     0.2533     0.0426     0.1269 5.1987e+02    -0.5966      0.275      0.398    28.4331 0.0000e+00
      0.280      0.000     4.6577     59.616    117.446 125.533879    10.5300     0.2457     0.0426     0.1269 5.4261e+02    -0.4606      0.274      0.398    28.4340 0.0000e+00
      0.280      0.000     4.6505     59.492    117.444 125.532856    10.5300     0.2381     0.0426     0.1269 5.2078e+02    -0.5210      0.274      0.398    28.4349 0.0000e+00
      0.280      0.000     4.6442     59.363    117.437 125.526985    10.5300     0.2381     0.0426     0.1269 5.2373e+02    -0.5361      0.275      0.398    28.4358 0.0000e+00
      0.280      0.000     4.6375     59.237    117.430 125.520705    10.5300     0.2419     0.0426     0.1269 5.3581e+02    -0.5663      0.275      0.398    28.4364 0.0000e+00
      0.280      0.000     4.6292     59.108    117.429 125.520343    10.5300     0.2304     0.0426     0.1269 5.2078e+02    -0.4606      0.275      0.398    28.4368 0.0000e+00
      0.280      0.000     4.6195     58.970    117.433 125.525804    10.5300     0.2113     0.0426     0.1269 5.1705e+02    -0.5663      0.275      0.398    28.4371 0.0000e+00
      0.280      0.000     4.6095     58.831    117.441 125.534542    10.5300     0.2648     0.0426     0.1269 5.2066e+02    -0.5210      0.275      0.398    28.4375 0.0000e+00
      0.280      0.000     4.5997     58.706    117.451 125.546886    10.5300     0.2495     0.0426     0.1692 5.2225e+02    -0.4908      0.275      0.398    28.4380 0.0000e+00
      0.280      0.000     4.5896     58.603    117.460 125.558125    10.5300     0.2533     0.0426     0.1692 5.1213e+02    -0.6419      0.275      0.398    28.4385 0.0000e+00
      0.280      0.000     4.5789     58.514    117.465 125.565254    10.5300     0.2304     0.0426     0.1692 5.1571e+02    -0.5210      0.275      0.398    28.4389 0.0000e+00
      0.280     -0.001     4.5681     58.421    117.467 125.570174    10.5300     0.2304     0.0426     0.1692 5.2100e+02    -0.5210      0.274      0.398    28.4393 0.0000e+00
      0.280     -0.001     4.5583     58.320    117.469 125.574196    10.7100     0.2495     0.0426     0.1269 5.1358e+02    -0.6872      0.274      0.398    28.4398 0.0000e+00
      0.279     -0.001     4.5502     58.221    117.471 125.578395    10.7100     0.2495     0.0426     0.1269 5.1448e+02    -0.4908      0.274      0.398    28.4406 0.0000e+00
      0.279     -0.001     4.5432     58.142    117.473 125.583888    10.7100     0.2342     0.0426     0.1269 5.1807e+02    -0.4606      0.274      0.397    28.4414 0.0000e+00
      0.279     -0.001     4.5360     58.098    117.473 125.588139    10.7100     0.2228     0.0426     0.1269 5.1303e+02    -0.4757      0.274      0.397    28.4423 0.0000e+00
      0.279     -0.002     4.5281     58.092    117.469 125.588281    10.7100     0.2609     0.0852     0.1692 5.1303e+02    -0.4908      0.273      0.396    28.4431 0.0000e+00
      0.278     -0.002     4.5203     58.121    117.465 125.588354    10.7100     0.2571     0.0852     0.1692 5.1303e+02    -0.6268      0.273      0.396    28.4441 0.0000e+00
      0.277     -0.002     4.5141     58.176    117.460 125.588378    10.7100     0.2304     0.0852     0.1692 5.1784e+02    -0.5210      0.272      0.395    28.4455 0.0000e+00
      0.277     -0.002     4.5105     58.235    117.455 125.586357    10.7100     0.2304     0.0852     0.1692 5.2044e+02    -0.5966      0.271      0.394    28.4472 0.0000e+00
      0.276     -0.001     4.5099     58.267    117.454 125.587756    10.7100     0.2533     0.0852     0.1692 5.4770e+02    -0.5210      0.271      0.393    28.4491 0.0000e+00
      0.276     -0.001     4.5120     58.251    117.458 125.594950    10.7100     0.2457     0.0852     0.1692 5.3861e+02    -0.4606      0.271      0.393    28.4511 0.0000e+00
      0.276     -0.000     4.5161     58.191    117.459 125.599851    10.7100     0.2381     0.0852     0.1692 5.3558e+02    -0.5059      0.271      0.393    28.4530 0.0000e+00
      0.276     -0.000     4.5205     58.103    117.453 125.597765    10.7100     0.2304     0.0852     0.1692 5.3780e+02    -0.4757      0.271      0.393    28.4547 0.0000e+00
      0.276      0.000     4.5229     57.998    117.446 125.594137    10.7100     0.2571     0.0852     0.1692 5.2818e+02    -0.5210      0.271      0.393    28.4560 0.0000e+00
      0.276      0.000     4.5216     57.858    117.435 125.586002    10.6200     0.2571     0.0852     0.2538 5.3164e+02    -0.4304      0.271      0.393    28.4571 0.0000e+00
      0.276      0.000     4.5168     57.666    117.422 125.575190    10.6200     0.2152     0.0852     0.2538 5.2441e+02    -0.5210      0.271      0.393    28.4584 0.0000e+00
      0.276      0.000     4.5099     57.423    117.418 125.572825    10.6200     0.2724     0.0852     0.2538 5.4026e+02    -0.4455      0.271      0.393    28.4603 0.0000e+00
      0.276      0.000     4.5015     57.153    117.422 125.578275    10.6200     0.2304     0.0852     0.2538 5.2441e+02    -0.4908      0.270      0.392    28.4622 0.0000e+00
      0.276      0.000     4.4905     56.889    117.427 125.584991    10.6200     0.2495     0.0426     0.0846 5.3651e+02    -0.5059      0.270      0.392    28.4638 0.0000e+00
      0.276      0.000     4.4755     56.662    117.431 125.590763    10.6200     0.2533     0.0426     0.0846 5.2876e+02    -0.5512      0.271      0.393    28.4650 0.0000e+00
      0.276      0.000     4.4566     56.484    117.435 125.597128    10.6200     0.2571     0.0426     0.0846 5.2795e+02    -0.6117      0.271      0.393    28.4657 0.0000e+00
      0.276      0.000     4.4356     56.354    117.435 125.599784    10.6200     0.2533     0.0426     0.0846 5.2704e+02    -0.5814      0.271      0.393    28.4661 0.0000e+00
      0.276      0.000     4.4152     56.258    117.431 125.597436    10.5300     0.2342     0.0852     0.2115 5.3245e+02    -0.5512      0.271      0.393    28.4666 0.0000e+00
      0.276      0.000     4.3974     56.168    117.430 125.597462    10.5300     0.1846     0.0852     0.2115 5.3071e+02    -0.4908      0.271      0.393    28.4674 0.0000e+00
      0.276      0.000     4.3835     56.061    117.437 125.605872    10.5300     0.1503     0.0852     0.2115 5.3118e+02    -0.5966      0.271      0.393    28.4684 0.0000e+00
      0.276      0.000     4.3734     55.926    117.452 125.622908    10.5300     0.1694     0.0852     0.2115 5.2715e+02    -0.5210      0.271      0.393    28.4694 0.0000e+00
      0.276      0.000     4.3659     55.768    117.465 125.639107    10.5300     0.1846     0.0852     0.2115 5.2738e+02    -0.5210      0.271      0.393    28.4703 0.0000e+00
      0.276      0.000     4.3589     55.615    117.471 125.648783    10.6200     0.2381     0.0426     0.0846 5.2968e+02    -0.5361      0.271      0.393    28.4708 0.0000e+00
      0.276      0.000     4.3505     55.497    117.475 125.658520    10.6200     0.2571     0.0426     0.0846 5.2044e+02    -0.5814      0.271      0.393    28.4712 0.0000e+00
      0.277      0.000     4.3400     55.440    117.480 125.670914    10.6200     0.2381     0.0426     0.0846 5.2407e+02    -0.5361      0.271      0.393    28.4716 0.0000e+00
      0.277      0.000     4.3277     55.466    117.481 125.681267    10.6200     0.2304     0.0426     0.0846 5.3118e+02    -0.5663      0.271      0.393    28.4724 0.0000e+00
      0.277      0.000     4.3156     55.588    117.477 125.688338    10.6200     0.2800     0.0426     0.1692 5.2032e+02    -0.4606      0.271      0.393    28.4738 0.0000e+00
      0.277      0.000     4.3063     55.824    117.475 125.702017    10.6200     0.2419     0.0426     0.1692 5.2910e+02    -0.4606      0.271      0.393    28.4761 0.0000e+00
      0.277      0.000     4.3016     56.212    117.486 125.733956    10.6200     0.2228     0.0426     0.1692 5.2612e+02    -0.5512      0.271      0.393    28.4792 0.0000e+00
      0.276      0.000     4.3033     56.833    117.508 125.788669    10.6200     0.2419     0.0426     0.1692 5.2521e+02    -0.4908      0.271      0.393    28.4832 0.0000e+00
      0.276      0.000     4.3123     57.846    117.546 125.876745    10.4400     0.1694     0.0426     0.0846 5.2646e+02    -0.4455      0.271      0.393    28.4882 0.0000e+00
      0.276      0.000     4.3299     59.533    117.606 126.017669    10.4400     0.1999     0.0426     0.0846 5.2807e+02    -0.5512      0.271      0.393    28.4946 0.0000e+00
      0.276      0.000     4.3590     62.367    117.719 126.263029    10.4400     0.1579     0.0426     0.0846 5.2044e+02    -0.5814      0.271      0.393    28.5035 0.0000e+00
      0.276      0.000     4.4057     67.105    117.849 126.596216    10.4400     0.1961     0.0426     0.0846 5.2373e+02    -0.4757      0.271      0.393    28.5166 0.0000e+00
      0.276      0.000     4.4819     74.574    117.880 126.883991    10.4400     0.1923     0.0426     0.0846 5.1965e+02    -0.2793      0.271      0.393    28.5368 0.0000e+00
      0.276      0.000     4.6089     84.797    117.812 127.071055    10.4400     0.1579     0.0852     0.2538 5.2612e+02    -0.2944      0.271      0.393    28.5692 0.0000e+00
      0.276      0.000     4.8225     96.504    117.724 127.191306    10.4400     0.1770     0.0852     0.2538 5.1863e+02    -0.2793      0.271      0.393    28.6219 0.0000e+00
      0.276      0.000     5.1799    107.903    117.657 127.276823    10.4400     0.1770     0.0852     0.2538 5.2338e+02    -0.2340      0.271      0.393    28.7043 0.0000e+00
      0.276      0.000     5.7448    117.558    117.620 127.344414    10.4400     0.2876     0.0852     0.2538 5.1987e+02    -0.1585      0.271      0.393    28.8124 0.0000e+00
      0.277      0.001     6.5204    124.616    117.592 127.386091    10.6200     0.2724     0.0426     0.1692 5.2578e+02    -0.2491      0.272      0.394    28.9228 0.0000e+00
      0.277      0.001     7.4106    128.726    117.566 127.402967    10.6200     0.2991     0.0426     0.1692 5.2179e+02    -0.2340      0.272      0.394    29.0142 0.0000e+00
      0.277      0.001     8.2784    129.947    117.543 127.407545    10.6200     0.2915     0.0426     0.1692 5.1448e+02    -0.3397      0.272      0.394    29.0812 0.0000e+00
      0.277      0.001     9.0141    128.731    117.540 127.423057    10.6200     0.1579     0.0426     0.1692 5.2566e+02    -0.2793      0.272      0.394    29.1271 0.0000e+00
      0.278      0.002     9.5519    125.932    117.558 127.455642    10.5300     0.1656     0.0426     0.2115 5.2055e+02    -0.1736      0.272      0.395    29.1573 0.0000e+00
      0.278      0.002     9.8648    122.567    117.568 127.475969    10.5300     0.1923     0.0426     0.2115 5.1492e+02    -0.2793      0.273      0.395    29.1768 0.0000e+00
      0.279      0.002     9.9571    119.394    117.562 127.479454    10.5300     0.1694     0.0426     0.2115 5.1504e+02    -0.2944      0.273      0.396    29.1892 0.0000e+00
      0.279      0.002     9.8630    116.763    117.560 127.487038    10.5300     0.1846     0.0426     0.2115 5.2010e+02    -0.2038      0.274      0.397    29.1973 0.0000e+00
      0.280      0.003     9.6480    114.742    117.561 127.500741    10.6200     0.1732     0.0426     0.0846 5.1672e+02    -0.1887      0.274      0.398    29.2029 0.0000e+00
      0.280      0.004     9.3897    113.270    117.564 127.516217    10.6200     0.1961     0.0426     0.0846 5.1436e+02    -0.2944      0.275      0.399    29.2071 0.0000e+00
      0.281      0.005     9.1461    112.247    117.569 127.529587    10.6200     0.1885     0.0426     0.0846 5.1425e+02    -0.2491      0.276      0.400    29.2110 0.0000e+00
      0.283      0.005     8.9439    111.565    117.564 127.528411    10.6200     0.1732     0.0426     0.0846 5.1425e+02     0.0077      0.277      0.402    29.2154 0.0000e+00
      0.284      0.006     8.7884    111.107    117.550 127.516377    10.6200     0.1579     0.0426     0.0846 5.1392e+02     0.0379      0.279      0.404    29.2206 0.0000e+00
      0.286      0.007     8.6749    110.760    117.539 127.506283    10.5300     0.1846     0.0426     0.2538 5.0572e+02    -0.1283      0.280      0.406    29.2256 0.0000e+00
      0.288      0.007     8.5959    110.457    117.536 127.503441    10.5300     0.1656     0.0426     0.2538 5.1470e+02    -0.0074      0.282      0.409    29.2291 0.0000e+00
      0.290      0.006     8.5434    110.198    117.539 127.507095    10.5300     0.1885     0.0426     0.2538 4.9744e+02     0.1890      0.284      0.412    29.2311 0.0000e+00
      0.292      0.006     8.5082    110.008    117.541 127.510214    10.5300     0.1503     0.0426     0.2538 5.0265e+02     0.1890      0.286      0.415    29.2322 0.0000e+00
      0.293      0.006     8.4815    109.898    117.535 127.505627    10.6200     0.1732     0.0000     0.2538 5.0594e+02     0.2192      0.287      0.417    29.2329 0.0000e+00
      0.294      0.005     8.4583    109.855    117.520 127.496110    10.6200     0.1770     0.0000     0.2538 5.0287e+02     0.1890      0.288      0.418    29.2334 0.0000e+00
      0.295      0.005     8.4384    109.862    117.509 127.495135    10.6200     0.1923     0.0000     0.2538 5.0947e+02     0.4005      0.289      0.419    29.2334 0.0000e+00
      0.296      0.004     8.4239    109.911    117.506 127.502443    10.6200     0.1732     0.0000     0.2538 5.0914e+02     0.4760      0.290      0.421    29.2335 0.0000e+00
      0.297      0.004     8.4153    109.984    117.497 127.499974    10.8000     0.1846     0.0426     0.0846 5.1269e+02     0.4911      0.291      0.423    29.2345 0.0000e+00
      0.298      0.003     8.4115    110.053    117.472 127.475063    10.8000     0.1846     0.0426     0.0846 5.0671e+02     0.4458      0.293      0.424    29.2374 0.0000e+00
      0.299      0.003     8.4114    110.096    117.443 127.443079    10.8000     0.1923     0.0426     0.0846 5.0980e+02     0.4458      0.294      0.426    29.2419 0.0000e+00
      0.300      0.002     8.4145    110.100    117.429 127.429509    10.8000     0.1923     0.0426     0.0846 4.9776e+02     0.5515      0.294      0.426    29.2466 0.0000e+00
      0.300      0.001     8.4196    110.065    117.432 127.436737    10.8000     0.1618     0.0426     0.0846 5.2350e+02     0.4156      0.294      0.427    29.2495 0.0000e+00
      0.300      0.000     8.4248    110.006    117.443 127.456686    10.8000     0.1770     0.0426     0.0846 4.9884e+02     0.4156      0.294      0.427    29.2505 0.0000e+00
      0.300     -0.001     8.4281    109.939    117.450 127.478666    10.8000     0.2304     0.0426     0.0846 5.1548e+02     0.5213      0.294      0.427    29.2505 0.0000e+00
      0.300     -0.002     8.4284    109.882    117.438 127.488530    10.8000     0.2266     0.0426     0.0846 5.0781e+02     0.4911      0.294      0.427    29.2508 0.0000e+00
      0.300     -0.003     8.4254    109.863    117.410 127.488910    10.8000     0.2419     0.0426     0.0846 5.0473e+02     0.4760      0.294      0.426    29.2525 0.0000e+00
      0.299     -0.004     8.4203    109.906    117.369 127.479908    10.8000     0.2266     0.0426     0.1692 5.1113e+02     0.4760      0.293      0.424    29.2562 0.0000e+00
      0.297     -0.004     8.4143    110.019    117.321 127.459128    10.8000     0.1732     0.0426     0.1692 5.0759e+02     0.5515      0.291      0.422    29.2625 0.0000e+00
      0.295     -0.004     8.4086    110.210    117.282 127.441041    10.8000     0.1770     0.0426     0.1692 5.2055e+02     0.4458      0.289      0.420    29.2721 0.0000e+00
      0.294     -0.003     8.4052    110.468    117.258 127.432829    10.8000     0.1846     0.0426     0.1692 5.1537e+02     0.4911      0.288      0.418    29.2853 0.0000e+00
      0.293     -0.001     8.4063    110.755    117.254 127.440308    10.9800     0.1732     0.0852     0.1692 5.2089e+02     0.3854      0.287      0.416    29.3002 0.0000e+00
      0.293      0.000     8.4129    111.028    117.262 127.457468    10.9800     0.1808     0.0852     0.1692 5.1886e+02     0.2192      0.287      0.416    29.3136 0.0000e+00
      0.294      0.002     8.4260    111.249    117.261 127.460873    10.9800     0.1923     0.0852     0.1692 5.2225e+02     0.2494      0.288      0.418    29.3240 0.0000e+00
      0.295      0.002     8.4446    111.386    117.248 127.447427    10.9800     0.2037     0.0852     0.1692 5.1347e+02     0.1739      0.289      0.419    29.3316 0.0000e+00
      0.296      0.002     8.4658    111.414    117.233 127.429554    11.1600     0.1694     0.0426     0.2115 5.1136e+02     0.1588      0.290      0.421    29.3369 0.0000e+00
      0.297      0.000     8.4862    111.321    117.219 127.414493    11.1600     0.2228     0.0426     0.2115 5.1425e+02    -0.0074      0.291      0.422    29.3402 0.0000e+00
      0.297     -0.003     8.5028    111.155    117.212 127.406230    11.1600     0.2571     0.0426     0.2115 5.0331e+02    -0.0225      0.291      0.422    29.3420 0.0000e+00
      0.296     -0.007     8.5132    110.993    117.221 127.412569    11.1600     0.2419     0.0426     0.2115 4.8802e+02    -0.1283      0.290      0.421    29.3424 0.0000e+00
      0.294     -0.012     8.5154    110.868    117.247 127.433198    11.1600     0.2304     0.0426     0.2115 4.9153e+02     0.0228      0.288      0.419    29.3420 0.0000e+00
      0.292     -0.018     8.5083    110.774    117.276 127.455609    11.0700     0.2457     0.0426     0.0423 4.7815e+02    -0.3095      0.286      0.415    29.3417 0.0000e+00
      0.287     -0.025     8.4957    110.683    117.295 127.471770    11.0700     0.2304     0.0426     0.0423 4.9603e+02    -0.4002      0.281      0.408    29.3416 0.0000e+00
      0.280     -0.032     8.4835    110.586    117.303 127.485990    11.0700     0.2419     0.0426     0.0423 4.8706e+02    -0.2944      0.274      0.398    29.3403 0.0000e+00
      0.270     -0.039     8.4744    110.516    117.315 127.518067    11.0700     0.2609     0.0426     0.0423 5.2373e+02    -0.3095      0.265      0.385    29.3370 0.0000e+00
      0.258     -0.045     8.4678    110.485    117.330 127.564552    10.9800     0.1618     0.0426     0.0846 5.4604e+02    -0.0829      0.253      0.367    29.3332 0.0000e+00
      0.244     -0.049     8.4611    110.472    117.328 127.593821    10.9800     0.1579     0.0426     0.0846 5.7677e+02    -0.0678      0.239      0.348    29.3314 0.0000e+00
      0.230     -0.051     8.4534    110.479    117.314 127.601676    10.9800     0.1885     0.0426     0.0846 5.8358e+02     0.0228      0.225      0.327    29.3337 0.0000e+00
      0.216     -0.051     8.4469    110.513    117.306 127.606223    10.9800     0.1770     0.0426     0.0846 6.3713e+02    -0.0074      0.212      0.308    29.3416 0.0000e+00
      0.203     -0.050     8.4426    110.550    117.308 127.612674    10.9800     0.1846     0.0426     0.2115 5.8574e+02    -0.0074      0.199      0.289    29.3544 0.0000e+00
      0.190     -0.046     8.4396    110.582    117.310 127.614748    10.9800     0.1618     0.0426     0.2115 6.9559e+02     0.0530      0.187      0.271    29.3678 0.0000e+00
      0.178     -0.042     8.4387    110.617    117.308 127.608993    10.9800     0.1732     0.0426     0.2115 7.1505e+02    -0.0678      0.175      0.253    29.3778 0.0000e+00
      0.167     -0.036     8.4405    110.653    117.307 127.601881    10.9800     0.1808     0.0426     0.2115 7.4245e+02    -0.1283      0.164      0.238    29.3831 0.0000e+00
      0.158     -0.030     8.4431    110.679    117.320 127.607521    10.9800     0.1846     0.0426     0.2115 7.2036e+02    -0.0829      0.155      0.225    29.3850 0.0000e+00
      0.151     -0.023     8.4455    110.700    117.344 127.623414    11.2500     0.1923     0.0852     0.1269 7.4568e+02    -0.0678      0.148      0.215    29.3847 0.0000e+00
      0.146     -0.016     8.4485    110.728    117.364 127.633790    11.2500     0.1732     0.0852     0.1269 7.3203e+02    -0.0225      0.143      0.208    29.3833 0.0000e+00
      0.144     -0.011     8.4516    110.759    117.372 127.633408    11.2500     0.2113     0.0852     0.1269 7.2665e+02    -0.0376      0.141      0.205    29.3808 0.0000e+00
      0.143     -0.006     8.4541    110.787    117.371 127.626170    11.2500     0.1732     0.0852     0.1269 7.1692e+02    -0.0376      0.140      0.204    29.3772 0.0000e+00
      0.142     -0.004     8.4563    110.824    117.367 127.618148    11.2500     0.1846     0.0852     0.1269 7.1304e+02    -0.0074      0.140      0.203    29.3728 0.0000e+00
      0.142     -0.002     8.4591    110.860    117.369 127.619210    11.2500     0.1656     0.0852     0.1269 7.1195e+02    -0.0225      0.140      0.203    29.3681 0.0000e+00
      0.142     -0.002     8.4621    110.864    117.382 127.633640    11.2500     0.1656     0.0852     0.1269 7.0395e+02    -0.0376      0.139      0.202    29.3641 0.0000e+00
      0.141     -0.001     8.4646    110.812    117.396 127.649279    11.2500     0.2304     0.0852     0.1269 7.2083e+02    -0.0225      0.138      0.201    29.3615 0.0000e+00
      0.140     -0.001     8.4676    110.703    117.403 127.658291    11.2500     0.2495     0.0000     0.1692 7.2145e+02    -0.0678      0.137      0.200    29.3601 0.0000e+00
      0.140     -0.000     8.4705    110.576    117.402 127.659077    11.2500     0.2457     0.0000     0.1692 7.2649e+02    -0.0678      0.137      0.200    29.3595 0.0000e+00
      0.140      0.001     8.4708    110.480    117.387 127.643843    11.2500     0.2381     0.0000     0.1692 7.2981e+02    -0.0678      0.137      0.200    29.3596 0.0000e+00
      0.141      0.001     8.4667    110.441    117.364 127.616531    11.2500     0.1732     0.0000     0.1692 7.2130e+02    -0.0074      0.138      0.200    29.3601 0.0000e+00
      0.141      0.002     8.4583    110.455    117.352 127.597873    11.3400     0.1999     0.0852     0.1692 7.3156e+02    -0.0376      0.138      0.201    29.3607 0.0000e+00
      0.142      0.003     8.4485    110.508    117.356 127.590896    11.3400     0.1732     0.0852     0.1692 7.2507e+02    -0.0527      0.139      0.201    29.3613 0.0000e+00
      0.142      0.004     8.4412    110.586    117.361 127.581734    11.3400     0.1770     0.0852     0.1692 7.2791e+02    -0.0980      0.140      0.203    29.3617 0.0000e+00
      0.143      0.004     8.4383    110.687    117.364 127.567942    11.3400     0.2342     0.0852     0.1692 7.2177e+02     0.0530      0.141      0.204    29.3609 0.0000e+00
      0.145      0.004     8.4398    110.787    117.362 127.549844    11.3400     0.2419     0.0852     0.1692 7.2036e+02    -0.0376      0.142      0.206    29.3583 0.0000e+00
      0.146      0.004     8.4445    110.850    117.361 127.534617    11.2500     0.2571     0.0852     0.2538 7.1926e+02    -0.0376      0.143      0.208    29.3536 0.0000e+00
      0.147      0.004     8.4513    110.894    117.363 127.526204    11.2500     0.2304     0.0852     0.2538 7.1926e+02     0.0530      0.144      0.210    29.3471 0.0000e+00
      0.148      0.004     8.4602    110.948    117.363 127.518361    11.2500     0.2533     0.0852     0.2538 7.1895e+02    -0.0225      0.145      0.211    29.3399 0.0000e+00
      0.149      0.004     8.4688    111.003    117.370 127.521000    11.2500     0.2075     0.0852     0.2538 7.1739e+02     0.1134      0.146      0.212    29.3330 0.0000e+00
      0.150      0.005     8.4745    111.045    117.390 127.542830    11.2500     0.2304     0.0426     0.1692 7.1973e+02    -0.0225      0.147      0.214    29.3272 0.0000e+00
      0.151      0.007     8.4785    111.077    117.408 127.565660    11.2500     0.2152     0.0426     0.1692 7.2240e+02    -0.0678      0.148      0.215    29.3226 0.0000e+00
      0.152      0.011     8.4832    111.102    117.410 127.571565    11.2500     0.1732     0.0426     0.1692 7.2838e+02     0.1286      0.149      0.216    29.3191 0.0000e+00
      0.154      0.017     8.4877    111.131    117.393 127.554118    11.2500     0.1885     0.0426     0.1692 7.2523e+02     0.1134      0.151      0.219    29.3172 0.0000e+00
      0.158      0.024     8.4909    111.170    117.364 127.516671    11.1600     0.1923     0.0426     0.0846 7.2918e+02     0.1437      0.155      0.224    29.3172 0.0000e+00
      0.164      0.033     8.4932    111.198    117.351 127.491259    11.1600     0.1694     0.0426     0.0846 7.3490e+02     0.1286      0.161      0.234    29.3186 0.0000e+00
      0.174      0.041     8.4948    111.180    117.365 127.497116    11.1600     0.1770     0.0426     0.0846 7.1926e+02     0.1739      0.171      0.248    29.3204 0.0000e+00
      0.187      0.050     8.4969    111.091    117.384 127.521794    11.1600     0.2037     0.0426     0.0846 7.2538e+02     0.1890      0.183      0.265    29.3210 0.0000e+00
      0.201      0.056     8.5003    110.927    117.391 127.545862    11.1600     0.1923     0.0426     0.0846 5.9098e+02     0.1890      0.197      0.286    29.3184 0.0000e+00
      0.218      0.060     8.5032    110.726    117.379 127.551727    11.1600     0.1694     0.0426     0.2961 5.6893e+02     0.2192      0.213      0.309    29.3132 0.0000e+00
      0.235      0.062     8.5024    110.527    117.356 127.536955    11.1600     0.2419     0.0426     0.2961 5.0991e+02    -0.0678      0.231      0.334    29.3094 0.0000e+00
      0.252      0.061     8.4953    110.357    117.330 127.509612    11.1600     0.2648     0.0426     0.2961 4.9463e+02     0.0228      0.247      0.358    29.3110 0.0000e+00
      0.268      0.060     8.4818    110.247    117.310 127.482419    11.1600     0.2495     0.0426     0.2961 4.7856e+02    -0.0980      0.263      0.381    29.3181 0.0000e+00
      0.283      0.058     8.4652    110.212    117.300 127.460127    11.0700     0.2533     0.0000     0.1692 5.1448e+02    -0.0225      0.277      0.402    29.3260 0.0000e+00
      0.297      0.054     8.4493    110.259    117.304 127.450799    11.0700     0.2419     0.0000     0.1692 4.6828e+02    -0.2944      0.291      0.422    29.3306 0.0000e+00
      0.310      0.050     8.4362    110.374    117.328 127.465953    11.0700     0.2686     0.0000     0.1692 4.8982e+02    -0.3095      0.304      0.441    29.3311 0.0000e+00
      0.323      0.045     8.4282    110.521    117.347 127.483614    11.0700     0.2266     0.0000     0.1692 4.5139e+02    -0.2340      0.317      0.460    29.3285 0.0000e+00
      0.335      0.039     8.4263    110.675    117.341 127.482480    10.8900     0.2495     0.0000     0.1269 4.5771e+02    -0.2038      0.329      0.477    29.3237 0.0000e+00
      0.345      0.033     8.4307    110.808    117.320 127.470253    10.8900     0.2419     0.0000     0.1269 4.5267e+02    -0.2340      0.338      0.491    29.3179 0.0000e+00
      0.352      0.027     8.4401    110.884    117.300 127.461683    10.8900     0.2304     0.0000     0.1269 4.5454e+02    -0.2944      0.345      0.501    29.3134 0.0000e+00
      0.357      0.021     8.4516    110.888    117.295 127.468492    10.8900     0.2609     0.0000     0.1269 4.6544e+02    -0.2038      0.350      0.508    29.3121 0.0000e+00
      0.361      0.016     8.4630    110.832    117.292 127.474488    10.8900     0.2495     0.0426     0.1269 4.6858e+02    -0.3246      0.354      0.513    29.3143 0.0000e+00
      0.364      0.012     8.4725    110.742    117.276 127.463261    10.8900     0.2533     0.0426     0.1269 4.6817e+02    -0.4606      0.357      0.517    29.3189 0.0000e+00
      0.366      0.009     8.4775    110.652    117.262 127.451829    10.8900     0.1656     0.0426     0.1269 4.5971e+02    -0.2642      0.359      0.520    29.3245 0.0000e+00
      0.368      0.007     8.4770    110.596    117.266 127.459152    10.8900     0.1923     0.0426     0.1269 4.6513e+02    -0.2491      0.361      0.523    29.3297 0.0000e+00
      0.369      0.005     8.4721    110.579    117.286 127.485183    10.8900     0.1694     0.0426     0.1269 4.6071e+02    -0.2491      0.362      0.525    29.3338 0.0000e+00
      0.370      0.004     8.4648    110.590    117.306 127.510850    10.8900     0.1885     0.0426     0.0846 4.6574e+02    -0.3246      0.363      0.526    29.3364 0.0000e+00
      0.371      0.003     8.4578    110.621    117.315 127.520988    10.8900     0.2495     0.0426     0.0846 4.5326e+02    -0.2944      0.364      0.527    29.3380 0.0000e+00
      0.371      0.003     8.4533    110.660    117.319 127.518302    10.8900     0.2304     0.0426     0.0846 4.6503e+02    -0.2340      0.364      0.528    29.3393 0.0000e+00
      0.372      0.004     8.4517    110.693    117.325 127.514079    10.8900     0.2686     0.0426     0.0846 4.5563e+02    -0.1585      0.364      0.528    29.3409 0.0000e+00
      0.372      0.005     8.4524    110.705    117.326 127.503192    11.0700     0.2342     0.0426     0.0846 4.6161e+02    -0.3246      0.365      0.530    29.3425 0.0000e+00
      0.374      0.006     8.4547    110.703    117.310 127.474731    11.0700     0.1885     0.0426     0.0846 4.6534e+02    -0.1736      0.367      0.532    29.3426 0.0000e+00
      0.376      0.007     8.4581    110.698    117.289 127.441116    11.0700     0.1846     0.0426     0.0846 4.5831e+02    -0.3246      0.368      0.534    29.3399 0.0000e+00
      0.378      0.009     8.4613    110.699    117.275 127.413394    11.0700     0.1732     0.0426     0.0846 4.6332e+02    -0.2340      0.370      0.537    29.3353 0.0000e+00
      0.380      0.011     8.4630    110.717    117.266 127.388174    10.9800     0.1923     0.0426     0.1692 4.6817e+02    -0.2189      0.372      0.540    29.3302 0.0000e+00
      0.382      0.014     8.4636    110.741    117.258 127.358730    10.9800     0.1656     0.0426     0.1692 4.6261e+02    -0.2793      0.375      0.543    29.3254 0.0000e+00
      0.386      0.017     8.4639    110.730    117.253 127.331215    10.9800     0.1923     0.0426     0.1692 4.5751e+02    -0.2944      0.378      0.548    29.3208 0.0000e+00
      0.390      0.022     8.4647    110.654    117.259 127.314299    10.9800     0.1656     0.0426     0.1692 4.6151e+02    -0.2944      0.383      0.555    29.3155 0.0000e+00
      0.396      0.027     8.4671    110.504    117.273 127.301470    10.9800     0.1923     0.0426     0.1692 4.5662e+02    -0.2944      0.388      0.563    29.3086 0.0000e+00
      0.403      0.034     8.4702    110.293    117.289 127.283302    10.9800     0.2876     0.0426     0.2538 4.5583e+02    -0.3700      0.396      0.574    29.3001 0.0000e+00
      0.412      0.040     8.4707    110.046    117.299 127.252949    10.9800     0.2266     0.0426     0.2538 4.4778e+02    -0.2793      0.404      0.586    29.2906 0.0000e+00
      0.423      0.045     8.4663    109.813    117.296 127.208315    10.9800     0.2495     0.0426     0.2538 4.5296e+02    -0.3549      0.415      0.602    29.2805 0.0000e+00
      0.437      0.049     8.4567    109.670    117.296 127.171511    10.9800     0.2571     0.0426     0.2538 4.1571e+02    -0.2340      0.428      0.621    29.2687 0.0000e+00
      0.452      0.051     8.4427    109.669    117.314 127.156735    10.8000     0.2648     0.0426     0.2538 4.0792e+02    -0.2340      0.443      0.642    29.2535 0.0000e+00
      0.466      0.051     8.4264    109.791    117.331 127.144035    10.8000     0.2495     0.0426     0.2538 3.9725e+02    -0.3246      0.457      0.663    29.2359 0.0000e+00
      0.480      0.050     8.4111    109.961    117.346 127.130025    10.8000     0.2571     0.0426     0.2538 3.9535e+02    -0.2944      0.470      0.682    29.2185 0.0000e+00
      0.492      0.048     8.4025    110.088    117.357 127.114969    10.8000     0.2304     0.0426     0.2538 3.9484e+02    -0.1585      0.482      0.700    29.2026 0.0000e+00
      0.503      0.046     8.4046    110.117    117.365 127.102854    10.7100     0.2381     0.0426     0.1692 3.9100e+02    -0.2944      0.493      0.716    29.1881 0.0000e+00
      0.514      0.044     8.4159    110.085    117.383 127.106455    10.7100     0.2419     0.0426     0.1692 3.9091e+02    -0.3397      0.504      0.731    29.1745 0.0000e+00
      0.525      0.043     8.4308    110.038    117.394 127.106723    10.7100     0.2266     0.0426     0.1692 3.7986e+02    -0.3397      0.515      0.746    29.1618 0.0000e+00
      0.535      0.042     8.4421    109.982    117.390 127.095725    10.7100     0.2648     0.0426     0.1692 3.8110e+02    -0.3246      0.525      0.762    29.1507 0.0000e+00
      0.546      0.041     8.4457    109.927    117.384 127.082535    10.7100     0.2419     0.0000     0.0846 3.7129e+02    -0.4304      0.535      0.777    29.1416 0.0000e+00
      0.556      0.041     8.4443    109.893    117.377 127.067636    10.7100     0.2457     0.0000     0.0846 3.7250e+02    -0.2189      0.546      0.791    29.1347 0.0000e+00
      0.567      0.042     8.4413    109.902    117.381 127.063064    10.7100     0.2304     0.0000     0.0846 3.5962e+02    -0.1283      0.556      0.806    29.1299 0.0000e+00
      0.577      0.042     8.4375    109.968    117.385 127.059593    10.7100     0.2381     0.0000     0.0846 3.6221e+02    -0.3246      0.566      0.821    29.1270 0.0000e+00
      0.588      0.042     8.4337    110.056    117.377 127.044293    10.7100     0.2457     0.0000     0.0846 3.5166e+02    -0.4606      0.577      0.836    29.1243 0.0000e+00
      0.599      0.042     8.4316    110.100    117.375 127.033094    10.8900     0.2419     0.0000     0.2115 3.4793e+02    -0.4757      0.587      0.852    29.1210 0.0000e+00
      0.610      0.043     8.4328    110.075    117.383 127.027010    10.8900     0.2419     0.0000     0.2115 3.4440e+02    -0.5663      0.598      0.867    29.1173 0.0000e+00
      0.621      0.043     8.4383    110.008    117.392 127.016415    10.8900     0.2648     0.0000     0.2115 3.3846e+02    -0.5966      0.609      0.883    29.1141 0.0000e+00
      0.632      0.044     8.4455    109.930    117.389 126.990479    10.8900     0.2991     0.0000     0.2115 3.3561e+02    -0.5361      0.619      0.899    29.1111 0.0000e+00
      0.643      0.044     8.4495    109.867    117.369 126.946285    10.8900     0.2915     0.0852     0.2115 3.3299e+02    -0.4455      0.630      0.915    29.1070 0.0000e+00
      0.654      0.044     8.4485    109.839    117.354 126.908065    10.8900     0.2953     0.0852     0.2115 3.2576e+02    -0.4455      0.642      0.931    29.1007 0.0000e+00
      0.666      0.043     8.4446    109.861    117.356 126.889635    10.8900     0.3029     0.0852     0.2115 3.2562e+02    -0.5059      0.653      0.947    29.0922 0.0000e+00
      0.677      0.041     8.4400    109.935    117.360 126.878078    10.8900     0.2991     0.0852     0.2115 3.2084e+02    -0.5210      0.664      0.963    29.0827 0.0000e+00
      0.688      0.040     8.4366    110.042    117.361 126.866308    10.8900     0.3143     0.0852     0.0846 3.1690e+02    -0.4908      0.675      0.979    29.0730 0.0000e+00
      0.698      0.037     8.4359    110.154    117.367 126.863192    10.8900     0.3029     0.0852     0.0846 3.1655e+02    -0.5512      0.685      0.993    29.0634 0.0000e+00
      0.707      0.035     8.4389    110.256    117.381 126.867899    10.8900     0.2991     0.0852     0.0846 3.1449e+02    -0.5663      0.694      1.006    29.0548 0.0000e+00
      0.715      0.032     8.4456    110.334    117.391 126.869677    10.8900     0.2800     0.0852     0.0846 3.1333e+02    -0.5512      0.702      1.018    29.0480 0.0000e+00
      0.723      0.030     8.4546    110.374    117.394 126.864999    10.8900     0.2991     0.0852     0.0846 3.0713e+02    -0.5210      0.710      1.029    29.0428 0.0000e+00
      0.731      0.029     8.4639    110.374    117.393 126.856618    10.8000     0.3143     0.0852     0.0846 3.0954e+02    -0.4606      0.717      1.040    29.0383 0.0000e+00
      0.737      0.027     8.4723    110.333    117.391 126.846301    10.8000     0.2609     0.0852     0.0846 3.0487e+02    -0.5512      0.724      1.049    29.0343 0.0000e+00
      0.744      0.027     8.4788    110.257    117.386 126.833298    10.8000     0.3220     0.0852     0.0846 3.0487e+02    -0.5210      0.730      1.059    29.0305 0.0000e+00
      0.751      0.026     8.4824    110.165    117.378 126.816142    10.8000     0.2991     0.0852     0.0846 3.0243e+02    -0.4606      0.737      1.068    29.0269 0.0000e+00
      0.757      0.026     8.4829    110.097    117.361 126.790257    10.7100     0.3067     0.0426     0.1692 2.9929e+02    -0.5210      0.743      1.078    29.0236 0.0000e+00
      0.764      0.026     8.4802    110.102    117.346 126.766748    10.7100     0.2991     0.0426     0.1692 2.9709e+02    -0.4304      0.750      1.087    29.0204 0.0000e+00
      0.771      0.025     8.4748    110.196    117.341 126.755355    10.7100     0.3067     0.0426     0.1692 2.9735e+02    -0.3700      0.756      1.097    29.0170 0.0000e+00
      0.777      0.025     8.4683    110.352    117.342 126.751036    10.7100     0.3067     0.0426     0.1692 2.9864e+02    -0.5361      0.762      1.105    29.0135 0.0000e+00
      0.783      0.026     8.4636    110.530    117.350 126.754642    10.7100     0.2953     0.0426     0.0846 2.9683e+02    -0.6570      0.768      1.114    29.0103 0.0000e+00
      0.789      0.026     8.4644    110.686    117.368 126.769134    10.7100     0.3067     0.0426     0.0846 2.9728e+02    -0.5210      0.774      1.123    29.0072 0.0000e+00
      0.796      0.027     8.4720    110.776    117.386 126.784371    10.7100     0.2876     0.0426     0.0846 2.9728e+02    -0.5512      0.781      1.132    29.0044 0.0000e+00
      0.803      0.028     8.4844    110.790    117.392 126.786406    10.7100     0.2991     0.0426     0.0846 2.9458e+02    -0.5663      0.788      1.142    29.0021 0.0000e+00
      0.811      0.029     8.4984    110.761    117.390 126.779785    10.6200     0.3220     0.0426     0.0423 2.9051e+02    -0.5059      0.795      1.153    29.0001 0.0000e+00
      0.818      0.030     8.5107    110.718    117.380 126.764742    10.6200     0.2953     0.0426     0.0423 2.9064e+02    -0.5210      0.803      1.164    28.9981 0.0000e+00
      0.826      0.031     8.5178    110.665    117.373 126.753274    10.6200     0.3182     0.0426     0.0423 2.8700e+02    -0.4908      0.810      1.175    28.9962 0.0000e+00
      0.834      0.031     8.5192    110.580    117.389 126.764331    10.6200     0.3372     0.0426     0.0423 2.8588e+02    -0.5512      0.818      1.187    28.9944 0.0000e+00
      0.842      0.031     8.5172    110.470    117.407 126.774851    10.6200     0.2953     0.0426     0.0423 2.8279e+02    -0.5210      0.826      1.198    28.9926 0.0000e+00
      0.850      0.032     8.5142    110.373    117.407 126.765629    10.6200     0.2991     0.0000     0.2115 2.8415e+02    -0.5512      0.834      1.209    28.9907 0.0000e+00
      0.858      0.032     8.5103    110.296    117.404 126.752212    10.6200     0.2838     0.0000     0.2115 2.8114e+02    -0.6872      0.842      1.221    28.9888 0.0000e+00
      0.866      0.032     8.5042    110.214    117.406 126.747029    10.6200     0.3296     0.0000     0.2115 2.8169e+02    -0.4606      0.850      1.232    28.9863 0.0000e+00
      0.875      0.032     8.4963    110.108    117.410 126.744697    10.6200     0.3029     0.0000     0.2115 2.8230e+02    -0.5814      0.857      1.244    28.9828 0.0000e+00
      0.883      0.033     8.4894    109.991    117.403 126.732587    10.6200     0.2915     0.0426     0.1692 2.8089e+02    -0.4908      0.865      1.255    28.9785 0.0000e+00
      0.891      0.034     8.4842    109.885    117.390 126.715473    10.6200     0.3220     0.0426     0.1692 2.8384e+02    -0.2944      0.873      1.267    28.9744 0.0000e+00
      0.899      0.035     8.4783    109.787    117.390 126.712802    10.6200     0.3067     0.0426     0.1692 2.7907e+02    -0.2340      0.882      1.279    28.9711 0.0000e+00
      0.908      0.036     8.4706    109.677    117.403 126.725864    10.6200     0.3182     0.0426     0.1692 2.7937e+02    -0.2642      0.891      1.292    28.9685 0.0000e+00
      0.918      0.037     8.4619    109.574    117.406 126.728127    10.7100     0.3143     0.0426     0.1269 2.7816e+02    -0.2944      0.900      1.305    28.9665 0.0000e+00
      0.927      0.039     8.4540    109.529    117.386 126.706188    10.7100     0.3792     0.0426     0.1269 2.7491e+02    -0.2642      0.909      1.319    28.9650 0.0000e+00
      0.937      0.040     8.4466    109.561    117.370 126.688213    10.7100     0.3372     0.0426     0.1269 2.7450e+02    -0.2642      0.919      1.333    28.9641 0.0000e+00
      0.948      0.042     8.4382    109.644    117.365 126.681415    10.7100     0.3449     0.0426     0.1269 2.7336e+02    -0.2642      0.929      1.348    28.9636 0.0000e+00
      0.958      0.043     8.4303    109.734    117.357 126.669973    10.7100     0.3563     0.0426     0.1269 2.6994e+02    -0.2642      0.940      1.363    28.9632 0.0000e+00
      0.970      0.044     8.4269    109.801    117.351 126.660841    10.7100     0.3029     0.0426     0.0846 2.6941e+02    -0.2944      0.951      1.379    28.9628 0.0000e+00
      0.982      0.045     8.4294    109.830    117.355 126.661587    10.7100     0.3143     0.0426     0.0846 2.6801e+02    -0.1434      0.962      1.396    28.9624 0.0000e+00
      0.994      0.046     8.4358    109.817    117.361 126.664409    10.7100     0.3372     0.0426     0.0846 2.6616e+02    -0.2793      0.974      1.413    28.9619 0.0000e+00
      1.005      0.047     8.4429    109.771    117.367 126.666055    10.7100     0.2953     0.0426     0.0846 2.6477e+02    -0.2793      0.986      1.430    28.9610 0.0000e+00
      1.017      0.048     8.4482    109.718    117.374 126.668965    10.6200     0.3029     0.0852     0.1692 2.6494e+02    -0.2189      0.997      1.447    28.9598 0.0000e+00
      1.029      0.048     8.4507    109.676    117.373 126.659910    10.6200     0.2838     0.0852     0.1692 2.6414e+02    -0.0678      1.009      1.464    28.9583 0.0000e+00
      1.041      0.049     8.4499    109.648    117.358 126.634472    10.6200     0.2991     0.0852     0.1692 2.6374e+02    -0.0678      1.021      1.481    28.9566 0.0000e+00
      1.054      0.051     8.4467    109.623    117.347 126.611880    10.6200     0.2876     0.0852     0.1692 2.6163e+02    -0.0678      1.033      1.499    28.9548 0.0000e+00
      1.067      0.052     8.4429    109.580    117.354 126.610119    10.5300     0.3143     0.0426     0.1692 2.5964e+02     0.2947      1.046      1.518    28.9525 0.0000e+00
      1.081      0.052     8.4402    109.508    117.375 126.624718    10.5300     0.3105     0.0426     0.1692 2.5678e+02     0.2343      1.060      1.538    28.9494 0.0000e+00
      1.095      0.053     8.4386    109.443    117.385 126.629554    10.5300     0.2838     0.0426     0.1692 2.5539e+02     0.1437      1.073      1.557    28.9453 0.0000e+00
      1.108      0.053     8.4374    109.414    117.373 126.611912    10.5300     0.3296     0.0426     0.1692 2.5439e+02     0.2645      1.087      1.577    28.9408 0.0000e+00
      1.122      0.053     8.4347    109.422    117.356 126.589096    10.6200     0.3296     0.0000     0.1692 2.5291e+02    -0.0678      1.100      1.596    28.9366 0.0000e+00
      1.135      0.052     8.4297    109.456    117.356 126.585037    10.6200     0.3105     0.0000     0.1692 2.5170e+02    -0.1283      1.113      1.614    28.9333 0.0000e+00
      1.148      0.053     8.4250    109.508    117.372 126.598650    10.6200     0.2991     0.0000     0.1692 2.4909e+02     0.0077      1.126      1.633    28.9308 0.0000e+00
      1.162      0.053     8.4231    109.545    117.377 126.601552    10.6200     0.3182     0.0000     0.1692 2.4822e+02     0.0832      1.139      1.652    28.9286 0.0000e+00
      1.175      0.054     8.4239    109.535    117.365 126.586513    10.6200     0.3639     0.0000     0.1692 2.4795e+02     0.1739      1.152      1.671    28.9266 0.0000e+00
      1.189      0.055     8.4269    109.466    117.347 126.565528    10.5300     0.3716     0.0426     0.1692 2.4790e+02     0.2343      1.166      1.690    28.9250 0.0000e+00
      1.203      0.057     8.4310    109.350    117.322 126.537005    10.5300     0.3792     0.0426     0.1692 2.4506e+02     0.3400      1.180      1.711    28.9237 0.0000e+00
      1.218      0.058     8.4340    109.205    117.296 126.505341    10.5300     0.3754     0.0426     0.1692 2.4368e+02     0.2343      1.194      1.732    28.9227 0.0000e+00
      1.233      0.058     8.4333    109.072    117.271 126.474100    10.5300     0.3143     0.0426     0.1692 2.4068e+02     0.4911      1.209      1.754    28.9218 0.0000e+00
      1.248      0.059     8.4282    109.000    117.251 126.446955    10.6200     0.3067     0.0426     0.1269 2.4042e+02     0.4458      1.224      1.775    28.9210 0.0000e+00
      1.263      0.058     8.4194    109.017    117.239 126.424672    10.6200     0.2991     0.0426     0.1269 2.3912e+02     0.5062      1.239      1.797    28.9201 0.0000e+00
      1.278      0.058     8.4084    109.110    117.225 126.397305    10.6200     0.3220     0.0426     0.1269 2.3638e+02     0.4156      1.253      1.818    28.9190 0.0000e+00
      1.293      0.058     8.3984    109.224    117.220 126.377566    10.6200     0.3792     0.0426     0.1269 2.3500e+02     0.5213      1.268      1.838    28.9172 0.0000e+00
      1.307      0.057     8.3932    109.304    117.240 126.384200    10.5300     0.3716     0.0426     0.0846 2.3489e+02     0.4760      1.282      1.859    28.9145 0.0000e+00
      1.321      0.057     8.3952    109.329    117.262 126.394964    10.5300     0.3792     0.0426     0.0846 2.3403e+02     0.4458      1.296      1.879    28.9106 0.0000e+00
      1.336      0.057     8.4031    109.304    117.258 126.380714    10.5300     0.3639     0.0426     0.0846 2.3246e+02     0.5364      1.310      1.900    28.9054 0.0000e+00
      1.351      0.058     8.4127    109.249    117.246 126.361659    10.5300     0.2953     0.0426     0.0846 2.3009e+02     0.4911      1.324      1.921    28.8993 0.0000e+00
      1.365      0.058     8.4199    109.181    117.246 126.356729    10.6200     0.2915     0.0000     0.1269 2.2900e+02     0.4156      1.339      1.942    28.8929 0.0000e+00
      1.380      0.058     8.4226    109.114    117.246 126.352604    10.6200     0.3105     0.0000     0.1269 2.2761e+02     0.5213      1.353      1.963    28.8873 0.0000e+00
      1.395      0.058     8.4213    109.064    117.239 126.340181    10.6200     0.3067     0.0000     0.1269 2.2687e+02     0.4307      1.368      1.984    28.8831 0.0000e+00
      1.410      0.058     8.4175    109.061    117.226 126.320148    10.6200     0.3639     0.0000     0.1269 2.2677e+02     0.1890      1.382      2.005    28.8803 0.0000e+00
      1.424      0.059     8.4125    109.133    117.212 126.295167    10.6200     0.3945     0.0000     0.1269 2.2559e+02     0.1739      1.397      2.026    28.8784 0.0000e+00
      1.439      0.059     8.4076    109.271    117.200 126.270582    10.7100     0.3716     0.0426     0.0846 2.2335e+02     0.3249      1.412      2.048    28.8768 0.0000e+00
      1.455      0.060     8.4040    109.433    117.196 126.251839    10.7100     0.3601     0.0426     0.0846 2.2209e+02     0.2494      1.427      2.069    28.8748 0.0000e+00
      1.470      0.060     8.4042    109.578    117.200 126.241945    10.7100     0.3678     0.0426     0.0846 2.2257e+02    -0.0678      1.442      2.091    28.8720 0.0000e+00
      1.485      0.060     8.4103    109.686    117.211 126.242261    10.7100     0.3716     0.0426     0.0846 2.1997e+02     0.0228      1.457      2.113    28.8681 0.0000e+00
      1.501      0.060     8.4217    109.750    117.218 126.240866    10.8000     0.3563     0.0426     0.0846 2.1878e+02    -0.0678      1.472      2.135    28.8631 0.0000e+00
      1.516      0.060     8.4351    109.759    117.217 126.233384    10.8000     0.3792     0.0426     0.0846 2.1812e+02    -0.0527      1.487      2.157    28.8569 0.0000e+00
      1.531      0.060     8.4472    109.700    117.228 126.237831    10.8000     0.3525     0.0426     0.0846 2.1731e+02     0.0379      1.502      2.178    28.8506 0.0000e+00
      1.546      0.060     8.4563    109.576    117.255 126.255393    10.8000     0.3525     0.0426     0.0846 2.1609e+02    -0.1887      1.516      2.199    28.8455 0.0000e+00
      1.561      0.059     8.4617    109.423    117.276 126.262738    10.9800     0.3754     0.0000     0.1269 2.1618e+02     0.0077      1.531      2.221    28.8419 0.0000e+00
      1.576      0.059     8.4628    109.284    117.278 126.249820    10.9800     0.3372     0.0000     0.1269 2.1450e+02    -0.1131      1.546      2.242    28.8392 0.0000e+00
      1.592      0.059     8.4588    109.177    117.279 126.239204    10.9800     0.4021     0.0000     0.1269 2.1213e+02     0.0228      1.561      2.264    28.8358 0.0000e+00
      1.607      0.058     8.4500    109.107    117.300 126.254070    10.9800     0.3906     0.0000     0.1269 2.1149e+02    -0.0225      1.576      2.286    28.8308 0.0000e+00
      1.622      0.056     8.4391    109.082    117.327 126.280372    10.9800     0.3716     0.0000     0.1269 2.0952e+02    -0.0678      1.591      2.307    28.8245 0.0000e+00
      1.637      0.054     8.4293    109.104    117.336 126.291111    10.9800     0.3868     0.0426     0.1269 2.0839e+02     0.0379      1.605      2.327    28.8181 0.0000e+00
      1.650      0.052     8.4219    109.149    117.330 126.285148    10.9800     0.3639     0.0426     0.1269 2.0775e+02     0.0077      1.618      2.346    28.8129 0.0000e+00
      1.663      0.049     8.4169    109.193    117.319 126.272899    10.9800     0.3868     0.0426     0.1269 2.0766e+02    -0.0980      1.630      2.364    28.8098 0.0000e+00
      1.674      0.047     8.4151    109.232    117.307 126.259102    10.9800     0.3678     0.0426     0.1269 2.0636e+02     0.0077      1.642      2.381    28.8087 0.0000e+00
      1.686      0.044     8.4169    109.257    117.298 126.248080    11.1600     0.3487     0.0426     0.1269 2.0591e+02    -0.0678      1.653      2.397    28.8088 0.0000e+00
      1.697      0.042     8.4203    109.246    117.289 126.236894    11.1600     0.3678     0.0426     0.1269 2.0560e+02     0.0228      1.664      2.413    28.8091 0.0000e+00
      1.707      0.041     8.4237    109.174    117.288 126.232565    11.1600     0.3792     0.0426     0.1269 2.0426e+02     0.0530      1.674      2.428    28.8089 0.0000e+00
      1.717      0.039     8.4267    109.031    117.295 126.235940    11.1600     0.3678     0.0426     0.1269 2.0355e+02     0.0077      1.684      2.442    28.8086 0.0000e+00
      1.727      0.037     8.4287    108.852    117.287 126.221907    11.1600     0.3792     0.0426     0.1269 2.0298e+02     0.0228      1.694      2.456    28.8081 0.0000e+00
      1.737      0.035     8.4280    108.711    117.271 126.198729    11.1600     0.3639     0.0426     0.1269 2.0236e+02     0.0983      1.703      2.470    28.8073 0.0000e+00
      1.745      0.032     8.4227    108.659    117.270 126.190238    11.1600     0.3716     0.0426     0.1269 2.0232e+02    -0.0980      1.711      2.482    28.8060 0.0000e+00
      1.753      0.029     8.4119    108.675    117.277 126.192169    11.1600     0.3525     0.0426     0.1269 2.0070e+02    -0.0829      1.719      2.493    28.8043 0.0000e+00
      1.761      0.025     8.3984    108.715    117.292 126.203034    11.0700     0.3678     0.0426     0.0846 2.0039e+02    -0.0225      1.726      2.504    28.8023 0.0000e+00
      1.767      0.022     8.3879    108.768    117.312 126.221729    11.0700     0.3639     0.0426     0.0846 2.0035e+02    -0.0074      1.732      2.512    28.7995 0.0000e+00
      1.771      0.018     8.3843    108.837    117.324 126.233232    11.0700     0.4364     0.0426     0.0846 2.0066e+02    -0.2340      1.737      2.519    28.7965 0.0000e+00
      1.775      0.015     8.3859    108.905    117.316 126.224601    11.0700     0.4402     0.0426     0.0846 2.0061e+02    -0.2491      1.741      2.525    28.7939 0.0000e+00
      1.778      0.012     8.3893    108.943    117.296 126.203540    11.0700     0.4288     0.0426     0.0846 2.0044e+02    -0.3246      1.744      2.529    28.7919 0.0000e+00
      1.781      0.010     8.3935    108.935    117.277 126.182441    11.0700     0.4135     0.0852     0.0846 2.0044e+02    -0.2642      1.746      2.533    28.7906 0.0000e+00
      1.783      0.009     8.3989    108.892    117.264 126.167682    11.0700     0.3639     0.0852     0.0846 2.0005e+02    -0.2189      1.748      2.536    28.7901 0.0000e+00
      1.785      0.008     8.4042    108.862    117.270 126.171336    11.0700     0.3716     0.0852     0.0846 2.0026e+02    -0.2944      1.750      2.539    28.7900 0.0000e+00
      1.787      0.008     8.4072    108.881    117.285 126.184372    11.0700     0.3792     0.0852     0.0846 2.0061e+02    -0.2944      1.752      2.541    28.7900 0.0000e+00
      1.788      0.008     8.4065    108.949    117.285 126.180253    11.0700     0.3563     0.0426     0.1692 1.9957e+02    -0.2793      1.754      2.544    28.7899 0.0000e+00
      1.790      0.008     8.4033    109.036    117.265 126.155880    11.0700     0.3868     0.0426     0.1692 1.9996e+02     0.0681      1.756      2.546    28.7894 0.0000e+00
      1.792      0.008     8.4011    109.116    117.246 126.132764    11.0700     0.3487     0.0426     0.1692 2.0000e+02    -0.0225      1.757      2.549    28.7883 0.0000e+00
      1.794      0.009     8.4029    109.179    117.244 126.126751    11.0700     0.3639     0.0426     0.1692 2.0005e+02    -0.0074      1.759      2.552    28.7868 0.0000e+00
      1.796      0.010     8.4084    109.231    117.253 126.134237    11.0700     0.3906     0.0426     0.2538 2.0052e+02    -0.0074      1.761      2.555    28.7852 0.0000e+00
      1.798      0.012     8.4153    109.278    117.266 126.145212    11.0700     0.4135     0.0426     0.2538 2.0057e+02    -0.0678      1.763      2.558    28.7839 0.0000e+00
      1.801      0.014     8.4216    109.317    117.278 126.156601    11.0700     0.4135     0.0426     0.2538 2.0066e+02    -0.0074      1.766      2.562    28.7828 0.0000e+00
      1.805      0.017     8.4266    109.343    117.295 126.173441    11.0700     0.4555     0.0426     0.2538 2.0000e+02    -0.0980      1.770      2.567    28.7815 0.0000e+00
      1.810      0.021     8.4308    109.365    117.321 126.198222    11.0700     0.4288     0.0426     0.2538 2.0044e+02    -0.0376      1.775      2.574    28.7802 0.0000e+00
      1.815      0.025     8.4346    109.391    117.344 126.219545    10.9800     0.3830     0.0426     0.1269 1.9948e+02    -0.3246      1.780      2.582    28.7791 0.0000e+00
      1.822      0.029     8.4377    109.397    117.356 126.229089    10.9800     0.3678     0.0426     0.1269 1.9987e+02    -0.3246      1.786      2.591    28.7783 0.0000e+00
      1.830      0.033     8.4399    109.373    117.360 126.229399    10.9800     0.3868     0.0426     0.1269 1.9840e+02    -0.2340      1.794      2.602    28.7775 0.0000e+00
      1.839      0.037     8.4417    109.336    117.359 126.224558    10.9800     0.3868     0.0426     0.1269 1.9771e+02    -0.2793      1.803      2.616    28.7765 0.0000e+00
      1.849      0.040     8.4439    109.298    117.356 126.217278    10.9800     0.3792     0.0426     0.2538 1.9579e+02    -0.0980      1.814      2.630    28.7752 0.0000e+00
      1.860      0.042     8.4446    109.263    117.346 126.201615    10.9800     0.3754     0.0426     0.2538 1.9545e+02    -0.0678      1.824      2.646    28.7736 0.0000e+00
      1.871      0.044     8.4430    109.239    117.328 126.177394    10.9800     0.3716     0.0426     0.2538 1.9456e+02    -0.0225      1.836      2.662    28.7719 0.0000e+00
      1.883      0.045     8.4404    109.219    117.311 126.152163    10.9800     0.3754     0.0426     0.2538 1.9359e+02    -0.0074      1.847      2.679    28.7703 0.0000e+00
      1.895      0.046     8.4377    109.189    117.298 126.131197    10.9800     0.3678     0.0426     0.1692 1.9304e+02    -0.0074      1.858      2.695    28.7686 0.0000e+00
      1.907      0.046     8.4353    109.164    117.287 126.112908    10.9800     0.3563     0.0426     0.1692 1.9200e+02    -0.0678      1.870      2.712    28.7667 0.0000e+00
      1.919      0.046     8.4338    109.168    117.276 126.094418    10.9800     0.3716     0.0426     0.1692 1.9062e+02    -0.0829      1.882      2.729    28.7643 0.0000e+00
      1.931      0.045     8.4327    109.190    117.265 126.076800    10.9800     0.3716     0.0426     0.1692 1.9038e+02    -0.0376      1.893      2.746    28.7613 0.0000e+00
      1.942      0.045     8.4308    109.213    117.257 126.061357    11.0700     0.3563     0.0000     0.1692 1.8955e+02     0.0681      1.905      2.762    28.7583 0.0000e+00
      1.953      0.044     8.4293    109.248    117.249 126.045972    11.0700     0.3716     0.0000     0.1692 1.8930e+02    -0.0074      1.915      2.778    28.7555 0.0000e+00
      1.964      0.044     8.4300    109.317    117.247 126.036546    11.0700     0.3830     0.0000     0.1692 1.8922e+02    -0.0678      1.926      2.793    28.7530 0.0000e+00
      1.975      0.043     8.4320    109.427    117.265 126.048572    11.0700     0.3716     0.0000     0.1692 1.8848e+02     0.0681      1.937      2.809    28.7504 0.0000e+00
      1.986      0.042     8.4342    109.555    117.289 126.069251    11.0700     0.3639     0.0000     0.1692 1.8738e+02    -0.0829      1.948      2.825    28.7476 0.0000e+00
      1.997      0.041     8.4374    109.651    117.301 126.078085    10.8900     0.3830     0.0426     0.1692 1.8657e+02     0.0077      1.958      2.840    28.7445 0.0000e+00
      2.007      0.039     8.4431    109.678    117.309 126.083432    10.8900     0.3563     0.0426     0.1692 1.8616e+02    -0.0829      1.969      2.855    28.7414 0.0000e+00
      2.017      0.037     8.4521    109.640    117.321 126.094721    10.8900     0.3830     0.0426     0.1692 1.8528e+02    -0.0980      1.979      2.870    28.7385 0.0000e+00
      2.027      0.035     8.4623    109.565    117.323 126.094954    10.8900     0.3601     0.0426     0.1692 1.8540e+02     0.0681      1.988      2.883    28.7362 0.0000e+00
      2.035      0.032     8.4700    109.482    117.319 126.088195    10.9800     0.3716     0.0426     0.1692 1.8528e+02     0.0379      1.996      2.895    28.7344 0.0000e+00
      2.043      0.030     8.4723    109.406    117.326 126.094651    10.9800     0.3449     0.0426     0.1692 1.8519e+02    -0.0074      2.003      2.906    28.7332 0.0000e+00
      2.050      0.028     8.4695    109.329    117.329 126.096034    10.9800     0.3716     0.0426     0.1692 1.8475e+02     0.0077      2.011      2.916    28.7322 0.0000e+00
      2.057      0.027     8.4638    109.250    117.315 126.080709    10.9800     0.3792     0.0426     0.1692 1.8443e+02     0.0228      2.017      2.926    28.7313 0.0000e+00
      2.063      0.026     8.4576    109.198    117.297 126.060595    10.8900     0.3792     0.0426     0.2115 1.8499e+02    -0.0829      2.023      2.935    28.7304 0.0000e+00
      2.070      0.026     8.4518    109.197    117.283 126.044335    10.8900     0.3716     0.0426     0.2115 1.8435e+02    -0.0980      2.029      2.943    28.7297 0.0000e+00
      2.076      0.026     8.4459    109.229    117.270 126.029594    10.8900     0.3830     0.0426     0.2115 1.8435e+02    -0.0225      2.036      2.952    28.7291 0.0000e+00
      2.082      0.026     8.4399    109.271    117.259 126.016442    10.8900     0.3754     0.0426     0.2115 1.8383e+02     0.0983      2.042      2.962    28.7288 0.0000e+00
      2.089      0.026     8.4359    109.334    117.265 126.021382    10.8900     0.3792     0.0426     0.2115 1.8331e+02    -0.0527      2.049      2.971    28.7285 0.0000e+00
      2.096      0.027     8.4359    109.427    117.288 126.043729    10.9800     0.3716     0.0426     0.2115 1.8319e+02     0.0530      2.056      2.981    28.7282 0.0000e+00
      2.103      0.028     8.4384    109.536    117.308 126.063430    10.9800     0.3792     0.0426     0.2115 1.8288e+02    -0.0376      2.062      2.991    28.7278 0.0000e+00
      2.110      0.028     8.4418    109.628    117.322 126.075736    10.9800     0.3716     0.0426     0.2115 1.8280e+02    -0.0074      2.069      3.001    28.7273 0.0000e+00
      2.117      0.029     8.4467    109.683    117.330 126.081927    10.9800     0.3639     0.0426     0.2115 1.8165e+02    -0.0376      2.076      3.011    28.7266 0.0000e+00
      2.125      0.030     8.4540    109.686    117.330 126.079652    10.9800     0.3601     0.0000     0.1692 1.8161e+02     0.0228      2.084      3.022    28.7258 0.0000e+00
      2.133      0.030     8.4625    109.640    117.316 126.062301    10.9800     0.3639     0.0000     0.1692 1.8102e+02    -0.0074      2.091      3.033    28.7249 0.0000e+00
      2.140      0.031     8.4698    109.577    117.283 126.023247    10.9800     0.3716     0.0000     0.1692 1.8039e+02     0.0228      2.099      3.044    28.7239 0.0000e+00
      2.148      0.031     8.4743    109.531    117.226 125.960078    10.9800     0.3868     0.0000     0.1692 1.8008e+02     0.0379      2.107      3.055    28.7228 0.0000e+00
      2.156      0.031     8.4747    109.518    117.132 125.855949    10.9800     0.3716     0.0426     0.1692 1.7976e+02    -0.0527      2.115      3.067    28.7217 0.0000e+00
      2.164      0.031     8.4712    109.540    116.979 125.689095    10.9800     0.3525     0.0426     0.1692 1.7933e+02     0.0228      2.123      3.078    28.7205 0.0000e+00
      2.172      0.032     8.4665    109.580    116.740 125.429026    10.9800     0.3716     0.0426     0.1692 1.7891e+02    -0.0225      2.130      3.090    28.7194 0.0000e+00
      2.180      0.032     8.4631    109.614    116.349 125.006392    10.9800     0.3411     0.0426     0.1692 1.7856e+02    -0.0225      2.138      3.101    28.7182 0.0000e+00
      2.188      0.033     8.4623    109.629    115.694 124.300487    10.9800     0.3868     0.0852     0.1269 1.7848e+02     0.0228      2.146      3.112    28.7170 0.0000e+00
      2.196      0.033     8.4642    109.623    114.613 123.135075    10.9800     0.3639     0.0852     0.1269 1.7813e+02     0.0379      2.154      3.124    28.7158 0.0000e+00
      2.205      0.034     8.4675    109.586    112.841 121.227389    10.9800     0.3563     0.0852     0.1269 1.7782e+02    -0.0376      2.162      3.136    28.7147 0.0000e+00
      2.214      0.036     8.4703    109.521    109.908 118.072717    10.9800     0.3563     0.0852     0.1269 1.7732e+02    -0.0074      2.171      3.148    28.7135 0.0000e+00
      2.223      0.037     8.4717    109.460    105.029 112.829811    10.9800     0.3716     0.0852     0.1269 1.7636e+02    -0.0074      2.180      3.162    28.7122 0.0000e+00
      2.232      0.038     8.4715    109.431     96.911 104.108567    10.9800     0.3639     0.0426     0.1692 1.7655e+02     0.0379      2.189      3.175    28.7105 0.0000e+00
      2.242      0.039     8.4689    109.431     83.382  89.575315    10.9800     0.3792     0.0426     0.1692 1.7594e+02    -0.0074      2.199      3.189    28.7085 0.0000e+00
      2.252      0.040     8.4641    109.456     60.824  65.346518    10.9800     0.3639     0.0426     0.1692 1.7582e+02    -0.0376      2.209      3.203    28.7065 0.0000e+00
      2.262      0.042     8.4597    109.503     23.215  24.953161    10.9800     0.3678     0.0426     0.1692 1.7468e+02     0.0228      2.219      3.218    28.7047 0.0000e+00
      2.273      0.043     8.4577    109.561    -39.484 -42.384322    10.9800     0.3716     0.0852     0.2538 1.7430e+02    -0.0376      2.230      3.234    28.7032 0.0000e+00
      2.285      0.043     8.4580    109.620   -143.990-154.618593    10.9800     0.3792     0.0852     0.2538 1.7381e+02    -0.0225      2.241      3.250    28.7016 0.0000e+00
      2.296      0.044     8.4602    109.659   -318.180-341.686793    10.9800     0.3983     0.0852     0.2538 1.7290e+02     0.1286      2.252      3.266    28.6998 0.0000e+00
      2.307      0.044     8.4642    109.645   -427.063-458.619540    10.9800     0.3449     0.0852     0.2538 1.7234e+02    -0.0678      2.263      3.282    28.6980 0.0000e+00
      2.319      0.044     8.4690    109.570   -318.211-341.724653    11.0700     0.3563     0.0426     0.1269 1.7219e+02     0.0681      2.274      3.298    28.6961 0.0000e+00
      2.330      0.043     8.4739    109.452   -144.039-154.680397    11.0700     0.3830     0.0426     0.1269 1.7152e+02    -0.0074      2.285      3.314    28.6945 0.0000e+00
      2.341      0.043     8.4772    109.315    -39.539 -42.458540    11.0700     0.3754     0.0426     0.1269 1.7137e+02     0.0228      2.296      3.329    28.6931 0.0000e+00
      2.352      0.043     8.4765    109.170     23.165  24.878751    11.0700     0.3754     0.0426     0.1269 1.7074e+02    -0.1131      2.306      3.345    28.6920 0.0000e+00
      2.363      0.043     8.4707    109.031     60.795  65.288087    11.0700     0.3601     0.0426     0.1269 1.6996e+02     0.0379      2.317      3.361    28.6911 0.0000e+00
      2.374      0.043     8.4615    108.918     83.380  89.541289    10.9800     0.3945     0.0426     0.1692 1.6945e+02    -0.0074      2.328      3.376    28.6904 0.0000e+00
      2.384      0.043     8.4509    108.843     96.940 104.101876    10.9800     0.3716     0.0426     0.1692 1.6941e+02    -0.0376      2.338      3.392    28.6897 0.0000e+00
      2.395      0.043     8.4397    108.801    105.080 112.840666    10.9800     0.3716     0.0426     0.1692 1.6875e+02    -0.0225      2.349      3.407    28.6892 0.0000e+00
      2.406      0.043     8.4290    108.773    109.961 118.080000    10.9800     0.3716     0.0426     0.1692 1.6856e+02     0.0681      2.359      3.422    28.6886 0.0000e+00
      2.417      0.044     8.4204    108.743    112.896 121.229037    10.9800     0.3754     0.0426     0.1269 1.6827e+02     0.2192      2.370      3.438    28.6880 0.0000e+00
      2.428      0.044     8.4147    108.710    114.675 123.135526    10.9800     0.3563     0.0426     0.1269 1.6736e+02     0.1437      2.381      3.454    28.6873 0.0000e+00
      2.440      0.045     8.4115    108.680    115.747 124.283851    10.9800     0.3639     0.0426     0.1269 1.6718e+02     0.2494      2.392      3.470    28.6864 0.0000e+00
      2.451      0.046     8.4095    108.658    116.380 124.960224    10.9800     0.3372     0.0426     0.1269 1.6624e+02     0.2796      2.404      3.486    28.6852 0.0000e+00
      2.463      0.046     8.4074    108.633    116.756 125.361019    10.9800     0.3563     0.0426     0.1692 1.6588e+02     0.2645      2.415      3.503    28.6839 0.0000e+00
      2.475      0.047     8.4051    108.583    116.994 125.613122    10.9800     0.3639     0.0426     0.1692 1.6523e+02     0.1890      2.427      3.520    28.6825 0.0000e+00
      2.487      0.048     8.4030    108.498    117.152 125.779758    10.9800     0.3678     0.0426     0.1692 1.6462e+02     0.2645      2.439      3.537    28.6810 0.0000e+00
      2.499      0.048     8.4014    108.392    117.256 125.887357    10.9800     0.3792     0.0426     0.1692 1.6433e+02     0.2192      2.451      3.555    28.6796 0.0000e+00
      2.511      0.049     8.3997    108.288    117.311 125.942601    11.0700     0.3678     0.0426     0.1692 1.6366e+02     0.1890      2.463      3.572    28.6782 0.0000e+00
      2.524      0.049     8.3960    108.215    117.326 125.954219    11.0700     0.3678     0.0426     0.1692 1.6295e+02     0.2041      2.475      3.590    28.6768 0.0000e+00
      2.536      0.049     8.3897    108.175    117.323 125.947319    11.0700     0.3868     0.0426     0.1692 1.6245e+02     0.2041      2.487      3.608    28.6753 0.0000e+00
      2.549      0.049     8.3817    108.148    117.327 125.948072    11.0700     0.3372     0.0426     0.1692 1.6171e+02     0.2494      2.500      3.626    28.6737 0.0000e+00
      2.562      0.049     8.3740    108.119    117.339 125.956680    11.0700     0.3678     0.0426     0.1692 1.6150e+02     0.2645      2.512      3.644    28.6719 0.0000e+00
      2.574      0.049     8.3686    108.082    117.346 125.959430    10.9800     0.3449     0.0426     0.2115 1.6077e+02     0.1588      2.524      3.661    28.6702 0.0000e+00
      2.586      0.049     8.3657    108.047    117.349 125.957056    10.9800     0.3792     0.0426     0.2115 1.6073e+02     0.1739      2.536      3.678    28.6686 0.0000e+00
      2.598      0.049     8.3639    108.028    117.351 125.952926    10.9800     0.3792     0.0426     0.2115 1.6021e+02     0.2494      2.548      3.695    28.6671 0.0000e+00
      2.611      0.050     8.3619    108.027    117.357 125.953942    10.9800     0.3449     0.0426     0.2115 1.5951e+02     0.1890      2.560      3.713    28.6654 0.0000e+00
      2.623      0.051     8.3593    108.038    117.376 125.968378    10.9800     0.3639     0.0426     0.1269 1.5924e+02     0.1890      2.573      3.731    28.6633 0.0000e+00
      2.637      0.052     8.3570    108.047    117.400 125.988078    10.9800     0.3678     0.0426     0.1269 1.5830e+02     0.2343      2.586      3.750    28.6608 0.0000e+00
      2.650      0.053     8.3559    108.044    117.409 125.992283    10.9800     0.3792     0.0426     0.1269 1.5799e+02     0.2343      2.599      3.769    28.6582 0.0000e+00
      2.663      0.053     8.3562    108.030    117.400 125.976112    10.9800     0.3754     0.0426     0.1269 1.5738e+02     0.2494      2.612      3.788    28.6556 0.0000e+00
      2.677      0.054     8.3574    108.007    117.384 125.953261    11.1600     0.3678     0.0426     0.2115 1.5659e+02     0.0983      2.625      3.808    28.6530 0.0000e+00
      2.691      0.054     8.3584    107.969    117.370 125.931641    11.1600     0.3563     0.0426     0.2115 1.5578e+02     0.2192      2.639      3.827    28.6506 0.0000e+00
      2.705      0.054     8.3586    107.913    117.354 125.909488    11.1600     0.3487     0.0426     0.2115 1.5500e+02     0.3098      2.653      3.847    28.6481 0.0000e+00
      2.719      0.054     8.3579    107.832    117.333 125.880895    11.1600     0.3639     0.0426     0.2115 1.5467e+02     0.2796      2.666      3.867    28.6456 0.0000e+00
      2.733      0.054     8.3564    107.743    117.306 125.846240    11.1600     0.3830     0.0426     0.2115 1.5406e+02     0.2796      2.680      3.887    28.6430 0.0000e+00
      2.747      0.054     8.3539    107.684    117.280 125.812289    11.3400     0.3563     0.0426     0.1692 1.5313e+02     0.2192      2.694      3.907    28.6405 0.0000e+00
      2.761      0.053     8.3499    107.676    117.265 125.789996    11.3400     0.3906     0.0426     0.1692 1.5270e+02     0.2494      2.707      3.926    28.6380 0.0000e+00
      2.774      0.053     8.3440    107.698    117.259 125.777417    11.3400     0.3563     0.0426     0.1692 1.5190e+02     0.2494      2.720      3.945    28.6357 0.0000e+00
      2.787      0.052     8.3374    107.718    117.252 125.763194    11.3400     0.3601     0.0426     0.1692 1.5164e+02     0.2494      2.733      3.964    28.6333 0.0000e+00
      2.800      0.050     8.3332    107.731    117.247 125.751538    11.3400     0.3639     0.0426     0.0846 1.5105e+02     0.2343      2.746      3.983    28.6308 0.0000e+00
      2.813      0.049     8.3330    107.754    117.253 125.751344    11.3400     0.3792     0.0426     0.0846 1.5026e+02     0.2947      2.759      4.001    28.6282 0.0000e+00
      2.826      0.046     8.3351    107.781    117.264 125.758559    11.3400     0.3754     0.0426     0.0846 1.4987e+02     0.1739      2.771      4.019    28.6255 0.0000e+00
      2.838      0.043     8.3371    107.786    117.278 125.771104    11.3400     0.3639     0.0426     0.0846 1.4857e+02     0.2343      2.783      4.036    28.6226 0.0000e+00
      2.849      0.039     8.3385    107.762    117.306 125.800328    11.3400     0.3678     0.0000     0.0423 1.4818e+02     0.2645      2.794      4.052    28.6198 0.0000e+00
      2.859      0.035     8.3406    107.716    117.337 125.834017    11.3400     0.3563     0.0000     0.0423 1.4799e+02     0.2494      2.803      4.066    28.6173 0.0000e+00
      2.867      0.030     8.3430    107.662    117.346 125.845139    11.3400     0.3525     0.0000     0.0423 1.4789e+02     0.2343      2.811      4.078    28.6154 0.0000e+00
      2.874      0.025     8.3436    107.626    117.344 125.844662    11.3400     0.3945     0.0000     0.0423 1.4786e+02     0.2343      2.818      4.087    28.6143 0.0000e+00
      2.880      0.021     8.3417    107.620    117.349 125.852468    11.3400     0.3411     0.0426     0.1269 1.4751e+02     0.2796      2.824      4.095    28.6139 0.0000e+00
      2.884      0.017     8.3381    107.634    117.347 125.850632    11.3400     0.3639     0.0426     0.1269 1.4754e+02     0.2645      2.828      4.102    28.6141 0.0000e+00
      2.888      0.014     8.3339    107.672    117.339 125.842664    11.3400     0.3792     0.0426     0.1269 1.4764e+02     0.2645      2.832      4.107    28.6147 0.0000e+00
      2.891      0.011     8.3310    107.746    117.351 125.854452    11.3400     0.3639     0.0426     0.1269 1.4780e+02     0.2192      2.835      4.111    28.6154 0.0000e+00
      2.893      0.009     8.3304    107.830    117.368 125.873132    11.3400     0.3449     0.0426     0.1269 1.4777e+02     0.2796      2.837      4.115    28.6161 0.0000e+00
      2.895      0.007     8.3315    107.883    117.373 125.879676    11.3400     0.3830     0.0000     0.1692 1.4770e+02     0.2343      2.839      4.117    28.6164 0.0000e+00
      2.897      0.006     8.3344    107.873    117.368 125.875829    11.3400     0.3563     0.0000     0.1692 1.4761e+02     0.2947      2.841      4.120    28.6165 0.0000e+00
      2.898      0.004     8.3401    107.795    117.363 125.872570    11.3400     0.4440     0.0000     0.1692 1.4745e+02     0.3249      2.842      4.122    28.6164 0.0000e+00
      2.899      0.003     8.3467    107.664    117.369 125.881035    11.3400     0.4326     0.0000     0.1692 1.4777e+02     0.2494      2.842      4.123    28.6164 0.0000e+00
      2.899      0.003     8.3507    107.504    117.377 125.891477    11.3400     0.4212     0.0426     0.1692 1.4809e+02     0.2494      2.843      4.123    28.6167 0.0000e+00
      2.899      0.002     8.3498    107.357    117.368 125.882670    11.3400     0.4364     0.0426     0.1692 1.4812e+02     0.1437      2.843      4.123    28.6175 0.0000e+00
      2.899      0.002     8.3437    107.276    117.353 125.868273    11.3400     0.3601     0.0426     0.1692 1.4783e+02     0.2645      2.843      4.124    28.6184 0.0000e+00
      2.900      0.002     8.3334    107.287    117.356 125.872457    11.3400     0.3792     0.0426     0.1692 1.4764e+02     0.1890      2.844      4.124    28.6193 0.0000e+00
      2.901      0.003     8.3209    107.364    117.367 125.884334    11.3400     0.3563     0.0426     0.1269 1.4777e+02     0.2494      2.844      4.125    28.6201 0.0000e+00
      2.901      0.003     8.3094    107.462    117.368 125.887063    11.3400     0.3678     0.0426     0.1269 1.4789e+02     0.1890      2.845      4.126    28.6207 0.0000e+00
      2.902      0.004     8.3031    107.553    117.359 125.877369    11.3400     0.4517     0.0426     0.1269 1.4857e+02     0.3703      2.845      4.127    28.6211 0.0000e+00
      2.902      0.004     8.3039    107.610    117.341 125.856670    11.3400     0.4440     0.0426     0.1269 1.4841e+02     0.1890      2.846      4.128    28.6214 0.0000e+00
      2.903      0.006     8.3097    107.615    117.317 125.827448    11.3400     0.4326     0.0426     0.2961 1.4844e+02     0.1286      2.847      4.129    28.6219 0.0000e+00
      2.905      0.007     8.3173    107.592    117.292 125.797919    11.3400     0.4669     0.0426     0.2961 1.4851e+02     0.2192      2.848      4.131    28.6222 0.0000e+00
      2.907      0.010     8.3244    107.581    117.283 125.784217    11.3400     0.3830     0.0426     0.2961 1.4825e+02     0.3249      2.850      4.134    28.6222 0.0000e+00
      2.909      0.013     8.3288    107.598    117.286 125.782689    11.3400     0.3639     0.0426     0.2961 1.4864e+02     0.1588      2.853      4.138    28.6216 0.0000e+00
      2.912      0.016     8.3294    107.639    117.294 125.784923    11.3400     0.3716     0.0426     0.2961 1.4847e+02     0.2796      2.856      4.142    28.6204 0.0000e+00
      2.916      0.020     8.3279    107.695    117.307 125.791515    11.3400     0.4059     0.0426     0.2115 1.4838e+02     0.2192      2.860      4.148    28.6189 0.0000e+00
      2.922      0.025     8.3273    107.756    117.319 125.796220    11.3400     0.3601     0.0426     0.2115 1.4838e+02     0.4156      2.865      4.156    28.6173 0.0000e+00
      2.929      0.029     8.3289    107.823    117.330 125.800290    11.3400     0.3639     0.0426     0.2115 1.4741e+02     0.4760      2.872      4.166    28.6154 0.0000e+00
      2.937      0.033     8.3324    107.904    117.337 125.800809    11.3400     0.3716     0.0426     0.2115 1.4681e+02     0.4911      2.880      4.178    28.6128 0.0000e+00
      2.946      0.036     8.3372    107.995    117.336 125.793914    11.3400     0.3678     0.0852     0.2538 1.4639e+02     0.4156      2.889      4.191    28.6096 0.0000e+00
      2.956      0.039     8.3424    108.085    117.329 125.781767    11.3400     0.4440     0.0852     0.2538 1.4604e+02     0.2494      2.899      4.205    28.6061 0.0000e+00
      2.967      0.041     8.3481    108.164    117.317 125.765131    11.3400     0.4364     0.0852     0.2538 1.4409e+02     0.2494      2.910      4.220    28.6028 0.0000e+00
      2.978      0.042     8.3548    108.214    117.303 125.747572    11.3400     0.4135     0.0852     0.2538 1.4396e+02     0.1588      2.920      4.236    28.5998 0.0000e+00
      2.989      0.043     8.3622    108.213    117.295 125.736413    11.4300     0.3945     0.0426     0.2961 1.4312e+02     0.1890      2.931      4.251    28.5973 0.0000e+00
      3.000      0.043     8.3695    108.155    117.297 125.736681    11.4300     0.3830     0.0426     0.2961 1.4309e+02     0.3249      2.942      4.267    28.5953 0.0000e+00
      3.011      0.043     8.3758    108.068    117.302 125.740445    11.4300     0.3716     0.0426     0.2961 1.4256e+02     0.1890      2.952      4.282    28.5938 0.0000e+00
      3.022      0.043     8.3798    107.980    117.312 125.748708    11.4300     0.3792     0.0426     0.2961 1.4167e+02     0.1588      2.963      4.298    28.5926 0.0000e+00
      3.033      0.043     8.3799    107.911    117.324 125.759672    11.4300     0.3639     0.0426     0.2961 1.4117e+02     0.1739      2.974      4.314    28.5916 0.0000e+00
      3.044      0.043     8.3756    107.873    117.320 125.752250    11.5200     0.4517     0.0852     0.1692 1.4047e+02     0.5062      2.985      4.330    28.5908 0.0000e+00
      3.055      0.043     8.3689    107.855    117.301 125.728464    11.5200     0.4288     0.0852     0.1692 1.4011e+02     0.5515      2.996      4.345    28.5900 0.0000e+00
      3.066      0.043     8.3622    107.847    117.283 125.705983    11.5200     0.4440     0.0852     0.1692 1.3938e+02     0.6422      3.007      4.361    28.5891 0.0000e+00
      3.077      0.043     8.3570    107.849    117.273 125.690814    11.5200     0.4517     0.0852     0.1692 1.3889e+02     0.4458      3.017      4.376    28.5881 0.0000e+00
      3.088      0.043     8.3543    107.851    117.273 125.686918    11.5200     0.4440     0.0852     0.0846 1.3823e+02     0.5515      3.028      4.392    28.5869 0.0000e+00
      3.099      0.043     8.3531    107.831    117.291 125.701258    11.5200     0.4326     0.0852     0.0846 1.3802e+02     0.4458      3.039      4.407    28.5855 0.0000e+00
      3.110      0.044     8.3527    107.770    117.311 125.717648    11.5200     0.4364     0.0852     0.0846 1.3742e+02     0.4458      3.050      4.423    28.5839 0.0000e+00
      3.121      0.045     8.3531    107.670    117.312 125.712448    11.5200     0.4288     0.0852     0.0846 1.3718e+02     0.5213      3.061      4.439    28.5822 0.0000e+00
      3.132      0.046     8.3536    107.556    117.295 125.688272    11.6100     0.4593     0.0426     0.2115 1.3668e+02     0.4760      3.072      4.455    28.5803 0.0000e+00
      3.144      0.047     8.3523    107.439    117.277 125.660683    11.6100     0.4364     0.0426     0.2115 1.3597e+02     0.5213      3.083      4.472    28.5782 0.0000e+00
      3.156      0.048     8.3479    107.307    117.273 125.648333    11.6100     0.4669     0.0426     0.2115 1.3549e+02     0.4458      3.095      4.489    28.5760 0.0000e+00
      3.168      0.049     8.3405    107.153    117.276 125.641928    11.6100     0.4440     0.0426     0.2115 1.3482e+02     0.4307      3.107      4.506    28.5736 0.0000e+00
      3.181      0.050     8.3320    107.010    117.274 125.629753    11.6100     0.4212     0.0000     0.2115 1.3426e+02     0.4307      3.119      4.525    28.5708 0.0000e+00
      3.194      0.051     8.3235    106.920    117.274 125.620567    11.6100     0.4517     0.0000     0.2115 1.3362e+02     0.4911      3.132      4.544    28.5676 0.0000e+00
      3.208      0.052     8.3138    106.889    117.272 125.607918    11.6100     0.4364     0.0000     0.2115 1.3221e+02     0.4760      3.146      4.563    28.5640 0.0000e+00
      3.221      0.053     8.3025    106.885    117.261 125.586431    11.6100     0.4097     0.0000     0.2115 1.3198e+02     0.5062      3.159      4.582    28.5600 0.0000e+00
      3.235      0.053     8.2920    106.886    117.252 125.566384    11.6100     0.4593     0.0000     0.2115 1.3141e+02     1.0198      3.172      4.601    28.5558 0.0000e+00
      3.248      0.053     8.2856    106.881    117.250 125.552433    11.5200     0.4364     0.1278     0.2538 1.3089e+02     0.9443      3.185      4.620    28.5515 0.0000e+00
      3.262      0.052     8.2839    106.856    117.249 125.538857    11.5200     0.4326     0.1278     0.2538 1.2996e+02     0.9443      3.199      4.640    28.5474 0.0000e+00
      3.275      0.052     8.2842    106.799    117.242 125.518034    11.5200     0.4517     0.1278     0.2538 1.2920e+02     1.0803      3.212      4.659    28.5433 0.0000e+00
      3.289      0.051     8.2849    106.702    117.227 125.488411    11.5200     0.4898     0.1278     0.2538 1.2847e+02     1.1558      3.225      4.678    28.5388 0.0000e+00
      3.302      0.050     8.2852    106.571    117.203 125.448091    11.5200     0.4822     0.0426     0.2961 1.2822e+02     1.1709      3.238      4.696    28.5339 0.0000e+00
      3.314      0.050     8.2841    106.421    117.165 125.390323    11.5200     0.4936     0.0426     0.2961 1.2769e+02     1.2615      3.250      4.714    28.5284 0.0000e+00
      3.326      0.049     8.2805    106.253    117.121 125.321711    11.5200     0.4936     0.0426     0.2961 1.2761e+02     1.1256      3.262      4.731    28.5226 0.0000e+00
      3.339      0.049     8.2738    106.060    117.076 125.245966    11.5200     0.5432     0.0426     0.2961 1.2637e+02     2.6815      3.274      4.749    28.5167 0.0000e+00
      3.351      0.049     8.2645    105.836    117.032 125.162898    11.7000     0.5280     0.0426     0.2538 1.2595e+02     2.5456      3.286      4.767    28.5104 0.0000e+00
      3.364      0.050     8.2539    105.548    116.995 125.078363    11.7000     0.5318     0.0426     0.2538 1.2574e+02     2.6211      3.299      4.785    28.5032 0.0000e+00
      3.377      0.049     8.2422    105.126    116.963 124.991826    11.7000     0.5089     0.0426     0.2538 1.2522e+02     2.5909      3.311      4.803    28.4942 0.0000e+00
      3.390      0.049     8.2289    104.518    116.945 124.920220    11.7000     0.5470     0.0426     0.2538 1.2392e+02     3.0441      3.324      4.821    28.4825 0.0000e+00
      3.402      0.047     8.2138    103.701    116.940 124.872459    11.7000     0.5280     0.0426     0.2538 1.2295e+02     3.0894      3.337      4.839    28.4671 0.0000e+00
      3.415      0.045     8.1942    102.701    116.913 124.815796    11.7900     0.5547     0.0426     0.1692 1.2221e+02     3.1801      3.349      4.857    28.4477 0.0000e+00
      3.427      0.042     8.1646    101.619    116.852 124.735118    11.7900     0.5509     0.0426     0.1692 1.2184e+02     3.1196      3.360      4.874    28.4252 0.0000e+00
      3.437      0.038     8.1206    100.596    116.765 124.632922    11.7900     0.6424     0.0426     0.1692 1.2147e+02     3.9958      3.370      4.888    28.4030 0.0000e+00
      3.446      0.034     8.0597     99.758    116.626 124.475954    11.7900     0.6348     0.0426     0.1692 1.2099e+02     4.1167      3.379      4.901    28.3849 0.0000e+00
      3.454      0.031     7.9837     99.190    116.395 124.214354    11.9700     0.6615     0.0426     0.0846 1.2128e+02     4.0109      3.387      4.912    28.3728 0.0000e+00
      3.461      0.029     7.9006     98.913    116.007 123.772359    11.9700     0.6767     0.0426     0.0846 1.2110e+02     3.9958      3.394      4.922    28.3658 0.0000e+00
      3.467      0.027     7.8216     98.851    115.353 123.034103    11.9700     0.6500     0.0426     0.0846 1.2115e+02     3.9958      3.400      4.931    28.3617 0.0000e+00
      3.474      0.027     7.7570     98.873    114.282 121.840730    11.9700     0.6500     0.0426     0.0846 1.2086e+02     4.0411      3.407      4.941    28.3577 0.0000e+00
      3.480      0.027     7.7138     98.852    112.517 119.908016    11.9700     0.6577     0.0426     0.3384 1.2086e+02     4.0109      3.413      4.950    28.3508 0.0000e+00
      3.487      0.027     7.6939     98.686    109.571 116.728569    11.9700     0.6424     0.0426     0.3384 1.1987e+02     4.0864      3.420      4.960    28.3384 0.0000e+00
      3.495      0.026     7.6917     98.335    104.643 111.458534    11.9700     0.6653     0.0426     0.3384 1.1948e+02     3.7390      3.427      4.971    28.3196 0.0000e+00
      3.501      0.026     7.6966     97.860     96.431 102.712574    11.9700     0.6577     0.0426     0.3384 1.1922e+02     3.8598      3.434      4.980    28.2957 0.0000e+00
      3.508      0.025     7.6984     97.364     82.755  88.166437    12.0600     0.6653     0.0426     0.2538 1.1922e+02     3.8296      3.440      4.990    28.2707 0.0000e+00
      3.514      0.024     7.6883     96.937     59.946  63.917144    12.0600     0.6577     0.0426     0.2538 1.1911e+02     3.7088      3.446      4.998    28.2492 0.0000e+00
      3.520      0.022     7.6631     96.640     21.913  23.494214    12.0600     0.7302     0.0426     0.2538 1.1857e+02     3.9807      3.452      5.007    28.2339 0.0000e+00
      3.525      0.021     7.6274     96.475    -41.473 -43.861793    12.0600     0.7149     0.0426     0.2538 1.1852e+02     3.9656      3.457      5.015    28.2233 0.0000e+00
      3.531      0.020     7.5900     96.398   -147.117-156.108480    12.0600     0.7187     0.0426     0.2538 1.1847e+02     4.0864      3.462      5.022    28.2142 0.0000e+00
      3.535      0.020     7.5581     96.359   -323.200-343.174297    12.2400     0.7302     0.0852     0.2538 1.1836e+02     3.9958      3.467      5.029    28.2043 0.0000e+00
      3.540      0.019     7.5366     96.312   -433.246-460.102577    12.2400     0.7874     0.0852     0.2538 1.1806e+02     3.9958      3.472      5.036    28.1922 0.0000e+00
      3.545      0.019     7.5258     96.211   -323.166-343.231306    12.2400     0.7607     0.0852     0.2538 1.1772e+02     4.0260      3.477      5.043    28.1772 0.0000e+00
      3.551      0.018     7.5223     96.045   -147.054-156.217700    12.2400     0.7683     0.0852     0.2538 1.1742e+02     4.0109      3.482      5.050    28.1589 0.0000e+00
      3.556      0.018     7.5222     95.846    -41.398 -44.024351    12.6000     0.7874     0.0852     0.2961 1.1709e+02     4.0411      3.487      5.057    28.1379 0.0000e+00
      3.560      0.017     7.5215     95.658     21.992  23.280974    12.6000     0.7645     0.0852     0.2961 1.1688e+02     3.8296      3.491      5.064    28.1166 0.0000e+00
      3.564      0.016     7.5160     95.523     60.029  63.656363    12.6000     0.7569     0.0852     0.2961 1.1698e+02     3.8296      3.495      5.070    28.0979 0.0000e+00
      3.568      0.015     7.5047     95.459     82.852  87.868586    12.6000     0.7874     0.0852     0.2961 1.1711e+02     3.7390      3.499      5.075    28.0837 0.0000e+00
      3.572      0.013     7.4904     95.456     96.549 102.390241    14.4000     0.8026     0.1278     0.2538 1.1663e+02     3.8145      3.502      5.080    28.0736 0.0000e+00
      3.575      0.012     7.4768     95.501    104.774 111.105769    14.4000     0.8293     0.1278     0.2538 1.1650e+02     3.5275      3.505      5.085    28.0650 0.0000e+00
      3.578      0.011     7.4675     95.620    109.706 116.331309    14.4000     0.8599     0.1278     0.2538 1.1645e+02     3.4973      3.508      5.089    28.0549 0.0000e+00
      3.581      0.011     7.4641     95.856    112.656 119.456336    14.4000     0.8637     0.1278     0.2538 1.1638e+02     3.5275      3.511      5.093    28.0431 0.0000e+00
      3.583      0.010     7.4653     96.222    114.420 121.322193    14.4000     0.8065     0.1278     0.2538 1.1658e+02     3.4973      3.514      5.096    28.0320 0.0000e+00
      3.585      0.009     7.4699     96.680    115.471 122.430444    14.4900     0.7988     0.0852     0.3384 1.1627e+02     3.7692      3.516      5.099    28.0237 0.0000e+00
      3.587      0.008     7.4799     97.177    116.090 123.080624    14.4900     0.7492     0.0852     0.3384 1.1620e+02     3.7843      3.518      5.102    28.0183 0.0000e+00
      3.589      0.008     7.4989     97.683    116.450 123.458116    14.4900     0.7836     0.0852     0.3384 1.1607e+02     3.6786      3.520      5.105    28.0148 0.0000e+00
      3.591      0.008     7.5279     98.170    116.659 123.675589    14.4900     0.7874     0.0852     0.3384 1.1617e+02     3.7692      3.522      5.108    28.0116 0.0000e+00
      3.593      0.008     7.5642     98.598    116.780 123.799040    14.5800     0.8522     0.0852     0.2961 1.1612e+02     3.6181      3.524      5.111    28.0081 0.0000e+00
      3.595      0.009     7.6035     98.931    116.852 123.869390    14.5800     0.8446     0.0852     0.2961 1.1595e+02     3.6030      3.525      5.113    28.0050 0.0000e+00
      3.597      0.009     7.6434     99.167    116.900 123.913403    14.5800     0.8446     0.0852     0.2961 1.1610e+02     3.5426      3.527      5.116    28.0028 0.0000e+00
      3.599      0.011     7.6817     99.323    116.921 123.930809    14.5800     0.8560     0.0852     0.2961 1.1615e+02     3.5275      3.530      5.119    28.0011 0.0000e+00
      3.602      0.012     7.7155     99.412    116.897 123.898243    14.8500     0.8637     0.0852     0.2961 1.1607e+02     3.7994      3.532      5.123    27.9989 0.0000e+00
      3.605      0.015     7.7420     99.439    116.838 123.823025    14.8500     0.8446     0.0852     0.2961 1.1597e+02     3.8145      3.535      5.127    27.9961 0.0000e+00
      3.609      0.018     7.7608     99.432    116.776 123.735113    14.8500     0.8751     0.0852     0.2961 1.1597e+02     3.8901      3.539      5.133    27.9935 0.0000e+00
      3.613      0.022     7.7733     99.451    116.720 123.643075    14.8500     0.8446     0.0852     0.2961 1.1585e+02     3.8296      3.543      5.139    27.9911 0.0000e+00
      3.619      0.026     7.7807     99.577    116.673 123.552374    14.8500     0.7797     0.0852     0.2961 1.1602e+02     3.5275      3.549      5.147    27.9879 0.0000e+00
      3.626      0.031     7.7837     99.890    116.644 123.478833    14.8500     0.7683     0.0852     0.2961 1.1552e+02     3.4671      3.556      5.157    27.9823 0.0000e+00
      3.634      0.036     7.7844    100.470    116.631 123.426846    14.8500     0.7912     0.0852     0.2961 1.1467e+02     3.5426      3.564      5.169    27.9728 0.0000e+00
      3.644      0.040     7.7879    101.329    116.622 123.382547    14.8500     0.7836     0.0852     0.2961 1.1434e+02     3.5124      3.574      5.184    27.9586 0.0000e+00
      3.655      0.045     7.8001    102.379    116.608 123.338124    14.8500     0.8332     0.0852     0.2961 1.1375e+02     3.3160      3.585      5.199    27.9411 0.0000e+00
      3.668      0.048     7.8272    103.484    116.608 123.311739    15.2100     0.8217     0.0852     0.2961 1.1331e+02     3.3462      3.597      5.217    27.9231 0.0000e+00
      3.681      0.051     7.8750    104.510    116.631 123.314358    15.2100     0.8446     0.0852     0.2961 1.1211e+02     3.2405      3.610      5.235    27.9066 0.0000e+00
      3.695      0.052     7.9444    105.340    116.656 123.324673    15.2100     0.8332     0.0852     0.2961 1.1099e+02     3.3160      3.623      5.255    27.8919 0.0000e+00
      3.709      0.053     8.0286    105.889    116.671 123.327427    15.2100     0.7874     0.0852     0.2961 1.1020e+02     3.4067      3.638      5.276    27.8790 0.0000e+00
      3.723      0.052     8.1168    106.131    116.677 123.323356    16.2000     0.7950     0.0852     0.3384 1.0936e+02     3.4218      3.651      5.296    27.8679 0.0000e+00
      3.737      0.049     8.1986    106.105    116.680 123.319376    16.2000     0.7645     0.0852     0.3384 1.0861e+02     3.3009      3.665      5.315    27.8587 0.0000e+00
      3.749      0.047     8.2647    105.907    116.682 123.318426    16.2000     0.7721     0.0852     0.3384 1.0806e+02     3.3462      3.677      5.332    27.8514 0.0000e+00
      3.760      0.043     8.3086    105.634    116.679 123.312250    16.2000     0.8217     0.0852     0.3384 1.0778e+02     2.9232      3.688      5.349    27.8458 0.0000e+00
      3.771      0.041     8.3282    105.342    116.672 123.303202    16.2900     0.8370     0.0852     0.2961 1.0743e+02     2.9081      3.698      5.363    27.8415 0.0000e+00
      3.780      0.038     8.3267    105.059    116.671 123.296874    16.2900     0.8217     0.0852     0.2961 1.0734e+02     2.8326      3.707      5.377    27.8386 0.0000e+00
      3.789      0.037     8.3114    104.808    116.666 123.283574    16.2900     0.8446     0.0852     0.2961 1.0734e+02     2.9384      3.716      5.390    27.8369 0.0000e+00
      3.798      0.038     8.2901    104.589    116.644 123.247753    16.2900     0.8522     0.0852     0.2961 1.0713e+02     2.8930      3.725      5.402    27.8359 0.0000e+00
      3.807      0.039     8.2673    104.370    116.608 123.191861    16.2900     0.8217     0.0852     0.2961 1.0713e+02     3.0894      3.734      5.415    27.8349 0.0000e+00
      3.817      0.041     8.2453    104.115    116.578 123.139004    15.9300     0.8255     0.1278     0.2961 1.0643e+02     3.0592      3.743      5.429    27.8330 0.0000e+00
      3.828      0.043     8.2261    103.843    116.559 123.097091    15.9300     0.8332     0.1278     0.2961 1.0521e+02     3.0894      3.754      5.444    27.8297 0.0000e+00
      3.839      0.045     8.2097    103.629    116.530 123.046943    15.9300     0.8293     0.1278     0.2961 1.0376e+02     3.0743      3.765      5.461    27.8243 0.0000e+00
      3.852      0.046     8.1936    103.559    116.461 122.959181    15.9300     0.8332     0.1278     0.2961 1.0244e+02     2.6664      3.777      5.478    27.8166 0.0000e+00
      3.864      0.048     8.1750    103.660    116.319 122.796395    15.3900     0.8370     0.0852     0.3384 1.0149e+02     2.5607      3.789      5.496    27.8073 0.0000e+00
      3.876      0.050     8.1549    103.896    116.069 122.519178    15.3900     0.8293     0.0852     0.3384 1.0146e+02     2.5607      3.801      5.513    27.7979 0.0000e+00
      3.888      0.052     8.1394    104.218    115.670 122.081614    15.3900     0.8408     0.0852     0.3384 1.0100e+02     2.5305      3.813      5.531    27.7897 0.0000e+00
      3.901      0.054     8.1348    104.583    115.033 121.389025    15.3900     0.8522     0.0852     0.3384 1.0048e+02     2.6211      3.826      5.549    27.7832 0.0000e+00
      3.916      0.056     8.1435    104.955    113.979 120.256717    14.4900     0.8560     0.0852     0.2538 9.8295e+01     2.5758      3.840      5.569    27.7777 0.0000e+00
      3.931      0.057     8.1630    105.297    112.204 118.368737    14.4900     0.8370     0.0852     0.2538 9.5724e+01     2.5456      3.855      5.591    27.7718 0.0000e+00
      3.947      0.056     8.1893    105.577    109.222 115.211620    14.4900     0.8332     0.0852     0.2538 9.3098e+01     2.5758      3.870      5.613    27.7644 0.0000e+00
      3.962      0.055     8.2193    105.773    104.252 109.961473    14.4900     0.9667     0.0852     0.2538 9.1952e+01     2.5758      3.885      5.635    27.7557 0.0000e+00
      3.976      0.052     8.2497    105.881     95.988 101.240262    14.5800     0.9590     0.1278     0.3384 9.1037e+01     2.5758      3.899      5.655    27.7471 0.0000e+00
      3.989      0.048     8.2776    105.926     82.222  86.718330    14.5800     0.9705     0.1278     0.3384 9.0015e+01     2.6664      3.912      5.674    27.7401 0.0000e+00
      4.000      0.043     8.3004    105.943     59.263  62.501156    14.5800     0.9667     0.1278     0.3384 8.8849e+01     2.6211      3.923      5.690    27.7353 0.0000e+00
      4.011      0.038     8.3162    105.954     20.971  22.110821    14.5800     0.9857     0.1278     0.3384 8.7984e+01     2.8628      3.933      5.705    27.7324 0.0000e+00
      4.020      0.033     8.3249    105.948    -42.868 -45.227432    14.5800     0.9857     0.1278     0.3384 8.7507e+01     2.8628      3.942      5.718    27.7308 0.0000e+00
      4.027      0.030     8.3285    105.895   -149.259-157.454465    14.2200     0.9781     0.0426     0.2538 8.7908e+01     2.7873      3.950      5.728    27.7304 0.0000e+00
      4.034      0.027     8.3298    105.790   -326.553-344.479481    14.2200     0.9476     0.0426     0.2538 8.7927e+01     2.7873      3.956      5.737    27.7311 0.0000e+00
      4.040      0.025     8.3305    105.643   -437.360-461.374287    14.2200     0.9781     0.0426     0.2538 8.8386e+01     2.6211      3.961      5.745    27.7325 0.0000e+00
      4.045      0.024     8.3298    105.465   -326.554-344.501298    14.2200     0.9552     0.0426     0.2538 8.7946e+01     2.6362      3.967      5.753    27.7339 0.0000e+00
      4.051      0.024     8.3257    105.271   -149.258-157.491915    14.2200     0.9781     0.0852     0.2961 8.7109e+01     2.5607      3.972      5.762    27.7346 0.0000e+00
      4.057      0.025     8.3178    105.083    -42.881 -45.294504    14.2200     0.9896     0.0852     0.2961 8.7185e+01     2.5607      3.978      5.770    27.7336 0.0000e+00
      4.063      0.027     8.3068    104.917     20.943  22.014243    14.2200     1.0506     0.0852     0.2961 8.7317e+01     3.3009      3.985      5.779    27.7302 0.0000e+00
      4.070      0.029     8.2936    104.777     59.237  62.391327    14.2200     1.0353     0.0852     0.2961 8.6299e+01     3.2254      3.992      5.789    27.7247 0.0000e+00
      4.078      0.031     8.2791    104.658     82.215  86.611972    14.0400     1.0163     0.0852     0.2961 8.6055e+01     3.4218      3.999      5.800    27.7180 0.0000e+00
      4.086      0.032     8.2652    104.535     96.012 101.151020    14.0400     1.0086     0.0852     0.2961 8.5088e+01     3.3009      4.007      5.812    27.7108 0.0000e+00
      4.095      0.033     8.2532    104.379    104.304 109.885549    14.0400     1.4473     0.0852     0.2961 8.3695e+01     5.6424      4.016      5.824    27.7033 0.0000e+00
      4.104      0.033     8.2433    104.166    109.292 115.136764    14.0400     1.4435     0.0852     0.2961 8.2575e+01     5.7179      4.024      5.837    27.6956 0.0000e+00
      4.113      0.033     8.2350    103.885    112.274 118.274980    14.0400     1.4473     0.0852     0.2961 8.1629e+01     5.7481      4.033      5.850    27.6881 0.0000e+00
      4.121      0.032     8.2263    103.525    114.032 120.123050    14.0400     1.4664     0.0852     0.3807 8.0888e+01     5.6877      4.042      5.862    27.6814 0.0000e+00
      4.129      0.030     8.2147    103.086    115.065 121.207803    14.0400     2.4125     0.0852     0.3807 8.0327e+01    10.5067      4.049      5.873    27.6761 0.0000e+00
      4.137      0.028     8.1986    102.590    115.665 121.836511    14.0400     2.4582     0.0852     0.3807 7.9944e+01    10.5369      4.057      5.884    27.6719 0.0000e+00
      4.143      0.025     8.1770    102.081    115.979 122.164827    14.0400     2.4125     0.0852     0.3807 7.9097e+01    10.4160      4.063      5.894    27.6685 0.0000e+00
      4.150      0.023     8.1491    101.604    116.086 122.276299    13.9500     2.4354     0.0426     0.3384 7.8294e+01    10.5067      4.070      5.903    27.6657 0.0000e+00
      4.156      0.020     8.1148    101.197    116.012 122.196652    13.9500     3.0610     0.0426     0.3384 7.7717e+01    19.3137      4.075      5.911    27.6635 0.0000e+00
      4.160      0.016     8.0761    100.882    115.720 121.888643    13.9500     3.0724     0.0426     0.3384 7.7414e+01    19.2231      4.080      5.918    27.6619 0.0000e+00
      4.164      0.012     8.0362    100.664    115.125 121.262133    13.9500     3.0724     0.0426     0.3384 7.6978e+01    19.1627      4.084      5.923    27.6607 0.0000e+00
      4.167      0.008     7.9988    100.557    114.069 120.150054    13.8600     3.0648     0.0852     0.4230 7.6594e+01    19.2080      4.086      5.927    27.6599 0.0000e+00
      4.169      0.003     7.9668    100.564    112.278 118.263852    13.8600     1.9318     0.0852     0.4230 7.6262e+01    22.4559      4.088      5.929    27.6594 0.0000e+00
      4.169     -0.003     7.9419    100.670    109.283 115.108543    13.8600     1.9585     0.0852     0.4230 7.5553e+01    22.3954      4.088      5.930    27.6593 0.0000e+00
      4.168     -0.009     7.9247    100.879    104.298 109.854716    13.8600     1.9738     0.0852     0.4230 7.5209e+01    22.4105      4.087      5.928    27.6596 0.0000e+00
      4.165     -0.016     7.9161    101.204     96.020 101.129358    13.8600     1.9432     0.0426     0.2538 7.4655e+01    22.3803      4.085      5.925    27.6604 0.0000e+00
      4.161     -0.024     7.9165    101.606     82.251  86.613709    13.8600     1.7449     0.0426     0.2538 7.4380e+01    18.4829      4.081      5.918    27.6617 0.0000e+00
      4.155     -0.034     7.9246    102.007     59.299  62.412922    13.8600     1.7716     0.0426     0.2538 7.4025e+01    18.5886      4.074      5.909    27.6634 0.0000e+00
      4.146     -0.046     7.9409    102.351     21.011  22.039446    13.8600     1.7716     0.0426     0.2538 7.3177e+01    18.5584      4.066      5.897    27.6653 0.0000e+00
      4.134     -0.062     7.9661    102.626    -42.831 -45.282984    13.8600     1.7487     0.0426     0.2538 7.1278e+01    18.4829      4.054      5.880    27.6676 0.0000e+00
      4.118     -0.081     7.9973    102.852   -149.223-157.477005    13.8600     1.6953     0.0852     0.4230 7.0187e+01    22.5616      4.038      5.857    27.6706 0.0000e+00
      4.096     -0.104     8.0284    103.039   -326.528-344.451022    13.8600     1.7067     0.0852     0.4230 7.2560e+01    22.6674      4.018      5.827    27.6744 0.0000e+00
      4.069     -0.130     8.0548    103.189   -437.345-461.283244    13.8600     1.7067     0.0852     0.4230 7.5750e+01    22.6674      3.991      5.788    27.6790 0.0000e+00
      4.034     -0.157     8.0756    103.324   -326.528-344.339397    13.8600     1.7029     0.0852     0.4230 7.8141e+01    22.6674      3.956      5.738    27.6856 0.0000e+00
      3.990     -0.183     8.0919    103.480   -149.205-157.249987    14.0400     0.9171     0.0852     0.3384 8.3043e+01     6.5337      3.913      5.675    27.6962 0.0000e+00
      3.937     -0.207     8.1044    103.684    -42.791 -44.950041    14.0400     0.9018     0.0852     0.3384 9.1872e+01     6.3977      3.861      5.600    27.7132 0.0000e+00
      3.877     -0.225     8.1130    103.928     21.071  22.473085    14.0400     0.9094     0.0852     0.3384 1.0135e+02     6.4279      3.802      5.514    27.7361 0.0000e+00
      3.813     -0.237     8.1199    104.161     59.400  62.966885    14.0400     0.9171     0.0852     0.3384 1.0664e+02     6.4582      3.740      5.424    27.7610 0.0000e+00
      3.749     -0.242     8.1285    104.323     82.410  87.297699    14.3100     0.7836     0.0852     0.4230 1.1003e+02     4.0562      3.676      5.332    27.7853 0.0000e+00
      3.685     -0.243     8.1408    104.374     96.219 101.917738    14.3100     0.7836     0.0852     0.4230 1.1326e+02     3.9505      3.614      5.241    27.8105 0.0000e+00
      3.623     -0.239     8.1559    104.283    104.505 110.703673    14.3100     0.7874     0.0852     0.4230 1.1630e+02     3.9807      3.552      5.152    27.8377 0.0000e+00
      3.562     -0.234     8.1702    104.020    109.480 115.996422    14.3100     0.7645     0.0852     0.4230 1.1979e+02     4.0260      3.493      5.066    27.8656 0.0000e+00
      3.503     -0.228     8.1790    103.611    112.489 119.221388    14.8500     0.7378     0.0852     0.3807 1.2107e+02     3.2858      3.435      4.982    27.8918 0.0000e+00
      3.446     -0.222     8.1797    103.143    114.333 121.230563    14.8500     0.7187     0.0852     0.3807 1.2381e+02     3.3462      3.380      4.901    27.9149 0.0000e+00
      3.390     -0.216     8.1697    102.699    115.472 122.511713    14.8500     0.7149     0.0852     0.3807 1.2700e+02     3.4067      3.325      4.822    27.9349 0.0000e+00
      3.335     -0.211     8.1464    102.320    116.170 123.338459    14.8500     0.7149     0.0852     0.3807 1.3044e+02     3.2405      3.271      4.744    27.9541 0.0000e+00
      3.282     -0.205     8.1113    102.020    116.577 123.863248    14.8500     0.5890     0.0852     0.3807 1.3313e+02     3.0441      3.219      4.668    27.9759 0.0000e+00
      3.231     -0.200     8.0707    101.808    116.811 124.196020    13.1400     0.5966     0.0852     0.2115 1.3573e+02     3.0743      3.168      4.595    28.0032 0.0000e+00
      3.181     -0.196     8.0312    101.696    116.953 124.417515    13.1400     0.5928     0.0852     0.2115 1.3724e+02     3.0743      3.119      4.524    28.0370 0.0000e+00
      3.133     -0.192     7.9961    101.679    117.035 124.562795    13.1400     0.6310     0.0852     0.2115 1.3799e+02     3.1498      3.072      4.456    28.0759 0.0000e+00
      3.085     -0.189     7.9668    101.724    117.077 124.658597    13.1400     0.6005     0.0852     0.2115 1.4136e+02     2.7873      3.025      4.388    28.1165 0.0000e+00
      3.037     -0.186     7.9451    101.815    117.098 124.726470    12.6000     0.5776     0.0852     0.1692 1.4409e+02     2.8779      2.978      4.319    28.1535 0.0000e+00
      2.989     -0.182     7.9321    101.971    117.118 124.788516    12.6000     0.5852     0.0852     0.1692 1.4652e+02     2.8175      2.931      4.251    28.1837 0.0000e+00
      2.942     -0.178     7.9272    102.207    117.157 124.867284    12.6000     0.5928     0.0852     0.1692 1.4880e+02     2.8477      2.885      4.184    28.2087 0.0000e+00
      2.896     -0.174     7.9277    102.510    117.197 124.947769    12.6000     0.5165     0.0852     0.1692 1.5055e+02     1.9866      2.840      4.119    28.2307 0.0000e+00
      2.853     -0.168     7.9320    102.842    117.225 125.017420    11.9700     0.5547     0.0852     0.1692 1.5131e+02     1.9564      2.797      4.058    28.2503 0.0000e+00
      2.811     -0.162     7.9417    103.168    117.228 125.058800    11.9700     0.5585     0.0852     0.1692 1.5187e+02     1.9413      2.757      3.999    28.2675 0.0000e+00
      2.771     -0.155     7.9579    103.453    117.195 125.050935    11.9700     0.5432     0.0852     0.1692 1.5436e+02     2.0169      2.717      3.941    28.2835 0.0000e+00
      2.731     -0.147     7.9791    103.674    117.160 125.029744    11.9700     0.5013     0.0852     0.1692 1.5605e+02     1.6241      2.678      3.885    28.2999 0.0000e+00
      2.693     -0.138     8.0026    103.826    117.148 125.027590    11.9700     0.4936     0.0852     0.1692 1.5834e+02     1.7903      2.641      3.831    28.3170 0.0000e+00
      2.658     -0.129     8.0257    103.921    117.146 125.037896    11.6100     0.4936     0.0000     0.2961 1.5886e+02     1.7298      2.607      3.781    28.3329 0.0000e+00
      2.627     -0.121     8.0462    103.985    117.146 125.053407    11.6100     0.4936     0.0000     0.2961 1.5889e+02     1.7752      2.576      3.736    28.3448 0.0000e+00
      2.599     -0.114     8.0624    104.058    117.142 125.066255    11.6100     0.4936     0.0000     0.2961 1.5903e+02     1.5183      2.549      3.696    28.3518 0.0000e+00
      2.573     -0.110     8.0736    104.169    117.138 125.075867    11.6100     0.4975     0.0000     0.2961 1.5875e+02     1.5183      2.523      3.660    28.3564 0.0000e+00
      2.548     -0.110     8.0802    104.319    117.139 125.088808    11.6100     0.4860     0.0426     0.2115 1.5910e+02     1.4428      2.499      3.624    28.3616 0.0000e+00
      2.521     -0.112     8.0842    104.480    117.151 125.112530    11.6100     0.4936     0.0426     0.2115 1.5986e+02     1.4730      2.473      3.586    28.3683 0.0000e+00
      2.493     -0.116     8.0888    104.621    117.170 125.145358    11.6100     0.5013     0.0426     0.2115 1.6175e+02     1.2011      2.445      3.546    28.3755 0.0000e+00
      2.462     -0.121     8.0966    104.729    117.190 125.180039    11.6100     0.4898     0.0426     0.2115 1.6448e+02     1.2464      2.414      3.502    28.3818 0.0000e+00
      2.429     -0.124     8.1075    104.811    117.215 125.221822    11.1600     0.4975     0.0426     0.2538 1.6667e+02     1.1709      2.382      3.454    28.3868 0.0000e+00
      2.395     -0.125     8.1194    104.894    117.243 125.269843    11.1600     0.5242     0.0426     0.2538 1.6952e+02     1.2918      2.349      3.407    28.3914 0.0000e+00
      2.362     -0.125     8.1297    104.996    117.264 125.312900    11.1600     0.5013     0.0426     0.2538 1.7022e+02     1.2011      2.317      3.360    28.3965 0.0000e+00
      2.330     -0.123     8.1372    105.114    117.278 125.350471    11.1600     0.4936     0.0426     0.2538 1.7208e+02     1.1407      2.285      3.315    28.4021 0.0000e+00
      2.299     -0.119     8.1426    105.245    117.287 125.384572    11.2500     0.4936     0.0426     0.1692 1.7430e+02     1.1709      2.255      3.270    28.4087 0.0000e+00
      2.269     -0.115     8.1480    105.398    117.281 125.404292    11.2500     0.5013     0.0426     0.1692 1.7609e+02     1.2615      2.225      3.227    28.4163 0.0000e+00
      2.240     -0.112     8.1547    105.569    117.260 125.406887    11.2500     0.4326     0.0426     0.1692 1.7801e+02     1.0652      2.196      3.186    28.4250 0.0000e+00
      2.212     -0.108     8.1624    105.746    117.246 125.413058    11.2500     0.4517     0.0426     0.1692 1.7867e+02     1.0047      2.170      3.147    28.4347 0.0000e+00
      2.186     -0.105     8.1711    105.918    117.253 125.440458    11.2500     0.4212     0.0426     0.1692 1.7949e+02     0.9896      2.144      3.110    28.4452 0.0000e+00
      2.160     -0.103     8.1814    106.066    117.275 125.488391    11.1600     0.4212     0.0426     0.1269 1.8117e+02     0.8839      2.118      3.072    28.4563 0.0000e+00
      2.133     -0.100     8.1931    106.184    117.307 125.555635    11.1600     0.4173     0.0426     0.1269 1.8367e+02     1.0047      2.092      3.035    28.4668 0.0000e+00
      2.108     -0.100     8.2055    106.292    117.325 125.616102    11.1600     0.4402     0.0426     0.1269 1.8475e+02     0.9896      2.067      2.998    28.4758 0.0000e+00
      2.083     -0.101     8.2177    106.402    117.303 125.631901    11.1600     0.4440     0.0426     0.1269 1.8511e+02     1.0047      2.043      2.963    28.4845 0.0000e+00
      2.059     -0.104     8.2276    106.531    117.258 125.607248    11.0700     0.4135     0.0426     0.2538 1.8552e+02     0.9745      2.019      2.929    28.4950 0.0000e+00
      2.035     -0.111     8.2348    106.698    117.215 125.563583    11.0700     0.5165     0.0426     0.2538 1.8507e+02     1.7147      1.995      2.894    28.5089 0.0000e+00
      2.008     -0.120     8.2406    106.894    117.178 125.515271    11.0700     0.4746     0.0426     0.2538 1.8564e+02     1.7449      1.969      2.856    28.5266 0.0000e+00
      1.977     -0.131     8.2467    107.074    117.165 125.489444    11.0700     0.5051     0.0426     0.2538 1.8767e+02     1.7449      1.938      2.812    28.5436 0.0000e+00
      1.941     -0.142     8.2552    107.205    117.198 125.513227    10.9800     0.4936     0.0852     0.2115 1.9083e+02     1.6845      1.903      2.760    28.5533 0.0000e+00
      1.901     -0.153     8.2680    107.274    117.265 125.578956    10.9800     0.4440     0.0852     0.2115 1.9287e+02     1.0349      1.864      2.704    28.5544 0.0000e+00
      1.859     -0.161     8.2838    107.272    117.327 125.648135    10.9800     0.4250     0.0852     0.2115 1.9456e+02     0.9594      1.823      2.644    28.5507 0.0000e+00
      1.816     -0.167     8.2985    107.194    117.360 125.697193    10.9800     0.4440     0.0852     0.2115 1.9587e+02     1.0652      1.781      2.582    28.5455 0.0000e+00
      1.772     -0.169     8.3093    107.059    117.374 125.735213    10.9800     0.4326     0.0852     0.2115 1.9532e+02     0.9745      1.738      2.520    28.5408 0.0000e+00
      1.728     -0.168     8.3150    106.915    117.379 125.768334    11.0700     0.4250     0.0852     0.0846 1.9656e+02     0.4156      1.694      2.458    28.5382 0.0000e+00
      1.684     -0.165     8.3147    106.836    117.376 125.793386    11.0700     0.4364     0.0852     0.0846 1.9931e+02     0.6120      1.651      2.395    28.5392 0.0000e+00
      1.640     -0.161     8.3079    106.864    117.369 125.813047    11.0700     0.4212     0.0852     0.0846 2.0031e+02     0.4760      1.609      2.333    28.5449 0.0000e+00
      1.599     -0.157     8.2960    106.985    117.363 125.832563    11.0700     0.4364     0.0852     0.0846 2.0066e+02     0.4911      1.569      2.275    28.5548 0.0000e+00
      1.562     -0.154     8.2831    107.156    117.349 125.845134    10.9800     0.4440     0.0426     0.1692 1.9819e+02     0.2192      1.531      2.221    28.5669 0.0000e+00
      1.525     -0.152     8.2752    107.347    117.321 125.842108    10.9800     0.4250     0.0426     0.1692 1.9724e+02     0.2645      1.496      2.170    28.5789 0.0000e+00
      1.488     -0.152     8.2757    107.561    117.297 125.838688    10.9800     0.4212     0.0426     0.1692 1.9758e+02     0.1588      1.459      2.117    28.5902 0.0000e+00
      1.449     -0.153     8.2834    107.806    117.295 125.853971    10.9800     0.4517     0.0426     0.1692 1.9849e+02     0.2041      1.421      2.062    28.6016 0.0000e+00
      1.409     -0.156     8.2949    108.059    117.314 125.892032    11.0700     0.3639     0.0000     0.1269 2.0087e+02     0.1890      1.382      2.005    28.6135 0.0000e+00
      1.369     -0.160     8.3080    108.267    117.344 125.947016    11.0700     0.3868     0.0000     0.1269 2.0074e+02     0.2343      1.342      1.947    28.6248 0.0000e+00
      1.328     -0.162     8.3232    108.416    117.374 126.005573    11.0700     0.3601     0.0000     0.1269 1.9931e+02     0.1890      1.302      1.889    28.6340 0.0000e+00
      1.286     -0.163     8.3411    108.524    117.395 126.055308    11.0700     0.3754     0.0000     0.1269 1.9931e+02     0.2343      1.262      1.830    28.6414 0.0000e+00
      1.243     -0.162     8.3595    108.603    117.412 126.101483    10.9800     0.2991     0.0426     0.0846 2.0382e+02     0.0077      1.219      1.768    28.6491 0.0000e+00
      1.200     -0.159     8.3743    108.648    117.426 126.146408    10.9800     0.2991     0.0426     0.0846 2.0591e+02    -0.0074      1.177      1.707    28.6587 0.0000e+00
      1.159     -0.155     8.3841    108.664    117.422 126.174051    10.9800     0.3067     0.0426     0.0846 2.0636e+02     0.0228      1.136      1.648    28.6700 0.0000e+00
      1.120     -0.152     8.3907    108.679    117.402 126.181782    10.9800     0.3182     0.0426     0.0846 2.0529e+02    -0.0376      1.099      1.593    28.6818 0.0000e+00
      1.084     -0.148     8.3951    108.726    117.375 126.179667    10.9800     0.3220     0.0426     0.0846 2.0672e+02    -0.0376      1.064      1.542    28.6937 0.0000e+00
      1.048     -0.144     8.3967    108.808    117.354 126.179150    10.9800     0.3182     0.0852     0.1269 2.1094e+02    -0.0678      1.028      1.491    28.7064 0.0000e+00
      1.011     -0.141     8.3960    108.901    117.351 126.194101    10.9800     0.3067     0.0852     0.1269 2.1651e+02    -0.0829      0.992      1.439    28.7196 0.0000e+00
      0.974     -0.138     8.3953    108.989    117.363 126.226505    10.9800     0.3258     0.0852     0.1269 2.2272e+02     0.0077      0.955      1.386    28.7324 0.0000e+00
      0.938     -0.135     8.3972    109.067    117.373 126.258992    10.9800     0.3296     0.0852     0.1269 2.2652e+02    -0.0527      0.920      1.335    28.7438 0.0000e+00
      0.905     -0.130     8.4022    109.121    117.375 126.282220    10.8000     0.3220     0.0426     0.2115 2.2875e+02     0.0228      0.888      1.287    28.7531 0.0000e+00
      0.873     -0.124     8.4082    109.133    117.383 126.310387    10.8000     0.2915     0.0426     0.2115 2.3454e+02    -0.0074      0.856      1.242    28.7610 0.0000e+00
      0.841     -0.118     8.4138    109.104    117.396 126.343002    10.8000     0.3029     0.0426     0.2115 2.4037e+02     0.0228      0.825      1.197    28.7692 0.0000e+00
      0.811     -0.113     8.4185    109.047    117.408 126.372755    10.8000     0.2876     0.0426     0.2115 2.4650e+02    -0.0225      0.796      1.154    28.7783 0.0000e+00
      0.784     -0.109     8.4213    108.971    117.419 126.403580    10.9800     0.3105     0.0426     0.1692 2.5115e+02    -0.2491      0.769      1.115    28.7874 0.0000e+00
      0.758     -0.106     8.4210    108.896    117.421 126.427690    10.9800     0.3372     0.0426     0.1692 2.5473e+02    -0.1887      0.744      1.078    28.7958 0.0000e+00
      0.733     -0.104     8.4177    108.856    117.414 126.443512    10.9800     0.3411     0.0426     0.1692 2.5914e+02    -0.1283      0.719      1.043    28.8035 0.0000e+00
      0.707     -0.101     8.4122    108.859    117.407 126.459269    10.9800     0.3143     0.0426     0.1692 2.6836e+02    -0.3700      0.693      1.005    28.8108 0.0000e+00
      0.679     -0.099     8.4051    108.872    117.403 126.479164    10.9800     0.2228     0.0426     0.1692 2.8600e+02    -0.2642      0.666      0.966    28.8188 0.0000e+00
      0.653     -0.097     8.3979    108.878    117.404 126.504501    10.8000     0.2457     0.0426     0.2115 2.8982e+02    -0.1585      0.640      0.928    28.8283 0.0000e+00
      0.628     -0.095     8.3934    108.895    117.409 126.534034    10.8000     0.2571     0.0426     0.2115 3.0256e+02    -0.2340      0.616      0.893    28.8384 0.0000e+00
      0.606     -0.093     8.3921    108.935    117.424 126.579642    10.8000     0.2533     0.0426     0.2115 2.9728e+02    -0.2340      0.595      0.862    28.8484 0.0000e+00
      0.585     -0.092     8.3916    109.002    117.454 126.649484    10.8000     0.2495     0.0426     0.2115 3.0534e+02    -0.4606      0.573      0.831    28.8585 0.0000e+00
      0.561     -0.090     8.3905    109.101    117.476 126.716168    10.8900     0.2304     0.0426     0.0846 3.2804e+02    -0.4606      0.550      0.798    28.8687 0.0000e+00
      0.537     -0.086     8.3903    109.227    117.486 126.767464    10.8900     0.2571     0.0426     0.0846 3.3751e+02    -0.5966      0.526      0.763    28.8792 0.0000e+00
      0.513     -0.081     8.3916    109.360    117.497 126.817054    10.8900     0.2381     0.0426     0.0846 3.6236e+02    -0.4606      0.503      0.729    28.8919 0.0000e+00
      0.491     -0.074     8.3943    109.503    117.499 126.852153    10.8900     0.2571     0.0426     0.0846 3.8930e+02    -0.2340      0.481      0.697    28.9079 0.0000e+00
      0.472     -0.064     8.3993    109.678    117.476 126.852106    10.7100     0.2419     0.0426     0.0846 3.8326e+02    -0.3246      0.463      0.671    28.9259 0.0000e+00
      0.458     -0.054     8.4065    109.879    117.443 126.826910    10.7100     0.2571     0.0426     0.0846 4.1014e+02    -0.2038      0.449      0.651    28.9433 0.0000e+00
      0.447     -0.045     8.4144    110.072    117.418 126.791856    10.7100     0.2648     0.0426     0.0846 4.1797e+02    -0.2189      0.438      0.635    28.9591 0.0000e+00
      0.438     -0.037     8.4234    110.211    117.388 126.735594    10.7100     0.2915     0.0426     0.0846 4.3408e+02    -0.2491      0.430      0.623    28.9732 0.0000e+00
      0.431     -0.032     8.4353    110.256    117.347 126.651125    10.7100     0.2648     0.0426     0.2115 4.4352e+02    -0.2189      0.422      0.613    28.9837 0.0000e+00
      0.424     -0.030     8.4501    110.192    117.308 126.559941    10.7100     0.2686     0.0426     0.2115 4.4681e+02    -0.2491      0.416      0.603    28.9879 0.0000e+00
      0.417     -0.031     8.4654    110.033    117.299 126.503752    10.7100     0.2419     0.0426     0.2115 4.5267e+02    -0.2491      0.409      0.593    28.9848 0.0000e+00
      0.410     -0.035     8.4777    109.798    117.327 126.503586    10.7100     0.3105     0.0426     0.2115 4.4198e+02     1.0047      0.402      0.584    28.9744 0.0000e+00
      0.403     -0.042     8.4836    109.506    117.363 126.539386    10.7100     0.3372     0.0426     0.2115 4.3398e+02     1.0349      0.395      0.573    28.9573 0.0000e+00
      0.393     -0.051     8.4818    109.212    117.385 126.584684    10.8000     0.3220     0.0000     0.1269 4.2419e+02     0.9594      0.385      0.559    28.9364 0.0000e+00
      0.379     -0.060     8.4726    109.000    117.398 126.631553    10.8000     0.3105     0.0000     0.1269 4.4409e+02     1.1407      0.372      0.540    28.9165 0.0000e+00
      0.362     -0.068     8.4563    108.928    117.411 126.680490    10.8000     0.2724     0.0000     0.1269 4.6453e+02     0.5364      0.354      0.514    28.9038 0.0000e+00
      0.340     -0.074     8.4340    109.002    117.424 126.724537    10.8000     0.2304     0.0000     0.1269 4.9420e+02     0.4911      0.334      0.484    28.9024 0.0000e+00
      0.318     -0.078     8.4101    109.183    117.427 126.749431    10.9800     0.2419     0.0852     0.1692 5.2704e+02     0.5213      0.312      0.453    28.9114 0.0000e+00
      0.297     -0.080     8.3916    109.425    117.411 126.745802    10.9800     0.2457     0.0852     0.1692 5.1025e+02     0.4458      0.291      0.423    28.9258 0.0000e+00
      0.277     -0.082     8.3839    109.683    117.375 126.714686    10.9800     0.2571     0.0852     0.1692 5.2270e+02     0.5062      0.272      0.395    28.9406 0.0000e+00
      0.259     -0.084     8.3877    109.908    117.313 126.651786    10.9800     0.2495     0.0852     0.1692 4.9302e+02     0.4458      0.254      0.368    28.9531 0.0000e+00
      0.240     -0.090     8.4003    110.039    117.213 126.554333    10.9800     0.2266     0.0852     0.0423 4.8749e+02     0.5213      0.235      0.341    28.9625 0.0000e+00
      0.219     -0.101     8.4180    110.028    117.070 126.424354    10.9800     0.2648     0.0852     0.0423 4.7628e+02     0.5213      0.215      0.311    28.9684 0.0000e+00
      0.195     -0.116     8.4375    109.870    116.861 126.237191    10.9800     0.2495     0.0852     0.0423 4.6402e+02     3.9203      0.191      0.277    28.9715 0.0000e+00
      0.166     -0.134     8.4544    109.605    116.505 125.908920    10.9800     0.2457     0.0852     0.0423 5.0925e+02     3.7239      0.163      0.236    28.9735 0.0000e+00
      0.131     -0.154     8.4639    109.263    115.864 125.287977    10.9800     0.2762     0.0852     0.0423 5.2910e+02     3.7994      0.128      0.186    28.9782 0.0000e+00
      0.089     -0.175     8.4615    108.837    114.753 124.166760    11.7000     0.2648     0.0426     0.1269 7.0687e+02     3.8598      0.087      0.127    28.9885 0.0000e+00
      0.042     -0.194     8.4469    108.280    112.885 122.228275    11.7000     0.1846     0.0426     0.1269 7.3092e+02     0.4911      0.041      0.060    29.0055 0.0000e+00
     -0.009     -0.209     8.4230    107.479    109.759 118.919581    11.7000     0.1846     0.0426     0.1269 7.3395e+02     0.4609     -0.009     -0.013    29.0299 0.0000e+00
     -0.064     -0.217     8.3921    106.307    104.550 113.332352    11.7000     0.2037     0.0426     0.1269 7.1677e+02     0.4156     -0.062     -0.091    29.0611 0.0000e+00
     -0.121     -0.218     8.3543    104.759     95.894 103.980668    11.2500     0.1656     0.0426     0.0846 8.4805e+02     0.4911     -0.118     -0.172    29.0963 0.0000e+00
     -0.177     -0.211     8.3064    103.013     81.482  88.362743    11.2500    -0.2998     0.0426     0.0846 8.0164e+02     1.2313     -0.173     -0.251    29.1323 0.0000e+00
     -0.227     -0.199     8.2403    101.360     62.099  67.341015    11.2500    -0.2960     0.0426     0.0846 7.3586e+02     1.2162     -0.222     -0.322    29.1653 0.0000e+00
     -0.268     -0.184     8.1471    100.131     44.225  47.951553    11.2500    -0.2846     0.0426     0.0846 5.3002e+02     1.2313     -0.263     -0.381    29.1892 0.0000e+00
     -0.299     -0.170     8.0270     99.556     32.452  35.177908    21.6000    -0.3036    -0.2556     1.0152 3.2140e+02     1.1709     -0.294     -0.426    29.1998 0.0000e+00
     -0.323     -0.159     7.8937     99.523     26.177  28.368157    21.6000    -0.2922    -0.2556     1.0152 3.8367e+02    -1.2763     -0.317     -0.460    29.1976 0.0000e+00
     -0.341     -0.155     7.7691     99.600     24.176  26.195832    21.6000    -0.3075    -0.2556     1.0152 3.3198e+02    -1.1857     -0.335     -0.485    29.1845 0.0000e+00
     -0.354 -9.990e-29     7.6783 -9.990e-29 -9.990e-29 -9.990e-29    21.6000 -9.990e-29    -0.2556     1.0152 2.2127e+02 -9.990e-29     -0.347     -0.503    29.1617 0.0000e+00
     -0.363 -9.990e-29     7.6382 -9.990e-29 -9.990e-29 -9.990e-29     0.0000 -9.990e-29     0.0000     0.0423 1.8967e+02 -9.990e-29     -0.356     -0.516    29.1337 0.0000e+00
     -0.367 -9.990e-29     7.6390 -9.990e-29 -9.990e-29 -9.990e-29     0.0000 -9.990e-29     0.0000     0.0423 1.8023e+02 -9.990e-29     -0.360     -0.523    29.1095 0.0000e+00
     -0.369 -9.990e-29     7.6463 -9.990e-29 -9.990e-29 -9.990e-29     0.0000 -9.990e-29     0.0000     0.0423 1.7249e+02 -9.990e-29     -0.362     -0.525    29.0997 0.0000e+00
