* Sea-Bird SBE19plus  Data File:
* FileName = C:\DATA\080618_fcr50_0002.hex
* Software version 2.6.3.104 SB_Terminal.dll
* Temperature SN = 7809
* Conductivity SN = 7809
* System UpLoad Time = Aug 06 2018 16:27:46
* <ApplicationData>
* <Seaterm232>
* <SoftwareVersion>2.6.3.104</SoftwareVersion>
* <BuildDate>30-Jun-2017</BuildDate>
* </Seaterm232>
* </ApplicationData>
* cast   2 06 Aug 2018 14:08:58 samples 1250 to 1590, avg = 1, stop = mag switch
# nquan = 15
# nvalues = 291                         
# units = specified
# name 0 = depFM: Depth [fresh water, m]
# name 1 = dz/dtM: Descent Rate [m/s]
# name 2 = sbeox0Mg/L: Oxygen, SBE 43 [mg/l]
# name 3 = sbeox0PS: Oxygen, SBE 43 [% saturation]
# name 4 = specc: Specific Conductance [uS/cm]
# name 5 = c0uS/cm: Conductivity [uS/cm]
# name 6 = flECO-AFL: Fluorescence, WET Labs ECO-AFL/FL [mg/m^3]
# name 7 = ph: pH
# name 8 = orp: Oxidation Reduction Potential [mV]
# name 9 = par/sat/log: PAR/Logarithmic, Satlantic
# name 10 = turbWETntu0: Turbidity, WET Labs ECO [NTU]
# name 11 = prdM: Pressure, Strain Gauge [db]
# name 12 = prdE: Pressure, Strain Gauge [psi]
# name 13 = tv290C: Temperature [ITS-90, deg C]
# name 14 = flag:  0.000e+00
# span 0 =     -0.512,      2.279       
# span 1 =     -0.009,      0.199       
# span 2 =     0.0743,     9.2586       
# span 3 =      0.862,    111.929       
# span 4 =      1.749,     42.035       
# span 5 =   1.697983,  40.125405       
# span 6 =    -1.1246,     7.5578       
# span 7 =      5.856,      8.017       
# span 8 =   131.2315,   256.1464       
# span 9 = 2.9135e+01, 1.3916e+03       
# span 10 =    -2.5946,     5.2959      
# span 11 =     -0.502,      2.237      
# span 12 =     -0.728,      3.244      
# span 13 =    22.6913,    25.5190      
# span 14 = 0.0000e+00, 0.0000e+00      
# interval = seconds: 0.25
# start_time = Aug 06 2018 14:08:58 [Instrument's time stamp, header]
# bad_flag = -9.990e-29
# <Sensors count="9" >
#   <sensor Channel="1" >
#     <!-- Count, Temperature -->
#     <TemperatureSensor SensorID="58" >
#       <SerialNumber>7809</SerialNumber>
#       <CalibrationDate>09-Mar-18</CalibrationDate>
#       <A0>1.21093245e-003</A0>
#       <A1>2.84356597e-004</A1>
#       <A2>-1.94507398e-006</A2>
#       <A3>2.12806664e-007</A3>
#       <Slope>1.00000000</Slope>
#       <Offset>0.0000</Offset>
#     </TemperatureSensor>
#   </sensor>
#   <sensor Channel="2" >
#     <!-- Frequency 0, Conductivity -->
#     <ConductivitySensor SensorID="3" >
#       <SerialNumber>7809</SerialNumber>
#       <CalibrationDate>09-Mar-18</CalibrationDate>
#       <UseG_J>1</UseG_J>
#       <!-- Cell const and series R are applicable only for wide range sensors. -->
#       <SeriesR>0.0000</SeriesR>
#       <CellConst>2000.0000</CellConst>
#       <ConductivityType>0</ConductivityType>
#       <Coefficients equation="0" >
#         <A>0.00000000e+000</A>
#         <B>0.00000000e+000</B>
#         <C>0.00000000e+000</C>
#         <D>0.00000000e+000</D>
#         <M>0.0</M>
#         <CPcor>-9.57000000e-008</CPcor>
#       </Coefficients>
#       <Coefficients equation="1" >
#         <G>-1.00672082e+000</G>
#         <H>1.26906489e-001</H>
#         <I>-1.40584351e-004</I>
#         <J>2.47837121e-005</J>
#         <CPcor>-9.57000000e-008</CPcor>
#         <CTcor>3.2500e-006</CTcor>
#         <!-- WBOTC not applicable unless ConductivityType = 1. -->
#         <WBOTC>0.00000000e+000</WBOTC>
#       </Coefficients>
#       <Slope>1.00000000</Slope>
#       <Offset>0.00000</Offset>
#     </ConductivitySensor>
#   </sensor>
#   <sensor Channel="3" >
#     <!-- Count, Pressure, Strain Gauge -->
#     <PressureSensor SensorID="46" >
#       <SerialNumber>7809</SerialNumber>
#       <CalibrationDate>07-Mar-18</CalibrationDate>
#       <PA0>-4.08176359e-002</PA0>
#       <PA1>4.85188419e-004</PA1>
#       <PA2>-3.51168169e-012</PA2>
#       <PTEMPA0>-5.37806900e+001</PTEMPA0>
#       <PTEMPA1>5.36620721e+001</PTEMPA1>
#       <PTEMPA2>4.87214332e-002</PTEMPA2>
#       <PTCA0>5.25213435e+005</PTCA0>
#       <PTCA1>1.79532409e+000</PTCA1>
#       <PTCA2>-2.84353509e-001</PTCA2>
#       <PTCB0>2.51668750e+001</PTCB0>
#       <PTCB1>3.75000000e-004</PTCB1>
#       <PTCB2>0.00000000e+000</PTCB2>
#       <Offset>0.000000</Offset>
#     </PressureSensor>
#   </sensor>
#   <sensor Channel="4" >
#     <!-- A/D voltage 0, pH -->
#     <pH_Sensor SensorID="43" >
#       <SerialNumber>0363</SerialNumber>
#       <CalibrationDate>16-Mar-18</CalibrationDate>
#       <Slope>4.6194</Slope>
#       <Offset>2.5947</Offset>
#     </pH_Sensor>
#   </sensor>
#   <sensor Channel="5" >
#     <!-- A/D voltage 1, Oxidation Reduction Potential -->
#     <OxidationReductionPotentialSensor SensorID="41" >
#       <SerialNumber>0363</SerialNumber>
#       <CalibrationDate>16-Mar-18</CalibrationDate>
#       <B>2.499480</B>
#       <M>-0.496195</M>
#       <Offset>0.0</Offset>
#     </OxidationReductionPotentialSensor>
#   </sensor>
#   <sensor Channel="6" >
#     <!-- A/D voltage 2, Oxygen, SBE 43 -->
#     <OxygenSensor SensorID="38" >
#       <SerialNumber>0434</SerialNumber>
#       <CalibrationDate>13-Mar-18</CalibrationDate>
#       <Use2007Equation>1</Use2007Equation>
#       <CalibrationCoefficients equation="0" >
#         <!-- Coefficients for Owens-Millard equation. -->
#         <Boc>0.0000</Boc>
#         <Soc>0.0000e+000</Soc>
#         <offset>0.0000</offset>
#         <Pcor>0.00e+000</Pcor>
#         <Tcor>0.0000</Tcor>
#         <Tau>0.0</Tau>
#       </CalibrationCoefficients>
#       <CalibrationCoefficients equation="1" >
#         <!-- Coefficients for Sea-Bird equation - SBE calibration in 2007 and later. -->
#         <Soc>4.5718e-001</Soc>
#         <offset>-0.6113</offset>
#         <A>-4.0649e-003</A>
#         <B> 2.0945e-004</B>
#         <C>-3.3182e-006</C>
#         <D0> 2.5826e+000</D0>
#         <D1> 1.92634e-004</D1>
#         <D2>-4.64803e-002</D2>
#         <E> 3.6000e-002</E>
#         <Tau20> 1.2200</Tau20>
#         <H1>-3.3000e-002</H1>
#         <H2> 5.0000e+003</H2>
#         <H3> 1.4500e+003</H3>
#       </CalibrationCoefficients>
#     </OxygenSensor>
#   </sensor>
#   <sensor Channel="7" >
#     <!-- A/D voltage 3, PAR/Logarithmic, Satlantic -->
#     <PARLog_SatlanticSensor SensorID="76" >
#       <SerialNumber>1122</SerialNumber>
#       <CalibrationDate>22-Jun-2017</CalibrationDate>
#       <a0>9.6090e-001</a0>
#       <a1>8.0780e-001</a1>
#       <Im>1.3589e+000</Im>
#       <Multiplier>1.0000e+000</Multiplier>
#     </PARLog_SatlanticSensor>
#   </sensor>
#   <sensor Channel="8" >
#     <!-- A/D voltage 4, Fluorometer, WET Labs ECO-AFL/FL -->
#     <FluoroWetlabECO_AFL_FL_Sensor SensorID="20" >
#       <SerialNumber>FLNTURT-2496</SerialNumber>
#       <CalibrationDate>25-Jan-2017</CalibrationDate>
#       <ScaleFactor>5.30000000e+001</ScaleFactor>
#       <!-- Dark output -->
#       <Vblank>0.0560</Vblank>
#     </FluoroWetlabECO_AFL_FL_Sensor>
#   </sensor>
#   <sensor Channel="9" >
#     <!-- A/D voltage 5, Turbidity Meter, WET Labs, ECO-NTU -->
#     <TurbidityMeter SensorID="67" >
#       <SerialNumber>FLNTURT-2496</SerialNumber>
#       <CalibrationDate>25-Jan-2017</CalibrationDate>
#       <ScaleFactor>176.000000</ScaleFactor>
#       <!-- Dark output -->
#       <DarkVoltage>0.072000</DarkVoltage>
#     </TurbidityMeter>
#   </sensor>
# </Sensors>
# datcnv_date = Aug 06 2018 16:30:31, 7.26.7.114 [datcnv_vars = 14]
# datcnv_in = C:\DATA\080618_fcr10.hex C:\DATA\SBE19plusV2_7809.xmlcon
# datcnv_skipover = 0
# datcnv_ox_hysteresis_correction = yes
# datcnv_ox_tau_correction = yes
# filter_date = Aug 06 2018 16:30:50, 7.26.7.114
# filter_in = C:\DATA\080618_fcr10.cnv
# filter_low_pass_tc_A = 0.030
# filter_low_pass_tc_B = 0.150
# filter_low_pass_A_vars = prdM prdE tv290C
# filter_low_pass_B_vars = depFM dz/dtM sbeox0Mg/L sbeox0PS specc c0uS/cm flECO-AFL ph orp par/sat/log turbWETntu0
# alignctd_date = Aug 06 2018 16:31:06, 7.26.7.114
# alignctd_in = C:\DATA\080618_fcr10.cnv
# alignctd_adv = dz/dtM 1.000, sbeox0Mg/L 1.000, sbeox0PS 1.000, specc 1.000, c0uS/cm 1.000, flECO-AFL 1.000, ph 1.000, orp 1.000, turbWETntu0 1.000                                                                                 
# file_type = ascii
*END*
     -0.510     -0.001     7.7877     91.737      1.789   1.737310    -0.1497      6.191   210.8151 5.0732e+02     0.0450     -0.500     -0.726    23.5440 0.0000e+00
     -0.510     -0.001     7.7891     91.755      1.789   1.737072    -0.1523      6.191   209.4499 4.7997e+02     0.0090     -0.500     -0.726    23.5446 0.0000e+00
     -0.511     -0.001     7.7886     91.750      1.788   1.735813    -0.1703      6.192   209.6980 4.9141e+02    -0.0731     -0.501     -0.727    23.5454 0.0000e+00
     -0.511     -0.000     7.7874     91.738      1.774   1.722090    -0.1929      6.194   208.9114 5.3196e+02    -0.1541     -0.501     -0.727    23.5465 0.0000e+00
     -0.511 -1.892e-08     7.7871     91.736      1.749   1.697983    -0.2052      6.194   208.4572 5.4063e+02    -0.2075     -0.501     -0.727    23.5475 0.0000e+00
     -0.511 -2.081e-07     7.7864     91.728      1.749   1.697997    -0.2092      6.194   209.1100 5.1570e+02    -0.2606     -0.501     -0.727    23.5484 0.0000e+00
     -0.511 -2.420e-07     7.7852     91.715      1.774   1.722257    -0.2134      6.194   208.7169 5.6556e+02    -0.2778     -0.501     -0.727    23.5493 0.0000e+00
     -0.510 -4.281e-07     7.7848     91.712      1.790   1.737650    -0.2000      6.194   210.0705 6.9406e+02    -0.2628     -0.500     -0.726    23.5502 0.0000e+00
     -0.510     -0.000     7.7853     91.722      1.810   1.757276    -0.1765      6.194   216.4421 7.6730e+02    -0.2616     -0.501     -0.726    23.5509 0.0000e+00
     -0.511     -0.000     7.7856     91.731      1.887   1.832721    -0.1682      6.184   219.1610 7.4534e+02    -0.2334     -0.501     -0.727    23.5517 0.0000e+00
     -0.511     -0.001     7.7847     91.725      2.010   1.952287    -0.1633      6.077   205.4318 7.4935e+02    -0.1964     -0.501     -0.727    23.5524 0.0000e+00
     -0.511     -0.001     7.7845     91.725      2.122   2.061457    -0.1544      5.898   192.4950 8.4145e+02    -0.2107     -0.501     -0.727    23.5532 0.0000e+00
     -0.511     -0.001     7.7850     91.731      2.267   2.201445    -0.1526      5.856   202.3844 9.1508e+02    -0.2240     -0.501     -0.727    23.5555 0.0000e+00
     -0.511     -0.000     7.7842     91.722      2.512   2.439954    -0.1597      5.951   216.9384 9.8433e+02    -0.2036     -0.502     -0.728    23.5585 0.0000e+00
     -0.511      0.000     7.7830     91.708      2.806   2.725657    -0.1672      6.052   226.1569 9.5313e+02    -0.1786     -0.502     -0.728    23.5613 0.0000e+00
     -0.511      0.000     7.7825     91.703      3.145   3.055728    -0.1692      6.141   232.1939 8.5716e+02    -0.1044     -0.501     -0.727    23.5623 0.0000e+00
     -0.512      0.004     7.7820     91.708      5.309   5.162451    -0.1659      6.397   207.0743 9.4161e+02    -0.0075     -0.502     -0.728    23.5630 0.0000e+00
     -0.512      0.021     7.7715     91.712     14.669  14.307031    -0.1640      6.932   156.1203 1.0499e+03     0.0165     -0.502     -0.728    23.5624 0.0000e+00
     -0.512      0.056     7.7298     91.687     28.251  27.694573    -0.1827      7.478   131.2315 1.0485e+03    -0.0283     -0.502     -0.728    23.5633 0.0000e+00
     -0.511      0.106     7.6602     91.642     35.111  34.687846    -0.4193      7.823   134.4077 1.0478e+03    -0.6718     -0.502     -0.727    23.5617 0.0000e+00
     -0.497      0.154     7.5961     91.618     35.764  35.634777    -0.8648      7.986   140.1462 1.0882e+03    -1.9046     -0.502     -0.728    23.5640 0.0000e+00
     -0.446      0.188     7.5552     91.639     35.628  35.714187    -1.1124      8.017   145.7226 1.1489e+03    -2.5735     -0.458     -0.664    23.5601 0.0000e+00
     -0.353      0.199     7.5369     91.734     35.429  35.648310    -1.1246      7.976   150.8966 1.2089e+03    -2.5946     -0.343     -0.496    23.8178 0.0000e+00
     -0.262      0.191     7.5434     91.989     35.308  35.600715    -1.0041      7.909   153.8346 1.2599e+03    -2.4650     -0.242     -0.352    24.4049 0.0000e+00
     -0.205      0.166     7.5889     92.637     35.252  35.583479     0.2625      7.844   155.0895 1.3048e+03    -1.0671     -0.189     -0.273    24.8709 0.0000e+00
     -0.184      0.127     7.6726     93.712     35.214  35.567019     2.5727      7.786   157.2072 1.3400e+03     1.5504     -0.171     -0.247    25.1522 0.0000e+00
     -0.186      0.085     7.7698     94.929     35.165  35.528763     3.8427      7.730   165.1563 1.3548e+03     2.9980     -0.187     -0.271    25.3362 0.0000e+00
     -0.182      0.052     7.8663     96.116     35.135  35.502071     3.9746      7.675   173.5078 1.3561e+03     3.1304     -0.186     -0.270    25.4226 0.0000e+00
     -0.163      0.034     7.9499     97.133     35.133  35.498385     4.0759      7.633   171.1998 1.3601e+03     3.1812     -0.158     -0.230    25.4720 0.0000e+00
     -0.145      0.027     8.0084     97.838     35.123  35.484192     4.2403      7.608   166.8479 1.3698e+03     3.2757     -0.138     -0.200    25.4991 0.0000e+00
     -0.138      0.026     8.0390     98.207     35.098  35.457495     4.3266      7.593   167.4367 1.3758e+03     3.3579     -0.132     -0.191    25.5160 0.0000e+00
     -0.139      0.024     8.0440     98.265     35.072  35.429670     4.3478      7.583   169.2855 1.3754e+03     3.3817     -0.135     -0.195    25.5190 0.0000e+00
     -0.142      0.021     8.0259     98.032     35.049  35.401847     4.4140      7.578   171.3908 1.3765e+03     3.3197     -0.141     -0.204    25.5141 0.0000e+00
     -0.141      0.020     7.9830     97.476     35.035  35.375171     4.5106      7.576   172.8439 1.3809e+03     3.2187     -0.142     -0.205    25.5072 0.0000e+00
     -0.131      0.021     7.9165     96.621     35.038  35.361189     4.5514      7.576   173.5189 1.3803e+03     3.1678     -0.131     -0.190    25.5058 0.0000e+00
     -0.117      0.021     7.8349     95.596     35.048  35.359805     4.5396      7.576   173.9596 1.3757e+03     3.1621     -0.111     -0.162    25.5055 0.0000e+00
     -0.107      0.022     7.7454     94.501     35.048  35.358420     4.4962      7.575   174.4731 1.3678e+03     3.2714     -0.101     -0.147    25.5031 0.0000e+00
     -0.105      0.024     7.6478     93.319     35.031  35.344447     4.4118      7.575   175.0813 1.3254e+03     3.4824     -0.101     -0.147    25.4836 0.0000e+00
     -0.108      0.028     7.5374     91.986     34.998  35.317902     4.3564      7.577   175.8923 1.2973e+03     3.5770     -0.106     -0.155    25.4496 0.0000e+00
     -0.108      0.035     7.4160     90.519     34.967  35.291558     4.3599      7.578   177.0523 1.3496e+03     3.5607     -0.109     -0.160    25.4316 0.0000e+00
     -0.098      0.045     7.2960     89.054     34.955  35.280022     4.4537      7.582   178.3519 1.3916e+03     3.4683     -0.098     -0.144    25.4352 0.0000e+00
     -0.079      0.055     7.1858     87.706     34.981  35.305460     4.6261      7.593   179.8175 1.3747e+03     3.2840     -0.077     -0.113    25.4415 0.0000e+00
     -0.057      0.060     7.0908     86.549     35.019  35.345050     4.7348      7.605   182.1251 1.3515e+03     3.1629     -0.055     -0.080    25.4500 0.0000e+00
     -0.036      0.058     7.0148     85.629     35.049  35.377578     4.7483      7.614   184.1416 1.3397e+03     3.1331     -0.035     -0.050    25.4624 0.0000e+00
     -0.020      0.048     6.9548     84.900     35.113  35.444677     4.7429      7.612   184.6674 1.3362e+03     3.1375     -0.018     -0.026    25.4606 0.0000e+00
     -0.008      0.034     6.9100     84.353     35.189  35.521132     4.7713      7.597   184.9545 1.3352e+03     3.1857     -0.007     -0.010    25.4537 0.0000e+00
     -0.002      0.019     6.8809     83.992     35.210  35.539727     4.8161      7.579   185.3764 1.3289e+03     3.2280     -0.000      0.000    25.4579 0.0000e+00
     -0.002      0.005     6.8636     83.773     35.216  35.542467     4.8349      7.573   185.9834 1.3116e+03     3.2213      0.000     -0.001    25.4647 0.0000e+00
     -0.005     -0.005     6.8571     83.689     35.230  35.554256     4.8423      7.579   187.6471 1.2784e+03     3.1963     -0.005     -0.008    25.4671 0.0000e+00
     -0.010     -0.009     6.8653     83.782     35.234  35.555225     4.9044      7.592   189.5742 1.2384e+03     3.1699     -0.008     -0.012    25.4680 0.0000e+00
     -0.016     -0.009     6.8918     84.095     35.238  35.554178     5.0256      7.603   190.3556 1.2106e+03     3.1457     -0.016     -0.023    25.4626 0.0000e+00
     -0.021     -0.006     6.9353     84.613     35.231  35.541580     5.0949      7.612   190.7285 1.1995e+03     3.1485     -0.023     -0.033    25.4546 0.0000e+00
     -0.022     -0.001     6.9925     85.296     35.226  35.529938     5.1081      7.621   192.3621 1.1990e+03     3.1727     -0.021     -0.031    25.4535 0.0000e+00
     -0.019      0.003     7.0627     86.142     35.241  35.540457     5.2031      7.627   194.8782 1.1943e+03     3.1634     -0.018     -0.027    25.4504 0.0000e+00
     -0.015      0.007     7.1439     87.131     35.244  35.541708     5.3714      7.632   196.0277 1.1761e+03     3.1274     -0.014     -0.020    25.4430 0.0000e+00
     -0.012      0.009     7.2277     88.157     35.246  35.545059     5.4610      7.632   196.0209 1.1581e+03     3.1351     -0.011     -0.016    25.4341 0.0000e+00
     -0.011      0.009     7.3018     89.067     35.279  35.580978     5.4685      7.626   196.9464 1.1520e+03     3.1650     -0.011     -0.016    25.4238 0.0000e+00
     -0.010      0.008     7.3558     89.734     35.289  35.594881     5.4522      7.618   198.4422 1.1530e+03     3.1522     -0.009     -0.014    25.4163 0.0000e+00
     -0.007      0.007     7.3854     90.101     35.277  35.586122     5.4207      7.611   199.9969 1.1528e+03     3.1334     -0.007     -0.010    25.4154 0.0000e+00
     -0.004      0.006     7.3918     90.181     35.292  35.602117     5.4094      7.608   202.2361 1.1457e+03     3.1518     -0.004     -0.006    25.4188 0.0000e+00
     -0.001      0.004     7.3806     90.046     35.350  35.661228     5.4251      7.610   204.3499 1.1340e+03     3.1612     -0.001     -0.002    25.4224 0.0000e+00
     -0.000      0.003     7.3616     89.816     35.416  35.729143     5.5196      7.612   205.7658 1.1234e+03     3.1555      0.001      0.001    25.4279 0.0000e+00
     -0.001      0.003     7.3436     89.599     35.411  35.724538     5.6876      7.609   207.1374 1.1174e+03     3.1437     -0.000     -0.001    25.4326 0.0000e+00
     -0.003      0.004     7.3325     89.460     35.357  35.669066     5.7749      7.604   208.1994 1.1192e+03     3.1407     -0.003     -0.004    25.4337 0.0000e+00
     -0.003      0.005     7.3286     89.407     35.321  35.630134     5.7750      7.602   208.9707 1.1286e+03     3.1801     -0.004     -0.006    25.4346 0.0000e+00
     -0.001      0.005     7.3289     89.403     35.329  35.634934     5.7810      7.605   210.0102 1.1414e+03     3.1928     -0.001     -0.003    25.4363 0.0000e+00
      0.004      0.005     7.3314     89.428     35.360  35.663576     5.8472      7.612   210.7015 1.1533e+03     3.1414      0.005      0.007    25.4376 0.0000e+00
      0.007      0.004     7.3360     89.483     35.356  35.658827     5.9507      7.622   210.4465 1.1612e+03     3.1084      0.009      0.013    25.4354 0.0000e+00
      0.007      0.003     7.3408     89.538     35.339  35.641042     6.0034      7.635   210.1096 1.1647e+03     3.0986      0.008      0.011    25.4308 0.0000e+00
      0.006      0.000     7.3420     89.550     35.339  35.639105     6.0244      7.648   210.2430 1.1628e+03     3.0842      0.006      0.009    25.4264 0.0000e+00
      0.005     -0.001     7.3376     89.499     35.334  35.635409     6.0123      7.661   210.2519 1.1458e+03     3.1472      0.005      0.008    25.4238 0.0000e+00
      0.004      0.001     7.3288     89.396     35.293  35.596348     5.9583      7.671   210.4746 1.0076e+03     3.2508      0.004      0.006    25.4227 0.0000e+00
      0.004      0.004     7.3200     89.293     35.243  35.547955     5.9322      7.679   211.3871 8.7824e+02     3.2998      0.004      0.005    25.4206 0.0000e+00
      0.005      0.005     7.3135     89.217     35.252  35.558469     5.9348      7.687   212.7677 9.7471e+02     3.3117      0.004      0.005    25.4190 0.0000e+00
      0.008      0.005     7.3020     89.086     35.287  35.596424     6.0085      7.693   213.7457 1.0898e+03     3.3035      0.007      0.008    25.4183 0.0000e+00
      0.014      0.005     7.2790     88.817     35.311  35.625745     6.1610      7.697   213.5750 1.1228e+03     3.3228      0.016      0.023    25.4238 0.0000e+00
      0.016      0.005     7.2496     88.471     35.338  35.658908     6.2351      7.700   213.1991 1.1447e+03     3.3611      0.018      0.027    25.4281 0.0000e+00
      0.013      0.006     7.2224     88.150     35.354  35.679801     6.2248      7.704   213.5028 1.1353e+03     3.3401      0.011      0.016    25.4257 0.0000e+00
      0.011      0.007     7.1957     87.828     35.360  35.687791     6.2563      7.704   214.5793 1.1232e+03     3.2514      0.009      0.014    25.4315 0.0000e+00
      0.013      0.008     7.1601     87.392     35.365  35.692002     6.3220      7.701   216.1483 1.1347e+03     3.1734      0.011      0.016    25.4412 0.0000e+00
      0.017      0.011     7.1113     86.791     35.343  35.667187     6.3483      7.697   217.1593 1.1474e+03     3.1607      0.016      0.023    25.4489 0.0000e+00
      0.023      0.013     7.0536     86.081     35.319  35.641843     6.3452      7.696   217.2527 1.1471e+03     3.1581      0.023      0.034    25.4567 0.0000e+00
      0.028      0.013     6.9977     85.397     35.318  35.639657     6.4032      7.696   217.0187 1.1448e+03     3.1424      0.028      0.041    25.4601 0.0000e+00
      0.032      0.011     6.9562     84.891     35.319  35.640748     6.5259      7.698   216.9971 1.1377e+03     3.1544      0.031      0.045    25.4575 0.0000e+00
      0.034      0.008     6.9353     84.636     35.333  35.655037     6.5971      7.700   217.3359 1.1178e+03     3.1811      0.033      0.048    25.4527 0.0000e+00
      0.034      0.004     6.9328     84.605     35.363  35.685378     6.6027      7.701   217.7601 1.1003e+03     3.1904      0.034      0.049    25.4493 0.0000e+00
      0.034      0.002     6.9420     84.719     35.367  35.689996     6.5846      7.703   218.0820 1.1028e+03     3.1758      0.034      0.049    25.4484 0.0000e+00
      0.034      0.001     6.9557     84.889     35.324  35.647358     6.3871      7.706   218.3892 1.1052e+03     3.1562      0.033      0.048    25.4491 0.0000e+00
      0.034      0.000     6.9716     85.085     35.291  35.614495     6.0345      7.709   218.8064 1.0961e+03     3.1670      0.033      0.048    25.4492 0.0000e+00
      0.034 5.7943e-08     6.9905     85.317     35.286  35.610259     5.8501      7.712   219.3413 1.0811e+03     3.1846      0.034      0.049    25.4492 0.0000e+00
      0.034 6.3737e-07     7.0103     85.560     35.271  35.596137     5.8398      7.715   219.9528 1.0338e+03     3.1861      0.034      0.049    25.4501 0.0000e+00
      0.034      0.000     7.0279     85.776     35.246  35.570799     5.8459      7.715   220.6935 8.9233e+02     3.1542      0.034      0.049    25.4515 0.0000e+00
      0.034      0.000     7.0402     85.926     35.233  35.557988     5.8499      7.716   221.5850 6.8293e+02     3.1033      0.033      0.049    25.4522 0.0000e+00
      0.034      0.001     7.0417     85.942     35.244  35.568277     5.8516      7.716   222.2996 5.4208e+02     3.1200      0.034      0.049    25.4535 0.0000e+00
      0.035      0.001     7.0297     85.793     35.246  35.568152     5.8667      7.717   222.7093 5.1674e+02     3.1731      0.035      0.050    25.4549 0.0000e+00
      0.035      0.001     7.0038     85.473     35.236  35.556477     5.9858      7.717   223.0103 5.5137e+02     3.2267      0.034      0.050    25.4555 0.0000e+00
      0.035      0.001     6.9604     84.938     35.236  35.554167     6.1798      7.719   223.2721 5.9729e+02     3.3110      0.034      0.050    25.4556 0.0000e+00
      0.036      0.001     6.9022     84.221     35.225  35.540213     6.2640      7.722   223.5523 6.0482e+02     3.3680      0.035      0.051    25.4544 0.0000e+00
      0.036      0.001     6.8339     83.381     35.202  35.514796     6.2783      7.725   223.9029 5.8252e+02     3.3671      0.035      0.050    25.4524 0.0000e+00
      0.036      0.001     6.7575     82.442     35.192  35.500936     6.3983      7.726   224.3277 6.7462e+02     3.3306      0.035      0.050    25.4497 0.0000e+00
      0.036      0.000     6.6808     81.498     35.194  35.499668     6.6023      7.726   224.7298 8.7912e+02     3.2926      0.035      0.051    25.4461 0.0000e+00
      0.036 1.8628e-08     6.6073     80.593     35.198  35.499459     6.7152      7.726   225.0656 9.9875e+02     3.3047      0.035      0.051    25.4422 0.0000e+00
      0.036 2.0490e-07     6.5357     79.712     35.201  35.498398     6.7245      7.725   225.4634 1.0191e+03     3.3244      0.036      0.051    25.4383 0.0000e+00
      0.036 2.0490e-07     6.4717     78.927     35.192  35.486839     6.7320      7.724   225.8397 1.0260e+03     3.3167      0.036      0.051    25.4334 0.0000e+00
      0.036 1.8627e-08     6.4178     78.266     35.193  35.486744     6.7428      7.723   226.0874 1.0292e+03     3.3343      0.035      0.050    25.4272 0.0000e+00
      0.036 1.6934e-09     6.3684     77.661     35.205  35.497234     6.7358      7.723   226.3069 1.0298e+03     3.3543      0.035      0.051    25.4212 0.0000e+00
      0.036 1.5417e-10     6.3210     77.080     35.196  35.486630     6.7288      7.723   226.5154 1.0303e+03     3.3445      0.035      0.051    25.4163 0.0000e+00
      0.036 1.6519e-11     6.2772     76.543     35.196  35.485570     6.7602      7.722   226.7146 1.0302e+03     3.3383      0.036      0.052    25.4128 0.0000e+00
      0.036 2.9031e-11     6.2383     76.067     35.196  35.484415     6.8209      7.719   226.9953 1.0285e+03     3.3396      0.036      0.052    25.4105 0.0000e+00
      0.036 3.0547e-10     6.2032     75.636     35.186  35.472665     6.8556      7.715   227.3283 1.0269e+03     3.3296      0.035      0.051    25.4087 0.0000e+00
      0.036 3.3589e-09     6.1706     75.235     35.185  35.470546     6.8586      7.713   227.6432 1.0262e+03     3.3089      0.036      0.052    25.4070 0.0000e+00
      0.036 3.6947e-08     6.1381     74.836     35.175  35.458796     6.8666      7.713   227.9629 1.0261e+03     3.3035      0.035      0.051    25.4051 0.0000e+00
      0.036 4.0642e-07     6.1043     74.420     35.176  35.457632     6.8976      7.711   228.3549 1.0266e+03     3.3251      0.035      0.051    25.4032 0.0000e+00
      0.036      0.000     6.0705     74.005     35.177  35.456477     6.9300      7.707   228.7684 1.0279e+03     3.3561      0.036      0.052    25.4013 0.0000e+00
      0.036      0.000     6.0376     73.600     35.167  35.444822     6.9362      7.701   229.0914 1.0304e+03     3.3735      0.035      0.051    25.3996 0.0000e+00
      0.036      0.001     6.0055     73.205     35.168  35.443753     6.9364      7.693   229.4205 1.0329e+03     3.3839      0.036      0.052    25.3972 0.0000e+00
      0.036      0.001     5.9748     72.827     35.170  35.443552     6.9411      7.687   229.8231 1.0331e+03     3.3899      0.035      0.051    25.3943 0.0000e+00
      0.037      0.000     5.9456     72.467     35.170  35.442389     6.9382      7.682   230.1729 1.0324e+03     3.3854      0.036      0.052    25.3915 0.0000e+00
      0.037 1.8474e-08     5.9167     72.112     35.159  35.429685     6.9291      7.680   230.4664 1.0320e+03     3.3894      0.036      0.052    25.3886 0.0000e+00
      0.037 2.0321e-07     5.8888     71.768     35.148  35.416980     6.9229      7.681   230.7058 1.0303e+03     3.3771      0.036      0.052    25.3860 0.0000e+00
      0.037 2.0321e-07     5.8624     71.443     35.149  35.415825     6.9090      7.683   230.8296 1.0273e+03     3.3285      0.036      0.052    25.3836 0.0000e+00
      0.037 1.8474e-08     5.8371     71.131     35.152  35.415720     6.8802      7.685   230.9306 1.0242e+03     3.3206      0.036      0.052    25.3810 0.0000e+00
      0.037 1.6795e-09     5.8124     70.827     35.154  35.415702     6.8604      7.685   231.0662 1.0208e+03     3.3728      0.036      0.052    25.3789 0.0000e+00
      0.037 1.5374e-10     5.7882     70.528     35.155  35.415597     6.8533      7.684   231.1794 1.0171e+03     3.3793      0.036      0.052    25.3761 0.0000e+00
      0.037 2.5576e-11     5.7646     70.237     35.156  35.414452     6.8674      7.681   231.2661 1.0121e+03     3.3083      0.036      0.052    25.3727 0.0000e+00
      0.037 1.4254e-10     5.7411     69.947     35.145  35.401853     6.9029      7.678   231.5121 1.0052e+03     3.2161      0.036      0.052    25.3696 0.0000e+00
      0.037 1.5680e-09     5.7193     69.678     35.135  35.390304     6.9237      7.675   231.8315 9.8886e+02     3.1497      0.036      0.052    25.3668 0.0000e+00
      0.038 1.7248e-08     5.7000     69.440     35.148  35.401853     6.9253      7.673   232.0296 8.9750e+02     3.1162      0.037      0.053    25.3641 0.0000e+00
      0.038 1.8972e-07     5.6818     69.217     35.162  35.414452     6.9125      7.670   232.2731 7.3924e+02     3.1159      0.037      0.054    25.3615 0.0000e+00
      0.038 2.2421e-07     5.6645     69.004     35.165  35.415587     6.8068      7.666   232.6244 7.1732e+02     3.1464      0.037      0.053    25.3591 0.0000e+00
      0.037 4.3425e-07     5.6480     68.799     35.166  35.415577     6.6303      7.663   232.9216 8.6155e+02     3.1490      0.036      0.053    25.3569 0.0000e+00
      0.037      0.000     5.6326     68.609     35.167  35.414328     6.5520      7.661   232.9414 9.6267e+02     3.1476      0.036      0.053    25.3545 0.0000e+00
      0.038      0.000     5.6189     68.439     35.155  35.400490     6.5499      7.662   232.6045 9.2402e+02     3.1905      0.037      0.054    25.3524 0.0000e+00
      0.038      0.001     5.6056     68.272     35.132  35.375291     6.4672      7.665   232.2905 8.1016e+02     3.2401      0.037      0.054    25.3507 0.0000e+00
      0.038      0.001     5.5915     68.097     35.122  35.363733     6.3145      7.668   232.1564 7.9836e+02     3.2895      0.037      0.053    25.3486 0.0000e+00
      0.038      0.002     5.5787     67.939     35.148  35.387787     6.2298      7.669   231.8444 9.1410e+02     3.3298      0.038      0.054    25.3463 0.0000e+00
      0.038      0.004     5.5682     67.811     35.173  35.412032     6.2332      7.671   231.7879 9.8793e+02     3.3623      0.038      0.054    25.3438 0.0000e+00
      0.039      0.007     5.5607     67.721     35.163  35.402793     6.3182      7.676   232.0752 9.9517e+02     3.3772      0.038      0.055    25.3409 0.0000e+00
      0.040      0.011     5.5605     67.721     35.162  35.403125     6.4578      7.682   232.1337 9.9465e+02     3.3572      0.039      0.056    25.3381 0.0000e+00
      0.043      0.015     5.5681     67.816     35.172  35.416058     6.5247      7.690   232.0661 9.9450e+02     3.3332      0.042      0.060    25.3354 0.0000e+00
      0.049      0.019     5.5810     67.976     35.186  35.432114     6.5293      7.698   231.9460 9.9632e+02     3.3308      0.048      0.070    25.3341 0.0000e+00
      0.055      0.023     5.5999     68.211     35.221  35.470217     6.5414      7.707   231.7994 9.9398e+02     3.2987      0.055      0.078    25.3357 0.0000e+00
      0.061      0.026     5.6244     68.515     35.244  35.495634     6.5516      7.713   231.6705 9.3446e+02     3.2197      0.060      0.087    25.3379 0.0000e+00
      0.067      0.030     5.6527     68.866     35.230  35.485355     6.5512      7.715   231.5062 8.1454e+02     3.1689      0.066      0.096    25.3398 0.0000e+00
      0.075      0.033     5.6824     69.235     35.215  35.472983     6.5460      7.714   230.5867 7.3182e+02     3.1734      0.073      0.106    25.3426 0.0000e+00
      0.084      0.037     5.7124     69.606     35.211  35.473098     6.5438      7.713   228.9843 6.8408e+02     3.2439      0.081      0.118    25.3462 0.0000e+00
      0.094      0.041     5.7447     70.004     35.222  35.486739     6.5526      7.712   228.2220 6.4155e+02     3.3190      0.091      0.133    25.3507 0.0000e+00
      0.105      0.044     5.7787     70.420     35.245  35.510878     6.5691      7.713   228.2520 6.3802e+02     3.3483      0.103      0.149    25.3555 0.0000e+00
      0.118      0.047     5.8104     70.810     35.243  35.510879     6.5782      7.715   227.9705 6.3042e+02     3.3547      0.116      0.168    25.3608 0.0000e+00
      0.130      0.049     5.8373     71.142     35.218  35.486750     6.6530      7.716   227.3135 5.7726e+02     3.3353      0.129      0.187    25.3666 0.0000e+00
      0.143      0.052     5.8604     71.427     35.202  35.473223     6.8123      7.714   226.8475 5.2646e+02     3.3278      0.140      0.202    25.3701 0.0000e+00
      0.156      0.055     5.8836     71.713     35.202  35.474378     6.9141      7.707   226.7245 4.8650e+02     3.3545      0.153      0.221    25.3711 0.0000e+00
      0.169      0.058     5.9101     72.036     35.228  35.500712     6.9374      7.697   226.7730 4.2594e+02     3.3836      0.166      0.240    25.3727 0.0000e+00
      0.184      0.062     5.9396     72.389     35.268  35.537545     6.9473      7.690   226.9174 3.8047e+02     3.3750      0.179      0.260    25.3757 0.0000e+00
      0.201      0.065     5.9689     72.740     35.272  35.538595     7.0332      7.683   227.1797 3.7668e+02     3.3415      0.198      0.286    25.3782 0.0000e+00
      0.220      0.067     5.9965     73.075     35.247  35.513397     7.2047      7.674   227.3632 3.9699e+02     3.3451      0.217      0.314    25.3822 0.0000e+00
      0.238      0.068     6.0194     73.352     35.222  35.486958     7.3023      7.667   227.2435 4.2524e+02     3.3575      0.234      0.340    25.3834 0.0000e+00
      0.255      0.067     6.0331     73.512     35.212  35.473006     7.3120      7.662   227.2812 4.4169e+02     3.3077      0.250      0.363    25.3757 0.0000e+00
      0.273      0.065     6.0345     73.522     35.215  35.471739     7.3219      7.658   227.6468 4.4581e+02     3.2623      0.268      0.389    25.3699 0.0000e+00
      0.290      0.065     6.0268     73.424     35.216  35.471624     7.3482      7.655   228.0507 4.4596e+02     3.2973      0.286      0.415    25.3716 0.0000e+00
      0.305      0.066     6.0180     73.317     35.215  35.471614     7.3736      7.652   228.4652 4.3961e+02     3.3642      0.299      0.434    25.3721 0.0000e+00
      0.319      0.067     6.0140     73.271     35.215  35.471621     7.3811      7.652   228.8718 4.4400e+02     3.3988      0.312      0.453    25.3648 0.0000e+00
      0.336      0.068     6.0205     73.348     35.216  35.471716     7.3740      7.653   229.1809 4.4020e+02     3.4115      0.330      0.477    25.3566 0.0000e+00
      0.356      0.069     6.0383     73.561     35.219  35.472757     7.3710      7.656   229.4489 4.0799e+02     3.4566      0.348      0.504    25.3552 0.0000e+00
      0.375      0.069     6.0655     73.890     35.232  35.484212     7.3806      7.660   229.8761 3.7760e+02     3.5166      0.369      0.535    25.3570 0.0000e+00
      0.393      0.069     6.1018     74.330     35.232  35.483162     7.3804      7.661   230.4743 3.6250e+02     3.5575      0.387      0.561    25.3587 0.0000e+00
      0.410      0.068     6.1428     74.826     35.211  35.460063     7.4137      7.661   231.0893 3.6098e+02     3.5233      0.402      0.583    25.3567 0.0000e+00
      0.426      0.066     6.1830     75.311     35.212  35.459014     7.4992      7.661   231.8055 3.5259e+02     3.4087      0.418      0.606    25.3534 0.0000e+00
      0.443      0.064     6.2176     75.728     35.226  35.470468     7.5507      7.661   232.5949 3.3802e+02     3.3313      0.435      0.630    25.3516 0.0000e+00
      0.460      0.063     6.2426     76.029     35.229  35.471499     7.5578      7.661   233.1482 3.2804e+02     3.3508      0.452      0.656    25.3502 0.0000e+00
      0.475      0.064     6.2598     76.234     35.230  35.471479     7.5298      7.657   233.5043 3.1549e+02     3.4008      0.466      0.676    25.3487 0.0000e+00
      0.490      0.066     6.2723     76.385     35.230  35.470219     7.4695      7.650   233.8896 3.0647e+02     3.3863      0.480      0.696    25.3457 0.0000e+00
      0.505      0.069     6.2808     76.488     35.217  35.456265     7.4353      7.642   234.5375 2.9953e+02     3.3583      0.495      0.718    25.3418 0.0000e+00
      0.523      0.073     6.2858     76.546     35.191  35.429800     7.4287      7.634   235.3155 2.8849e+02     3.3666      0.512      0.742    25.3380 0.0000e+00
      0.544      0.074     6.2876     76.564     35.168  35.404315     7.4168      7.626   235.8109 2.7563e+02     3.3650      0.533      0.773    25.3355 0.0000e+00
      0.565      0.074     6.2834     76.505     35.170  35.402216     7.3846      7.621   236.1398 2.6722e+02     3.3392      0.554      0.803    25.3345 0.0000e+00
      0.587      0.073     6.2723     76.360     35.177  35.404412     7.3326      7.618   236.4522 2.6594e+02     3.2985      0.577      0.837    25.3341 0.0000e+00
      0.605      0.070     6.2690     76.295     35.089  35.303821     7.3026      7.617   236.6637 2.6823e+02     3.2997      0.596      0.864    25.3342 0.0000e+00
      0.620      0.067     6.3290     76.959     34.957  35.138767     7.3068      7.617   236.8042 2.6933e+02     3.3540      0.609      0.882    25.3310 0.0000e+00
      0.635      0.065     6.5376     79.385     34.931  35.060238     7.3553      7.617   236.9459 2.6645e+02     3.4059      0.623      0.903    25.3239 0.0000e+00
      0.651      0.064     6.9208     83.933     34.971  35.052983     7.4391      7.615   237.3450 2.6006e+02     3.4084      0.638      0.925    25.3178 0.0000e+00
      0.667      0.066     7.4203     89.914     35.002  35.050966     7.4840      7.608   237.8436 2.5332e+02     3.3543      0.654      0.949    25.3126 0.0000e+00
      0.684      0.070     7.9518     96.296     35.010  35.035802     7.4847      7.596   238.0691 2.4678e+02     3.2998      0.671      0.974    25.2672 0.0000e+00
      0.701      0.073     8.4391    102.149     34.990  34.996646     7.4202      7.590   238.2656 2.3768e+02     3.3305      0.687      0.996    25.1743 0.0000e+00
      0.721      0.075     8.8342    106.890     34.967  34.958621     7.3014      7.594   238.4983 2.2638e+02     3.4503      0.705      1.022    25.1012 0.0000e+00
      0.742      0.075     9.1072    110.157     34.977  34.957133     7.2431      7.601   238.7321 2.1668e+02     3.5268      0.728      1.058    25.0601 0.0000e+00
      0.762      0.074     9.2427    111.765     35.010  34.978638     7.2394      7.610   239.0278 2.0983e+02     3.5236      0.749      1.086    25.0285 0.0000e+00
      0.781      0.073     9.2586    111.929     35.005  34.964552     7.2191      7.620   239.3194 2.0417e+02     3.4731      0.766      1.110    25.0030 0.0000e+00
      0.800      0.072     9.1915    111.094     34.963  34.913842     7.1915      7.627   239.6767 2.0052e+02     3.3743      0.785      1.138    24.9823 0.0000e+00
      0.817      0.070     9.0823    109.750     34.931  34.873650     7.1805      7.629   239.8205 1.9935e+02     3.3054      0.802      1.162    24.9648 0.0000e+00
      0.832      0.070     8.9676    108.341     34.924  34.859697     7.1688      7.630   239.5952 1.9778e+02     3.3111      0.816      1.182    24.9487 0.0000e+00
      0.850      0.070     8.8686    107.127     34.943  34.872163     7.0781      7.630   239.6201 1.9383e+02     3.3518      0.832      1.208    24.9355 0.0000e+00
      0.870      0.070     8.7921    106.194     34.972  34.897331     6.8736      7.630   239.9493 1.8864e+02     3.3701      0.854      1.237    24.9237 0.0000e+00
      0.889      0.070     8.7370    105.526     34.986  34.909918     6.6908      7.633   240.0482 1.8437e+02     3.3497      0.873      1.265    24.9121 0.0000e+00
      0.906      0.070     8.6961    105.029     34.974  34.897309     6.6243      7.638   240.0410 1.8007e+02     3.3495      0.889      1.288    24.9006 0.0000e+00
      0.923      0.070     8.6648    104.635     34.954  34.871912     6.6113      7.644   240.2074 1.7440e+02     3.3673      0.905      1.313    24.8903 0.0000e+00
      0.941      0.070     8.6392    104.296     34.950  34.856920     6.5789      7.652   240.5105 1.6913e+02     3.3522      0.923      1.339    24.8857 0.0000e+00
      0.958      0.071     8.6127    103.941     34.949  34.843055     6.5265      7.658   240.7805 1.6510e+02     3.3494      0.939      1.363    24.8862 0.0000e+00
      0.976      0.071     8.5804    103.515     34.951  34.831290     6.4932      7.662   241.4079 1.6047e+02     3.3640      0.957      1.389    24.8873 0.0000e+00
      0.994      0.070     8.5437    103.042     34.972  34.841685     6.4790      7.666   242.0725 1.5483e+02     3.3453      0.975      1.413    24.8800 0.0000e+00
      1.014      0.069     8.5069    102.577     34.980  34.841695     6.4743      7.671   242.0197 1.4976e+02     3.3372      0.994      1.442    24.8616 0.0000e+00
      1.033      0.066     8.4707    102.127     34.974  34.831396     6.4823      7.675   241.8013 1.4535e+02     3.3567      1.014      1.471    24.8425 0.0000e+00
      1.050      0.063     8.4347    101.683     34.990  34.844194     6.4928      7.677   241.4978 1.4107e+02     3.3674      1.030      1.494    24.8228 0.0000e+00
      1.065      0.061     8.3997    101.252     35.020  34.869393     6.4913      7.678   241.2744 1.3723e+02     3.3450      1.045      1.515    24.8057 0.0000e+00
      1.078      0.060     8.3664    100.841     35.036  34.881984     6.4276      7.674   241.4240 1.3397e+02     3.2687      1.057      1.533    24.7953 0.0000e+00
      1.091      0.062     8.3349    100.449     35.028  34.869386     6.3014      7.667   241.5000 1.3067e+02     3.1775      1.070      1.551    24.7894 0.0000e+00
      1.105      0.066     8.3039    100.062     35.008  34.844105     6.2241      7.657   241.8486 1.2680e+02     3.1274      1.083      1.570    24.7847 0.0000e+00
      1.122      0.071     8.2706     99.647     34.999  34.830385     6.2092      7.646   242.6271 1.2246e+02     3.1208      1.097      1.591    24.7791 0.0000e+00
      1.143      0.075     8.2334     99.183     35.005  34.830533     6.1034      7.635   242.9975 1.1833e+02     3.1287      1.120      1.624    24.7743 0.0000e+00
      1.165      0.077     8.1930     98.683     35.026  34.845882     5.9009      7.628   243.0571 1.1470e+02     3.1311      1.143      1.658    24.7676 0.0000e+00
      1.187      0.077     8.1535     98.194     35.074  34.888918     5.7928      7.625   243.0897 1.1165e+02     3.1189      1.164      1.688    24.7609 0.0000e+00
      1.207      0.076     8.1224     97.803     35.162  34.969752     5.7968      7.624   242.7904 1.0956e+02     3.1034      1.185      1.719    24.7533 0.0000e+00
      1.224      0.075     8.1036     97.557     35.261  35.060991     5.8855      7.623   242.5357 1.0786e+02     3.0662      1.200      1.742    24.7435 0.0000e+00
      1.240      0.075     8.0940     97.422     35.311  35.102796     6.0292      7.620   242.5911 1.0579e+02     2.9745      1.215      1.763    24.7364 0.0000e+00
      1.258      0.076     8.0874     97.322     35.310  35.094083     6.0912      7.619   242.7720 1.0347e+02     2.9097      1.234      1.789    24.7311 0.0000e+00
      1.278      0.076     8.0775     97.183     35.307  35.082671     6.0928      7.619   243.0879 1.0104e+02     2.9233      1.253      1.817    24.7218 0.0000e+00
      1.300      0.076     8.0585     96.931     35.326  35.091839     6.0944      7.619   243.3990 9.8387e+01     2.9568      1.275      1.849    24.7099 0.0000e+00
      1.322      0.075     8.0255     96.515     35.319  35.077881     6.0471      7.618   243.5224 9.5908e+01     2.9784      1.298      1.882    24.6984 0.0000e+00
      1.342      0.072     7.9816     95.975     35.287  35.040935     5.9617      7.615   243.6334 9.3972e+01     2.9704      1.317      1.909    24.6877 0.0000e+00
      1.359      0.069     7.9348     95.398     35.278  35.026235     5.9166      7.608   243.8806 9.2367e+01     2.9519      1.335      1.935    24.6771 0.0000e+00
      1.374      0.065     7.8891     94.829     35.286  35.027181     5.9153      7.603   244.1886 9.0747e+01     2.9685      1.348      1.954    24.6624 0.0000e+00
      1.389      0.063     7.8438     94.264     35.320  35.052362     5.8996      7.601   244.4317 8.8918e+01     2.9267      1.361      1.973    24.6508 0.0000e+00
      1.406      0.061     7.7950     93.658     35.353  35.076610     5.8647      7.596   244.5839 8.7239e+01     2.8128      1.379      2.001    24.6468 0.0000e+00
      1.422      0.061     7.7456     93.045     35.349  35.066264     5.8522      7.590   244.7374 8.5850e+01     2.7510      1.395      2.024    24.6392 0.0000e+00
      1.437      0.061     7.7039     92.530     35.344  35.054301     5.8584      7.586   244.9969 8.4367e+01     2.7283      1.408      2.041    24.6265 0.0000e+00
      1.452      0.060     7.6724     92.143     35.353  35.058989     5.8844      7.585   245.3990 8.2751e+01     2.7214      1.423      2.064    24.6150 0.0000e+00
      1.468      0.059     7.6493     91.860     35.419  35.122939     5.9455      7.583   245.8998 8.1251e+01     2.7289      1.440      2.088    24.6040 0.0000e+00
      1.483      0.058     7.6343     91.673     35.684  35.382867     5.9914      7.580   246.4914 7.9861e+01     2.7275      1.455      2.110    24.5922 0.0000e+00
      1.498      0.057     7.6283     91.593     36.353  36.042044     5.9980      7.576   246.8734 7.8490e+01     2.7352      1.469      2.131    24.5826 0.0000e+00
      1.512      0.054     7.6271     91.568     37.383  37.058326     6.0523      7.573   246.8189 7.7271e+01     2.7913      1.483      2.151    24.5778 0.0000e+00
      1.526      0.051     7.6216     91.491     38.353  38.014857     6.1707      7.568   246.6924 7.6111e+01     2.8873      1.496      2.170    24.5759 0.0000e+00
      1.539      0.049     7.6006     91.223     39.001  38.650032     6.2347      7.564   246.6346 7.4832e+01     2.9499      1.509      2.188    24.5726 0.0000e+00
      1.551      0.049     7.5484     90.582     39.317  38.956942     6.2285      7.561   246.6365 7.3764e+01     2.9679      1.522      2.207    24.5670 0.0000e+00
      1.562      0.050     7.4562     89.465     39.359  38.993831     6.1604      7.556   246.9735 7.2970e+01     2.9526      1.532      2.223    24.5616 0.0000e+00
      1.572      0.051     7.3312     87.960     39.337  38.968976     6.0450      7.550   247.3534 7.1953e+01     2.9179      1.540      2.234    24.5542 0.0000e+00
      1.584      0.053     7.1882     86.239     39.344  38.974082     5.9912      7.544   247.3579 7.0632e+01     2.9145      1.553      2.253    24.5441 0.0000e+00
      1.599      0.056     7.0435     84.492     39.304  38.928497     5.9880      7.536   247.3720 6.9255e+01     2.9418      1.569      2.275    24.5350 0.0000e+00
      1.615      0.060     6.9137     82.917     39.247  38.862537     5.9784      7.525   247.6108 6.7886e+01     2.9433      1.584      2.297    24.5290 0.0000e+00
      1.632      0.061     6.8053     81.594     39.272  38.875394     5.9946      7.512   247.9217 6.6541e+01     2.8708      1.601      2.323    24.5267 0.0000e+00
      1.648      0.061     6.7162     80.504     39.430  39.020401     6.0281      7.498   248.0332 6.5187e+01     2.7670      1.616      2.344    24.5249 0.0000e+00
      1.664      0.060     6.6479     79.664     39.642  39.218077     6.0436      7.485   247.9263 6.3904e+01     2.7267      1.632      2.367    24.5184 0.0000e+00
      1.680      0.059     6.6003     79.071     39.733  39.295949     6.0436      7.472   248.0068 6.2851e+01     2.7497      1.648      2.390    24.5050 0.0000e+00
      1.694      0.057     6.5678     78.661     39.647  39.199529     5.9369      7.459   248.2317 6.1819e+01     2.7392      1.660      2.408    24.4889 0.0000e+00
      1.708      0.056     6.5459     78.386     39.393  38.941710     5.7273      7.446   248.4950 6.0670e+01     2.6915      1.674      2.428    24.4746 0.0000e+00
      1.723      0.054     6.5353     78.251     38.915  38.465835     5.6141      7.432   248.8665 5.9635e+01     2.6611      1.690      2.450    24.4598 0.0000e+00
      1.737      0.054     6.5410     78.300     38.282  37.829409     5.6064      7.420   249.2827 5.8728e+01     2.6463      1.703      2.470    24.4440 0.0000e+00
      1.749      0.054     6.5650     78.550     37.747  37.282041     5.5967      7.407   249.6550 5.7857e+01     2.6654      1.716      2.489    24.4276 0.0000e+00
      1.762      0.053     6.6054     78.993     37.540  37.056926     5.5702      7.395   250.0127 5.6944e+01     2.7085      1.727      2.505    24.4187 0.0000e+00
      1.775      0.052     6.6575     79.591     37.509  37.013352     5.5438      7.385   250.4240 5.5936e+01     2.7408      1.741      2.525    24.4210 0.0000e+00
      1.790      0.053     6.7140     80.261     37.250  36.755163     5.5351      7.376   250.7560 5.5005e+01     2.7507      1.755      2.548    24.4093 0.0000e+00
      1.803      0.054     6.7687     80.901     36.910  36.412667     5.5666      7.367   251.0161 5.4230e+01     2.7368      1.769      2.566    24.3786 0.0000e+00
      1.815      0.056     6.8155     81.410     36.952  36.429658     5.6300      7.360   251.2460 5.3408e+01     2.7250      1.780      2.581    24.3463 0.0000e+00
      1.829      0.057     6.8476     81.720     37.334  36.769989     5.6676      7.354   251.7275 5.2433e+01     2.7304      1.792      2.599    24.3269 0.0000e+00
      1.844      0.058     6.8554     81.741     37.831  37.224226     5.6729      7.349   252.5369 5.1434e+01     2.7410      1.808      2.622    24.3327 0.0000e+00
      1.861      0.060     6.8199     81.260     38.504  37.856071     5.6840      7.344   253.0302 5.0405e+01     2.7619      1.825      2.647    24.3327 0.0000e+00
      1.877      0.061     6.7180     79.997     39.252  38.564930     5.7095      7.339   253.3039 4.9360e+01     2.7686      1.841      2.670    24.2941 0.0000e+00
      1.893      0.061     6.5467     77.908     39.718  38.997248     5.7336      7.335   253.8677 4.8398e+01     2.7308      1.856      2.692    24.2374 0.0000e+00
      1.908      0.060     6.3274     75.252     39.829  39.080704     5.7365      7.331   254.3404 4.7494e+01     2.7020      1.871      2.714    24.1880 0.0000e+00
      1.924      0.058     6.0888     72.372     39.710  38.938626     5.7083      7.327   254.3735 4.6639e+01     2.7246      1.886      2.736    24.1519 0.0000e+00
      1.939      0.057     5.8521     69.518     39.534  38.740597     5.4835      7.322   254.3544 4.5822e+01     3.0349      1.901      2.758    24.1204 0.0000e+00
      1.953      0.055     5.6187     66.716     39.532  38.719339     5.0771      7.316   254.5388 4.5018e+01     3.6162      1.916      2.778    24.0858 0.0000e+00
      1.966      0.052     5.3867     63.946     39.762  38.935699     4.8563      7.308   254.7967 4.4281e+01     3.9548      1.928      2.797    24.0542 0.0000e+00
      1.979      0.049     5.1737     61.403     40.038  39.196482     4.8274      7.301   254.8055 4.3641e+01     4.0467      1.941      2.815    24.0231 0.0000e+00
      1.992      0.046     5.0014     59.338     40.257  39.394666     4.6639      7.294   254.4727 4.3026e+01     4.3914      1.955      2.834    23.9877 0.0000e+00
      2.003      0.045     4.8811     57.883     40.505  39.616492     4.3582      7.285   254.0422 4.2433e+01     4.9794      1.965      2.849    23.9607 0.0000e+00
      2.014      0.046     4.8166     57.083     40.766  39.845437     4.1918      7.273   253.8170 4.1898e+01     5.2959      1.976      2.865    23.9569 0.0000e+00
      2.024      0.048     4.8082     56.938     40.832  39.875536     4.1768      7.261   253.9006 4.1403e+01     5.2892      1.986      2.880    23.9465 0.0000e+00
      2.034      0.051     4.8543     57.419     40.533  39.535616     4.1412      7.249   254.0206 4.0870e+01     5.2337      1.993      2.890    23.9242 0.0000e+00
      2.047      0.055     4.9463     58.427     40.084  39.039209     4.0731      7.237   254.0631 4.0174e+01     5.2348      2.005      2.908    23.9017 0.0000e+00
      2.064      0.059     5.0540     59.619     39.665  38.574928     4.0339      7.226   254.0696 3.9310e+01     5.2713      2.023      2.934    23.8675 0.0000e+00
      2.082      0.061     5.1098     60.201     39.248  38.115049     4.0348      7.214   254.1004 3.8427e+01     5.2791      2.042      2.961    23.8309 0.0000e+00
      2.099      0.062     5.0377     59.263     38.988  37.798840     4.0829      7.203   254.1772 3.7665e+01     5.1457      2.059      2.986    23.7702 0.0000e+00
      2.115      0.061     4.7929     56.279     39.007  37.737484     4.1660      7.193   254.2234 3.7013e+01     4.9102      2.074      3.007    23.6886 0.0000e+00
      2.129      0.058     4.3593     51.095     39.168  37.817789     4.2123      7.183   254.3153 3.6375e+01     4.8121      2.088      3.029    23.6168 0.0000e+00
      2.143      0.053     3.7551     43.958     39.286  37.880279     4.2297      7.172   254.4275 3.5713e+01     4.8144      2.102      3.048    23.5558 0.0000e+00
      2.157      0.048     3.0374     35.533     39.288  37.857688     4.2744      7.162   254.4619 3.5031e+01     4.7545      2.116      3.068    23.4801 0.0000e+00
      2.169      0.044     2.2774     26.637     39.105  37.671658     4.3309      7.152   254.4723 3.4411e+01     4.6368      2.128      3.087    23.3675 0.0000e+00
      2.180      0.042     1.5660     18.312     38.650  37.219203     4.3514      7.145   254.4678 3.3949e+01     4.5821      2.139      3.103    23.2556 0.0000e+00
      2.189      0.040     0.9953     11.629     38.028  36.579886     4.3485      7.136   254.5795 3.3613e+01     4.6120      2.147      3.114    23.1941 0.0000e+00
      2.196      0.040     0.5977      6.974     37.534  36.040159     4.3502      7.126   254.7904 3.3189e+01     4.6011      2.153      3.123    23.1680 0.0000e+00
      2.205      0.039     0.3537      4.119     37.334  35.775284     4.3726      7.117   254.8664 3.2549e+01     4.4203      2.161      3.135    23.1625 0.0000e+00
      2.217      0.039     0.2254      2.620     37.420  35.791082     4.4074      7.108   254.9819 3.1840e+01     4.1350      2.174      3.154    23.1605 0.0000e+00
      2.230      0.038     0.1643      1.907     37.867  36.167556     4.4215      7.099   255.3273 3.1243e+01     3.9899      2.188      3.173    23.1024 0.0000e+00
      2.241      0.036     0.1307      1.516     38.929  37.150941     4.4153      7.088   255.6870 3.0827e+01     4.0089      2.199      3.189    23.0052 0.0000e+00
      2.249      0.033     0.1080      1.253     40.519  38.660263     4.3499      7.077   255.8889 3.0532e+01     4.0889      2.206      3.200    22.9055 0.0000e+00
      2.255      0.028     0.0865      1.003     41.708  39.804794     4.2282      7.067   256.0479 3.0284e+01     4.1643      2.212      3.208    22.8100 0.0000e+00
      2.261      0.026     0.0743      0.862     42.035  40.125405     4.1664      7.062   256.1464 3.0074e+01     4.1882      2.218      3.217    22.7404 0.0000e+00
      2.267 -9.990e-29 -9.990e-29 -9.990e-29 -9.990e-29 -9.990e-29 -9.990e-29 -9.990e-29 -9.990e-29 2.9863e+01 -9.990e-29      2.224      3.225    22.7028 0.0000e+00
      2.272 -9.990e-29 -9.990e-29 -9.990e-29 -9.990e-29 -9.990e-29 -9.990e-29 -9.990e-29 -9.990e-29 2.9566e+01 -9.990e-29      2.228      3.232    22.6913 0.0000e+00
      2.277 -9.990e-29 -9.990e-29 -9.990e-29 -9.990e-29 -9.990e-29 -9.990e-29 -9.990e-29 -9.990e-29 2.9260e+01 -9.990e-29      2.233      3.239    22.7133 0.0000e+00
      2.279 -9.990e-29 -9.990e-29 -9.990e-29 -9.990e-29 -9.990e-29 -9.990e-29 -9.990e-29 -9.990e-29 2.9135e+01 -9.990e-29      2.237      3.244    22.7358 0.0000e+00
