* Sea-Bird SBE19plus  Data File:
* FileName = C:\DATA\080618_fcr50_0004.hex
* Software version 2.6.3.104 SB_Terminal.dll
* Temperature SN = 7809
* Conductivity SN = 7809
* System UpLoad Time = Aug 06 2018 16:28:17
* <ApplicationData>
* <Seaterm232>
* <SoftwareVersion>2.6.3.104</SoftwareVersion>
* <BuildDate>30-Jun-2017</BuildDate>
* </Seaterm232>
* </ApplicationData>
* cast   4 06 Aug 2018 14:42:18 samples 2007 to 2642, avg = 1, stop = mag switch
# nquan = 15
# nvalues = 562                         
# units = specified
# name 0 = depFM: Depth [fresh water, m]
# name 1 = dz/dtM: Descent Rate [m/s]
# name 2 = sbeox0Mg/L: Oxygen, SBE 43 [mg/l]
# name 3 = sbeox0PS: Oxygen, SBE 43 [% saturation]
# name 4 = specc: Specific Conductance [uS/cm]
# name 5 = c0uS/cm: Conductivity [uS/cm]
# name 6 = flECO-AFL: Fluorescence, WET Labs ECO-AFL/FL [mg/m^3]
# name 7 = ph: pH
# name 8 = orp: Oxidation Reduction Potential [mV]
# name 9 = par/sat/log: PAR/Logarithmic, Satlantic
# name 10 = turbWETntu0: Turbidity, WET Labs ECO [NTU]
# name 11 = prdM: Pressure, Strain Gauge [db]
# name 12 = prdE: Pressure, Strain Gauge [psi]
# name 13 = tv290C: Temperature [ITS-90, deg C]
# name 14 = flag:  0.000e+00
# span 0 =     -0.508,      5.398       
# span 1 =     -0.033,      0.181       
# span 2 =     0.0736,     8.7801       
# span 3 =      0.776,    108.162       
# span 4 =      1.647,     67.403       
# span 5 =   1.683079,  53.736607       
# span 6 =    -0.1758,     4.0823       
# span 7 =      5.981,      7.911       
# span 8 =   168.3850,   274.7521       
# span 9 = 8.0651e-01, 1.6847e+03       
# span 10 =    -0.2585,    24.9601      
# span 11 =     -0.499,      5.294      
# span 12 =     -0.725,      7.678      
# span 13 =    12.0089,    26.4494      
# span 14 = 0.0000e+00, 0.0000e+00      
# interval = seconds: 0.25
# start_time = Aug 06 2018 14:42:18 [Instrument's time stamp, header]
# bad_flag = -9.990e-29
# <Sensors count="9" >
#   <sensor Channel="1" >
#     <!-- Count, Temperature -->
#     <TemperatureSensor SensorID="58" >
#       <SerialNumber>7809</SerialNumber>
#       <CalibrationDate>09-Mar-18</CalibrationDate>
#       <A0>1.21093245e-003</A0>
#       <A1>2.84356597e-004</A1>
#       <A2>-1.94507398e-006</A2>
#       <A3>2.12806664e-007</A3>
#       <Slope>1.00000000</Slope>
#       <Offset>0.0000</Offset>
#     </TemperatureSensor>
#   </sensor>
#   <sensor Channel="2" >
#     <!-- Frequency 0, Conductivity -->
#     <ConductivitySensor SensorID="3" >
#       <SerialNumber>7809</SerialNumber>
#       <CalibrationDate>09-Mar-18</CalibrationDate>
#       <UseG_J>1</UseG_J>
#       <!-- Cell const and series R are applicable only for wide range sensors. -->
#       <SeriesR>0.0000</SeriesR>
#       <CellConst>2000.0000</CellConst>
#       <ConductivityType>0</ConductivityType>
#       <Coefficients equation="0" >
#         <A>0.00000000e+000</A>
#         <B>0.00000000e+000</B>
#         <C>0.00000000e+000</C>
#         <D>0.00000000e+000</D>
#         <M>0.0</M>
#         <CPcor>-9.57000000e-008</CPcor>
#       </Coefficients>
#       <Coefficients equation="1" >
#         <G>-1.00672082e+000</G>
#         <H>1.26906489e-001</H>
#         <I>-1.40584351e-004</I>
#         <J>2.47837121e-005</J>
#         <CPcor>-9.57000000e-008</CPcor>
#         <CTcor>3.2500e-006</CTcor>
#         <!-- WBOTC not applicable unless ConductivityType = 1. -->
#         <WBOTC>0.00000000e+000</WBOTC>
#       </Coefficients>
#       <Slope>1.00000000</Slope>
#       <Offset>0.00000</Offset>
#     </ConductivitySensor>
#   </sensor>
#   <sensor Channel="3" >
#     <!-- Count, Pressure, Strain Gauge -->
#     <PressureSensor SensorID="46" >
#       <SerialNumber>7809</SerialNumber>
#       <CalibrationDate>07-Mar-18</CalibrationDate>
#       <PA0>-4.08176359e-002</PA0>
#       <PA1>4.85188419e-004</PA1>
#       <PA2>-3.51168169e-012</PA2>
#       <PTEMPA0>-5.37806900e+001</PTEMPA0>
#       <PTEMPA1>5.36620721e+001</PTEMPA1>
#       <PTEMPA2>4.87214332e-002</PTEMPA2>
#       <PTCA0>5.25213435e+005</PTCA0>
#       <PTCA1>1.79532409e+000</PTCA1>
#       <PTCA2>-2.84353509e-001</PTCA2>
#       <PTCB0>2.51668750e+001</PTCB0>
#       <PTCB1>3.75000000e-004</PTCB1>
#       <PTCB2>0.00000000e+000</PTCB2>
#       <Offset>0.000000</Offset>
#     </PressureSensor>
#   </sensor>
#   <sensor Channel="4" >
#     <!-- A/D voltage 0, pH -->
#     <pH_Sensor SensorID="43" >
#       <SerialNumber>0363</SerialNumber>
#       <CalibrationDate>16-Mar-18</CalibrationDate>
#       <Slope>4.6194</Slope>
#       <Offset>2.5947</Offset>
#     </pH_Sensor>
#   </sensor>
#   <sensor Channel="5" >
#     <!-- A/D voltage 1, Oxidation Reduction Potential -->
#     <OxidationReductionPotentialSensor SensorID="41" >
#       <SerialNumber>0363</SerialNumber>
#       <CalibrationDate>16-Mar-18</CalibrationDate>
#       <B>2.499480</B>
#       <M>-0.496195</M>
#       <Offset>0.0</Offset>
#     </OxidationReductionPotentialSensor>
#   </sensor>
#   <sensor Channel="6" >
#     <!-- A/D voltage 2, Oxygen, SBE 43 -->
#     <OxygenSensor SensorID="38" >
#       <SerialNumber>0434</SerialNumber>
#       <CalibrationDate>13-Mar-18</CalibrationDate>
#       <Use2007Equation>1</Use2007Equation>
#       <CalibrationCoefficients equation="0" >
#         <!-- Coefficients for Owens-Millard equation. -->
#         <Boc>0.0000</Boc>
#         <Soc>0.0000e+000</Soc>
#         <offset>0.0000</offset>
#         <Pcor>0.00e+000</Pcor>
#         <Tcor>0.0000</Tcor>
#         <Tau>0.0</Tau>
#       </CalibrationCoefficients>
#       <CalibrationCoefficients equation="1" >
#         <!-- Coefficients for Sea-Bird equation - SBE calibration in 2007 and later. -->
#         <Soc>4.5718e-001</Soc>
#         <offset>-0.6113</offset>
#         <A>-4.0649e-003</A>
#         <B> 2.0945e-004</B>
#         <C>-3.3182e-006</C>
#         <D0> 2.5826e+000</D0>
#         <D1> 1.92634e-004</D1>
#         <D2>-4.64803e-002</D2>
#         <E> 3.6000e-002</E>
#         <Tau20> 1.2200</Tau20>
#         <H1>-3.3000e-002</H1>
#         <H2> 5.0000e+003</H2>
#         <H3> 1.4500e+003</H3>
#       </CalibrationCoefficients>
#     </OxygenSensor>
#   </sensor>
#   <sensor Channel="7" >
#     <!-- A/D voltage 3, PAR/Logarithmic, Satlantic -->
#     <PARLog_SatlanticSensor SensorID="76" >
#       <SerialNumber>1122</SerialNumber>
#       <CalibrationDate>22-Jun-2017</CalibrationDate>
#       <a0>9.6090e-001</a0>
#       <a1>8.0780e-001</a1>
#       <Im>1.3589e+000</Im>
#       <Multiplier>1.0000e+000</Multiplier>
#     </PARLog_SatlanticSensor>
#   </sensor>
#   <sensor Channel="8" >
#     <!-- A/D voltage 4, Fluorometer, WET Labs ECO-AFL/FL -->
#     <FluoroWetlabECO_AFL_FL_Sensor SensorID="20" >
#       <SerialNumber>FLNTURT-2496</SerialNumber>
#       <CalibrationDate>25-Jan-2017</CalibrationDate>
#       <ScaleFactor>5.30000000e+001</ScaleFactor>
#       <!-- Dark output -->
#       <Vblank>0.0560</Vblank>
#     </FluoroWetlabECO_AFL_FL_Sensor>
#   </sensor>
#   <sensor Channel="9" >
#     <!-- A/D voltage 5, Turbidity Meter, WET Labs, ECO-NTU -->
#     <TurbidityMeter SensorID="67" >
#       <SerialNumber>FLNTURT-2496</SerialNumber>
#       <CalibrationDate>25-Jan-2017</CalibrationDate>
#       <ScaleFactor>176.000000</ScaleFactor>
#       <!-- Dark output -->
#       <DarkVoltage>0.072000</DarkVoltage>
#     </TurbidityMeter>
#   </sensor>
# </Sensors>
# datcnv_date = Aug 06 2018 16:30:31, 7.26.7.114 [datcnv_vars = 14]
# datcnv_in = C:\DATA\080618_fcr30.hex C:\DATA\SBE19plusV2_7809.xmlcon
# datcnv_skipover = 0
# datcnv_ox_hysteresis_correction = yes
# datcnv_ox_tau_correction = yes
# filter_date = Aug 06 2018 16:30:50, 7.26.7.114
# filter_in = C:\DATA\080618_fcr30.cnv
# filter_low_pass_tc_A = 0.030
# filter_low_pass_tc_B = 0.150
# filter_low_pass_A_vars = prdM prdE tv290C
# filter_low_pass_B_vars = depFM dz/dtM sbeox0Mg/L sbeox0PS specc c0uS/cm flECO-AFL ph orp par/sat/log turbWETntu0
# alignctd_date = Aug 06 2018 16:31:06, 7.26.7.114
# alignctd_in = C:\DATA\080618_fcr30.cnv
# alignctd_adv = dz/dtM 1.000, sbeox0Mg/L 1.000, sbeox0PS 1.000, specc 1.000, c0uS/cm 1.000, flECO-AFL 1.000, ph 1.000, orp 1.000, turbWETntu0 1.000                                                                                 
# file_type = ascii
*END*
     -0.507      0.000     8.0431     99.329      1.685   1.723070    -0.1549      5.983   274.7521 7.9502e+01    -0.0893     -0.497     -0.721    26.0758 0.0000e+00
     -0.507     -0.000     8.0437     99.340      1.674   1.711655    -0.1681      5.989   270.5270 7.8483e+01    -0.0548     -0.497     -0.721    26.0838 0.0000e+00
     -0.508     -0.001     8.0451     99.357      1.684   1.721948    -0.1758      5.997   264.6817 7.7716e+01    -0.0354     -0.498     -0.722    26.0954 0.0000e+00
     -0.508     -0.001     8.0453     99.359      1.683   1.720695    -0.1745      6.001   257.5927 7.8686e+01    -0.0384     -0.498     -0.722    26.1017 0.0000e+00
     -0.508     -0.000     8.0450     99.357      1.660   1.696501    -0.1700      6.004   250.8922 7.8981e+01    -0.0303     -0.498     -0.723    26.1052 0.0000e+00
     -0.508 -1.845e-08     8.0459     99.372      1.647   1.683079    -0.1678      6.009   247.6806 7.6261e+01     0.0329     -0.498     -0.722    26.1085 0.0000e+00
     -0.508 -2.029e-07     8.0460     99.377      1.649   1.685239    -0.1659      6.019   232.0983 7.3214e+01     0.0846     -0.499     -0.723    26.1072 0.0000e+00
     -0.508 -2.000e-07     8.0450     99.375      1.685   1.722618    -0.1656      6.030   205.0553 7.1546e+01     0.0447     -0.498     -0.722    26.1046 0.0000e+00
     -0.508 1.6707e-08     8.0452     99.388      1.840   1.881368    -0.1632      6.025   197.4942 7.2327e+01    -0.0214     -0.498     -0.722    26.1064 0.0000e+00
     -0.508 3.8532e-07     8.0447     99.387      2.099   2.146133    -0.1555      6.006   205.8088 7.7075e+01    -0.0438     -0.498     -0.722    26.1090 0.0000e+00
     -0.508      0.000     8.0447     99.378      2.273   2.323823    -0.1553      5.990   216.6214 8.2385e+01    -0.0418     -0.498     -0.723    26.1106 0.0000e+00
     -0.508      0.000     8.0475     99.388      2.454   2.507828    -0.1246      5.981   227.3045 8.6729e+01    -0.0902     -0.498     -0.722    26.1163 0.0000e+00
     -0.508      0.001     8.0521     99.406      3.037   3.102574    -0.0511      5.987   227.9449 9.2910e+01    -0.2015     -0.498     -0.722    26.1252 0.0000e+00
     -0.508      0.006     8.0595     99.454      4.908   5.012147    -0.0103      6.098   211.8879 1.0284e+02    -0.2585     -0.498     -0.723    26.1288 0.0000e+00
     -0.508      0.027     8.0684     99.557     13.198  13.482557     0.0012      6.467   185.8809 1.1663e+02    -0.0465     -0.498     -0.722    26.1233 0.0000e+00
     -0.508      0.071     8.0734     99.690     26.608  27.202823     0.2063      7.013   170.6684 1.2965e+02     2.1781     -0.498     -0.723    26.1111 0.0000e+00
     -0.506      0.121     8.0721     99.802     34.079  34.880652     0.6038      7.460   168.5434 1.4097e+02     6.2229     -0.497     -0.722    26.0875 0.0000e+00
     -0.488      0.161     8.0693     99.895     34.984  35.852924     0.8284      7.710   168.5325 1.5521e+02     8.4220     -0.499     -0.725    26.0558 0.0000e+00
     -0.420      0.181     8.0667     99.965     33.517  34.385081     0.9097      7.835   168.3850 1.7242e+02     8.4739     -0.434     -0.630    26.0388 0.0000e+00
     -0.315      0.179     8.0652    100.029     28.316  29.073735     1.5138      7.892   168.6534 1.8603e+02     7.0629     -0.290     -0.422    26.0796 0.0000e+00
     -0.237      0.157     8.0712    100.163     22.267  22.879080     2.6002      7.911   169.4543 1.8938e+02     4.4547     -0.211     -0.306    26.1693 0.0000e+00
     -0.211      0.118     8.0755    100.252     20.687  21.265628     3.1907      7.908   169.9814 1.8432e+02     3.0308     -0.200     -0.289    26.2401 0.0000e+00
     -0.215      0.071     8.0680    100.182     22.951  23.598769     3.2499      7.896   170.3806 1.7542e+02     2.9396     -0.208     -0.303    26.2934 0.0000e+00
     -0.226      0.031     8.0630    100.134     25.049  25.759710     3.2608      7.880   171.0974 1.6700e+02     2.9551     -0.225     -0.327    26.3442 0.0000e+00
     -0.232      0.014     8.0689    100.216     24.539  25.237040     3.2403      7.865   171.6786 1.6390e+02     3.0043     -0.230     -0.333    26.3772 0.0000e+00
     -0.228      0.017     8.0777    100.335     22.417  23.056823     3.2041      7.852   171.4716 1.6436e+02     3.1077     -0.227     -0.330    26.3944 0.0000e+00
     -0.216      0.029     8.0851    100.440     20.954  21.555386     3.1901      7.838   170.7454 1.6438e+02     3.1669     -0.214     -0.309    26.4055 0.0000e+00
     -0.201      0.042     8.0937    100.563     20.828  21.430109     3.1906      7.825   170.1254 1.6403e+02     3.1712     -0.195     -0.282    26.4134 0.0000e+00
     -0.190      0.054     8.1043    100.708     22.292  22.938625     3.1923      7.817   170.5994 1.6364e+02     3.0979     -0.184     -0.269    26.4172 0.0000e+00
     -0.182      0.065     8.1190    100.896     26.765  27.542934     3.1917      7.811   182.3277 1.6309e+02     2.9829     -0.180     -0.263    26.4214 0.0000e+00
     -0.167      0.076     8.1392    101.144     32.718  33.668094     3.1932      7.806   193.5417 1.6294e+02     2.9709     -0.166     -0.242    26.4289 0.0000e+00
     -0.145      0.089     8.1604    101.400     35.637  36.668300     3.2015      7.802   182.8926 1.6344e+02     2.9831     -0.143     -0.209    26.4390 0.0000e+00
     -0.119      0.102     8.1819    101.652     35.921  36.954678     3.2280      7.800   171.0994 1.6280e+02     2.9474     -0.119     -0.171    26.4474 0.0000e+00
     -0.088      0.110     8.2048    101.912     35.916  36.940087     3.2735      7.798   170.1161 1.5941e+02     2.9365     -0.087     -0.126    26.4494 0.0000e+00
     -0.054      0.110     8.2229    102.106     35.801  36.809488     3.3016      7.797   170.1431 1.5612e+02     2.9432     -0.052     -0.076    26.4462 0.0000e+00
     -0.022      0.103     8.2194    102.032     35.653  36.646100     3.3200      7.798   170.3071 1.4923e+02     2.9370     -0.021     -0.030    26.4420 0.0000e+00
      0.007      0.090     8.1704    101.397     35.572  36.552675     3.3948      7.802   170.5504 1.3696e+02     2.9223      0.008      0.013    26.4354 0.0000e+00
      0.029      0.072     8.0679    100.105     35.534  36.505710     3.5079      7.808   170.9338 1.2872e+02     2.8870      0.032      0.047    26.4213 0.0000e+00
      0.043      0.052     7.9344     98.435     35.495  36.459380     3.5658      7.815   171.2431 1.2392e+02     2.8464      0.045      0.065    26.4022 0.0000e+00
      0.051      0.032     7.7951     96.697     35.477  36.437159     3.5704      7.822   171.4502 1.1916e+02     2.8588      0.050      0.072    26.3853 0.0000e+00
      0.058      0.014     7.6590     95.001     35.470  36.427605     3.5362      7.827   171.8034 1.1536e+02     2.9451      0.057      0.084    26.3712 0.0000e+00
      0.059      0.000     7.5355     93.464     35.453  36.407380     3.4740      7.831   172.0729 1.1142e+02     3.0651      0.062      0.090    26.3596 0.0000e+00
      0.053     -0.009     7.4417     92.297     35.431  36.383200     3.4430      7.835   172.0404 1.0930e+02     3.1203      0.053      0.076    26.3515 0.0000e+00
      0.045     -0.012     7.3932     91.692     35.438  36.389332     3.4385      7.838   172.0989 1.1190e+02     3.0933      0.044      0.063    26.3469 0.0000e+00
      0.039     -0.010     7.3969     91.736     35.467  36.417992     3.4373      7.840   172.4362 1.1543e+02     3.0747      0.040      0.057    26.3430 0.0000e+00
      0.034     -0.007     7.4360     92.219     35.462  36.412102     3.4556      7.843   172.7630 1.1430e+02     3.0477      0.032      0.045    26.3396 0.0000e+00
      0.034     -0.002     7.4738     92.688     35.432  36.381647     3.4859      7.846   172.9535 1.1178e+02     2.9806      0.029      0.041    26.3379 0.0000e+00
      0.040      0.003     7.4867     92.847     35.418  36.367380     3.5000      7.848   173.1904 1.1102e+02     2.9349      0.040      0.058    26.3363 0.0000e+00
      0.045      0.008     7.4742     92.693     35.417  36.366651     3.4984      7.848   173.7349 1.1333e+02     2.9222      0.047      0.068    26.3343 0.0000e+00
      0.044      0.013     7.4360     92.220     35.423  36.372832     3.4654      7.848   174.3740 1.2029e+02     2.9182      0.044      0.063    26.3333 0.0000e+00
      0.043      0.013     7.3658     91.350     35.429  36.378586     3.4142      7.847   175.4971 1.2753e+02     2.9178      0.041      0.059    26.3333 0.0000e+00
      0.047      0.012     7.2623     90.066     35.423  36.372705     3.3938      7.846   177.9371 1.2934e+02     2.9168      0.044      0.065    26.3333 0.0000e+00
      0.055      0.012     7.1346     88.482     35.416  36.365245     3.3924      7.845   181.9352 1.2708e+02     2.9062      0.055      0.080    26.3340 0.0000e+00
      0.060      0.012     7.0082     86.913     35.404  36.351905     3.4064      7.845   188.6487 1.3129e+02     2.9117      0.061      0.088    26.3345 0.0000e+00
      0.061      0.009     6.9095     85.684     35.392  36.338460     3.4359      7.845   195.1816 1.6318e+02     2.9530      0.060      0.087    26.3343 0.0000e+00
      0.061      0.002     6.8449     84.876     35.387  36.329731     3.4455      7.846   196.0492 4.0770e+02     2.9781      0.059      0.086    26.3345 0.0000e+00
      0.063     -0.010     6.8052     84.376     35.371  36.309888     3.4390      7.849   195.6973 6.4599e+02     2.9712      0.061      0.089    26.3348 0.0000e+00
      0.066     -0.021     6.7847     84.112     35.356  36.289105     3.4120      7.854   197.7245 4.7864e+02     2.9312      0.066      0.096    26.3335 0.0000e+00
      0.061     -0.028     6.7942     84.219     35.341  36.269006     3.3586      7.859   194.8344 2.6418e+02     2.8908      0.065      0.093    26.3303 0.0000e+00
      0.046     -0.032     6.8513     84.917     35.334  36.257437     3.3266      7.862   187.8557 2.2206e+02     2.9099      0.048      0.069    26.3257 0.0000e+00
      0.027     -0.033     6.9563     86.210     35.355  36.276265     3.3192      7.862   184.5860 2.1066e+02     2.9486      0.023      0.034    26.3208 0.0000e+00
      0.015     -0.030     7.0803     87.744     35.387  36.306079     3.2688      7.864   184.5544 2.1864e+02     2.9617      0.011      0.015    26.3152 0.0000e+00
      0.011     -0.022     7.1890     89.088     35.382  36.300295     3.1770      7.867   185.7525 2.2557e+02     2.9465      0.009      0.013    26.3073 0.0000e+00
      0.011     -0.012     7.2689     90.078     35.352  36.269850     3.1282      7.869   186.2525 2.3056e+02     2.9170      0.012      0.017    26.2996 0.0000e+00
      0.012     -0.002     7.3190     90.699     35.338  36.255594     3.1287      7.869   183.7171 2.3488e+02     2.9102      0.013      0.019    26.2952 0.0000e+00
      0.012      0.003     7.3394     90.952     35.338  36.254969     3.1277      7.869   180.9083 2.3853e+02     2.9252      0.011      0.015    26.2931 0.0000e+00
      0.012      0.003     7.3290     90.822     35.346  36.262297     3.1352      7.869   179.9105 2.3999e+02     2.9152      0.011      0.016    26.2921 0.0000e+00
      0.015      0.002     7.2852     90.280     35.363  36.280671     3.1647      7.869   180.0844 2.3940e+02     2.8813      0.015      0.022    26.2915 0.0000e+00
      0.018      0.000     7.2132     89.399     35.364  36.286554     3.1895      7.870   181.2041 2.6181e+02     2.8818      0.018      0.026    26.2916 0.0000e+00
      0.018     -0.001     7.1254     88.330     35.339  36.269911     3.1966      7.872   183.0385 5.6351e+02     2.9212      0.018      0.027    26.2914 0.0000e+00
      0.016     -0.001     7.0298     87.163     35.331  36.270024     3.1767      7.874   183.6785 1.0513e+03     2.9301      0.015      0.023    26.2905 0.0000e+00
      0.012     -0.001     6.9265     85.892     35.345  36.287936     3.1422      7.876   181.8878 1.0811e+03     2.8976      0.012      0.017    26.2893 0.0000e+00
      0.011     -0.000     6.8167     84.532     35.352  36.295911     3.1284      7.876   180.4011 6.7537e+02     2.8948      0.011      0.015    26.2949 0.0000e+00
      0.012      0.001     6.7074     83.175     35.360  36.302936     3.1288      7.874   180.2444 3.4639e+02     2.9261      0.011      0.016    26.3112 0.0000e+00
      0.014      0.002     6.6019     81.862     35.368  36.309354     3.0836      7.872   180.1651 2.4294e+02     2.9416      0.014      0.020    26.3244 0.0000e+00
      0.017      0.004     6.5030     80.632     35.370  36.309989     2.9954      7.871   180.2171 3.1366e+02     2.9301      0.018      0.026    26.3291 0.0000e+00
      0.017      0.004     6.4154     79.541     35.373  36.310606     2.9442      7.869   180.4426 3.8643e+02     2.9081      0.017      0.025    26.3294 0.0000e+00
      0.017      0.003     6.3379     78.578     35.381  36.316805     2.9238      7.867   180.6543 3.1711e+02     2.9204      0.016      0.023    26.3283 0.0000e+00
      0.018      0.002     6.2685     77.717     35.386  36.321425     2.8226      7.866   180.8839 2.4080e+02     2.9566      0.016      0.024    26.3258 0.0000e+00
      0.019      0.001     6.2070     76.954     35.368  36.302938     2.6490      7.866   181.1538 2.3372e+02     2.9481      0.018      0.027    26.3219 0.0000e+00
      0.020      0.001     6.1521     76.272     35.349  36.283843     2.5614      7.868   181.3367 2.3167e+02     2.9091      0.020      0.029    26.3188 0.0000e+00
      0.019      0.001     6.1007     75.633     35.348  36.281116     2.5543      7.870   181.3743 2.2971e+02     2.9133      0.020      0.029    26.3162 0.0000e+00
      0.018      0.000     6.0508     75.012     35.338  36.269974     2.4986      7.871   181.4363 2.2742e+02     2.9983      0.017      0.026    26.3159 0.0000e+00
      0.018     -0.001     6.0009     74.393     35.344  36.276164     2.4027      7.873   181.5700 2.2481e+02     3.1130      0.016      0.024    26.3167 0.0000e+00
      0.019     -0.003     5.9506     73.768     35.360  36.292437     2.3595      7.876   181.7003 2.2321e+02     3.1714      0.018      0.026    26.3161 0.0000e+00
      0.019     -0.003     5.9014     73.158     35.345  36.276157     2.3625      7.879   181.9797 2.2287e+02     3.1855      0.019      0.028    26.3140 0.0000e+00
      0.018     -0.002     5.8546     72.575     35.340  36.269900     2.3569      7.880   182.3662 2.2300e+02     3.1619      0.018      0.027    26.3120 0.0000e+00
      0.016     -0.001     5.8119     72.043     35.351  36.280304     2.3919      7.880   182.7605 2.2290e+02     3.0687      0.014      0.022    26.3119 0.0000e+00
      0.014     -0.001     5.7724     71.553     35.347  36.274909     2.4829      7.879   183.3055 2.2123e+02     2.9742      0.012      0.018    26.3128 0.0000e+00
      0.014      0.000     5.7331     71.064     35.342  36.268185     2.5369      7.878   183.8798 2.1787e+02     2.9649      0.013      0.019    26.3122 0.0000e+00
      0.016      0.000     5.6952     70.591     35.337  36.262523     2.5493      7.877   184.3691 2.1472e+02     2.9861      0.016      0.023    26.3099 0.0000e+00
      0.018     -0.000     5.6597     70.151     35.344  36.269973     2.6150      7.877   184.5754 2.1445e+02     3.0180      0.018      0.027    26.3076 0.0000e+00
      0.018     -0.001     5.6256     69.726     35.369  36.294738     2.7336      7.879   184.3952 2.1705e+02     3.1061      0.018      0.026    26.3057 0.0000e+00
      0.017     -0.002     5.5923     69.314     35.383  36.307859     2.7983      7.880   184.2550 2.2004e+02     3.1652      0.016      0.024    26.3044 0.0000e+00
      0.016     -0.005     5.5591     68.903     35.377  36.301564     2.7994      7.882   184.1711 2.2201e+02     3.1532      0.015      0.022    26.3040 0.0000e+00
      0.015     -0.006     5.5254     68.485     35.357  36.282158     2.8299      7.884   184.0686 2.2389e+02     3.0828      0.014      0.021    26.3030 0.0000e+00
      0.012     -0.005     5.4949     68.105     35.340  36.263783     2.9002      7.885   184.0490 2.2830e+02     2.9862      0.012      0.017    26.3017 0.0000e+00
      0.009     -0.003     5.4705     67.801     35.347  36.269974     2.9422      7.887   184.1063 2.3617e+02     2.9307      0.010      0.014    26.3012 0.0000e+00
      0.007     -0.002     5.4498     67.544     35.371  36.293489     2.9420      7.887   184.2448 2.5961e+02     2.9004      0.007      0.009    26.3010 0.0000e+00
      0.008     -0.002     5.4314     67.316     35.371  36.293999     2.9259      7.888   184.4329 2.8379e+02     2.8942      0.006      0.009    26.3014 0.0000e+00
      0.012     -0.002     5.4192     67.166     35.353  36.276143     2.9125      7.889   184.7455 2.7780e+02     2.9170      0.012      0.018    26.3008 0.0000e+00
      0.014     -0.002     5.4133     67.091     35.346  36.268173     2.9175      7.890   185.0998 2.6515e+02     2.9327      0.015      0.022    26.2990 0.0000e+00
      0.010     -0.001     5.4087     67.032     35.340  36.261154     2.9313      7.890   185.3613 2.6265e+02     2.9312      0.011      0.016    26.2981 0.0000e+00
      0.005      0.001     5.4021     66.949     35.335  36.254793     2.9508      7.889   185.5839 2.5978e+02     2.9600      0.004      0.006    26.2994 0.0000e+00
      0.003      0.001     5.3919     66.822     35.335  36.254783     2.9794      7.889   185.7263 2.5626e+02     3.0666      0.002      0.002    26.2997 0.0000e+00
      0.006      0.002     5.3815     66.695     35.339  36.261030     2.9917      7.889   185.7923 2.5288e+02     3.1511      0.006      0.008    26.2974 0.0000e+00
      0.011      0.003     5.3771     66.650     35.340  36.266808     2.9890      7.891   185.9524 2.5039e+02     3.1585      0.012      0.017    26.2968 0.0000e+00
      0.015      0.003     5.3799     66.696     35.328  36.261136     2.9923      7.892   186.1128 2.4966e+02     3.1562      0.016      0.022    26.2959 0.0000e+00
      0.015      0.002     5.3844     66.762     35.318  36.255976     3.0233      7.894   186.2689 2.5256e+02     3.0936      0.016      0.023    26.2944 0.0000e+00
      0.011     -0.000     5.3856     66.786     35.324  36.267949     3.0786      7.895   186.5498 2.5834e+02     2.9806      0.011      0.016    26.2967 0.0000e+00
      0.009     -0.001     5.3823     66.756     35.328  36.278872     3.1099      7.895   186.8418 2.6346e+02     2.9198      0.007      0.010    26.3034 0.0000e+00
      0.009     -0.001     5.3747     66.671     35.305  36.261007     3.1167      7.895   187.1317 2.6608e+02     2.9069      0.008      0.011    26.3140 0.0000e+00
      0.011      0.000     5.3650     66.556     35.285  36.242518     3.1234      7.894   187.4747 2.6742e+02     2.9771      0.011      0.016    26.3226 0.0000e+00
      0.012      0.001     5.3547     66.428     35.288  36.245897     3.1268      7.893   187.8054 2.6823e+02     3.0981      0.012      0.018    26.3294 0.0000e+00
      0.012      0.001     5.3423     66.271     35.282  36.238343     3.1210      7.892   188.0326 2.6828e+02     3.1481      0.012      0.017    26.3394 0.0000e+00
      0.012      0.001     5.3273     66.081     35.262  36.214705     3.1183      7.891   188.2422 2.6868e+02     3.1553      0.011      0.016    26.3484 0.0000e+00
      0.011      0.000     5.3087     65.845     35.264  36.214173     3.1489      7.890   188.4471 2.6939e+02     3.1550      0.011      0.015    26.3525 0.0000e+00
      0.011     -0.001     5.2867     65.570     35.282  36.231913     3.2063      7.888   188.5313 2.6853e+02     3.1438      0.011      0.015    26.3523 0.0000e+00
      0.011     -0.001     5.2647     65.297     35.289  36.238624     3.2422      7.887   188.5723 2.6540e+02     3.1423      0.010      0.015    26.3486 0.0000e+00
      0.011      0.000     5.2438     65.037     35.284  36.231794     3.2431      7.888   188.6847 2.6306e+02     3.1361      0.011      0.016    26.3444 0.0000e+00
      0.011      0.002     5.2223     64.768     35.266  36.212850     3.2080      7.889   188.8574 2.6334e+02     3.1305      0.011      0.016    26.3409 0.0000e+00
      0.010      0.003     5.1996     64.485     35.254  36.200146     3.1576      7.892   189.0261 2.7742e+02     3.1346      0.009      0.014    26.3392 0.0000e+00
      0.010      0.003     5.1778     64.215     35.259  36.205238     3.1393      7.894   189.1755 4.8799e+02     3.1249      0.009      0.013    26.3384 0.0000e+00
      0.012      0.003     5.1619     64.020     35.263  36.210888     3.1437      7.896   189.2869 9.8990e+02     3.1052      0.012      0.017    26.3369 0.0000e+00
      0.016      0.002     5.1561     63.950     35.257  36.204948     3.2007      7.900   189.4260 1.4280e+03     3.0793      0.017      0.025    26.3356 0.0000e+00
      0.018      0.002     5.1552     63.937     35.249  36.196934     3.3138      7.903   189.7388 1.5730e+03     3.0258      0.019      0.027    26.3345 0.0000e+00
      0.016      0.001     5.1527     63.904     35.232  36.177514     3.3803      7.905   190.1438 1.5810e+03     2.9770      0.016      0.024    26.3340 0.0000e+00
      0.014     -0.001     5.1482     63.846     35.217  36.160709     3.3889      7.907   190.3662 1.5691e+03     2.9473      0.013      0.019    26.3371 0.0000e+00
      0.013     -0.002     5.1401     63.744     35.241  36.184314     3.3913      7.908   190.3619 1.5390e+03     2.9117      0.012      0.018    26.3404 0.0000e+00
      0.013     -0.002     5.1285     63.599     35.266  36.208832     3.4278      7.908   190.4354 1.3038e+03     2.8808      0.013      0.019    26.3382 0.0000e+00
      0.014     -0.002     5.1172     63.458     35.261  36.203052     3.4905      7.908   190.7393 7.9181e+02     2.8793      0.014      0.020    26.3350 0.0000e+00
      0.014     -0.002     5.1067     63.328     35.236  36.177957     3.5142      7.907   191.0251 3.8174e+02     2.8928      0.014      0.021    26.3329 0.0000e+00
      0.013     -0.003     5.0987     63.229     35.218  36.159501     3.5036      7.907   191.1371 2.6416e+02     2.8927      0.013      0.019    26.3314 0.0000e+00
      0.011     -0.005     5.0972     63.212     35.228  36.170475     3.4727      7.907   191.2341 2.6729e+02     2.9077      0.011      0.016    26.3306 0.0000e+00
      0.011     -0.007     5.1041     63.300     35.239  36.183595     3.4162      7.908   191.4233 3.1431e+02     2.9227      0.011      0.015    26.3306 0.0000e+00
      0.011     -0.007     5.1180     63.472     35.246  36.191087     3.3805      7.908   191.7033 6.7318e+02     2.9210      0.012      0.017    26.3306 0.0000e+00
      0.008     -0.006     5.1323     63.648     35.254  36.197538     3.3820      7.907   192.0394 1.3117e+03     2.9173      0.008      0.012    26.3299 0.0000e+00
      0.003     -0.004     5.1420     63.767     35.255  36.198073     3.3696      7.906   192.3029 1.6575e+03     2.9086      0.002      0.003    26.3315 0.0000e+00
      0.001     -0.003     5.1482     63.844     35.254  36.197552     3.3406      7.905   192.3082 1.6847e+03     2.9078      0.000     -0.000    26.3348 0.0000e+00
      0.002     -0.002     5.1537     63.914     35.247  36.191243     3.3349      7.905   192.1040 1.6784e+03     2.9070      0.002      0.003    26.3345 0.0000e+00
      0.005     -0.001     5.1586     63.975     35.241  36.185312     3.3373      7.905   192.0702 1.6654e+03     2.8985      0.005      0.008    26.3321 0.0000e+00
      0.006     -0.001     5.1609     64.002     35.246  36.189368     3.3418      7.905   192.2441 1.6448e+03     2.8965      0.007      0.010    26.3307 0.0000e+00
      0.005     -0.001     5.1571     63.953     35.235  36.176753     3.3622      7.905   192.4856 1.6233e+03     2.9144      0.006      0.009    26.3314 0.0000e+00
      0.003     -0.002     5.1448     63.799     35.220  36.159830     3.3810      7.904   192.7541 1.6157e+03     2.9314      0.003      0.005    26.3329 0.0000e+00
     -0.000     -0.002     5.1287     63.597     35.236  36.175318     3.3853      7.902   192.8224 1.6243e+03     2.9495     -0.000     -0.001    26.3333 0.0000e+00
     -0.000     -0.002     5.1157     63.438     35.232  36.173447     3.3691      7.902   192.7954 1.6378e+03     2.9496     -0.001     -0.001    26.3317 0.0000e+00
      0.002     -0.001     5.1142     63.428     35.192  36.137207     3.3326      7.903   192.8574 1.6398e+03     2.9021      0.003      0.003    26.3301 0.0000e+00
      0.003      0.000     5.1288     63.618     35.168  36.118301     3.3019      7.904   193.1427 1.5581e+03     2.8646      0.004      0.005    26.3287 0.0000e+00
      0.002      0.002     5.1526     63.920     35.181  36.135428     3.3004      7.905   195.7283 1.3092e+03     2.8923      0.002      0.003    26.3263 0.0000e+00
      0.001      0.004     5.1763     64.220     35.196  36.153727     3.3146      7.906   200.1143 9.5805e+02     2.9318      0.001      0.001    26.3276 0.0000e+00
      0.001      0.005     5.1963     64.475     35.187  36.148986     3.3358      7.907   201.7781 6.4084e+02     2.9151     -0.000     -0.000    26.3360 0.0000e+00
      0.004      0.006     5.2127     64.683     35.177  36.141634     3.3635      7.910   200.9596 4.6054e+02     2.9038      0.003      0.004    26.3458 0.0000e+00
      0.008      0.009     5.2225     64.805     35.164  36.128366     3.3839      7.911   200.9729 4.6990e+02     2.9171      0.009      0.013    26.3500 0.0000e+00
      0.010      0.015     5.2208     64.779     35.155  36.115611     3.3975      7.910   201.7663 4.8712e+02     2.9233      0.011      0.016    26.3537 0.0000e+00
      0.010      0.023     5.2093     64.624     35.160  36.114455     3.3997      7.907   201.6053 3.7409e+02     2.9484      0.010      0.013    26.3618 0.0000e+00
      0.011      0.033     5.1944     64.424     35.169  36.114365     3.3837      7.903   201.8653 2.8769e+02     2.9464      0.008      0.012    26.3678 0.0000e+00
      0.021      0.043     5.1800     64.232     35.177  36.114513     3.3692      7.899   203.2750 2.7920e+02     2.8988      0.016      0.024    26.3662 0.0000e+00
      0.038      0.053     5.1671     64.059     35.187  36.116232     3.3708      7.897   203.0775 2.7870e+02     2.8914      0.037      0.054    26.3629 0.0000e+00
      0.057      0.060     5.1551     63.895     35.214  36.135132     3.3949      7.897   201.4560 3.1800e+02     2.9185      0.056      0.082    26.3533 0.0000e+00
      0.075      0.064     5.1464     63.771     35.241  36.152458     3.4307      7.898   200.3611 4.1848e+02     2.9206      0.072      0.106    26.3369 0.0000e+00
      0.094      0.063     5.1504     63.806     35.233  36.135135     3.4449      7.899   200.2502 5.3188e+02     2.8868      0.093      0.134    26.3261 0.0000e+00
      0.110      0.060     5.1762     64.111     35.223  36.116226     3.4378      7.900   200.1142 8.4037e+02     2.8455      0.108      0.157    26.3153 0.0000e+00
      0.123      0.057     5.2325     64.795     35.229  36.114395     3.4457      7.899   199.7495 1.0834e+03     2.8489      0.121      0.175    26.3013 0.0000e+00
      0.135      0.056     5.3311     66.004     35.234  36.112981     3.4852      7.895   200.4014 1.1326e+03     2.8665      0.132      0.191    26.2869 0.0000e+00
      0.147      0.056     5.4844     67.891     35.226  36.099117     3.5212      7.892   201.0267 1.2961e+03     2.8745      0.143      0.208    26.2736 0.0000e+00
      0.160      0.058     5.6975     70.521     35.206  36.073802     3.5313      7.891   200.7711 1.3871e+03     2.9158      0.158      0.228    26.2623 0.0000e+00
      0.175      0.061     5.9580     73.739     35.196  36.060985     3.5796      7.892   200.9238 1.2948e+03     3.0003      0.172      0.248    26.2509 0.0000e+00
      0.192      0.065     6.2438     77.273     35.208  36.071190     3.6645      7.893   201.4106 8.4509e+02     3.0723      0.188      0.272    26.2407 0.0000e+00
      0.211      0.068     6.5289     80.797     35.209  36.070138     3.7025      7.893   202.0971 3.6135e+02     3.0843      0.207      0.300    26.2322 0.0000e+00
      0.230      0.069     6.7830     83.939     35.190  36.048270     3.7093      7.893   202.6849 2.2498e+02     3.0834      0.226      0.327    26.2256 0.0000e+00
      0.247      0.068     6.9888     86.481     35.204  36.060870     3.7091      7.893   202.3227 2.0129e+02     3.0921      0.242      0.351    26.2213 0.0000e+00
      0.264      0.066     7.1381     88.324     35.240  36.095434     3.6996      7.892   202.1917 2.3165e+02     3.0674      0.258      0.374    26.2186 0.0000e+00
      0.282      0.063     7.2287     89.440     35.232  36.085030     3.6966      7.890   202.3056 2.6412e+02     2.9984      0.278      0.402    26.2164 0.0000e+00
      0.299      0.061     7.2703     89.948     35.212  36.062120     3.6992      7.887   201.3775 2.2622e+02     2.9295      0.294      0.427    26.2141 0.0000e+00
      0.312      0.059     7.2772     90.027     35.225  36.072524     3.7036      7.885   199.5745 1.9153e+02     2.9050      0.305      0.444    26.2111 0.0000e+00
      0.325      0.058     7.2561     89.759     35.239  36.083770     3.6766      7.882   198.1430 2.2338e+02     2.9157      0.319      0.462    26.2081 0.0000e+00
      0.338      0.056     7.2093     89.174     35.229  36.071048     3.6208      7.882   197.6638 3.0484e+02     2.9368      0.331      0.480    26.2054 0.0000e+00
      0.353      0.055     7.1529     88.465     35.209  36.045741     3.5897      7.883   197.6525 3.9522e+02     2.9472      0.346      0.502    26.2013 0.0000e+00
      0.369      0.054     7.1375     88.248     35.207  36.031873     3.5853      7.884   197.7476 4.4551e+02     2.9193      0.364      0.528    26.1966 0.0000e+00
      0.384      0.052     7.2380     89.447     35.223  36.030399     3.5864      7.885   197.8674 4.2482e+02     2.8742      0.377      0.547    26.1924 0.0000e+00
      0.397      0.049     7.4698     92.257     35.243  36.027883     3.5848      7.885   198.1546 4.3855e+02     2.8593      0.390      0.566    26.1894 0.0000e+00
      0.408      0.045     7.7640     95.837     35.239  36.001416     3.5838      7.884   198.5528 5.4782e+02     2.8919      0.402      0.584    26.1858 0.0000e+00
      0.418      0.043     8.0560     99.392     35.222  35.964450     3.5838      7.883   198.9828 5.4884e+02     2.9324      0.410      0.595    26.1708 0.0000e+00
      0.428      0.045     8.3179    102.578     35.236  35.962038     3.5757      7.881   199.3958 4.0620e+02     2.8919      0.419      0.608    26.1407 0.0000e+00
      0.438      0.048     8.5344    105.207     35.261  35.972225     3.5681      7.879   199.7608 2.7092e+02     2.8292      0.429      0.622    26.1060 0.0000e+00
      0.448      0.053     8.6894    107.083     35.262  35.960552     3.5660      7.876   200.1259 1.8953e+02     2.8457      0.438      0.635    26.0744 0.0000e+00
      0.463      0.058     8.7691    108.042     35.257  35.947933     3.5682      7.873   200.3687 1.5660e+02     2.8775      0.453      0.658    26.0471 0.0000e+00
      0.481      0.062     8.7801    108.162     35.262  35.946679     3.5764      7.872   200.5453 1.4843e+02     2.9089      0.472      0.685    26.0232 0.0000e+00
      0.500      0.064     8.7527    107.812     35.266  35.945378     3.5823      7.872   200.8851 1.4717e+02     2.9511      0.490      0.711    26.0012 0.0000e+00
      0.517      0.064     8.7159    107.348     35.256  35.932197     3.5844      7.873   201.3792 1.5009e+02     2.9609      0.507      0.736    25.9827 0.0000e+00
      0.534      0.061     8.6819    106.927     35.239  35.914347     3.5924      7.874   201.7867 1.5406e+02     2.9354      0.523      0.759    25.9711 0.0000e+00
      0.549      0.057     8.6531    106.570     35.246  35.920121     3.6517      7.874   202.1133 1.5539e+02     2.9470      0.538      0.780    25.9640 0.0000e+00
      0.563      0.053     8.6281    106.254     35.266  35.938483     3.7591      7.873   202.5748 1.5493e+02     3.0405      0.552      0.802    25.9577 0.0000e+00
      0.575      0.050     8.6048    105.960     35.276  35.945798     3.8160      7.873   203.0643 1.5170e+02     3.1203      0.564      0.819    25.9517 0.0000e+00
      0.587      0.049     8.5811    105.667     35.276  35.945029     3.8241      7.874   203.3863 1.4347e+02     3.1178      0.575      0.834    25.9506 0.0000e+00
      0.599      0.050     8.5585    105.382     35.263  35.929179     3.8481      7.874   203.6284 1.3383e+02     3.1028      0.587      0.852    25.9520 0.0000e+00
      0.610      0.053     8.5400    105.129     35.225  35.881203     3.9221      7.874   204.0994 1.2531e+02     3.1216      0.598      0.868    25.9459 0.0000e+00
      0.622      0.061     8.5248    104.887     35.175  35.809602     4.0304      7.870   204.7783 1.1807e+02     3.1311      0.609      0.884    25.9404 0.0000e+00
      0.637      0.073     8.5125    104.667     35.153  35.762162     4.0823      7.864   205.2983 1.1247e+02     3.1257      0.623      0.904    25.9422 0.0000e+00
      0.655      0.084     8.5050    104.511     35.166  35.752223     4.0713      7.859   205.5685 1.0774e+02     3.1185      0.641      0.930    25.9422 0.0000e+00
      0.678      0.091     8.4983    104.377     35.186  35.752922     3.9990      7.857   205.7221 1.0299e+02     3.0745      0.661      0.959    25.9309 0.0000e+00
      0.708      0.094     8.4874    104.201     35.219  35.770584     3.8695      7.857   205.8649 9.8073e+01     2.9893      0.692      1.004    25.8995 0.0000e+00
      0.741      0.091     8.4730    103.990     35.235  35.775183     3.7923      7.858   206.0044 9.4253e+01     2.9437      0.730      1.059    25.8585 0.0000e+00
      0.767      0.084     8.4535    103.726     35.215  35.744984     3.7829      7.861   206.0322 9.1991e+01     2.9498      0.755      1.095    25.8247 0.0000e+00
      0.785      0.074     8.4278    103.392     35.200  35.723051     3.7829      7.865   206.1150 9.0471e+01     2.9409      0.771      1.118    25.7980 0.0000e+00
      0.798      0.064     8.3983    103.019     35.182  35.700544     3.7827      7.866   206.5758 8.9271e+01     2.9274      0.783      1.135    25.7760 0.0000e+00
      0.810      0.058     8.3656    102.614     35.147  35.663410     3.7803      7.863   207.2162 8.8281e+01     2.9397      0.793      1.150    25.7577 0.0000e+00
      0.821      0.056     8.3349    102.222     35.144  35.655196     3.7813      7.858   207.5762 8.7246e+01     2.9372      0.806      1.168    25.7449 0.0000e+00
      0.835      0.058     8.3116    101.899     35.167  35.664743     3.7769      7.852   207.6588 8.6109e+01     2.9585      0.817      1.186    25.7351 0.0000e+00
      0.851      0.062     8.2935    101.635     35.171  35.651774     3.7642      7.847   207.6986 8.5035e+01     3.0442      0.834      1.210    25.7293 0.0000e+00
      0.868      0.066     8.2797    101.438     35.156  35.625416     3.7657      7.843   207.7996 8.3915e+01     3.0888      0.852      1.235    25.7307 0.0000e+00
      0.886      0.067     8.2737    101.332     35.143  35.600111     3.7775      7.840   207.9338 8.2407e+01     3.1005      0.868      1.259    25.7258 0.0000e+00
      0.904      0.066     8.2750    101.301     35.160  35.599885     3.7780      7.837   208.0308 8.0109e+01     3.1248      0.887      1.286    25.7026 0.0000e+00
      0.923      0.064     8.2817    101.349     35.195  35.622661     3.7616      7.833   208.1114 7.7356e+01     3.1387      0.905      1.313    25.6719 0.0000e+00
      0.941      0.062     8.2930    101.479     35.196  35.621391     3.7449      7.830   208.1349 7.4926e+01     3.1468      0.924      1.340    25.6621 0.0000e+00
      0.955      0.061     8.3058    101.634     35.161  35.584516     3.7513      7.829   208.2280 7.2867e+01     3.1305      0.938      1.360    25.6518 0.0000e+00
      0.967      0.061     8.3175    101.758     35.142  35.557941     3.7743      7.826   208.3767 7.1085e+01     3.1242      0.947      1.374    25.6149 0.0000e+00
      0.980      0.061     8.3286    101.852     35.153  35.554144     3.7653      7.822   208.4700 6.9597e+01     3.1933      0.960      1.391    25.5939 0.0000e+00
      0.997      0.061     8.3400    101.937     35.158  35.538588     3.7249      7.819   208.6682 6.8163e+01     3.2952      0.976      1.415    25.5961 0.0000e+00
      1.016      0.061     8.3461    101.955     35.139  35.496867     3.7000      7.818   208.8803 6.6841e+01     3.3186      0.996      1.445    25.6005 0.0000e+00
      1.033      0.060     8.3436    101.868     35.094  35.430782     3.6936      7.818   209.0557 6.5902e+01     3.2922      1.015      1.472    25.5912 0.0000e+00
      1.048      0.058     8.3393    101.763     35.059  35.374745     3.6661      7.819   209.2397 6.5276e+01     3.3120      1.029      1.492    25.5648 0.0000e+00
      1.061      0.055     8.3370    101.676     35.034  35.327460     3.6065      7.821   209.3841 6.4693e+01     3.3446      1.040      1.509    25.5358 0.0000e+00
      1.073      0.054     8.3345    101.574     34.974  35.240157     3.5699      7.822   209.5980 6.4054e+01     3.3507      1.052      1.527    25.5029 0.0000e+00
      1.085      0.057     8.3302    101.425     34.915  35.144894     3.5641      7.820   210.0182 6.3371e+01     3.3244      1.064      1.543    25.4724 0.0000e+00
      1.098      0.063     8.3232    101.213     34.883  35.064876     3.5365      7.816   210.5936 6.2480e+01     3.2407      1.075      1.560    25.4466 0.0000e+00
      1.113      0.069     8.3157    100.960     34.850  34.971308     3.4842      7.812   210.9622 6.1309e+01     3.1314      1.089      1.581    25.4155 0.0000e+00
      1.132      0.074     8.3086    100.672     34.858  34.902759     3.4467      7.808   211.1192 6.0114e+01     3.0716      1.109      1.609    25.3811 0.0000e+00
      1.156      0.076     8.2928    100.272     34.904  34.871142     3.4411      7.805   211.3733 5.8939e+01     3.0673      1.133      1.644    25.3283 0.0000e+00
      1.180      0.075     8.2580     99.678     34.942  34.842983     3.5173      7.801   211.5400 5.7804e+01     3.1405      1.159      1.680    25.2605 0.0000e+00
      1.201      0.072     8.2000     98.844     34.967  34.816274     3.6517      7.798   211.7578 5.6959e+01     3.2852      1.179      1.710    25.1800 0.0000e+00
      1.217      0.067     8.1190     97.759     34.995  34.802209     3.7154      7.795   212.3728 5.6348e+01     3.3513      1.193      1.732    25.0599 0.0000e+00
      1.231      0.061     8.0238     96.517     35.030  34.799894     3.7081      7.791   212.9521 5.5787e+01     3.2988      1.207      1.751    24.9380 0.0000e+00
      1.244      0.056     7.9247     95.245     35.050  34.788225     3.6555      7.786   213.2553 5.5227e+01     3.1694      1.219      1.768    24.8450 0.0000e+00
      1.258      0.053     7.8250     93.989     35.074  34.788116     3.5663      7.780   213.5446 5.4597e+01     3.0078      1.234      1.790    24.7739 0.0000e+00
      1.272      0.051     7.7263     92.756     35.104  34.798544     3.5113      7.774   213.8690 5.3921e+01     2.9314      1.248      1.810    24.7179 0.0000e+00
      1.285      0.051     7.6324     91.584     35.111  34.787239     3.5059      7.768   214.1652 5.3244e+01     2.9176      1.261      1.829    24.6620 0.0000e+00
      1.297      0.051     7.5512     90.565     35.121  34.778435     3.5189      7.763   214.4589 5.2578e+01     2.9020      1.271      1.843    24.6148 0.0000e+00
      1.309      0.051     7.4845     89.715     35.183  34.819110     3.5405      7.758   214.7533 5.1962e+01     2.9256      1.282      1.860    24.5845 0.0000e+00
      1.322      0.051     7.4259     88.957     35.288  34.897893     3.5641      7.753   214.9718 5.1337e+01     2.9588      1.297      1.881    24.5601 0.0000e+00
      1.336      0.052     7.3697     88.227     35.384  34.968728     3.5745      7.748   215.2069 5.0676e+01     2.9375      1.311      1.900    24.5321 0.0000e+00
      1.350      0.055     7.3100     87.453     35.482  35.040334     3.5744      7.741   215.4449 5.0101e+01     2.8808      1.325      1.921    24.5069 0.0000e+00
      1.363      0.058     7.2405     86.556     35.601  35.128441     3.5726      7.733   215.6986 4.9614e+01     2.8537      1.338      1.940    24.4796 0.0000e+00
      1.377      0.060     7.1549     85.468     35.712  35.208220     3.5710      7.724   216.2104 4.9057e+01     2.8847      1.349      1.956    24.4408 0.0000e+00
      1.392      0.062     7.0520     84.182     35.772  35.242645     3.5732      7.714   216.7280 4.8476e+01     2.9193      1.364      1.978    24.4087 0.0000e+00
      1.410      0.064     6.9341     82.733     35.777  35.227033     3.5719      7.704   216.9666 4.8048e+01     2.9064      1.383      2.006    24.3744 0.0000e+00
      1.428      0.064     6.8045     81.155     35.775  35.209998     3.5642      7.694   217.2024 4.7724e+01     2.8809      1.401      2.032    24.3309 0.0000e+00
      1.445      0.064     6.6714     79.545     35.803  35.227204     3.5635      7.685   217.5137 4.7429e+01     2.8862      1.417      2.055    24.2879 0.0000e+00
      1.461      0.062     6.5457     78.035     35.825  35.244504     3.5722      7.675   217.7195 4.7180e+01     2.8789      1.433      2.079    24.2501 0.0000e+00
      1.477      0.059     6.4400     76.772     35.810  35.228594     3.5770      7.665   217.9703 4.6953e+01     2.8535      1.449      2.102    24.2233 0.0000e+00
      1.491      0.055     6.3619     75.843     35.806  35.225399     3.5487      7.656   218.3084 4.6716e+01     2.8225      1.463      2.122    24.2033 0.0000e+00
      1.505      0.051     6.3118     75.247     35.850  35.269398     3.4957      7.648   218.4529 4.6441e+01     2.7481      1.476      2.140    24.1886 0.0000e+00
      1.518      0.047     6.2896     74.979     35.899  35.315934     3.4692      7.641   218.7707 4.6067e+01     2.6870      1.490      2.161    24.1814 0.0000e+00
      1.529      0.045     6.2906     74.978     35.934  35.343406     3.4494      7.633   219.5701 4.5638e+01     2.6635      1.501      2.177    24.1804 0.0000e+00
      1.539      0.043     6.3044     75.118     35.951  35.347480     3.3393      7.625   220.2880 4.5271e+01     2.6479      1.508      2.188    24.1831 0.0000e+00
      1.549      0.043     6.3208     75.290     35.981  35.365175     3.1664      7.617   220.7405 4.4964e+01     2.6505      1.518      2.202    24.1836 0.0000e+00
      1.560      0.045     6.3287     75.372     36.055  35.430283     3.0778      7.606   221.2554 4.4667e+01     2.6642      1.530      2.219    24.1834 0.0000e+00
      1.571      0.050     6.3221     75.274     36.135  35.499477     3.0676      7.588   221.9526 4.4333e+01     2.6910      1.541      2.235    24.1778 0.0000e+00
      1.583      0.057     6.3030     75.009     36.223  35.566574     3.0702      7.570   222.5461 4.3929e+01     2.6999      1.552      2.252    24.1527 0.0000e+00
      1.595      0.063     6.2683     74.547     36.290  35.606295     3.1369      7.553   223.0109 4.3431e+01     2.6190      1.563      2.268    24.1336 0.0000e+00
      1.612      0.068     6.2122     73.843     36.302  35.598574     3.2590      7.536   223.5286 4.2817e+01     2.5068      1.579      2.290    24.1308 0.0000e+00
      1.635      0.070     6.1363     72.929     36.310  35.600233     3.3250      7.521   223.9007 4.2275e+01     2.4732      1.605      2.327    24.1206 0.0000e+00
      1.658      0.070     6.0487     71.883     36.339  35.626356     3.3275      7.508   224.1546 4.1960e+01     2.4874      1.629      2.362    24.0924 0.0000e+00
      1.677      0.066     5.9596     70.814     36.380  35.660332     3.3819      7.496   224.5337 4.1722e+01     2.4947      1.646      2.387    24.0481 0.0000e+00
      1.693      0.060     5.8754     69.799     36.421  35.693408     3.5043      7.483   224.9567 4.1506e+01     2.5006      1.662      2.410    24.0167 0.0000e+00
      1.706      0.053     5.7999     68.888     36.446  35.708653     3.5754      7.470   225.3107 4.1361e+01     2.4976      1.674      2.428    24.0160 0.0000e+00
      1.717      0.048     5.7377     68.129     36.467  35.717602     3.5803      7.457   225.6311 4.1239e+01     2.4585      1.684      2.442    24.0168 0.0000e+00
      1.727      0.045     5.6876     67.508     36.503  35.738066     3.5629      7.445   225.8195 4.1133e+01     2.3937      1.693      2.456    24.0070 0.0000e+00
      1.738      0.045     5.6464     66.992     36.547  35.765493     3.5307      7.434   225.9532 4.1037e+01     2.3240      1.703      2.471    23.9941 0.0000e+00
      1.749      0.046     5.6109     66.537     36.598  35.795109     3.5122      7.422   226.2152 4.0908e+01     2.2882      1.715      2.488    23.9847 0.0000e+00
      1.761      0.048     5.5728     66.039     36.673  35.842041     3.5049      7.408   226.5782 4.0726e+01     2.2971      1.728      2.506    23.9720 0.0000e+00
      1.773      0.052     5.5274     65.447     36.753  35.888246     3.4887      7.393   227.0727 4.0527e+01     2.3087      1.739      2.522    23.9439 0.0000e+00
      1.785      0.056     5.4765     64.780     36.815  35.909062     3.4636      7.376   227.6346 4.0339e+01     2.3069      1.750      2.539    23.9290 0.0000e+00
      1.799      0.060     5.4138     63.974     36.849  35.903099     3.4497      7.361   228.0376 4.0092e+01     2.2753      1.764      2.559    23.9031 0.0000e+00
      1.816      0.064     5.3281     62.923     36.850  35.879608     3.4496      7.349   228.3313 3.9767e+01     2.2317      1.780      2.582    23.8612 0.0000e+00
      1.835      0.066     5.2181     61.618     36.853  35.879092     3.4342      7.338   228.6049 3.9361e+01     2.2376      1.799      2.609    23.8233 0.0000e+00
      1.854      0.066     5.0878     60.080     36.870  35.896853     3.4013      7.325   228.8498 3.8931e+01     2.2860      1.819      2.639    23.7641 0.0000e+00
      1.872      0.064     4.9515     58.461     36.884  35.903783     3.3825      7.311   229.2277 3.8597e+01     2.2971      1.835      2.663    23.7038 0.0000e+00
      1.887      0.061     4.8380     57.110     36.886  35.899358     3.3907      7.299   229.7326 3.8294e+01     2.2806      1.850      2.685    23.6640 0.0000e+00
      1.902      0.056     4.7640     56.231     36.898  35.906856     3.3999      7.286   230.1360 3.8006e+01     2.2694      1.867      2.707    23.6711 0.0000e+00
      1.915      0.052     4.7260     55.775     36.929  35.930912     3.3919      7.273   230.4060 3.7794e+01     2.2532      1.879      2.725    23.6831 0.0000e+00
      1.927      0.048     4.7170     55.658     36.943  35.936120     3.3868      7.262   230.5885 3.7576e+01     2.2675      1.890      2.741    23.6611 0.0000e+00
      1.939      0.044     4.7319     55.822     36.921  35.906299     3.3929      7.252   230.6218 3.7353e+01     2.2898      1.902      2.760    23.6541 0.0000e+00
      1.951      0.040     4.7637     56.182     36.912  35.887945     3.3929      7.242   230.6354 3.7168e+01     2.2783      1.913      2.776    23.6537 0.0000e+00
      1.961      0.037     4.8038     56.642     36.938  35.904756     3.3684      7.233   230.7536 3.6998e+01     2.2814      1.923      2.791    23.6419 0.0000e+00
      1.970      0.035     4.8443     57.113     36.958  35.918981     3.3354      7.226   230.8469 3.6873e+01     2.3278      1.933      2.803    23.6318 0.0000e+00
      1.977      0.033     4.8791     57.518     36.976  35.932884     3.3239      7.219   230.9886 3.6753e+01     2.3517      1.939      2.812    23.6219 0.0000e+00
      1.983      0.033     4.9035     57.799     36.993  35.945801     3.3223      7.211   231.3485 3.6608e+01     2.3252      1.945      2.821    23.6064 0.0000e+00
      1.991      0.034     4.9180     57.965     36.999  35.948113     3.3340      7.201   231.8434 3.6473e+01     2.2522      1.953      2.832    23.5922 0.0000e+00
      2.001      0.038     4.9283     58.077     37.019  35.960830     3.3645      7.191   232.4974 3.6352e+01     2.1400      1.962      2.845    23.5885 0.0000e+00
      2.011      0.045     4.9380     58.160     37.053  35.972506     3.3784      7.178   233.2337 3.6230e+01     2.0668      1.972      2.860    23.5851 0.0000e+00
      2.021      0.054     4.9489     58.213     37.094  35.962215     3.3730      7.163   233.8631 3.6054e+01     2.0689      1.981      2.873    23.5775 0.0000e+00
      2.034      0.061     4.9569     58.221     37.157  35.963369     3.3540      7.149   234.5138 3.5758e+01     2.1351      1.991      2.889    23.5740 0.0000e+00
      2.052      0.065     4.9554     58.153     37.216  35.986378     3.3245      7.139   235.4235 3.5346e+01     2.1966      2.010      2.916    23.5699 0.0000e+00
      2.075      0.066     4.9423     57.985     37.226  35.986267     3.3194      7.133   236.1729 3.4885e+01     2.2016      2.036      2.953    23.5551 0.0000e+00
      2.097      0.065     4.9196     57.711     37.206  35.962015     3.3293      7.128   235.9168 3.4515e+01     2.2261      2.058      2.986    23.4770 0.0000e+00
      2.113      0.062     4.8900     57.355     37.197  35.947239     3.3239      7.122   235.2522 3.4316e+01     2.2489      2.073      3.008    23.3671 0.0000e+00
      2.125      0.057     4.8597     56.985     37.194  35.934640     3.3182      7.117   235.0201 3.4168e+01     2.2029      2.083      3.021    23.3303 0.0000e+00
      2.136      0.052     4.8332     56.657     37.208  35.936714     3.3147      7.111   234.9172 3.3970e+01     2.1575      2.094      3.038    23.3311 0.0000e+00
      2.149      0.047     4.8079     56.347     37.255  35.972300     3.3092      7.104   234.8682 3.3722e+01     2.1280      2.107      3.056    23.3235 0.0000e+00
      2.161      0.044     4.7818     56.027     37.278  35.983755     3.3170      7.096   234.9446 3.3482e+01     2.1204      2.119      3.073    23.3167 0.0000e+00
      2.173      0.043     4.7563     55.712     37.253  35.948152     3.3255      7.089   235.0660 3.3279e+01     2.1883      2.131      3.092    23.3026 0.0000e+00
      2.184      0.041     4.7329     55.425     37.236  35.922951     3.3209      7.083   235.2173 3.3114e+01     2.2464      2.142      3.107    23.2837 0.0000e+00
      2.193      0.039     4.7116     55.170     37.250  35.933136     3.3168      7.078   235.3119 3.2979e+01     2.2432      2.151      3.120    23.2725 0.0000e+00
      2.201      0.037     4.6906     54.926     37.261  35.944249     3.3127      7.072   235.2630 3.2836e+01     2.2410      2.159      3.131    23.2618 0.0000e+00
      2.210      0.037     4.6701     54.686     37.246  35.930264     3.2984      7.067   235.2289 3.2680e+01     2.2510      2.167      3.144    23.2419 0.0000e+00
      2.220      0.037     4.6540     54.486     37.213  35.891098     3.2815      7.062   235.3289 3.2493e+01     2.2718      2.177      3.156    23.2271 0.0000e+00
      2.229      0.037     4.6444     54.350     37.191  35.851813     3.2647      7.056   235.4404 3.2299e+01     2.2789      2.186      3.170    23.2238 0.0000e+00
      2.239      0.037     4.6384     54.251     37.197  35.836389     3.2518      7.049   235.5440 3.2126e+01     2.2762      2.196      3.185    23.2286 0.0000e+00
      2.249      0.036     4.6324     54.155     37.211  35.831628     3.2265      7.044   235.6355 3.1925e+01     2.3301      2.207      3.200    23.2318 0.0000e+00
      2.259      0.036     4.6234     54.029     37.189  35.794213     3.1706      7.038   235.7728 3.1694e+01     2.4117      2.216      3.214    23.2236 0.0000e+00
      2.268      0.037     4.6112     53.855     37.116  35.701597     3.1357      7.031   236.1718 3.1502e+01     2.4692      2.224      3.226    23.1962 0.0000e+00
      2.275      0.040     4.5975     53.645     37.048  35.601099     3.1265      7.022   236.7595 3.1317e+01     2.5063      2.231      3.235    23.1637 0.0000e+00
      2.284      0.043     4.5815     53.396     37.023  35.531885     3.0960      7.012   237.2003 3.1064e+01     2.4942      2.239      3.247    23.1381 0.0000e+00
      2.296      0.046     4.5615     53.106     37.034  35.499887     3.0619      7.003   237.5429 3.0769e+01     2.4449      2.251      3.265    23.1214 0.0000e+00
      2.310      0.049     4.5340     52.745     37.033  35.468242     3.0529      6.993   238.0631 3.0478e+01     2.4295      2.265      3.286    23.0982 0.0000e+00
      2.324      0.052     4.4972     52.268     37.003  35.403316     3.0609      6.983   238.5859 3.0233e+01     2.4602      2.280      3.306    23.0463 0.0000e+00
      2.337      0.053     4.4568     51.715     37.013  35.350038     3.0769      6.975   238.8733 3.0015e+01     2.4815      2.292      3.324    22.9804 0.0000e+00
      2.350      0.053     4.4128     51.125     37.058  35.332134     3.0996      6.969   239.1293 2.9742e+01     2.4729      2.304      3.341    22.9122 0.0000e+00
      2.365      0.052     4.3577     50.455     37.063  35.313797     3.1239      6.964   239.3577 2.9461e+01     2.4782      2.319      3.364    22.8799 0.0000e+00
      2.380      0.050     4.2851     49.608     37.008  35.255335     3.1408      6.959   239.3984 2.9249e+01     2.4842      2.335      3.386    22.8580 0.0000e+00
      2.393      0.047     4.1948     48.541     36.965  35.196965     3.1381      6.954   239.3624 2.9058e+01     2.4540      2.347      3.404    22.7498 0.0000e+00
      2.403      0.044     4.0957     47.361     36.975  35.179710     3.1284      6.949   239.3531 2.8869e+01     2.4184      2.357      3.419    22.6361 0.0000e+00
      2.413      0.040     3.9972     46.203     36.986  35.173695     3.1242      6.944   239.3720 2.8699e+01     2.4203      2.367      3.434    22.6259 0.0000e+00
      2.423      0.037     3.8999     45.073     37.006  35.187743     3.1235      6.939   239.3332 2.8517e+01     2.4468      2.377      3.448    22.6384 0.0000e+00
      2.432      0.035     3.8014     43.926     37.050  35.222518     3.1295      6.935   239.3146 2.8343e+01     2.4637      2.385      3.460    22.6079 0.0000e+00
      2.440      0.033     3.7072     42.813     37.063  35.213022     3.1329      6.931   239.4909 2.8201e+01     2.4726      2.393      3.471    22.5589 0.0000e+00
      2.449      0.033     3.6237     41.807     37.091  35.199946     3.1279      6.926   239.7435 2.8042e+01     2.4626      2.401      3.482    22.5375 0.0000e+00
      2.456      0.034     3.5517     40.936     37.189  35.254912     3.1237      6.921   239.8736 2.7829e+01     2.4641      2.408      3.493    22.5387 0.0000e+00
      2.464      0.037     3.4833     40.114     37.276  35.305867     3.1287      6.916   240.0314 2.7609e+01     2.4914      2.416      3.505    22.5349 0.0000e+00
      2.474      0.040     3.4005     39.119     37.391  35.371354     3.1324      6.909   240.3612 2.7398e+01     2.4865      2.425      3.518    22.5120 0.0000e+00
      2.485      0.045     3.2920     37.800     37.647  35.538471     3.1227      6.900   240.7633 2.7165e+01     2.4668      2.437      3.533    22.4426 0.0000e+00
      2.496      0.050     3.1546     36.122     37.976  35.738322     3.1126      6.890   241.1936 2.6949e+01     2.4668      2.448      3.550    22.3877 0.0000e+00
      2.509      0.054     2.9814     34.038     38.255  35.881916     3.1115      6.878   241.6064 2.6733e+01     2.4859      2.459      3.566    22.3577 0.0000e+00
      2.524      0.057     2.7608     31.444     38.417  35.940500     3.1276      6.867   241.9693 2.6443e+01     2.5151      2.474      3.589    22.3080 0.0000e+00
      2.541      0.058     2.4843     28.255     38.473  35.938341     3.1610      6.857   242.3114 2.6107e+01     2.5143      2.492      3.615    22.2165 0.0000e+00
      2.558      0.058     2.1522     24.456     38.559  35.982788     3.1838      6.848   242.5584 2.5795e+01     2.4770      2.509      3.639    22.0517 0.0000e+00
      2.573      0.057     1.7903     20.323     38.728  36.096719     3.1823      6.839   242.6337 2.5508e+01     2.4607      2.524      3.660    21.8799 0.0000e+00
      2.586      0.055     1.4444     16.378     38.928  36.235908     3.1343      6.829   242.7053 2.5240e+01     2.5302      2.536      3.678    21.7488 0.0000e+00
      2.598      0.053     1.1484     13.007     39.219  36.458695     3.0447      6.819   242.8224 2.4979e+01     2.6467      2.547      3.695    21.6886 0.0000e+00
      2.611      0.052     0.9181     10.383     39.679  36.821082     2.9905      6.809   242.9308 2.4722e+01     2.6796      2.561      3.713    21.6655 0.0000e+00
      2.625      0.051     0.7511      8.477     40.163  37.187009     2.9929      6.797   243.0693 2.4508e+01     2.6525      2.575      3.733    21.5962 0.0000e+00
      2.638      0.049     0.6351      7.153     40.540  37.452544     3.0004      6.786   243.2061 2.4294e+01     2.6549      2.587      3.752    21.5343 0.0000e+00
      2.652      0.047     0.5572      6.264     40.935  37.744532     2.9706      6.776   243.3803 2.4062e+01     2.6775      2.601      3.772    21.4878 0.0000e+00
      2.664      0.044     0.4943      5.548     41.401  38.112630     2.9176      6.766   243.5403 2.3886e+01     2.7120      2.614      3.792    21.4049 0.0000e+00
      2.674      0.042     0.4269      4.786     41.914  38.536032     2.8840      6.755   243.6784 2.3721e+01     2.7366      2.624      3.805    21.2904 0.0000e+00
      2.683      0.040     0.3536      3.961     42.445  38.988385     2.8678      6.744   243.9316 2.3496e+01     2.7312      2.631      3.815    21.1814 0.0000e+00
      2.692      0.040     0.2794      3.128     43.055  39.515878     2.8782      6.734   244.1928 2.3262e+01     2.7067      2.640      3.829    21.0951 0.0000e+00
      2.703      0.040     0.2091      2.340     43.995  40.339407     2.9174      6.723   244.4278 2.3045e+01     2.6854      2.650      3.844    21.0191 0.0000e+00
      2.714      0.043     0.1486      1.661     45.063  41.257603     2.9369      6.710   244.7937 2.2815e+01     2.6869      2.661      3.860    20.9600 0.0000e+00
      2.724      0.047     0.1041      1.161     45.584  41.658692     2.9210      6.696   245.2622 2.2581e+01     2.6954      2.671      3.874    20.9217 0.0000e+00
      2.734      0.049     0.0798      0.889     45.336  41.376452     2.8442      6.684   245.7035 2.2351e+01     2.6955      2.679      3.887    20.8873 0.0000e+00
      2.748      0.051     0.0736      0.819     44.886  40.958453     2.7346      6.672   245.9993 2.2096e+01     2.6886      2.694      3.907    20.8510 0.0000e+00
      2.764      0.051     0.0774      0.863     44.816  40.925434     2.6892      6.660   246.1721 2.1820e+01     2.6729      2.711      3.932    20.7847 0.0000e+00
      2.779      0.050     0.0842      0.939     45.115  41.231448     2.6819      6.649   246.4159 2.1578e+01     2.6581      2.727      3.955    20.6807 0.0000e+00
      2.792      0.048     0.0929      1.036     45.586  41.672118     2.6364      6.638   246.7961 2.1393e+01     2.6021      2.739      3.973    20.6058 0.0000e+00
      2.803      0.043     0.1057      1.178     46.168  42.186926     2.5711      6.627   247.2414 2.1248e+01     2.5134      2.748      3.986    20.6019 0.0000e+00
      2.813      0.038     0.1219      1.358     47.105  43.007956     2.5456      6.617   247.7559 2.1114e+01     2.4706      2.758      4.001    20.6536 0.0000e+00
      2.822      0.034     0.1399      1.558     48.844  44.545558     2.5578      6.607   248.1999 2.0982e+01     2.4816      2.768      4.015    20.7027 0.0000e+00
      2.830      0.031     0.1590      1.768     51.473  46.860541     2.6270      6.598   248.4789 2.0871e+01     2.4944      2.776      4.026    20.7142 0.0000e+00
      2.837      0.031     0.1762      1.953     54.272  49.262212     2.7389      6.591   248.8927 2.0780e+01     2.4734      2.782      4.036    20.6898 0.0000e+00
      2.843      0.032     0.1887      2.084     56.224  50.828902     2.7894      6.584   249.5889 2.0660e+01     2.4715      2.788      4.043    20.6507 0.0000e+00
      2.850      0.032     0.1991      2.191     57.096  51.437002     2.7964      6.577   250.1853 2.0482e+01     2.5016      2.794      4.053    20.6040 0.0000e+00
      2.860      0.032     0.2061      2.265     57.511  51.719546     2.8054      6.570   250.4250 2.0276e+01     2.5009      2.804      4.067    20.5386 0.0000e+00
      2.870      0.032     0.2076      2.279     58.391  52.464957     2.7879      6.562   250.5941 2.0099e+01     2.4634      2.815      4.083    20.4133 0.0000e+00
      2.879      0.033     0.2040      2.238     59.721  53.583420     2.7595      6.555   250.7676 1.9956e+01     2.4458      2.825      4.096    20.1906 0.0000e+00
      2.887      0.034     0.1974      2.162     59.956  53.671569     2.7463      6.547   250.6303 1.9817e+01     2.4705      2.832      4.106    19.9999 0.0000e+00
      2.893      0.037     0.1909      2.086     57.886  51.686805     2.7389      6.537   250.2243 1.9687e+01     2.5180      2.837      4.115    19.9436 0.0000e+00
      2.901      0.042     0.1850      2.016     54.630  48.657575     2.7340      6.524   249.9884 1.9526e+01     2.5927      2.843      4.123    19.9382 0.0000e+00
      2.911      0.048     0.1798      1.955     52.319  46.477593     2.7340      6.509   249.8425 1.9276e+01     2.6721      2.854      4.138    19.8759 0.0000e+00
      2.924      0.054     0.1755      1.903     50.831  45.033322     2.7292      6.494   249.3217 1.8969e+01     2.6851      2.866      4.157    19.7545 0.0000e+00
      2.941      0.059     0.1728      1.870     49.117  43.397222     2.7213      6.479   248.5955 1.8670e+01     2.6577      2.883      4.182    19.6312 0.0000e+00
      2.961      0.061     0.1724      1.861     48.325  42.582763     2.7219      6.466   248.1176 1.8408e+01     2.6155      2.904      4.213    19.5262 0.0000e+00
      2.979      0.061     0.1726      1.859     50.010  43.955215     2.7272      6.455   247.8448 1.8170e+01     2.5404      2.922      4.237    19.4147 0.0000e+00
      2.994      0.059     0.1727      1.856     53.192  46.645691     2.7300      6.447   247.4487 1.7943e+01     2.5127      2.936      4.258    19.2884 0.0000e+00
      3.008      0.054     0.1728      1.854     55.689  48.738326     2.7463      6.441   246.8559 1.7733e+01     2.5255      2.951      4.279    19.1679 0.0000e+00
      3.021      0.048     0.1731      1.855     57.082  49.871638     2.9343      6.439   246.1833 1.7556e+01     2.5116      2.963      4.297    19.0528 0.0000e+00
      3.031      0.043     0.1731      1.852     57.877  50.495727     3.2842      6.439   245.5114 1.7404e+01     2.4975      2.973      4.312    18.9428 0.0000e+00
      3.041      0.039     0.1716      1.834     58.091  50.626450     3.4842      6.440   244.9273 1.7268e+01     2.5070      2.983      4.327    18.8423 0.0000e+00
      3.051      0.036     0.1689      1.804     57.771  50.307887     3.5052      6.442   244.1971 1.7140e+01     2.5055      2.992      4.341    18.7517 0.0000e+00
      3.060      0.034     0.1658      1.771     57.084  49.695281     3.4000      6.442   242.7913 1.7010e+01     2.4783      3.001      4.352    18.6756 0.0000e+00
      3.067      0.032     0.1617      1.727     56.204  48.940579     3.1875      6.439   240.9213 1.6878e+01     2.4834      3.008      4.362    18.6138 0.0000e+00
      3.075      0.030     0.1560      1.667     55.508  48.365808     3.0683      6.436   238.8809 1.6746e+01     2.5061      3.016      4.374    18.5672 0.0000e+00
      3.084      0.030     0.1494      1.597     55.300  48.212356     3.0523      6.433   236.5349 1.6634e+01     2.5091      3.024      4.386    18.5275 0.0000e+00
      3.091      0.030     0.1438      1.537     55.345  48.229414     2.9929      6.430   234.5808 1.6545e+01     2.5799      3.031      4.396    18.5151 0.0000e+00
      3.097      0.031     0.1396      1.489     55.395  48.190652     2.8834      6.428   233.7521 1.6427e+01     2.6911      3.037      4.404    18.5277 0.0000e+00
      3.105      0.032     0.1369      1.458     55.437  48.124946     2.8221      6.428   233.4847 1.6259e+01     2.7243      3.044      4.415    18.5586 0.0000e+00
      3.114      0.032     0.1372      1.459     55.469  48.070466     2.8123      6.428   232.8105 1.6099e+01     2.7071      3.054      4.431    18.6080 0.0000e+00
      3.123      0.033     0.1389      1.476     55.492  48.040322     2.8013      6.428   231.7095 1.5953e+01     2.6966      3.063      4.442    18.5908 0.0000e+00
      3.131      0.035     0.1393      1.479     55.493  48.014668     2.7358      6.428   230.4980 1.5819e+01     2.9332      3.071      4.454    18.4982 0.0000e+00
      3.140      0.037     0.1384      1.469     55.513  48.014494     2.6168      6.428   229.2601 1.5702e+01     3.4317      3.079      4.466    18.3917 0.0000e+00
      3.148      0.039     0.1369      1.453     55.412  47.911079     2.5493      6.428   228.0996 1.5559e+01     3.7184      3.086      4.477    18.3145 0.0000e+00
      3.158      0.041     0.1339      1.420     54.992  47.526998     2.5348      6.427   226.9630 1.5393e+01     3.7450      3.096      4.491    18.2741 0.0000e+00
      3.170      0.043     0.1303      1.382     54.355  46.929983     2.5606      6.425   225.9284 1.5228e+01     3.8143      3.109      4.509    18.2553 0.0000e+00
      3.183      0.044     0.1286      1.362     53.855  46.412901     2.6319      6.424   225.1411 1.5063e+01     3.9162      3.122      4.528    18.2433 0.0000e+00
      3.195      0.045     0.1273      1.345     53.765  46.232426     2.6701      6.423   224.4136 1.4909e+01     3.9384      3.133      4.544    18.2242 0.0000e+00
      3.206      0.045     0.1267      1.336     53.913  46.273130     2.6553      6.423   223.6701 1.4781e+01     3.9612      3.144      4.560    18.2182 0.0000e+00
      3.216      0.044     0.1282      1.350     53.988  46.269380     2.5553      6.422   223.0353 1.4666e+01     4.0997      3.155      4.576    18.1819 0.0000e+00
      3.227      0.043     0.1309      1.376     53.994  46.186991     2.3885      6.420   222.5033 1.4533e+01     4.3014      3.164      4.589    18.0933 0.0000e+00
      3.239      0.042     0.1339      1.405     54.084  46.166652     2.3015      6.420   222.1417 1.4392e+01     4.3854      3.177      4.607    17.9834 0.0000e+00
      3.251      0.041     0.1364      1.430     54.292  46.277565     2.2942      6.420   221.9329 1.4266e+01     4.3524      3.189      4.625    17.8974 0.0000e+00
      3.261      0.039     0.1378      1.444     54.697  46.574590     2.2719      6.419   221.6992 1.4148e+01     4.2376      3.198      4.639    17.8617 0.0000e+00
      3.270      0.038     0.1377      1.441     55.384  47.088488     2.2338      6.417   221.3812 1.4026e+01     4.0661      3.207      4.651    17.7740 0.0000e+00
      3.279      0.035     0.1371      1.431     55.954  47.469828     2.2197      6.416   221.0124 1.3902e+01     3.9880      3.216      4.665    17.6590 0.0000e+00
      3.288      0.033     0.1356      1.413     55.948  47.371638     2.2213      6.415   220.5968 1.3800e+01     3.9644      3.225      4.677    17.6055 0.0000e+00
      3.296      0.033     0.1345      1.400     55.694  47.108802     2.1698      6.414   220.0558 1.3711e+01     3.9945      3.232      4.689    17.5823 0.0000e+00
      3.304      0.033     0.1333      1.387     55.830  47.215597     2.0749      6.411   219.4613 1.3617e+01     4.1080      3.241      4.700    17.5229 0.0000e+00
      3.312      0.033     0.1298      1.352     56.555  47.836605     2.0299      6.409   219.0003 1.3506e+01     4.1774      3.247      4.709    17.4097 0.0000e+00
      3.320      0.034     0.1273      1.325     57.358  48.515469     2.0306      6.408   218.6128 1.3401e+01     4.1920      3.255      4.723    17.3115 0.0000e+00
      3.329      0.035     0.1258      1.309     57.295  48.431816     2.0281      6.406   218.2176 1.3316e+01     4.1940      3.265      4.736    17.2760 0.0000e+00
      3.338      0.038     0.1243      1.292     55.979  47.270054     1.9903      6.404   217.8359 1.3196e+01     4.3226      3.272      4.746    17.2768 0.0000e+00
      3.348      0.041     0.1238      1.286     54.133  45.655258     1.9320      6.401   217.4389 1.3067e+01     4.6171      3.284      4.762    17.2876 0.0000e+00
      3.358      0.044     0.1247      1.293     52.754  44.415431     1.9110      6.398   217.1170 1.2943e+01     4.7948      3.293      4.777    17.3024 0.0000e+00
      3.368      0.048     0.1244      1.288     51.808  43.528396     1.9030      6.393   216.8692 1.2754e+01     4.7933      3.301      4.789    17.2666 0.0000e+00
      3.382      0.050     0.1228      1.269     51.061  42.810194     1.8253      6.388   216.5072 1.2530e+01     4.6901      3.316      4.809    17.2127 0.0000e+00
      3.397      0.052     0.1242      1.280     50.840  42.531149     1.6980      6.383   216.0106 1.2326e+01     4.5238      3.332      4.833    17.1761 0.0000e+00
      3.412      0.053     0.1272      1.310     51.455  42.950421     1.6312      6.380   215.6822 1.2124e+01     4.4309      3.347      4.854    17.0964 0.0000e+00
      3.425      0.053     0.1292      1.328     53.047  44.193715     1.6250      6.379   215.7208 1.1933e+01     4.3900      3.360      4.873    16.9998 0.0000e+00
      3.437      0.053     0.1303      1.338     54.847  45.616289     1.6228      6.379   215.7888 1.1764e+01     4.2737      3.371      4.889    16.9202 0.0000e+00
      3.449      0.052     0.1313      1.345     56.366  46.804692     1.6044      6.381   215.5581 1.1587e+01     4.0923      3.382      4.905    16.8242 0.0000e+00
      3.463      0.051     0.1323      1.353     57.911  48.012060     1.5773      6.381   215.1682 1.1399e+01     3.9673      3.395      4.925    16.7283 0.0000e+00
      3.478      0.049     0.1328      1.358     59.196  49.027713     1.5623      6.382   214.8603 1.1228e+01     3.9218      3.411      4.948    16.6496 0.0000e+00
      3.492      0.048     0.1313      1.342     60.138  49.804601     1.5611      6.383   214.6744 1.1072e+01     3.8788      3.426      4.969    16.5796 0.0000e+00
      3.503      0.045     0.1273      1.301     60.642  50.222280     1.5715      6.385   214.5549 1.0938e+01     3.8130      3.436      4.983    16.5198 0.0000e+00
      3.512      0.043     0.1245      1.271     60.363  49.945930     1.5773      6.387   214.4475 1.0826e+01     3.7676      3.444      4.996    16.4444 0.0000e+00
      3.522      0.042     0.1238      1.263     59.466  49.133065     1.5759      6.389   214.3234 1.0723e+01     3.7576      3.454      5.010    16.3854 0.0000e+00
      3.533      0.042     0.1229      1.253     58.653  48.403323     1.5920      6.390   214.0004 1.0643e+01     3.7516      3.465      5.025    16.4020 0.0000e+00
      3.543      0.044     0.1225      1.248     58.299  48.051245     1.6241      6.389   213.3819 1.0562e+01     3.7564      3.474      5.039    16.4277 0.0000e+00
      3.554      0.047     0.1230      1.250     57.855  47.609299     1.6431      6.387   212.6955 1.0442e+01     3.7850      3.484      5.053    16.3749 0.0000e+00
      3.566      0.049     0.1226      1.245     57.208  47.000494     1.6461      6.383   212.0680 1.0301e+01     3.7929      3.497      5.072    16.2959 0.0000e+00
      3.580      0.049     0.1220      1.237     56.643  46.474129     1.6615      6.378   211.5593 1.0161e+01     3.7604      3.511      5.092    16.2611 0.0000e+00
      3.594      0.049     0.1212      1.228     56.056  45.948328     1.6913      6.373   211.1909 1.0011e+01     3.7277      3.525      5.111    16.2165 0.0000e+00
      3.608      0.048     0.1196      1.209     55.610  45.536888     1.7119      6.369   210.8836 9.8560e+00     3.7334      3.539      5.132    16.1385 0.0000e+00
      3.620      0.046     0.1181      1.192     55.416  45.312741     1.7179      6.366   210.5964 9.7376e+00     3.7682      3.551      5.150    16.0716 0.0000e+00
      3.631      0.044     0.1176      1.186     55.619  45.398944     1.7189      6.365   210.3001 9.6491e+00     3.7819      3.561      5.164    16.0107 0.0000e+00
      3.640      0.042     0.1172      1.181     56.804  46.261264     1.7325      6.366   210.0546 9.5422e+00     3.8071      3.570      5.177    15.9800 0.0000e+00
      3.650      0.042     0.1166      1.172     58.689  47.667111     1.7532      6.368   209.9501 9.4074e+00     3.8902      3.579      5.191    15.9499 0.0000e+00
      3.661      0.042     0.1190      1.193     60.312  48.858636     1.7666      6.371   209.9841 9.2774e+00     3.9626      3.589      5.206    15.8803 0.0000e+00
      3.672      0.042     0.1233      1.233     61.386  49.607868     1.7747      6.373   210.0355 9.1814e+00     3.9807      3.600      5.222    15.8171 0.0000e+00
      3.683      0.041     0.1255      1.252     62.087  50.051447     1.7412      6.375   210.0550 9.0709e+00     3.9869      3.612      5.239    15.7292 0.0000e+00
      3.695      0.040     0.1277      1.272     62.512  50.280533     1.6748      6.377   210.1339 8.9288e+00     3.9763      3.623      5.255    15.6043 0.0000e+00
      3.705      0.037     0.1303      1.296     62.782  50.406944     1.6432      6.379   210.1294 8.8239e+00     3.9447      3.633      5.270    15.4976 0.0000e+00
      3.714      0.034     0.1324      1.316     62.971  50.499078     1.6429      6.382   209.9143 8.7638e+00     3.9401      3.642      5.283    15.4076 0.0000e+00
      3.722      0.030     0.1339      1.331     63.080  50.568036     1.6169      6.384   209.8559 8.7151e+00     3.9210      3.650      5.294    15.3017 0.0000e+00
      3.729      0.029     0.1336      1.328     63.504  50.922836     1.5579      6.386   210.2837 8.6714e+00     3.8661      3.657      5.304    15.2043 0.0000e+00
      3.735      0.030     0.1310      1.302     64.679  51.864631     1.5174      6.386   210.7850 8.6267e+00     3.8258      3.662      5.313    15.1345 0.0000e+00
      3.741      0.034     0.1278      1.269     66.085  52.927655     1.5134      6.385   210.8407 8.5630e+00     3.7695      3.668      5.320    15.0811 0.0000e+00
      3.747      0.040     0.1265      1.254     67.001  53.539968     1.5465      6.381   210.5263 8.4691e+00     3.7346      3.674      5.329    15.0652 0.0000e+00
      3.757      0.046     0.1257      1.244     67.403  53.736607     1.6053      6.375   210.1672 8.3364e+00     3.7700      3.683      5.341    15.0950 0.0000e+00
      3.772      0.052     0.1246      1.231     67.335  53.588378     1.6451      6.368   209.8549 8.1638e+00     3.8004      3.698      5.364    15.1122 0.0000e+00
      3.789      0.056     0.1231      1.214     67.040  53.273567     1.6511      6.363   209.5032 7.9816e+00     3.7970      3.715      5.389    15.0606 0.0000e+00
      3.806      0.056     0.1213      1.195     66.855  53.045574     1.6588      6.358   209.4424 7.8152e+00     3.7291      3.732      5.413    14.9508 0.0000e+00
      3.822      0.052     0.1211      1.192     66.647  52.802590     1.6838      6.354   209.6366 7.6858e+00     3.5897      3.750      5.440    14.8465 0.0000e+00
      3.836      0.047     0.1223      1.202     66.187  52.370066     1.6958      6.351   209.4422 7.6007e+00     3.5157      3.764      5.460    14.7859 0.0000e+00
      3.846      0.042     0.1224      1.201     65.404  51.694082     1.7031      6.349   208.9849 7.5428e+00     3.5360      3.772      5.471    14.7317 0.0000e+00
      3.852      0.039     0.1209      1.185     64.417  50.859615     1.7166      6.346   208.6664 7.4920e+00     3.5298      3.777      5.479    14.6673 0.0000e+00
      3.859      0.039     0.1199      1.174     63.530  50.100002     1.7297      6.343   208.3453 7.4242e+00     3.4406      3.783      5.487    14.6065 0.0000e+00
      3.868      0.040     0.1192      1.166     62.854  49.502407     1.7526      6.341   208.0270 7.3299e+00     3.3427      3.792      5.500    14.5555 0.0000e+00
      3.880      0.043     0.1176      1.149     62.254  48.973822     1.7726      6.339   207.8295 7.2255e+00     3.3228      3.805      5.519    14.5146 0.0000e+00
      3.894      0.046     0.1154      1.127     61.507  48.349242     1.7786      6.338   207.6788 7.1309e+00     3.3527      3.819      5.539    14.4757 0.0000e+00
      3.907      0.048     0.1144      1.117     60.525  47.544297     1.8068      6.338   207.6682 7.0446e+00     3.5210      3.831      5.557    14.4285 0.0000e+00
      3.918      0.050     0.1149      1.120     59.492  46.678062     1.8654      6.337   207.9589 6.9602e+00     3.8010      3.842      5.573    14.3742 0.0000e+00
      3.929      0.051     0.1150      1.120     58.499  45.820612     1.8985      6.336   208.3544 6.8723e+00     3.9305      3.853      5.589    14.3224 0.0000e+00
      3.942      0.053     0.1153      1.121     57.556  44.994401     1.9038      6.334   208.6643 6.7712e+00     3.9575      3.864      5.606    14.2979 0.0000e+00
      3.956      0.055     0.1154      1.121     56.628  44.187775     1.8925      6.334   208.8667 6.6563e+00     4.0366      3.879      5.627    14.2829 0.0000e+00
      3.972      0.058     0.1154      1.119     55.677  43.376158     1.8540      6.334   208.7363 6.5442e+00     4.1238      3.896      5.650    14.2348 0.0000e+00
      3.987      0.060     0.1161      1.124     54.783  42.616424     1.8246      6.334   208.3780 6.4441e+00     4.1569      3.910      5.671    14.1624 0.0000e+00
      4.003      0.062     0.1173      1.134     53.979  41.928473     1.8219      6.333   208.0625 6.3521e+00     4.1930      3.925      5.692    14.0805 0.0000e+00
      4.019      0.062     0.1184      1.143     53.556  41.539700     1.8304      6.332   207.8462 6.2354e+00     4.5913      3.941      5.716    14.0080 0.0000e+00
      4.035      0.061     0.1189      1.148     54.024  41.855431     1.8345      6.331   207.8286 6.0904e+00     5.2803      3.957      5.740    13.9485 0.0000e+00
      4.052      0.060     0.1192      1.150     54.875  42.505135     1.8257      6.329   207.7637 5.9665e+00     5.6258      3.974      5.764    13.8914 0.0000e+00
      4.067      0.057     0.1192      1.150     55.121  42.723042     1.8165      6.328   207.4921 5.8687e+00     5.7168      3.989      5.786    13.8338 0.0000e+00
      4.081      0.054     0.1188      1.147     54.567  42.329666     1.7425      6.328   207.2978 5.7903e+00     6.5638      4.003      5.806    13.7758 0.0000e+00
      4.095      0.051     0.1181      1.141     53.547  41.561580     1.5925      6.328   207.2210 5.7349e+00     8.1157      4.017      5.825    13.7210 0.0000e+00
      4.107      0.048     0.1163      1.124     52.575  40.807277     1.5098      6.327   207.2513 5.6758e+00     8.9772      4.028      5.841    13.7101 0.0000e+00
      4.118      0.046     0.1142      1.103     51.840  40.199066     1.5049      6.326   207.5779 5.6068e+00     9.0754      4.038      5.856    13.7511 0.0000e+00
      4.129      0.044     0.1149      1.107     51.258  39.672082     1.4410      6.326   208.0731 5.5506e+00     9.4562      4.050      5.873    13.7869 0.0000e+00
      4.141      0.044     0.1180      1.135     50.766  39.200806     1.3156      6.326   208.2481 5.5029e+00    10.2237      4.061      5.889    13.8120 0.0000e+00
      4.151      0.045     0.1205      1.157     50.376  38.821238     1.2578      6.326   208.0601 5.4557e+00    10.6961      4.071      5.904    13.8200 0.0000e+00
      4.162      0.046     0.1243      1.192     50.138  38.577089     1.2655      6.325   207.8645 5.4050e+00    10.7728      4.081      5.920    13.7843 0.0000e+00
      4.174      0.048     0.1331      1.275     49.984  38.408905     1.2619      6.323   207.6894 5.3404e+00    10.7848      4.093      5.936    13.6997 0.0000e+00
      4.187      0.051     0.1502      1.438     49.916  38.312476     1.2057      6.323   207.4057 5.2844e+00    10.9333      4.106      5.955    13.5997 0.0000e+00
      4.200      0.055     0.1813      1.733     50.032  38.364108     1.1097      6.322   207.1879 5.2418e+00    11.2249      4.119      5.974    13.5201 0.0000e+00
      4.214      0.059     0.2299      2.196     50.291  38.524873     1.0571      6.320   207.2068 5.1730e+00    11.3813      4.132      5.991    13.4650 0.0000e+00
      4.229      0.061     0.2986      2.850     50.533  38.667918     1.0566      6.318   207.2039 5.0884e+00    11.3897      4.147      6.015    13.4172 0.0000e+00
      4.247      0.062     0.3900      3.720     50.788  38.822943     1.0574      6.318   207.0668 5.0133e+00    11.5097      4.165      6.041    13.3702 0.0000e+00
      4.265      0.061     0.4998      4.763     51.068  39.001469     1.0493      6.318   207.0119 4.9269e+00    11.7328      4.183      6.066    13.3378 0.0000e+00
      4.281      0.059     0.6153      5.860     51.332  39.174521     1.0496      6.318   207.0563 4.8359e+00    11.8295      4.200      6.092    13.3010 0.0000e+00
      4.296      0.055     0.7215      6.870     51.632  39.390435     1.0523      6.316   207.0873 4.7695e+00    11.8244      4.213      6.111    13.2565 0.0000e+00
      4.310      0.050     0.8036      7.652     51.880  39.578900     1.0356      6.315   207.1280 4.7273e+00    11.8544      4.226      6.129    13.2144 0.0000e+00
      4.322      0.046     0.8534      8.124     52.105  39.737772     1.0044      6.314   207.1190 4.6922e+00    11.9172      4.238      6.147    13.1813 0.0000e+00
      4.332      0.044     0.8707      8.285     52.284  39.849981     0.9874      6.313   206.9778 4.6567e+00    11.9739      4.249      6.162    13.1489 0.0000e+00
      4.341      0.044     0.8568      8.150     52.307  39.855446     0.9959      6.311   206.5401 4.6092e+00    11.9907      4.258      6.175    13.1345 0.0000e+00
      4.351      0.045     0.8100      7.707     52.477  39.994438     1.0788      6.309   206.0427 4.5359e+00    11.8451      4.267      6.188    13.1490 0.0000e+00
      4.362      0.048     0.7379      7.022     52.971  40.386853     1.2268      6.308   206.0402 4.4648e+00    11.5558      4.277      6.204    13.1356 0.0000e+00
      4.375      0.051     0.6557      6.241     53.492  40.787796     1.3065      6.307   206.3382 4.4171e+00    11.3919      4.290      6.222    13.1004 0.0000e+00
      4.389      0.055     0.5743      5.465     53.754  40.966304     1.2980      6.306   206.8059 4.3536e+00    11.3287      4.304      6.242    13.0846 0.0000e+00
      4.404      0.059     0.5007      4.759     53.719  40.893111     1.1788      6.304   207.3066 4.2534e+00    10.7914      4.319      6.264    13.1011 0.0000e+00
      4.419      0.063     0.4367      4.145     53.499  40.665253     0.9687      6.301   207.4016 4.1542e+00     9.8394      4.333      6.285    13.1236 0.0000e+00
      4.435      0.065     0.3817      3.620     53.268  40.435127     0.8522      6.298   207.3531 4.0699e+00     9.3405      4.349      6.308    13.1302 0.0000e+00
      4.452      0.066     0.3350      3.174     53.013  40.207425     0.8453      6.294   207.4950 3.9697e+00     9.2753      4.366      6.332    13.1123 0.0000e+00
      4.471      0.065     0.2943      2.788     52.682  39.945333     0.8493      6.290   207.6536 3.8580e+00     9.2643      4.384      6.359    13.0642 0.0000e+00
      4.490      0.064     0.2560      2.425     52.425  39.744164     0.8082      6.285   207.8943 3.7740e+00     9.6352      4.405      6.389    13.0002 0.0000e+00
      4.507      0.062     0.2165      2.050     52.299  39.617696     0.7337      6.280   208.2544 3.7063e+00    10.3422      4.421      6.412    12.9424 0.0000e+00
      4.521      0.059     0.1778      1.681     52.298  39.559859     0.6939      6.276   208.5661 3.6309e+00    10.7324      4.433      6.429    12.9111 0.0000e+00
      4.534      0.055     0.1453      1.372     52.360  39.553087     0.6850      6.273   208.9961 3.5569e+00    10.8745      4.446      6.449    12.9032 0.0000e+00
      4.547      0.052     0.1209      1.141     52.376  39.535745     0.6900      6.269   209.5817 3.4795e+00    12.3950      4.459      6.468    12.9139 0.0000e+00
      4.561      0.050     0.1017      0.960     52.309  39.477225     0.6995      6.266   210.2260 3.4069e+00    15.2316      4.473      6.488    12.8862 0.0000e+00
      4.574      0.049     0.0877      0.827     52.233  39.417349     0.6992      6.262   210.8491 3.3609e+00    16.7895      4.486      6.507    12.8142 0.0000e+00
      4.586      0.049     0.0823      0.776     52.202  39.383607     0.7040      6.259   211.1797 3.3319e+00    17.0711      4.497      6.523    12.7589 0.0000e+00
      4.597      0.049     0.0850      0.802     52.145  39.323389     0.7485      6.256   211.2974 3.2912e+00    18.4839      4.508      6.538    12.7295 0.0000e+00
      4.608      0.050     0.0920      0.867     52.091  39.261067     0.8232      6.253   211.5844 3.2419e+00    20.9924      4.519      6.555    12.7305 0.0000e+00
      4.621      0.051     0.1009      0.950     52.041  39.201867     0.8635      6.250   211.9818 3.1853e+00    22.3464      4.532      6.573    12.7335 0.0000e+00
      4.635      0.054     0.1119      1.053     51.947  39.115871     0.8675      6.246   212.1450 3.1152e+00    22.4944      4.546      6.593    12.7198 0.0000e+00
      4.649      0.058     0.1239      1.166     51.799  38.983696     0.8358      6.243   212.2671 3.0588e+00    22.9047      4.559      6.612    12.7057 0.0000e+00
      4.664      0.062     0.1391      1.307     51.619  38.810889     0.7647      6.240   212.5977 3.0069e+00    23.6755      4.573      6.633    12.6817 0.0000e+00
      4.680      0.066     0.1598      1.501     51.506  38.678338     0.7249      6.236   212.8725 2.9371e+00    24.0926      4.589      6.656    12.6567 0.0000e+00
      4.697      0.070     0.1837      1.724     51.443  38.588127     0.7321      6.233   213.0951 2.8598e+00    24.1341      4.605      6.679    12.6486 0.0000e+00
      4.716      0.073     0.2150      2.017     51.347  38.482512     0.7682      6.230   213.3959 2.7791e+00    24.3594      4.624      6.707    12.6349 0.0000e+00
      4.737      0.075     0.2589      2.427     51.212  38.354322     0.8221      6.226   213.7564 2.7085e+00    24.7413      4.645      6.738    12.5947 0.0000e+00
      4.757      0.076     0.3172      2.971     51.098  38.245278     0.8509      6.221   214.2694 2.6490e+00    24.9374      4.665      6.766    12.5421 0.0000e+00
      4.776      0.076     0.3890      3.643     51.038  38.180565     0.8495      6.215   214.6948 2.5792e+00    24.9601      4.684      6.793    12.4990 0.0000e+00
      4.795      0.076     0.4704      4.404     51.012  38.143651     0.8513      6.210   214.8559 2.5176e+00    24.9552      4.702      6.820    12.4678 0.0000e+00
      4.813      0.075     0.5623      5.262     50.998  38.116606     0.9270      6.205   215.0132 2.4693e+00    24.9092      4.719      6.845    12.4425 0.0000e+00
      4.833      0.074     0.6677      6.246     51.011  38.107674     1.0577      6.201   215.2192 2.4146e+00    24.8299      4.739      6.874    12.4201 0.0000e+00
      4.853      0.074     0.7806      7.300     51.019  38.099161     1.1175      6.199   215.3680 2.3499e+00    24.7897      4.760      6.904    12.3984 0.0000e+00
      4.872      0.074     0.8909      8.330     51.001  38.077195     1.1171      6.196   215.4361 2.2803e+00    24.7896      4.778      6.930    12.3838 0.0000e+00
      4.889      0.075     0.9969      9.319     50.954  38.032670     1.0897      6.194   215.5265 2.2225e+00    24.6761      4.795      6.955    12.3694 0.0000e+00
      4.907      0.075     1.0953     10.235     50.854  37.941998     1.0251      6.192   215.6863 2.1580e+00    24.4553      4.811      6.979    12.3468 0.0000e+00
      4.927      0.075     1.1824     11.042     50.793  37.870308     0.9885      6.190   215.8189 2.0843e+00    24.3482      4.831      7.007    12.3323 0.0000e+00
      4.947      0.075     1.2573     11.734     50.825  37.864698     0.9870      6.190   215.8394 2.0232e+00    24.3575      4.851      7.036    12.3276 0.0000e+00
      4.967      0.075     1.3169     12.284     50.866  37.874126     0.9696      6.188   215.8486 1.9553e+00    24.3845      4.872      7.066    12.3194 0.0000e+00
      4.987      0.074     1.3608     12.690     50.860  37.857211     0.9439      6.187   216.0165 1.8818e+00    24.3997      4.892      7.095    12.3070 0.0000e+00
      5.004      0.072     1.3945     13.003     50.771  37.787241     0.9338      6.187   216.1487 1.8196e+00    24.3577      4.908      7.119    12.2775 0.0000e+00
      5.022      0.070     1.4244     13.282     50.605  37.663425     0.9307      6.186   216.1563 1.7572e+00    24.2740      4.925      7.143    12.2431 0.0000e+00
      5.040      0.070     1.4521     13.539     50.485  37.567250     0.8967      6.185   216.1939 1.6995e+00    23.7544      4.944      7.170    12.2235 0.0000e+00
      5.057      0.070     1.4787     13.781     50.439  37.513812     0.8354      6.184   216.3450 1.6530e+00    22.8044      4.958      7.193    12.2108 0.0000e+00
      5.074      0.072     1.5051     14.019     50.400  37.462006     0.8048      6.183   216.5213 1.5990e+00    22.2795      4.974      7.216    12.2076 0.0000e+00
      5.092      0.075     1.5351     14.292     50.410  37.449078     0.8027      6.181   216.6053 1.5378e+00    22.1698      4.993      7.242    12.2136 0.0000e+00
      5.111      0.077     1.5747     14.655     50.483  37.484543     0.7819      6.181   216.7577 1.4693e+00    21.6301      5.011      7.268    12.2090 0.0000e+00
      5.132      0.077     1.6246     15.114     50.535  37.509611     0.7466      6.180   216.9876 1.3944e+00    20.6973      5.032      7.299    12.1857 0.0000e+00
      5.155      0.076     1.6828     15.652     50.534  37.498029     0.7257      6.179   217.1479 1.3364e+00    20.1995      5.057      7.334    12.1597 0.0000e+00
      5.176      0.075     1.7473     16.247     50.515  37.471557     0.7220      6.178   217.2333 1.2937e+00    20.1590      5.077      7.364    12.1408 0.0000e+00
      5.194      0.073     1.8126     16.849     50.499  37.443647     0.7285      6.177   217.3319 1.2525e+00    20.1462      5.093      7.387    12.1219 0.0000e+00
      5.210      0.070     1.8729     17.404     50.476  37.414677     0.7305      6.176   217.4798 1.2000e+00    19.9227      5.109      7.410    12.1066 0.0000e+00
      5.227      0.067     1.9244     17.881     50.429  37.375384     0.7288      6.175   217.6438 1.1422e+00    19.5021      5.125      7.434    12.1008 0.0000e+00
      5.245      0.065     1.9660     18.269     50.394  37.349742     0.7346      6.174   217.7664 1.1022e+00    19.2718      5.143      7.459    12.0883 0.0000e+00
      5.262      0.065     1.9968     18.554     50.409  37.358754     0.7363      6.173   217.7583 1.0647e+00    19.2738      5.161      7.486    12.0693 0.0000e+00
      5.278      0.065     2.0161     18.729     50.419  37.357284     0.7507      6.171   217.7174 1.0238e+00    19.2222      5.176      7.507    12.0557 0.0000e+00
      5.293      0.065     2.0263     18.819     50.398  37.331966     0.7795      6.169   217.7022 9.8586e-01    19.1053      5.190      7.527    12.0533 0.0000e+00
      5.309      0.064     2.0321     18.871     50.372  37.306745     0.7901      6.168   217.6603 9.3651e-01    19.0812      5.206      7.551    12.0568 0.0000e+00
      5.327      0.062     2.0387     18.930     50.378  37.306442     0.7964      6.167   217.6404 8.8861e-01    19.0832      5.224      7.577    12.0544 0.0000e+00
      5.344      0.058     2.0469     19.003     50.418  37.328293     0.8186      6.165   217.7203 8.5345e-01    18.8548      5.242      7.603    12.0445 0.0000e+00
      5.360      0.051     2.0526     19.053     50.408  37.316828     0.8472      6.164   217.8527 8.2917e-01    18.4562      5.257      7.624    12.0316 0.0000e+00
      5.374      0.043     2.0560     19.086     50.375  37.294872     0.8672      6.163   217.9506 8.2231e-01    18.2610      5.271      7.645    12.0281 0.0000e+00
      5.384      0.033     2.0616     19.141     50.394  37.316939     0.8673      6.162   218.0436 8.2447e-01    18.2344      5.282      7.660    12.0263 0.0000e+00
      5.390      0.025     2.0680     19.205     50.397  37.329530     0.8396      6.161   218.1159 8.2481e-01    18.0736      5.287      7.668    12.0151 0.0000e+00
      5.393      0.021     2.0705     19.230     50.378  37.320062     0.8176      6.160   218.1361 8.2643e-01    17.9341      5.289      7.671    12.0089 0.0000e+00
      5.395 -9.990e-29 -9.990e-29 -9.990e-29 -9.990e-29 -9.990e-29 -9.990e-29 -9.990e-29 -9.990e-29 8.2334e-01 -9.990e-29      5.291      7.674    12.0119 0.0000e+00
      5.397 -9.990e-29 -9.990e-29 -9.990e-29 -9.990e-29 -9.990e-29 -9.990e-29 -9.990e-29 -9.990e-29 8.1283e-01 -9.990e-29      5.292      7.676    12.0214 0.0000e+00
      5.398 -9.990e-29 -9.990e-29 -9.990e-29 -9.990e-29 -9.990e-29 -9.990e-29 -9.990e-29 -9.990e-29 8.0693e-01 -9.990e-29      5.293      7.677    12.0349 0.0000e+00
      5.398 -9.990e-29 -9.990e-29 -9.990e-29 -9.990e-29 -9.990e-29 -9.990e-29 -9.990e-29 -9.990e-29 8.0651e-01 -9.990e-29      5.294      7.678    12.0406 0.0000e+00
