* Sea-Bird SBE19plus  Data File:
* FileName = C:\DATA\081318_fcr_0001.hex
* Software version 2.6.3.104
* Temperature SN = 7809
* Conductivity SN = 7809
* System UpLoad Time = Aug 13 2018 19:24:54
* <ApplicationData>
* <Seaterm232>
* <SoftwareVersion>2.6.3.104</SoftwareVersion>
* <BuildDate>30-Jun-2017</BuildDate>
* </Seaterm232>
* </ApplicationData>
* <InstrumentState>
* <HardwareData DeviceType='SBE19plus' SerialNumber='01907809'>
*
*    <Manufacturer>Sea-Bird Electronics, Inc.</Manufacturer>
*
*    <FirmwareVersion>3.1.8</FirmwareVersion>
*
*    <FirmwareDate>Mar  9 2016 16:22:29</FirmwareDate>
*
*    <CommandSetVersion>1.4</CommandSetVersion>
*
*    <PCBAssembly PCBSerialNum='120721' AssemblyNum='41054J'/>
*
*    <PCBAssembly PCBSerialNum='120715' AssemblyNum='41967A'/>
*
*    <PCBAssembly PCBSerialNum='116699' AssemblyNum='41606'/>
*
*    <PCBAssembly PCBSerialNum='120719' AssemblyNum='41059D'/>
*
*    <MfgDate>28-Apr-2017</MfgDate>
*
*    <InternalSensors>
*
*       <Sensor id='Main Temperature'>
*
*          <type>temperature0</type>
*
*          <SerialNumber>01907809</SerialNumber>
*
*       </Sensor>
*
*       <Sensor id='Main Conductivity'>
*
*          <type>conductivity-0</type>
*
*          <SerialNumber>01907809</SerialNumber>
*
*       </Sensor>
*
*       <Sensor id='Main Pressure'>
*
*          <type>strain-0</type>
*
*          <SerialNumber>10586018</SerialNumber>
*
*       </Sensor>
*
*    </InternalSensors>
*
*    <ExternalSensors>
*
*       <Sensor id='volt 0'>
*
*          <type>pH</type>
*
*          <SerialNumber>27-0363</SerialNumber>
*
*       </Sensor>
*
*       <Sensor id='volt 1'>
*
*          <type>ORP</type>
*
*          <SerialNumber>27-0363</SerialNumber>
*
*       </Sensor>
*
*       <Sensor id='volt 2'>
*
*          <type>OXY</type>
*
*          <SerialNumber>43-0434</SerialNumber>
*
*       </Sensor>
*
*       <Sensor id='volt 3'>
*
*          <type>PAR</type>
*
*          <SerialNumber>1122</SerialNumber>
*
*       </Sensor>
*
*       <Sensor id='volt 4'>
*
*          <type>ECO AFL/FL</type>
*
*          <SerialNumber>FLNTURT-2496</SerialNumber>
*
*       </Sensor>
*
*       <Sensor id='volt 5'>
*
*          <type>ECO-NTU</type>
*
*          <SerialNumber>FLNTURT-2496</SerialNumber>
*
*       </Sensor>
*
*       <Sensor id='serial'>
*
*          <type>not assigned</type>
*
*          <SerialNumber>not assigned</SerialNumber>
*
*       </Sensor>
*
*    </ExternalSensors>
*
* </HardwareData>
* <StatusData DeviceType='SBE19plus' SerialNumber='01907809'>
*
*    <DateTime>2018-08-13T23:24:22</DateTime>
*
*    <LoggingState>not logging</LoggingState>
*
*    <EventSummary numEvents='0'/>
*
*    <Power>
*
*       <vMain>13.1</vMain>
*
*       <vLith>8.7</vLith>
*
*       <iMain>63.3</iMain>
*
*       <iPump>132.3</iPump>
*
*       <iExt01>13.6</iExt01>
*
*       <iExt2345>41.9</iExt2345>
*
*    </Power>
*
*    <MemorySummary>
*
*       <Bytes>139955</Bytes>
*
*       <Samples>6085</Samples>
*
*       <SamplesFree>2854703</SamplesFree>
*
*       <SampleLength>23</SampleLength>
*
*       <Profiles>9</Profiles>
*
*    </MemorySummary>
*
* </StatusData>
* <ConfigurationData DeviceType='SBE19plus' SerialNumber='01907809'>
*
*    <ProfileMode>
*
*       <ScansToAverage>1</ScansToAverage>
*
*       <MinimumCondFreq>5</MinimumCondFreq>
*
*       <PumpDelay>45</PumpDelay>
*
*       <AutoRun>no</AutoRun>
*
*       <IgnoreSwitch>no</IgnoreSwitch>
*
*    </ProfileMode>
*
*    <Battery>
*
*       <Type>alkaline</Type>
*
*       <CutOff>7.5</CutOff>
*
*    </Battery>
*
*    <DataChannels>
*
*       <ExtVolt0>yes</ExtVolt0>
*
*       <ExtVolt1>yes</ExtVolt1>
*
*       <ExtVolt2>yes</ExtVolt2>
*
*       <ExtVolt3>yes</ExtVolt3>
*
*       <ExtVolt4>yes</ExtVolt4>
*
*       <ExtVolt5>yes</ExtVolt5>
*
*       <SBE38>no</SBE38>
*
*       <WETLABS>no</WETLABS>
*
*       <OPTODE>no</OPTODE>
*
*       <SBE63>no</SBE63>
*
*       <SeaFET>no</SeaFET>
*
*       <GTD>no</GTD>
*
*    </DataChannels>
*
*    <EchoCharacters>yes</EchoCharacters>
*
*    <OutputExecutedTag>yes</OutputExecutedTag>
*
*    <OutputFormat>raw HEX</OutputFormat>
*
* </ConfigurationData>
* <CalibrationCoefficients DeviceType='SBE19plus' SerialNumber='01907809'>
*
*    <Calibration format='TEMP1' id='Main Temperature'>
*
*       <SerialNum>01907809</SerialNum>
*
*       <CalDate>09-Mar-18</CalDate>
*
*       <TA0>1.210932e-03</TA0>
*
*       <TA1>2.843566e-04</TA1>
*
*       <TA2>-1.945074e-06</TA2>
*
*       <TA3>2.128067e-07</TA3>
*
*       <TOFFSET>0.000000e+00</TOFFSET>
*
*    </Calibration>
*
*    <Calibration format='WBCOND0' id='Main Conductivity'>
*
*       <SerialNum>01907809</SerialNum>
*
*       <CalDate>09-Mar-18</CalDate>
*
*       <G>-1.006721e+00</G>
*
*       <H>1.269065e-01</H>
*
*       <I>-1.405844e-04</I>
*
*       <J>2.478371e-05</J>
*
*       <CPCOR>-9.570000e-08</CPCOR>
*
*       <CTCOR>3.250000e-06</CTCOR>
*
*       <CSLOPE>1.000000e+00</CSLOPE>
*
*    </Calibration>
*
*    <Calibration format='STRAIN0' id='Main Pressure'>
*
*       <SerialNum>10586018</SerialNum>
*
*       <CalDate>07-Mar-18</CalDate>
*
*       <PA0>-4.081764e-02</PA0>
*
*       <PA1>4.851884e-04</PA1>
*
*       <PA2>-3.511682e-12</PA2>
*
*       <PTCA0>5.252134e+05</PTCA0>
*
*       <PTCA1>1.795324e+00</PTCA1>
*
*       <PTCA2>-2.843535e-01</PTCA2>
*
*       <PTCB0>2.516687e+01</PTCB0>
*
*       <PTCB1>3.750000e-04</PTCB1>
*
*       <PTCB2>0.000000e+00</PTCB2>
*
*       <PTEMPA0>-5.378069e+01</PTEMPA0>
*
*       <PTEMPA1>5.366207e+01</PTEMPA1>
*
*       <PTEMPA2>4.872143e-02</PTEMPA2>
*
*       <POFFSET>5.000000e-01</POFFSET>
*
*       <PRANGE>1.600000e+02</PRANGE>
*
*    </Calibration>
*
*    <Calibration format='VOLT0' id='Volt 0'>
*
*       <OFFSET>-4.920000e-02</OFFSET>
*
*       <SLOPE>1.248122e+00</SLOPE>
*
*    </Calibration>
*
*    <Calibration format='VOLT0' id='Volt 1'>
*
*       <OFFSET>-4.784000e-02</OFFSET>
*
*       <SLOPE>1.248871e+00</SLOPE>
*
*    </Calibration>
*
*    <Calibration format='VOLT0' id='Volt 2'>
*
*       <OFFSET>-4.864632e-02</OFFSET>
*
*       <SLOPE>1.248714e+00</SLOPE>
*
*    </Calibration>
*
*    <Calibration format='VOLT0' id='Volt 3'>
*
*       <OFFSET>-4.743790e-02</OFFSET>
*
*       <SLOPE>1.248571e+00</SLOPE>
*
*    </Calibration>
*
*    <Calibration format='VOLT0' id='Volt 4'>
*
*       <OFFSET>-4.671263e-02</OFFSET>
*
*       <SLOPE>1.248951e+00</SLOPE>
*
*    </Calibration>
*
*    <Calibration format='VOLT0' id='Volt 5'>
*
*       <OFFSET>-4.871053e-02</OFFSET>
*
*       <SLOPE>1.249136e+00</SLOPE>
*
*    </Calibration>
*
*    <Calibration format='FREQ0' id='external frequency channel'>
*
*       <EXTFREQSF>1.000014e+00</EXTFREQSF>
*
*    </Calibration>
*
* </CalibrationCoefficients>
* <EventCounters DeviceType='SBE19plus' SerialNumber='01907809'>
*
*    <EventSummary numEvents='0'/>
*
* </EventCounters></InstrumentState>
* <Headers>
*
* cast   1 10 Aug 2018 14:30:05 samples 1 to 900, avg = 1, stop = mag switch
*
# nquan = 17
# nvalues = 721                         
# units = specified
# name 0 = depFM: Depth [fresh water, m]
# name 1 = tv290C: Temperature [ITS-90, deg C]
# name 2 = sbeox0Mg/L: Oxygen, SBE 43 [mg/l]
# name 3 = sbeox0PS: Oxygen, SBE 43 [% saturation]
# name 4 = c0uS/cm: Conductivity [uS/cm]
# name 5 = specc: Specific Conductance [uS/cm]
# name 6 = ph: pH
# name 7 = orp: Oxidation Reduction Potential [mV]
# name 8 = flECO-AFL: Fluorescence, WET Labs ECO-AFL/FL [mg/m^3]
# name 9 = turbWETntu0: Turbidity, WET Labs ECO [NTU]
# name 10 = sal00: Salinity, Practical [PSU]
# name 11 = dz/dtM: Descent Rate [m/s]
# name 12 = prdM: Pressure, Strain Gauge [db]
# name 13 = prdE: Pressure, Strain Gauge [psi]
# name 14 = scan: Scan Count
# name 15 = par/sat/log: PAR/Logarithmic, Satlantic
# name 16 = flag:  0.000e+00
# span 0 =     -0.580,      9.576       
# span 1 =    11.7876,    26.5118       
# span 2 =     0.1348,     8.7778       
# span 3 =      1.307,    109.007       
# span 4 =  -0.074889,  67.646058       
# span 5 =      0.315,     91.883       
# span 6 =      1.452,      7.838       
# span 7 = -1240.7455,   437.6557       
# span 8 =    -1.8600,     5.8148       
# span 9 =    -1.9834,    23.4089       
# span 10 =     0.0118,     0.0443      
# span 11 =     -0.165,      0.233      
# span 12 =     -0.569,      9.390      
# span 13 =     -0.825,     13.619      
# span 14 =          1,        721      
# span 15 = 1.2285e-01, 1.8853e+03      
# span 16 = 0.0000e+00, 0.0000e+00      
# interval = seconds: 0.25
# start_time = Aug 10 2018 14:30:05 [Instrument's time stamp, header]
# bad_flag = -9.990e-29
# <Sensors count="9" >
#   <sensor Channel="1" >
#     <!-- Count, Temperature -->
#     <TemperatureSensor SensorID="58" >
#       <SerialNumber>7809</SerialNumber>
#       <CalibrationDate>09-Mar-18</CalibrationDate>
#       <A0>1.21093245e-003</A0>
#       <A1>2.84356597e-004</A1>
#       <A2>-1.94507398e-006</A2>
#       <A3>2.12806664e-007</A3>
#       <Slope>1.00000000</Slope>
#       <Offset>0.0000</Offset>
#     </TemperatureSensor>
#   </sensor>
#   <sensor Channel="2" >
#     <!-- Frequency 0, Conductivity -->
#     <ConductivitySensor SensorID="3" >
#       <SerialNumber>7809</SerialNumber>
#       <CalibrationDate>09-Mar-18</CalibrationDate>
#       <UseG_J>1</UseG_J>
#       <!-- Cell const and series R are applicable only for wide range sensors. -->
#       <SeriesR>0.0000</SeriesR>
#       <CellConst>2000.0000</CellConst>
#       <ConductivityType>0</ConductivityType>
#       <Coefficients equation="0" >
#         <A>0.00000000e+000</A>
#         <B>0.00000000e+000</B>
#         <C>0.00000000e+000</C>
#         <D>0.00000000e+000</D>
#         <M>0.0</M>
#         <CPcor>-9.57000000e-008</CPcor>
#       </Coefficients>
#       <Coefficients equation="1" >
#         <G>-1.00672082e+000</G>
#         <H>1.26906489e-001</H>
#         <I>-1.40584351e-004</I>
#         <J>2.47837121e-005</J>
#         <CPcor>-9.57000000e-008</CPcor>
#         <CTcor>3.2500e-006</CTcor>
#         <!-- WBOTC not applicable unless ConductivityType = 1. -->
#         <WBOTC>0.00000000e+000</WBOTC>
#       </Coefficients>
#       <Slope>1.00000000</Slope>
#       <Offset>0.00000</Offset>
#     </ConductivitySensor>
#   </sensor>
#   <sensor Channel="3" >
#     <!-- Count, Pressure, Strain Gauge -->
#     <PressureSensor SensorID="46" >
#       <SerialNumber>7809</SerialNumber>
#       <CalibrationDate>07-Mar-18</CalibrationDate>
#       <PA0>-4.08176359e-002</PA0>
#       <PA1>4.85188419e-004</PA1>
#       <PA2>-3.51168169e-012</PA2>
#       <PTEMPA0>-5.37806900e+001</PTEMPA0>
#       <PTEMPA1>5.36620721e+001</PTEMPA1>
#       <PTEMPA2>4.87214332e-002</PTEMPA2>
#       <PTCA0>5.25213435e+005</PTCA0>
#       <PTCA1>1.79532409e+000</PTCA1>
#       <PTCA2>-2.84353509e-001</PTCA2>
#       <PTCB0>2.51668750e+001</PTCB0>
#       <PTCB1>3.75000000e-004</PTCB1>
#       <PTCB2>0.00000000e+000</PTCB2>
#       <Offset>0.000000</Offset>
#     </PressureSensor>
#   </sensor>
#   <sensor Channel="4" >
#     <!-- A/D voltage 0, pH -->
#     <pH_Sensor SensorID="43" >
#       <SerialNumber>0363</SerialNumber>
#       <CalibrationDate>16-Mar-18</CalibrationDate>
#       <Slope>4.6194</Slope>
#       <Offset>2.5947</Offset>
#     </pH_Sensor>
#   </sensor>
#   <sensor Channel="5" >
#     <!-- A/D voltage 1, Oxidation Reduction Potential -->
#     <OxidationReductionPotentialSensor SensorID="41" >
#       <SerialNumber>0363</SerialNumber>
#       <CalibrationDate>16-Mar-18</CalibrationDate>
#       <B>2.499480</B>
#       <M>-0.496195</M>
#       <Offset>0.0</Offset>
#     </OxidationReductionPotentialSensor>
#   </sensor>
#   <sensor Channel="6" >
#     <!-- A/D voltage 2, Oxygen, SBE 43 -->
#     <OxygenSensor SensorID="38" >
#       <SerialNumber>0434</SerialNumber>
#       <CalibrationDate>13-Mar-18</CalibrationDate>
#       <Use2007Equation>1</Use2007Equation>
#       <CalibrationCoefficients equation="0" >
#         <!-- Coefficients for Owens-Millard equation. -->
#         <Boc>0.0000</Boc>
#         <Soc>0.0000e+000</Soc>
#         <offset>0.0000</offset>
#         <Pcor>0.00e+000</Pcor>
#         <Tcor>0.0000</Tcor>
#         <Tau>0.0</Tau>
#       </CalibrationCoefficients>
#       <CalibrationCoefficients equation="1" >
#         <!-- Coefficients for Sea-Bird equation - SBE calibration in 2007 and later. -->
#         <Soc>4.5718e-001</Soc>
#         <offset>-0.6113</offset>
#         <A>-4.0649e-003</A>
#         <B> 2.0945e-004</B>
#         <C>-3.3182e-006</C>
#         <D0> 2.5826e+000</D0>
#         <D1> 1.92634e-004</D1>
#         <D2>-4.64803e-002</D2>
#         <E> 3.6000e-002</E>
#         <Tau20> 1.2200</Tau20>
#         <H1>-3.3000e-002</H1>
#         <H2> 5.0000e+003</H2>
#         <H3> 1.4500e+003</H3>
#       </CalibrationCoefficients>
#     </OxygenSensor>
#   </sensor>
#   <sensor Channel="7" >
#     <!-- A/D voltage 3, PAR/Logarithmic, Satlantic -->
#     <PARLog_SatlanticSensor SensorID="76" >
#       <SerialNumber>1122</SerialNumber>
#       <CalibrationDate>22-Jun-2017</CalibrationDate>
#       <a0>9.6090e-001</a0>
#       <a1>8.0780e-001</a1>
#       <Im>1.3589e+000</Im>
#       <Multiplier>1.0000e+000</Multiplier>
#     </PARLog_SatlanticSensor>
#   </sensor>
#   <sensor Channel="8" >
#     <!-- A/D voltage 4, Fluorometer, WET Labs ECO-AFL/FL -->
#     <FluoroWetlabECO_AFL_FL_Sensor SensorID="20" >
#       <SerialNumber>FLNTURT-2496</SerialNumber>
#       <CalibrationDate>25-Jan-2017</CalibrationDate>
#       <ScaleFactor>5.30000000e+001</ScaleFactor>
#       <!-- Dark output -->
#       <Vblank>0.0560</Vblank>
#     </FluoroWetlabECO_AFL_FL_Sensor>
#   </sensor>
#   <sensor Channel="9" >
#     <!-- A/D voltage 5, Turbidity Meter, WET Labs, ECO-NTU -->
#     <TurbidityMeter SensorID="67" >
#       <SerialNumber>FLNTURT-2496</SerialNumber>
#       <CalibrationDate>25-Jan-2017</CalibrationDate>
#       <ScaleFactor>176.000000</ScaleFactor>
#       <!-- Dark output -->
#       <DarkVoltage>0.072000</DarkVoltage>
#     </TurbidityMeter>
#   </sensor>
# </Sensors>
# datcnv_date = Aug 13 2018 19:37:06, 7.26.7.114 [datcnv_vars = 16]
# datcnv_in = C:\DATA\081018_fcr50(1).hex C:\DATA\SBE19plusV2_7809.xmlcon
# datcnv_skipover = 0
# datcnv_ox_hysteresis_correction = yes
# datcnv_ox_tau_correction = yes
# filter_date = Aug 13 2018 19:37:29, 7.26.7.114
# filter_in = C:\DATA\081018_fcr50(1).cnv
# filter_low_pass_tc_A = 0.030
# filter_low_pass_tc_B = 0.150
# filter_low_pass_A_vars = tv290C c0uS/cm par/sat/log
# filter_low_pass_B_vars = prdM prdE
# alignctd_date = Aug 13 2018 19:37:46, 7.26.7.114
# alignctd_in = C:\DATA\081018_fcr50(1).cnv
# alignctd_adv = tv290C 0.500, sbeox0Mg/L 3.000, sbeox0PS 3.000                                                                                                                                                                      
# file_type = ascii
*END*
     -0.580    24.9212     8.2763    100.001   0.755050      0.734      6.386 -1240.7455    -0.1860    -0.0497     0.0118      0.000     -0.569     -0.825          1 2.7112e+02 0.0000e+00
     -0.580    24.9207     8.2753     99.986   0.696263      0.734      6.350 -1240.7455    -0.2021    -0.0363     0.0118      0.000     -0.569     -0.825          2 2.1310e+02 0.0000e+00
     -0.580    24.9208     8.2755     99.985   0.348086      0.315      6.322 -1240.7455    -0.1617    -0.0095     0.0119      0.000     -0.569     -0.825          3 3.4776e+02 0.0000e+00
     -0.580    24.9210     8.2768     99.997   0.685045      0.678      6.259 -1240.7455    -0.1536     0.1248     0.0118      0.000     -0.569     -0.825          4 1.3306e+02 0.0000e+00
     -0.580    24.9196     8.2877    100.127   0.928262      0.985      6.375 -1240.7455    -0.1698     0.0040     0.0118      0.000     -0.569     -0.825          5 5.0630e+02 0.0000e+00
     -0.580    24.9131     8.2884    100.135   0.578322      0.510      6.114 -1240.7455    -0.1860     0.0845     0.0118      0.000     -0.569     -0.825          6 1.5185e+03 0.0000e+00
     -0.580    24.9093     8.2913    100.169   0.676443      0.734      5.862 -1240.7455    -0.1658     0.0443     0.0118      0.000     -0.569     -0.825          7 1.0547e+03 0.0000e+00
     -0.580    24.9111     8.2812    100.047   0.717329      0.678      6.071 -1240.7455    -0.1860     0.0308     0.0118      0.000     -0.569     -0.825          8 1.7411e+03 0.0000e+00
     -0.580    24.9117     8.2938    100.200   0.705077      0.734      5.259 -1240.7455    -0.6429    -0.1437     0.0118      0.000     -0.568     -0.824          9 1.7918e+03 0.0000e+00
     -0.580    24.9114     8.2967    100.236   0.691692      0.678      3.771 -1240.7455    -0.6025    -0.0497     0.0118      0.000     -0.568     -0.824         10 9.4928e+02 0.0000e+00
     -0.580    24.9110     8.2908    100.165   0.674774      0.678      2.769 -1240.7455    -0.6025     0.0711     0.0118      0.000     -0.568     -0.824         11 1.6797e+03 0.0000e+00
     -0.580    24.9094     8.2935    100.199   0.726130      0.734      2.063 -1240.7455    -0.6186     0.0174     0.0118      0.000     -0.568     -0.824         12 1.8515e+03 0.0000e+00
     -0.580    24.9075     8.2820    100.062   0.686993      0.678      1.678 -1240.7455    -0.1577    -1.2314     0.0118      0.000     -0.568     -0.824         13 1.8128e+03 0.0000e+00
     -0.580    24.9060     8.2788    100.024   0.664267      0.678      1.504 -1240.7455    -0.1415    -1.1643     0.0118      0.000     -0.568     -0.824         14 1.8853e+03 0.0000e+00
     -0.579    24.9048     8.2791    100.029   0.695200      0.678      1.452 -1240.7455    -0.1941    -1.2180     0.0118      0.000     -0.568     -0.824         15 1.8429e+03 0.0000e+00
     -0.579    24.9042     8.2824    100.069   0.707711      0.734      1.467 -1240.7455    -0.1536    -1.2314     0.0118      0.000     -0.568     -0.824         16 1.8497e+03 0.0000e+00
     -0.580    24.9041     8.2845    100.096   0.707909      0.678      1.514 -1240.7455    -0.5580    -1.4865     0.0118      0.000     -0.568     -0.824         17 1.8587e+03 0.0000e+00
     -0.579    24.9040     8.2888    100.151   0.754165      0.790      1.586 -1240.7455    -0.5782    -1.4865     0.0118      0.000     -0.568     -0.823         18 1.8326e+03 0.0000e+00
     -0.579    24.9045     8.2853    100.110   0.650146      0.622      1.670 -1240.7455    -0.5580    -1.4060     0.0118      0.000     -0.568     -0.823         19 1.8505e+03 0.0000e+00
     -0.579    24.9048     8.2813    100.062   0.659722      0.678      1.772 -1240.7455    -0.5418    -1.5402     0.0118      0.000     -0.568     -0.824         20 1.7320e+03 0.0000e+00
     -0.580    24.9053     8.2926    100.199   0.683037      0.678      2.438 -1240.7455     0.7885     3.3341     0.0118      0.000     -0.568     -0.824         21 1.8209e+03 0.0000e+00
     -0.580    24.9061     8.2927    100.201   0.680344      0.678      2.588 -1240.7455     0.7845     3.3475     0.0118     -0.000     -0.568     -0.824         22 1.5460e+03 0.0000e+00
     -0.579    24.9069     8.2882    100.147   0.663071      0.678      2.567 -1240.7455     0.7885     3.3744     0.0118     -0.000     -0.568     -0.824         23 3.6424e+02 0.0000e+00
     -0.579    24.9074     8.2874    100.138   0.586106      0.566      2.477 -1240.7455     0.7724     3.4147     0.0118     -0.000     -0.568     -0.824         24 8.5631e+01 0.0000e+00
     -0.579    24.9080     8.2900    100.170   0.657701      0.678      2.363 -1240.7455    -0.2507    -1.9028     0.0118      0.000     -0.568     -0.823         25 1.9624e+02 0.0000e+00
     -0.579    24.9086     8.2897    100.169   0.692399      0.678      2.375 -1240.7455    -0.2224    -1.8625     0.0118      0.000     -0.568     -0.823         26 1.1059e+02 0.0000e+00
     -0.579    24.9093     8.2887    100.157   0.661350      0.678      2.428 -1240.7455    -0.2426    -1.9834     0.0118      0.000     -0.568     -0.823         27 1.6253e+02 0.0000e+00
     -0.579    24.9104     8.2922    100.200   0.637127      0.622      2.492 -1240.7455    -0.2668    -1.9162     0.0118      0.000     -0.568     -0.823         28 1.3814e+02 0.0000e+00
     -0.580    24.9114     8.2922    100.202   0.722544      0.734      2.580 -1240.7455    -0.2385    -1.9565     0.0118      0.000     -0.568     -0.823         29 1.5677e+02 0.0000e+00
     -0.578    24.9117     8.2869    100.136   0.732689      0.734      2.692 -1240.7455    -0.1172    -0.1572     0.0118      0.000     -0.568     -0.823         30 1.5021e+02 0.0000e+00
     -0.579    24.9118     8.2852    100.112   0.624502      0.622      2.789 -1240.7455    -0.1172    -0.1974     0.0118      0.000     -0.568     -0.823         31 1.6454e+02 0.0000e+00
     -0.579    24.9121     8.2920    100.190   0.620329      0.622      2.916 -1240.7455    -0.0970    -0.1974     0.0118 -7.721e-07     -0.568     -0.823         32 1.5932e+02 0.0000e+00
     -0.578    24.9122     8.2936    100.217   0.619457      0.622      3.049 -1240.7455    -0.1051    -0.3049     0.0118      0.000     -0.568     -0.823         33 1.7657e+02 0.0000e+00
     -0.579    24.9125     8.2568    100.191   0.625588      0.622      3.232 -1240.7455    -0.1577    -0.2914     0.0118      0.000     -0.568     -0.823         34 1.4338e+02 0.0000e+00
     -0.579    24.9136     8.1987    100.237   0.671912      0.678      3.362 -1240.7455    -0.1698    -0.1974     0.0118      0.000     -0.568     -0.823         35 1.8171e+02 0.0000e+00
     -0.578    24.9143     8.1594    100.278   0.621020      0.622      3.546 -1240.7455    -0.1496    -0.1437     0.0118      0.000     -0.567     -0.823         36 1.3593e+02 0.0000e+00
     -0.578    24.9151     8.1329    100.315   0.688921      0.678      3.804 -1240.7455    -0.1658    -0.2109     0.0118      0.000     -0.567     -0.823         37 2.5543e+02 0.0000e+00
     -0.578    24.9148     8.1179    100.426   0.587411      0.622      4.051 -1240.7455    -0.1577    -0.2377     0.0118      0.000     -0.567     -0.823         38 1.5921e+03 0.0000e+00
     -0.579    24.9163     8.1097    100.532   0.688137      0.622      4.295 -1240.7455    -0.1617    -0.1974     0.0118      0.000     -0.567     -0.823         39 1.4066e+03 0.0000e+00
     -0.578    24.9140     8.1151    100.737   0.563570      0.678      4.494 -1240.7455    -0.1819    -0.2109     0.0118      0.000     -0.567     -0.823         40 4.3495e+02 0.0000e+00
     -0.579    24.9142     8.1350    101.051   0.860856      0.678      4.629 -1240.7455    -0.1577    -0.2243     0.0118      0.000     -0.567     -0.823         41 1.5169e+03 0.0000e+00
     -0.578    24.9078     8.1613    101.410   0.377382      0.678      4.536 -1240.7455    -0.3315     0.1248     0.0118      0.000     -0.567     -0.823         42 1.8724e+03 0.0000e+00
     -0.579    24.9192     8.1992    101.885   1.224458      0.734      4.501 -1240.7455    -0.2830     0.1114     0.0118     -0.000     -0.567     -0.822         43 1.6991e+03 0.0000e+00
     -0.579    25.1462     8.2401    102.387  -0.074889      0.734      4.297 -1240.7455    -0.3073     0.2054     0.0118     -0.000     -0.559     -0.811         44 1.7865e+03 0.0000e+00
     -0.553    25.5428     8.2795    102.890   2.438497      1.097      2.692 -1240.7455    -0.3235     0.1785     0.0118      0.007     -0.530     -0.769         45 1.7223e+03 0.0000e+00
     -0.487    25.8350     8.3170    103.371  18.089937     19.156      5.362   437.6557    -0.2830     0.2591     0.0175      0.029     -0.477     -0.692         46 1.7763e+03 0.0000e+00
     -0.425    26.0322     8.3632    103.952  31.165540     30.079      6.494   367.6955    -1.8600     2.3136     0.0218      0.061     -0.411     -0.595         47 1.7610e+03 0.0000e+00
     -0.339    26.1960     8.4125    104.571  37.673621     37.799      7.180   331.6933    -1.8358     2.2733     0.0250      0.106     -0.336     -0.488         48 1.7642e+03 0.0000e+00
     -0.265    26.3103     8.4013    104.436  38.632556     37.405      7.575   308.2597    -1.8520     2.3807     0.0249      0.155     -0.270     -0.391         49 1.8055e+03 0.0000e+00
     -0.224    26.3848     8.2861    102.997  37.474827     36.849      7.759   290.4667    -1.8075     2.2196     0.0247      0.194     -0.219     -0.317         50 1.8124e+03 0.0000e+00
     -0.175    26.4227     8.1122    100.814  37.779560     36.658      7.817   282.6303     5.2123    19.7430     0.0247      0.222     -0.177     -0.257         51 1.8471e+03 0.0000e+00
     -0.144    26.4400     7.9154     98.366  37.393096     36.469      7.812   277.7467     5.2204    19.7028     0.0246      0.233     -0.141     -0.205         52 1.6487e+03 0.0000e+00
     -0.113    26.4423     7.6832     95.483  37.481167     36.388      7.784   270.8567     5.2285    19.7699     0.0246      0.222     -0.104     -0.151         53 1.3207e+03 0.0000e+00
     -0.057    26.4398     7.4679     92.792  37.284350     36.267      7.764   267.6388     5.2527    19.7968     0.0245      0.205     -0.060     -0.086         54 1.4089e+03 0.0000e+00
     -0.015    26.4466     7.2777     90.434  37.400740     36.320      7.753   266.2002     2.5920     2.6761     0.0246      0.188     -0.017     -0.025         55 1.4546e+03 0.0000e+00
      0.019    26.4546     7.1643     89.041  37.395641     36.376      7.741   264.1560     2.6001     2.6224     0.0246      0.168      0.020      0.029         56 1.1488e+03 0.0000e+00
      0.059    26.4585     7.1145     88.431  37.350016     36.262      7.715   259.3102     2.6041     2.7836     0.0245      0.159      0.058      0.085         57 9.2984e+02 0.0000e+00
      0.101    26.4613     7.1211     88.511  37.279556     36.257      7.694   257.0766     2.6001     2.7836     0.0245      0.158      0.100      0.145         58 8.5165e+02 0.0000e+00
      0.147    26.4638     7.1907     89.385  37.186723     36.091      7.677   254.5402     2.6527     2.7970     0.0245      0.160      0.146      0.211         59 8.1062e+02 0.0000e+00
      0.199    26.4599     7.2749     90.440  37.168943     36.143      7.667   254.5781     2.6446     2.6896     0.0245      0.166      0.191      0.277         60 7.1010e+02 0.0000e+00
      0.241    26.4486     7.3408     91.250  37.183042     36.087      7.652   253.7074     2.6365     2.6761     0.0245      0.169      0.226      0.327         61 5.5689e+02 0.0000e+00
      0.252    26.4472     7.3662     91.548  37.287817     36.253      7.601   249.9973     2.6850     2.7433     0.0245      0.160      0.235      0.340         62 5.3096e+02 0.0000e+00
      0.226    26.4474     7.3438     91.254  37.216515     36.153      7.573   246.0980     2.9842     2.5284     0.0245      0.139      0.213      0.310         63 9.0654e+02 0.0000e+00
      0.175    26.4400     7.2624     90.235  37.064160     36.018      7.564   243.0316     2.9923     2.5150     0.0244      0.100      0.171      0.249         64 1.5848e+03 0.0000e+00
      0.124    26.4425     7.1616     88.961  37.151162     36.098      7.563   241.9337     2.9883     2.4747     0.0245      0.046      0.125      0.181         65 1.1676e+03 0.0000e+00
      0.085    26.4530     7.0408     87.441  37.256543     36.213      7.564   242.5773     2.9802     2.4881     0.0245     -0.013      0.081      0.117         66 9.8399e+02 0.0000e+00
      0.036    26.4577     6.9132     85.851  37.318597     36.265      7.564   238.5645     2.9883     2.4479     0.0245     -0.072      0.037      0.054         67 1.3862e+03 0.0000e+00
     -0.008    26.4568     6.7864     84.280  37.311216     36.258      7.565   237.9587     2.9842     2.4881     0.0245     -0.123     -0.004     -0.005         68 1.3333e+03 0.0000e+00
     -0.038    26.4620     6.6763     82.911  37.503004     36.417      7.569   238.2237     2.9964     2.4479     0.0246     -0.155     -0.036     -0.053         69 1.4022e+03 0.0000e+00
     -0.066    26.4672     6.5763     81.661  37.762105     36.717      7.567   236.1416     3.0206     2.4210     0.0247     -0.165     -0.065     -0.094         70 1.3481e+03 0.0000e+00
     -0.094    26.4621     6.5049     80.767  37.759941     36.659      7.569   234.7787     3.0085     2.5956     0.0247     -0.158     -0.090     -0.131         71 1.4013e+03 0.0000e+00
     -0.117    26.4510     6.4444     80.010  37.594676     36.546      7.571   233.1887     3.0166     2.7433     0.0247     -0.144     -0.110     -0.160         72 1.3851e+03 0.0000e+00
     -0.126    26.4418     6.3889     79.316  37.522864     36.414      7.575   233.5294     3.0166     2.7433     0.0246     -0.126     -0.124     -0.180         73 1.4063e+03 0.0000e+00
     -0.139    26.4363     6.3333     78.621  37.701010     36.667      7.567   233.7187     2.9964     2.6761     0.0247     -0.108     -0.135     -0.197         74 1.4675e+03 0.0000e+00
     -0.152    26.4241     6.2758     77.899  37.699246     36.619      7.575   232.8859     2.9802     2.7298     0.0247     -0.090     -0.144     -0.210         75 1.3102e+03 0.0000e+00
     -0.150    26.4111     6.2211     77.211  37.614044     36.568      7.585   233.7944     3.0409     2.7298     0.0247     -0.071     -0.146     -0.213         76 1.3719e+03 0.0000e+00
     -0.147    26.4082     6.1752     76.633  37.688405     36.632      7.597   233.2266     3.0853     2.7164     0.0247     -0.054     -0.144     -0.209         77 1.3927e+03 0.0000e+00
     -0.143    26.4105     6.1257     76.013  37.725355     36.695      7.607   233.1509     3.0489     2.7701     0.0247     -0.037     -0.142     -0.205         78 1.3614e+03 0.0000e+00
     -0.143    26.4095     6.0737     75.362  37.686709     36.643      7.611   232.6587     3.0247     2.7970     0.0247     -0.022     -0.142     -0.205         79 1.3980e+03 0.0000e+00
     -0.147    26.4038     6.0303     74.818  37.677178     36.641      7.618   232.1287     2.8831     2.7298     0.0247     -0.012     -0.144     -0.209         80 1.3717e+03 0.0000e+00
     -0.150    26.3989     5.9744     74.117  37.677892     36.642      7.627   231.7880     2.8670     2.7701     0.0247     -0.006     -0.146     -0.213         81 1.3885e+03 0.0000e+00
     -0.150    26.3950     5.9249     73.494  37.626500     36.592      7.640   233.7566     2.8629     2.7970     0.0247     -0.002     -0.147     -0.213         82 1.3824e+03 0.0000e+00
     -0.148    26.3913     5.8823     72.958  37.681817     36.650      7.647   232.6209     2.8508     2.7298     0.0247      0.000     -0.147     -0.213         83 1.3830e+03 0.0000e+00
     -0.149    26.3880     5.8421     72.460  37.727697     36.707      7.653   232.9237     3.1096     2.7164     0.0247     -0.001     -0.147     -0.213         84 1.3776e+03 0.0000e+00
     -0.151    26.3825     5.7983     71.911  37.688049     36.655      7.659   230.8794     3.1136     2.6761     0.0247     -0.003     -0.148     -0.215         85 1.3862e+03 0.0000e+00
     -0.154    26.3756     5.7641     71.471  37.671838     36.657      7.659   230.6523     3.1177     2.7433     0.0247     -0.004     -0.152     -0.220         86 1.3601e+03 0.0000e+00
     -0.160    26.3698     5.7494     71.271  37.688552     36.661      7.661   230.7280     3.1298     2.8507     0.0247     -0.006     -0.156     -0.225         87 1.3936e+03 0.0000e+00
     -0.161    26.3650     5.7326     71.067  37.667252     36.666      7.669   230.0844     3.1217     2.6627     0.0247     -0.006     -0.158     -0.228         88 1.2936e+03 0.0000e+00
     -0.161    26.3611     5.7178     70.888  37.639027     36.616      7.672   230.1601     3.3118     2.7164     0.0247     -0.007     -0.158     -0.229         89 7.0278e+02 0.0000e+00
     -0.160    26.3568     5.6977     70.635  37.664361     36.674      7.673   230.0087     3.3118     2.7701     0.0247     -0.007     -0.157     -0.228         90 2.7016e+02 0.0000e+00
     -0.160    26.3514     5.6709     70.294  37.635728     36.622      7.678   229.4030     3.3199     2.8238     0.0247     -0.007     -0.157     -0.228         91 2.9064e+02 0.0000e+00
     -0.160    26.3449     5.6317     69.798  37.674662     36.679      7.677   229.9330     3.3118     2.6761     0.0247     -0.006     -0.157     -0.228         92 2.4438e+02 0.0000e+00
     -0.160    26.3400     5.5956     69.344  37.675230     36.684      7.682   230.0466     3.4412     2.7433     0.0247     -0.004     -0.157     -0.228         93 3.3414e+02 0.0000e+00
     -0.160    26.3390     5.5543     68.827  37.635022     36.634      7.683   230.0466     3.4129     2.7164     0.0247     -0.002     -0.158     -0.230         94 9.4452e+02 0.0000e+00
     -0.165    26.3353     5.5079     68.248  37.724703     36.746      7.681   230.0466     3.4533     2.7433     0.0247     -0.001     -0.163     -0.237         95 1.3385e+03 0.0000e+00
     -0.175    26.3218     5.4655     67.718  37.622947     36.638      7.683   229.5923     3.4412     2.7701     0.0247     -0.005     -0.169     -0.245         96 1.3347e+03 0.0000e+00
     -0.175    26.3094     5.4196     67.144  37.554033     36.559      7.685   229.6680     3.5099     2.7433     0.0246     -0.007     -0.170     -0.248         97 1.3404e+03 0.0000e+00
     -0.171    26.3119     5.3902     66.774  37.662166     36.704      7.690   226.7908     3.4776     2.6493     0.0247     -0.008     -0.169     -0.245         98 1.3376e+03 0.0000e+00
     -0.171    26.3159     5.3588     66.381  37.696007     36.714      7.694   226.9044     3.4857     2.7030     0.0247     -0.008     -0.166     -0.242         99 1.3478e+03 0.0000e+00
     -0.167    26.3128     5.3372     66.108  37.719548     36.766      7.699   227.0558     3.5099     2.7836     0.0247     -0.006     -0.163     -0.237        100 1.3478e+03 0.0000e+00
     -0.164    26.3059     5.3107     65.774  37.692193     36.709      7.703   226.6394     3.6434     2.6493     0.0247     -0.003     -0.161     -0.233        101 1.3479e+03 0.0000e+00
     -0.162    26.2985     5.2940     65.562  37.670728     36.711      7.706   227.7373     3.6150     2.6627     0.0247      0.001     -0.159     -0.231        102 1.3490e+03 0.0000e+00
     -0.162    26.2933     5.2750     65.321  37.627618     36.662      7.707   226.6773     3.6231     2.6627     0.0247      0.005     -0.158     -0.230        103 1.3491e+03 0.0000e+00
     -0.160    26.2888     5.2561     65.083  37.627202     36.667      7.713   224.0651     3.6150     2.8641     0.0247      0.008     -0.157     -0.229        104 1.3506e+03 0.0000e+00
     -0.159    26.2852     5.2458     64.953  37.730570     36.780      7.717   224.0651     3.7000     2.9178     0.0247      0.008     -0.156     -0.227        105 1.3551e+03 0.0000e+00
     -0.158    26.2815     5.2312     64.768  37.676945     36.728      7.724   223.4594     3.7000     2.9984     0.0247      0.007     -0.155     -0.225        106 1.3527e+03 0.0000e+00
     -0.157    26.2773     5.2182     64.599  37.634619     36.676      7.727   223.6487     3.6959     2.9044     0.0247      0.006     -0.154     -0.224        107 1.3497e+03 0.0000e+00
     -0.156    26.2729     5.2039     64.415  37.664604     36.733      7.732   223.2323     3.7121     2.9178     0.0247      0.005     -0.153     -0.222        108 1.3496e+03 0.0000e+00
     -0.156    26.2691     5.1924     64.267  37.639631     36.682      7.735   222.0208     3.6676     2.8776     0.0247      0.004     -0.153     -0.221        109 1.3410e+03 0.0000e+00
     -0.155    26.2649     5.1814     64.126  37.606379     36.685      7.738   221.3015     3.6959     2.7567     0.0247      0.004     -0.152     -0.221        110 1.3426e+03 0.0000e+00
     -0.155    26.2603     5.1687     63.964  37.557686     36.606      7.744   220.1658     3.7242     2.7433     0.0246      0.004     -0.152     -0.220        111 1.3417e+03 0.0000e+00
     -0.154    26.2557     5.1561     63.803  37.611249     36.691      7.747   219.5223     3.7081     2.7298     0.0247      0.003     -0.151     -0.218        112 1.3406e+03 0.0000e+00
     -0.153    26.2510     5.1358     63.548  37.628704     36.694      7.749   218.7651     3.6919     2.8507     0.0247      0.003     -0.150     -0.217        113 1.3421e+03 0.0000e+00
     -0.150    26.2474     5.1202     63.350  37.624947     36.697      7.752   218.2730     3.6959     2.7164     0.0247      0.003     -0.147     -0.214        114 1.3394e+03 0.0000e+00
     -0.147    26.2451     5.1010     63.108  37.675248     36.755      7.754   221.0365     3.6878     2.7164     0.0247      0.004     -0.145     -0.210        115 1.3415e+03 0.0000e+00
     -0.146    26.2412     5.0872     62.933  37.684749     36.758      7.755   218.7651     3.6919     2.7567     0.0247      0.005     -0.144     -0.208        116 1.3404e+03 0.0000e+00
     -0.145    26.2350     5.0714     62.734  37.613124     36.705      7.752   218.6137     3.7000     2.7164     0.0247      0.006     -0.143     -0.207        117 1.3391e+03 0.0000e+00
     -0.145    26.2291     5.0606     62.596  37.556762     36.626      7.745   218.7651     3.7364     2.6627     0.0246      0.006     -0.143     -0.207        118 1.3360e+03 0.0000e+00
     -0.146    26.2240     5.0433     62.378  37.606590     36.712      7.735   218.1973     3.7687     2.7567     0.0247      0.005     -0.143     -0.208        119 1.3364e+03 0.0000e+00
     -0.147    26.2199     5.0292     62.201  37.580777     36.662      7.722   221.3015     3.7768     2.8507     0.0247      0.004     -0.143     -0.208        120 1.3354e+03 0.0000e+00
     -0.146    26.2160     5.0136     62.003  37.618550     36.720      7.712   220.9230     3.7768     2.7164     0.0247      0.003     -0.143     -0.207        121 1.3333e+03 0.0000e+00
     -0.146    26.2118     4.9958     61.781  37.618906     36.723      7.706   220.5823     3.7525     2.8910     0.0247      0.001     -0.143     -0.207        122 1.3361e+03 0.0000e+00
     -0.145    26.2077     4.9827     61.616  37.550674     36.644      7.700   220.5444     3.7525     2.9984     0.0246      0.000     -0.143     -0.207        123 1.3354e+03 0.0000e+00
     -0.145    26.2035     4.9678     61.429  37.525502     36.647      7.698   219.1437     3.7687     2.9715     0.0246      0.000     -0.143     -0.207        124 1.3314e+03 0.0000e+00
     -0.145    26.1996     4.9606     61.339  37.561254     36.650      7.701   219.1815     3.7525     2.9984     0.0246      0.000     -0.143     -0.207        125 1.3338e+03 0.0000e+00
     -0.146    26.1961     4.9524     61.236  37.595165     36.735      7.703   221.1501     3.7081     2.7433     0.0247      0.000     -0.143     -0.207        126 1.3331e+03 0.0000e+00
     -0.146    26.1927     4.9498     61.205  37.572283     36.656      7.704   221.3015     3.6878     2.6761     0.0246      0.000     -0.143     -0.207        127 1.3286e+03 0.0000e+00
     -0.145    26.1892     4.9517     61.221  37.589732     36.740      7.708   221.3015     3.7202     2.6896     0.0247      0.000     -0.142     -0.206        128 1.3329e+03 0.0000e+00
     -0.144    26.1858     4.9588     61.304  37.514132     36.606      7.709   220.9608     3.7242     2.7433     0.0246      0.000     -0.141     -0.205        129 1.3320e+03 0.0000e+00
     -0.144    26.1825     4.9657     61.397  37.518067     36.663      7.707   221.3015     3.7000     2.7030     0.0246      0.001     -0.141     -0.205        130 1.3294e+03 0.0000e+00
     -0.144    26.1792     5.0109     61.972  37.555176     36.666      7.709   220.2037     3.8374     2.7701     0.0246      0.001     -0.141     -0.204        131 1.3303e+03 0.0000e+00
     -0.143    26.1765     5.0642     62.651  37.527273     36.668      7.705   221.4151     3.8132     2.6896     0.0246      0.001     -0.140     -0.203        132 1.3311e+03 0.0000e+00
     -0.142    26.1738     5.1120     63.261  37.552794     36.670      7.701   221.2258     3.8213     2.7567     0.0246      0.002     -0.140     -0.203        133 1.3216e+03 0.0000e+00
     -0.143    26.1720     5.1837     64.196  37.612398     36.754      7.703   221.2258     3.8253     2.7701     0.0247      0.002     -0.138     -0.200        134 1.3284e+03 0.0000e+00
     -0.137    26.1701     5.3086     65.802  37.542080     36.674      7.711   219.2194     3.8051     2.7970     0.0246      0.003     -0.132     -0.192        135 1.3284e+03 0.0000e+00
     -0.126    26.1698     5.4750     67.919  37.492002     36.621      7.724   218.4244     3.7485     2.7701     0.0246      0.007     -0.123     -0.178        136 1.3345e+03 0.0000e+00
     -0.114    26.1697     5.6272     69.850  37.615399     36.759      7.734   215.1308     3.7444     2.7298     0.0247      0.012     -0.112     -0.162        137 1.3215e+03 0.0000e+00
     -0.101    26.1636     5.7617     71.553  37.536819     36.677      7.739   215.2065     3.7687     2.6627     0.0246      0.019     -0.098     -0.142        138 1.3495e+03 0.0000e+00
     -0.084    26.1603     5.8868     73.129  37.500813     36.622      7.730   215.7744     3.8496     2.7164     0.0246      0.028     -0.081     -0.118        139 1.3063e+03 0.0000e+00
     -0.065    26.1657     6.0638     75.336  37.511905     36.682      7.726   214.2601     3.8294     2.7030     0.0246      0.039     -0.059     -0.085        140 1.3713e+03 0.0000e+00
     -0.028    26.1811     6.3778     79.257  37.463697     36.575      7.731   213.9951     3.8132     2.6627     0.0246      0.054     -0.029     -0.041        141 1.3006e+03 0.0000e+00
      0.005    26.1981     6.6918     83.177  37.649794     36.817      7.745   211.3829     3.8253     2.6493     0.0247      0.070      0.002      0.003        142 1.1925e+03 0.0000e+00
      0.026    26.2157     6.9695     86.647  37.636235     36.751      7.754   210.7015     4.0113     2.7164     0.0247      0.082      0.027      0.039        143 1.3965e+03 0.0000e+00
      0.051    26.2546     7.1711     89.164  37.421241     36.547      7.751   210.0579     4.0073     2.7433     0.0246      0.091      0.051      0.074        144 1.1837e+03 0.0000e+00
      0.078    26.3051     7.3138     90.949  37.324132     36.427      7.757   209.2629     4.0477     2.6896     0.0246      0.099      0.075      0.109        145 6.2489e+02 0.0000e+00
      0.100    26.3496     7.4060     92.104  37.252848     36.344      7.773   210.2094     3.9830     2.7164     0.0245      0.103      0.099      0.143        146 8.7327e+02 0.0000e+00
      0.124    26.3835     7.4529     92.685  37.213332     36.254      7.787   209.7551     4.1407     2.7970     0.0245      0.104      0.122      0.176        147 1.5702e+03 0.0000e+00
      0.147    26.4094     7.4512     92.664  37.195326     36.222      7.793   209.5279     4.1529     2.8373     0.0245      0.101      0.144      0.208        148 1.4981e+03 0.0000e+00
      0.169    26.4256     7.4353     92.470  37.156597     36.144      7.802   208.4301     4.1529     2.7164     0.0245      0.095      0.168      0.242        149 1.4708e+03 0.0000e+00
      0.198    26.4333     7.4149     92.219  37.142873     36.126      7.797   209.6794     4.1771     2.7030     0.0245      0.094      0.192      0.277        150 7.8068e+02 0.0000e+00
      0.217    26.4461     7.3779     91.762  37.153071     36.114      7.786   209.5279     4.1286     2.7030     0.0245      0.094      0.212      0.307        151 6.4882e+02 0.0000e+00
      0.232    26.4592     7.3258     91.118  37.143897     36.109      7.786   210.0201     4.2822     2.6493     0.0245      0.090      0.228      0.331        152 1.4809e+03 0.0000e+00
      0.249    26.4692     7.2586     90.287  37.154286     36.100      7.787   212.7837     4.2418     2.7567     0.0245      0.086      0.243      0.353        153 9.0912e+02 0.0000e+00
      0.261    26.4767     7.2059     89.626  37.140137     36.091      7.792   212.2158     4.2822     2.7164     0.0245      0.081      0.257      0.373        154 8.2327e+02 0.0000e+00
      0.276    26.4827     7.1538     88.966  37.072519     36.002      7.795   212.8972     4.2822     2.7298     0.0244      0.075      0.272      0.395        155 7.6506e+02 0.0000e+00
      0.295    26.4875     7.0999     88.298  37.060472     35.997      7.805   213.2380     4.3995     2.5016     0.0244      0.070      0.290      0.421        156 5.8531e+02 0.0000e+00
      0.317    26.4872     7.0662     87.880  37.066146     35.993      7.809   212.4429     4.4116     2.6224     0.0244      0.067      0.310      0.449        157 1.1415e+03 0.0000e+00
      0.336    26.4871     7.0530     87.720  37.065452     35.989      7.805   213.3137     4.4359     2.5419     0.0244      0.066      0.329      0.477        158 7.9791e+02 0.0000e+00
      0.354    26.4890     7.0369     87.526  37.090993     36.017      7.810   217.1372     4.4197     2.4613     0.0245      0.067      0.349      0.507        159 6.3451e+02 0.0000e+00
      0.381    26.4904     7.0231     87.360  37.064022     35.990      7.805   217.5537     4.5249     2.4613     0.0244      0.072      0.372      0.540        160 7.8568e+02 0.0000e+00
      0.404    26.4924     6.9991     87.059  37.069357     35.988      7.803   218.6137     4.5451     2.6224     0.0244      0.077      0.395      0.572        161 5.3733e+02 0.0000e+00
      0.424    26.4950     6.9753     86.751  37.054693     35.987      7.806   218.0458     4.5451     2.5419     0.0244      0.081      0.415      0.602        162 6.7123e+02 0.0000e+00
      0.443    26.4979     6.9409     86.323  37.022953     35.932      7.806   217.8944     4.5249     2.6359     0.0244      0.083      0.435      0.631        163 9.7670e+02 0.0000e+00
      0.464    26.4947     6.9053     85.874  37.079198     36.011      7.807   219.0301     4.5370     2.7164     0.0245      0.084      0.455      0.660        164 8.0119e+02 0.0000e+00
      0.485    26.4883     6.8831     85.598  37.073674     35.982      7.795   219.6737     4.5613     2.7701     0.0244      0.084      0.473      0.686        165 4.6682e+02 0.0000e+00
      0.496    26.4885     6.8750     85.504  37.000166     35.930      7.781   219.7873     4.5370     2.7836     0.0244      0.081      0.489      0.710        166 5.0069e+02 0.0000e+00
      0.518    26.4897     6.8812     85.586  36.963060     35.881      7.782   220.5444     4.5330     2.6359     0.0244      0.079      0.509      0.738        167 6.2420e+02 0.0000e+00
      0.541    26.4923     6.8910     85.702  36.941896     35.880      7.788   221.1501     4.5330     2.7030     0.0244      0.077      0.529      0.768        168 4.8638e+02 0.0000e+00
      0.560    26.4963     6.9025     85.847  36.967186     35.879      7.796   221.3015     4.5410     2.8104     0.0244      0.076      0.550      0.798        169 5.0127e+02 0.0000e+00
      0.583    26.4996     6.9235     86.110  37.020566     35.959      7.804   219.1815     4.5410     2.6493     0.0244      0.077      0.573      0.831        170 5.2842e+02 0.0000e+00
      0.609    26.4975     6.9655     86.628  36.964444     35.875      7.810   220.5444     4.5168     2.7433     0.0244      0.080      0.598      0.867        171 4.2489e+02 0.0000e+00
      0.636    26.4911     7.1390     88.799  36.948048     35.873      7.815   220.6958     4.5410     2.5419     0.0244      0.084      0.622      0.902        172 4.8587e+02 0.0000e+00
      0.656    26.4893     7.4384     92.537  36.951991     35.873      7.819   220.4308     4.5410     2.4881     0.0244      0.087      0.644      0.934        173 4.6109e+02 0.0000e+00
      0.677    26.4871     7.7805     96.803  36.900221     35.825      7.822   222.1723     4.5249     2.5016     0.0244      0.090      0.663      0.961        174 4.2830e+02 0.0000e+00
      0.693    26.4866     8.1231    101.049  36.953159     35.879      7.811   221.6044     4.5451     2.5150     0.0244      0.089      0.679      0.984        175 5.8159e+02 0.0000e+00
      0.705    26.4910     8.4099    104.554  36.915772     35.854      7.805   218.5001     4.5451     2.4344     0.0244      0.084      0.694      1.005        176 5.6059e+02 0.0000e+00
      0.722    26.4932     8.6366    107.324  36.857770     35.773      7.807   219.1437     4.6704     2.5419     0.0244      0.080      0.711      1.030        177 4.4540e+02 0.0000e+00
      0.745    26.4904     8.7545    108.755  36.877042     35.824      7.815   218.7273     4.6866     2.5284     0.0244      0.076      0.735      1.065        178 5.5404e+02 0.0000e+00
      0.783    26.4912     8.7778    109.007  36.921447     35.822      7.822   220.9987     4.6583     2.4881     0.0244      0.077      0.763      1.107        179 4.7083e+02 0.0000e+00
      0.804    26.4922     8.7121    108.157  37.039786     35.988      7.810   220.0901     4.6381     2.4881     0.0244      0.079      0.789      1.144        180 3.8479e+02 0.0000e+00
      0.827    26.4906     8.5874    106.574  36.996708     35.905      7.809   218.4623     4.8848     2.4479     0.0244      0.084      0.816      1.184        181 3.9429e+02 0.0000e+00
      0.868    26.4978     8.4549    104.905  36.886078     35.823      7.819   218.6894     4.9252     2.5419     0.0244      0.093      0.851      1.234        182 3.5706e+02 0.0000e+00
      0.908    26.5064     8.3309    103.345  36.851207     35.770      7.829   218.9923     4.9050     2.5687     0.0244      0.106      0.889      1.289        183 3.7083e+02 0.0000e+00
      0.945    26.5118     8.2317    102.098  36.832488     35.765      7.830   219.5223     4.9050     2.4881     0.0244      0.118      0.923      1.338        184 3.7588e+02 0.0000e+00
      0.969    26.5022     8.1525    101.091  36.790735     35.705      7.828   219.0680     4.9494     2.5687     0.0243      0.124      0.950      1.378        185 3.3613e+02 0.0000e+00
      0.993    26.4705     8.0996    100.415  36.784526     35.701      7.830   218.9165     4.9818     2.5553     0.0243      0.125      0.975      1.414        186 3.4103e+02 0.0000e+00
      1.021    26.4446     8.0739    100.082  36.810553     35.734      7.835   220.7715     4.9778     2.4881     0.0243      0.123      1.001      1.452        187 3.1301e+02 0.0000e+00
      1.048    26.4269     8.0736    100.064  36.847329     35.785      7.838   220.1658     4.9656     2.5419     0.0244      0.122      1.029      1.494        188 2.7995e+02 0.0000e+00
      1.083    26.4081     8.0822    100.158  36.887070     35.856      7.837   221.0744     5.0708     2.5016     0.0244      0.120      1.062      1.540        189 3.1480e+02 0.0000e+00
      1.117    26.3904     8.0921    100.264  36.850089     35.814      7.834   220.2415     5.0708     2.5553     0.0244      0.116      1.093      1.585        190 2.9414e+02 0.0000e+00
      1.141    26.3731     8.1041    100.295  36.893361     35.882      7.833   219.9765     5.1233     2.5419     0.0244      0.113      1.120      1.625        191 2.8707e+02 0.0000e+00
      1.170    26.3596     8.1191    100.082  36.862887     35.867      7.830   222.9673     5.0991     2.5284     0.0244      0.113      1.147      1.664        192 2.8219e+02 0.0000e+00
      1.199    26.3486     8.1064     99.626  36.799045     35.798      7.816   222.4373     5.1638     2.5956     0.0243      0.115      1.173      1.701        193 2.7386e+02 0.0000e+00
      1.217    26.3391     8.0526     98.784  36.824522     35.861      7.807   222.6265     5.1233     2.4479     0.0244      0.113      1.197      1.736        194 2.4452e+02 0.0000e+00
      1.247    26.3261     7.9556     97.395  36.742211     35.760      7.800   222.7401     5.1274     2.4747     0.0243      0.111      1.224      1.776        195 2.4092e+02 0.0000e+00
      1.282    26.3152     7.8283     95.630  36.664213     35.712      7.801   222.1723     5.1597     2.5284     0.0243      0.110      1.254      1.818        196 2.4561e+02 0.0000e+00
      1.304    26.3063     7.6794     93.377  36.743640     35.776      7.796   221.7558     5.1759     2.5687     0.0243      0.107      1.280      1.856        197 2.1989e+02 0.0000e+00
      1.330    26.3001     7.5348     91.225  36.732351     35.811      7.794   225.0494     5.2770     2.5150     0.0243      0.106      1.302      1.888        198 2.2540e+02 0.0000e+00
      1.347    26.2909     7.3821     89.133  36.618950     35.653      7.785   224.8980     5.2891     2.5284     0.0243      0.103      1.321      1.915        199 2.2590e+02 0.0000e+00
      1.361    26.2856     7.2122     86.931  36.706813     35.795      7.780   225.2766     5.2932     2.4613     0.0243      0.097      1.341      1.945        200 2.1760e+02 0.0000e+00
      1.396    26.2113     7.0418     84.784  36.682327     35.745      7.780   225.6173     5.2851     2.4479     0.0243      0.096      1.369      1.986        201 2.1193e+02 0.0000e+00
      1.431    26.0033     6.8770     82.747  36.590109     35.670      7.778   225.5416     5.3376     2.5419     0.0243      0.098      1.399      2.029        202 2.0098e+02 0.0000e+00
      1.452    25.8350     6.7187     80.782  36.554658     35.688      7.777   225.2387     5.3579     2.5553     0.0243      0.097      1.422      2.063        203 2.0219e+02 0.0000e+00
      1.468    25.7313     6.5963     79.218  36.370581     35.649      7.777   225.5037     5.3659     2.4479     0.0242      0.094      1.441      2.090        204 1.9367e+02 0.0000e+00
      1.490    25.6265     6.4914     77.868  36.374389     35.765      7.773   225.7687     5.3336     2.4344     0.0242      0.094      1.459      2.117        205 1.8704e+02 0.0000e+00
      1.506    25.4964     6.3965     76.655  36.342391     35.836      7.756   225.5794     5.3942     2.5150     0.0242      0.091      1.478      2.144        206 1.8453e+02 0.0000e+00
      1.527    25.2544     6.2938     75.344  36.084219     35.611      7.754   226.4880     5.4064     2.5284     0.0241      0.090      1.501      2.178        207 1.7439e+02 0.0000e+00
      1.562    25.0166     6.1699     73.730  35.983929     35.639      7.746   226.7908     5.3821     2.5419     0.0240      0.091      1.529      2.218        208 1.6995e+02 0.0000e+00
      1.586    24.8702     6.0565     72.254  35.933421     35.735      7.732   224.4437     5.4064     2.4210     0.0240      0.088      1.554      2.254        209 1.6598e+02 0.0000e+00
      1.606    24.7747     5.9332     70.668  35.880257     35.875      7.725   225.3901     5.5924     2.6224     0.0240      0.087      1.573      2.282        210 1.6080e+02 0.0000e+00
      1.623    24.7161     5.7904     68.874  35.901909     35.981      7.710   225.9958     5.6005     2.5687     0.0240      0.088      1.588      2.304        211 1.5926e+02 0.0000e+00
      1.630    24.6806     5.6393     66.997  35.936211     36.105      7.688   227.2451     5.5964     2.5419     0.0240      0.085      1.600      2.321        212 1.5661e+02 0.0000e+00
      1.643    24.6401     5.4745     64.971  35.896933     36.092      7.677   227.5480     5.5762     2.5016     0.0240      0.080      1.617      2.346        213 1.5110e+02 0.0000e+00
      1.676    24.5787     5.3076     62.915  35.891505     36.117      7.664   227.6994     5.8027     2.3270     0.0240      0.079      1.645      2.386        214 1.4742e+02 0.0000e+00
      1.712    24.5146     5.1658     61.154  35.913331     36.174      7.652   225.9958     5.7784     2.3673     0.0240      0.080      1.676      2.431        215 1.4105e+02 0.0000e+00
      1.740    24.4648     5.0419     59.614  35.899452     36.192      7.640   226.7530     5.7905     2.3673     0.0240      0.082      1.703      2.471        216 1.3779e+02 0.0000e+00
      1.759    24.4040     4.9078     57.948  35.879146     36.238      7.625   226.8287     5.7986     2.2733     0.0240      0.086      1.728      2.507        217 1.3453e+02 0.0000e+00
      1.791    24.3120     4.7866     56.426  35.849656     36.219      7.611   228.4566     5.7865     2.2464     0.0240      0.094      1.756      2.547        218 1.3062e+02 0.0000e+00
      1.822    24.2192     4.6682     54.950  35.876862     36.318      7.591   229.0623     5.8148     2.6224     0.0240      0.103      1.785      2.590        219 1.2740e+02 0.0000e+00
      1.848    24.1352     4.5098     53.029  35.874979     36.360      7.571   229.8951     5.7744     2.5016     0.0240      0.110      1.813      2.630        220 1.2377e+02 0.0000e+00
      1.877    24.0612     4.3664     51.321  35.822385     36.398      7.552   230.8037     5.7905     2.5150     0.0240      0.113      1.840      2.668        221 1.2055e+02 0.0000e+00
      1.901    23.9981     4.2378     49.797  35.794071     36.406      7.537   230.9551     5.7946     2.4881     0.0240      0.109      1.865      2.704        222 1.1772e+02 0.0000e+00
      1.926    23.9407     4.1355     48.577  35.821282     36.516      7.512   231.4851     5.6773     2.1927     0.0240      0.107      1.888      2.738        223 1.1467e+02 0.0000e+00
      1.947    23.8779     4.0618     47.663  35.788556     36.507      7.500   232.5073     5.6773     2.3002     0.0240      0.105      1.912      2.773        224 1.1169e+02 0.0000e+00
      1.978    23.8082     4.0190     47.105  35.834830     36.606      7.485   232.7344     5.6652     2.3136     0.0240      0.105      1.940      2.813        225 1.0805e+02 0.0000e+00
      2.009    23.7418     4.0099     46.941  35.793384     36.625      7.470   235.1952     5.6652     2.3673     0.0240      0.104      1.969      2.855        226 1.0475e+02 0.0000e+00
      2.034    23.6671     4.0276     47.086  35.662219     36.505      7.459   235.1952     5.4104     2.4613     0.0240      0.103      1.996      2.894        227 1.0235e+02 0.0000e+00
      2.062    23.5836     4.0598     47.410  35.701516     36.641      7.443   235.7252     5.3983     2.4210     0.0240      0.104      2.021      2.931        228 9.9614e+01 0.0000e+00
      2.088    23.5048     4.0861     47.692  35.655540     36.611      7.426   235.9144     5.4145     2.5016     0.0240      0.105      2.045      2.966        229 9.7700e+01 0.0000e+00
      2.106    23.4496     4.0986     47.794  35.571182     36.617      7.409   235.4223     5.4064     2.4479     0.0239      0.104      2.065      2.994        230 9.5976e+01 0.0000e+00
      2.124    23.4244     4.0984     47.733  35.598933     36.676      7.397   235.9144     5.1274     2.4210     0.0239      0.101      2.081      3.018        231 9.5011e+01 0.0000e+00
      2.135    23.4136     4.0839     47.509  35.621041     36.777      7.381   237.5423     5.1395     2.4747     0.0240      0.094      2.095      3.038        232 9.3884e+01 0.0000e+00
      2.149    23.3920     4.0605     47.203  35.603009     36.737      7.367   237.8830     5.1395     2.5150     0.0239      0.084      2.110      3.059        233 9.2107e+01 0.0000e+00
      2.170    23.3400     4.0218     46.704  35.621387     36.804      7.354   238.6402     5.1597     2.5419     0.0240      0.076      2.127      3.084        234 9.0642e+01 0.0000e+00
      2.186    23.2760     3.9825     46.165  35.598179     36.760      7.336   237.7694     5.1031     2.5553     0.0239      0.071      2.144      3.109        235 8.9762e+01 0.0000e+00
      2.202    23.2120     3.9244     45.412  35.572588     36.802      7.322   238.7537     5.0708     2.5150     0.0239      0.066      2.160      3.133        236 8.9316e+01 0.0000e+00
      2.220    23.1410     3.8410     44.382  35.593942     36.850      7.311   238.1102     5.0748     2.5150     0.0239      0.064      2.176      3.157        237 8.8044e+01 0.0000e+00
      2.236    23.0861     3.7394     43.169  35.630953     36.957      7.293   239.1702     5.0788     2.4747     0.0240      0.064      2.191      3.179        238 8.7217e+01 0.0000e+00
      2.248    23.0545     3.6199     41.748  35.585878     36.953      7.276   239.5487     5.0708     2.4479     0.0240      0.064      2.203      3.196        239 8.7170e+01 0.0000e+00
      2.255    23.0088     3.4986     40.273  35.531436     36.939      7.260   239.5866     5.1072     2.6359     0.0239      0.062      2.214      3.212        240 8.6112e+01 0.0000e+00
      2.273    22.9422     3.3868     38.926  35.520783     36.961      7.251   240.5330     5.0748     2.4747     0.0239      0.060      2.229      3.233        241 8.4955e+01 0.0000e+00
      2.290    22.8830     3.2902     37.764  35.539840     36.997      7.236   240.0030     5.0869     2.4747     0.0239      0.057      2.244      3.255        242 8.4241e+01 0.0000e+00
      2.302    22.8444     3.1979     36.661  35.507744     37.048      7.225   240.0409     5.1031     2.5553     0.0239      0.056      2.258      3.275        243 8.3289e+01 0.0000e+00
      2.315    22.7883     3.1231     35.758  35.382809     36.920      7.214   240.0787     5.1557     2.5016     0.0239      0.054      2.272      3.295        244 8.1878e+01 0.0000e+00
      2.332    22.6951     3.0649     35.034  35.339454     36.949      7.204   240.5330     5.1314     2.5284     0.0239      0.054      2.289      3.320        245 7.9331e+01 0.0000e+00
      2.356    22.6033     3.0060     34.253  35.265146     36.874      7.190   240.9873     5.1314     2.5150     0.0238      0.058      2.309      3.348        246 7.8214e+01 0.0000e+00
      2.372    22.5277     2.9337     33.309  35.238053     36.948      7.178   240.8737     5.1193     2.5016     0.0238      0.062      2.325      3.371        247 7.7799e+01 0.0000e+00
      2.382    22.4810     2.8421     32.181  35.254581     37.019      7.164   240.9873     5.0384     2.5553     0.0238      0.063      2.336      3.388        248 7.7789e+01 0.0000e+00
      2.391    22.4246     2.7239     30.795  35.185306     37.019      7.150   241.4416     5.0465     2.5284     0.0238      0.061      2.349      3.407        249 7.6562e+01 0.0000e+00
      2.415    22.3312     2.5730     29.044  35.176014     37.026      7.142   242.5016     5.0141     2.5150     0.0238      0.062      2.367      3.432        250 7.4553e+01 0.0000e+00
      2.433    22.2470     2.4052     27.074  35.147543     37.068      7.119   242.4259     5.0303     2.4344     0.0238      0.063      2.383      3.457        251 7.4318e+01 0.0000e+00
      2.441    22.1790     2.2324     25.096  35.131796     37.086      7.105   243.0316     4.9778     2.5150     0.0238      0.062      2.397      3.477        252 7.2641e+01 0.0000e+00
      2.460    22.1145     2.0539     23.086  35.225307     37.297      7.095   243.2966     4.9656     2.6224     0.0238      0.060      2.414      3.501        253 7.0765e+01 0.0000e+00
      2.482    22.0509     1.8699     20.999  35.179498     37.264      7.085   244.0159     4.9697     2.5553     0.0238      0.060      2.434      3.531        254 6.9087e+01 0.0000e+00
      2.505    21.9610     1.7238     19.317  35.188841     37.342      7.076   244.5838     4.9697     2.5150     0.0238      0.065      2.458      3.565        255 6.7217e+01 0.0000e+00
      2.534    21.8010     1.6146     18.050  35.302683     37.514      7.064   245.0002     4.6583     2.3002     0.0239      0.073      2.483      3.602        256 6.5332e+01 0.0000e+00
      2.559    21.6163     1.5215     16.960  35.423405     37.701      7.051   245.7952     4.6300     2.2196     0.0239      0.079      2.507      3.636        257 6.4072e+01 0.0000e+00
      2.578    21.4742     1.4432     16.022  35.513177     37.953      7.041   246.3252     4.6664     2.2464     0.0240      0.082      2.526      3.664        258 6.3442e+01 0.0000e+00
      2.593    21.3962     1.3621     15.054  35.606246     38.163      7.031   246.4388     4.6462     2.2464     0.0240      0.085      2.544      3.690        259 6.1919e+01 0.0000e+00
      2.614    21.3113     1.2596     13.862  35.722879     38.460      7.021   245.9088     4.6583     2.2330     0.0241      0.087      2.566      3.723        260 5.9859e+01 0.0000e+00
      2.647    21.1748     1.1741     12.873  35.812970     38.556      7.003   247.3473     4.5734     2.3002     0.0241      0.089      2.591      3.758        261 5.8420e+01 0.0000e+00
      2.662    21.1047     1.0892     11.915  35.968710     38.863      6.965   248.4073     4.5774     2.3404     0.0242      0.088      2.606      3.779        262 5.8408e+01 0.0000e+00
      2.661    21.0978     1.0048     10.981  35.914671     38.864      6.945   248.6723     4.6219     2.3941     0.0242      0.080      2.611      3.788        263 5.8844e+01 0.0000e+00
      2.667    21.0478     0.9227     10.072  35.880273     38.919      6.932   249.7702     4.6098     2.3002     0.0242      0.069      2.620      3.801        264 5.7774e+01 0.0000e+00
      2.689    20.9426     0.8382      9.141  36.011551     39.046      6.925   250.3759     4.5289     2.2733     0.0242      0.063      2.639      3.827        265 5.5540e+01 0.0000e+00
      2.717    20.8200     0.7799      8.496  36.166536     39.270      6.915   248.3316     4.5451     2.2196     0.0243      0.063      2.662      3.861        266 5.4397e+01 0.0000e+00
      2.735    20.6688     0.7308      7.961  36.310262     39.514      6.907   248.5209     4.5410     2.2733     0.0244      0.063      2.683      3.891        267 5.3581e+01 0.0000e+00
      2.754    20.4665     0.6853      7.475  36.366598     39.679      6.903   248.3695     4.5613     2.3002     0.0244      0.063      2.704      3.921        268 5.2194e+01 0.0000e+00
      2.783    20.2411     0.6465      7.048  36.482059     39.933      6.891   250.2623     4.3914     2.1122     0.0245      0.066      2.731      3.960        269 5.0437e+01 0.0000e+00
      2.817    20.0251     0.6072      6.612  36.730182     40.388      6.877   250.5273     4.3995     2.0450     0.0246      0.079      2.760      4.002        270 4.9106e+01 0.0000e+00
      2.842    19.8389     0.5721      6.209  36.947704     40.836      6.866   251.1709     4.3955     2.1256     0.0247      0.092      2.784      4.037        271 4.8388e+01 0.0000e+00
      2.856    19.7244     0.5494      5.935  36.982626     41.064      6.849   250.3002     4.3955     2.1256     0.0248      0.096      2.800      4.060        272 4.7912e+01 0.0000e+00
      2.867    19.6702     0.5374      5.790  36.953771     41.203      6.839   250.3759     4.1084     1.7899     0.0248      0.092      2.812      4.078        273 4.7667e+01 0.0000e+00
      2.880    19.6148     0.5116      5.488  36.954044     41.311      6.829   250.6788     4.1003     1.7630     0.0248      0.086      2.823      4.095        274 4.6868e+01 0.0000e+00
      2.891    19.5659     0.4818      5.143  36.952687     41.356      6.819   250.6031     4.0841     1.7899     0.0248      0.079      2.835      4.112        275 4.6446e+01 0.0000e+00
      2.901    19.5118     0.4419      4.707  36.955495     41.412      6.807   250.9438     4.0962     1.8167     0.0248      0.070      2.845      4.127        276 4.6190e+01 0.0000e+00
      2.911    19.5152     0.4028      4.280  37.039557     41.548      6.798   252.7988     3.8941     1.7630     0.0248      0.058      2.857      4.144        277 4.5241e+01 0.0000e+00
      2.929    19.5759     0.3611      3.820  37.055722     41.631      6.786   252.3066     3.8981     1.7362     0.0248      0.050      2.872      4.166        278 4.4372e+01 0.0000e+00
      2.947    19.5577     0.3222      3.395  37.083700     41.632      6.773   252.0416     3.8819     1.6959     0.0248      0.049      2.890      4.191        279 4.3696e+01 0.0000e+00
      2.965    19.4890     0.2801      2.947  37.242021     41.785      6.762   251.9281     3.8658     1.7362     0.0249      0.052      2.909      4.219        280 4.2920e+01 0.0000e+00
      2.988    19.3233     0.2476      2.599  37.333248     41.873      6.751   252.0795     3.8819     1.7630     0.0249      0.057      2.930      4.250        281 4.1987e+01 0.0000e+00
      3.011    19.1046     0.2145      2.244  37.474409     42.122      6.740   252.3823     3.9385     1.7093     0.0250      0.064      2.953      4.283        282 4.1053e+01 0.0000e+00
      3.034    18.9626     0.1981      2.068  37.570628     42.372      6.727   256.5466     3.9749     1.7765     0.0251      0.071      2.975      4.314        283 4.0293e+01 0.0000e+00
      3.055    18.7527     0.1811      1.886  37.628841     42.656      6.716   256.3574     3.9668     1.8033     0.0251      0.078      2.995      4.344        284 3.9658e+01 0.0000e+00
      3.073    18.5158     0.1623      1.688  37.846981     43.036      6.707   256.9252     3.9345     1.6959     0.0253      0.082      3.014      4.371        285 3.9027e+01 0.0000e+00
      3.091    18.4027     0.1560      1.620  37.951802     43.376      6.701   255.4109     3.9668     1.8033     0.0253      0.082      3.031      4.396        286 3.8357e+01 0.0000e+00
      3.109    18.2771     0.1511      1.566  37.973084     43.616      6.693   255.5245     3.9668     1.7362     0.0254      0.081      3.051      4.425        287 3.7593e+01 0.0000e+00
      3.134    18.0575     0.1459      1.510  38.117219     43.919      6.682   258.0988     3.9588     1.7765     0.0255      0.081      3.073      4.458        288 3.6681e+01 0.0000e+00
      3.158    17.8872     0.1475      1.524  38.217435     44.139      6.667   258.6667     3.9790     1.6825     0.0255      0.081      3.095      4.489        289 3.6028e+01 0.0000e+00
      3.174    17.8008     0.1510      1.560  38.204391     44.371      6.657   258.8938     3.7768     1.6690     0.0255      0.080      3.114      4.517        290 3.5402e+01 0.0000e+00
      3.195    17.6835     0.1518      1.568  38.222538     44.547      6.650   258.8938     3.7768     1.8167     0.0255      0.079      3.132      4.542        291 3.4558e+01 0.0000e+00
      3.212    17.5331     0.1554      1.603  38.372911     44.829      6.635   258.2502     3.7606     1.7630     0.0256      0.079      3.147      4.563        292 3.4231e+01 0.0000e+00
      3.217    17.4141     0.1580      1.627  38.432588     45.018      6.618   258.5531     3.7687     1.7899     0.0257      0.075      3.157      4.578        293 3.3978e+01 0.0000e+00
      3.229    17.3204     0.1586      1.629  38.444957     45.180      6.609   258.5152     3.6919     1.9376     0.0257      0.070      3.168      4.595        294 3.3229e+01 0.0000e+00
      3.246    17.2448     0.1581      1.621  38.565228     45.470      6.604   259.9917     3.7121     1.9510     0.0258      0.064      3.182      4.615        295 3.2795e+01 0.0000e+00
      3.257    17.1733     0.1584      1.621  38.579606     45.571      6.597   260.7488     3.6919     2.0719     0.0258      0.058      3.195      4.635        296 3.2249e+01 0.0000e+00
      3.274    17.0814     0.1617      1.651  38.575429     45.653      6.597   262.1117     3.7364     2.0450     0.0258      0.054      3.210      4.656        297 3.1510e+01 0.0000e+00
      3.289    17.0057     0.1622      1.653  38.511142     45.662      6.592   262.5281     3.7202     1.9913     0.0258      0.053      3.223      4.675        298 3.1272e+01 0.0000e+00
      3.297    16.9503     0.1648      1.674  38.452013     45.664      6.585   259.6131     3.7000     1.9376     0.0258      0.051      3.237      4.695        299 3.0567e+01 0.0000e+00
      3.319    16.9143     0.1711      1.735  38.500744     45.847      6.580   261.6574     3.7364     1.9242     0.0258      0.053      3.252      4.718        300 2.9945e+01 0.0000e+00
      3.333    16.8961     0.1699      1.719  38.450536     45.805      6.571   260.5217     3.7081     1.9242     0.0258      0.057      3.267      4.738        301 2.9927e+01 0.0000e+00
      3.340    16.8597     0.1718      1.735  38.425538     45.848      6.567   261.8845     3.7040     1.8705     0.0258      0.056      3.279      4.755        302 2.9433e+01 0.0000e+00
      3.358    16.7663     0.1787      1.803  38.442885     45.863      6.564   261.8088     3.6393     2.2464     0.0258      0.055      3.295      4.779        303 2.8632e+01 0.0000e+00
      3.383    16.6308     0.1799      1.811  38.428962     45.908      6.562   262.0738     3.6555     2.1390     0.0258      0.058      3.313      4.805        304 2.8163e+01 0.0000e+00
      3.393    16.5484     0.1780      1.788  38.502214     46.070      6.555   260.0295     3.6231     2.1927     0.0258      0.059      3.326      4.824        305 2.8131e+01 0.0000e+00
      3.397    16.4777     0.1768      1.776  38.500085     46.264      6.550   261.1274     3.6393     2.2196     0.0259      0.057      3.338      4.841        306 2.7436e+01 0.0000e+00
      3.423    16.3625     0.1778      1.783  38.461335     46.247      6.548   261.3924     3.8496     2.1927     0.0258      0.059      3.357      4.869        307 2.6607e+01 0.0000e+00
      3.448    16.2462     0.1801      1.805  38.609815     46.564      6.540   262.3767     3.8455     2.1390     0.0259      0.061      3.379      4.900        308 2.6437e+01 0.0000e+00
      3.462    16.1349     0.1717      1.719  38.819621     46.897      6.532   262.1874     3.8132     2.2062     0.0260      0.065      3.397      4.927        309 2.5847e+01 0.0000e+00
      3.484    16.0257     0.1740      1.742  39.030859     47.335      6.527   261.5059     3.8294     2.0316     0.0262      0.069      3.417      4.956        310 2.5203e+01 0.0000e+00
      3.507    15.9334     0.1574      1.576  39.118243     47.529      6.525   261.3167     3.6474     2.1927     0.0262      0.071      3.438      4.987        311 2.4805e+01 0.0000e+00
      3.525    15.8613     0.1608      1.608  39.215217     47.794      6.522   261.3924     3.6393     2.1793     0.0263      0.074      3.456      5.014        312 2.4465e+01 0.0000e+00
      3.541    15.7799     0.1544      1.539  39.266199     47.969      6.517   262.1495     3.5989     2.0987     0.0263      0.077      3.475      5.040        313 2.4024e+01 0.0000e+00
      3.565    15.6729     0.1525      1.518  39.351486     48.122      6.514   262.3009     3.6191     2.0450     0.0264      0.080      3.495      5.069        314 2.3475e+01 0.0000e+00
      3.585    15.6116     0.1469      1.459  39.613415     48.594      6.506   264.8374     3.1864     2.5821     0.0266      0.078      3.512      5.095        315 2.3289e+01 0.0000e+00
      3.596    15.5664     0.1519      1.508  39.592893     48.655      6.498   264.9131     3.1905     2.5419     0.0266      0.075      3.527      5.116        316 2.2973e+01 0.0000e+00
      3.612    15.5026     0.1457      1.446  39.644053     48.800      6.491   265.2160     3.1945     2.4881     0.0266      0.074      3.542      5.136        317 2.2531e+01 0.0000e+00
      3.626    15.4799     0.1468      1.457  39.787103     49.052      6.482   264.0802     3.1864     2.5284     0.0267      0.070      3.553      5.152        318 2.2582e+01 0.0000e+00
      3.628    15.4469     0.1497      1.484  39.711547     49.004      6.474   263.9288     3.3118     2.2330     0.0266      0.063      3.559      5.162        319 2.2472e+01 0.0000e+00
      3.634    15.4359     0.1429      1.413  39.738109     49.087      6.472   264.2695     3.3320     2.3002     0.0267      0.055      3.565      5.171        320 2.2181e+01 0.0000e+00
      3.645    15.4518     0.1469      1.449  39.754066     49.138      6.470   266.2760     3.3158     2.3673     0.0267      0.048      3.575      5.185        321 2.1967e+01 0.0000e+00
      3.658    15.3833     0.1496      1.472  39.751031     49.146      6.470   266.3517     3.3199     2.3404     0.0267      0.042      3.588      5.204        322 2.1581e+01 0.0000e+00
      3.675    15.2622     0.1461      1.435  39.949546     49.368      6.468   265.6324     3.3158     2.2464     0.0268      0.041      3.603      5.226        323 2.1272e+01 0.0000e+00
      3.689    15.1579     0.1485      1.456  40.040993     49.589      6.462   266.0488     3.5059     2.2733     0.0269      0.042      3.620      5.251        324 2.0873e+01 0.0000e+00
      3.712    15.0675     0.1462      1.433  40.082236     49.744      6.457   265.9731     3.5059     2.2867     0.0269      0.046      3.639      5.278        325 2.0399e+01 0.0000e+00
      3.731    15.0258     0.1465      1.434  40.254262     50.146      6.453   267.1845     3.5099     2.3404     0.0270      0.053      3.656      5.303        326 2.0097e+01 0.0000e+00
      3.742    15.0161     0.1458      1.425  40.242285     50.195      6.449   267.7524     3.5140     2.2733     0.0270      0.059      3.668      5.321        327 1.9971e+01 0.0000e+00
      3.751    15.0075     0.1482      1.448  40.275180     50.314      6.446   267.7524     2.8063     2.4881     0.0270      0.061      3.680      5.338        328 1.9645e+01 0.0000e+00
      3.766    14.9771     0.1453      1.418  40.421009     50.500      6.446   267.7524     2.7699     2.4747     0.0271      0.061      3.695      5.360        329 1.9129e+01 0.0000e+00
      3.788    14.8690     0.1406      1.371  40.416800     50.514      6.447   267.2602     2.8063     2.4881     0.0271      0.062      3.715      5.389        330 1.8673e+01 0.0000e+00
      3.810    14.7375     0.1460      1.421  40.339756     50.441      6.445   267.5252     2.7982     2.4613     0.0271      0.063      3.736      5.419        331 1.8276e+01 0.0000e+00
      3.830    14.6308     0.1424      1.385  40.279587     50.513      6.441   267.6767     2.3049     2.5419     0.0271      0.065      3.756      5.447        332 1.7905e+01 0.0000e+00
      3.850    14.5452     0.1377      1.338  40.106080     50.468      6.438   268.8124     2.2685     2.4747     0.0270      0.067      3.773      5.472        333 1.7602e+01 0.0000e+00
      3.862    14.4880     0.1370      1.330  39.873446     50.287      6.429   269.0774     2.2968     2.4747     0.0269      0.069      3.786      5.491        334 1.7566e+01 0.0000e+00
      3.869    14.4410     0.1351      1.311  39.857189     50.396      6.426   268.9260     2.2685     2.5016     0.0269      0.069      3.799      5.509        335 1.7201e+01 0.0000e+00
      3.891    14.3886     0.1348      1.307  39.800042     50.398      6.421   268.5474     2.1593     2.3270     0.0269      0.069      3.815      5.534        336 1.6733e+01 0.0000e+00
      3.909    14.3398     0.1444      1.398  39.588622     50.174      6.414   268.0931     2.1755     2.2867     0.0268      0.068      3.833      5.560        337 1.6566e+01 0.0000e+00
      3.925    14.3020     0.1570      1.519  39.467702     50.099      6.410   268.3960     2.1472     2.1927     0.0267      0.064      3.851      5.585        338 1.6147e+01 0.0000e+00
      3.947    14.2642     0.1687      1.629  39.386924     50.055      6.404   268.5474     2.1755     2.2599     0.0267      0.064      3.869      5.612        339 1.5807e+01 0.0000e+00
      3.962    14.2150     0.2105      2.030  39.273872     49.961      6.396   269.6831     2.2159     2.5150     0.0266      0.064      3.887      5.637        340 1.5608e+01 0.0000e+00
      3.980    14.1547     0.2594      2.498  39.163452     49.866      6.390   269.5317     2.2159     2.4613     0.0266      0.066      3.905      5.663        341 1.5219e+01 0.0000e+00
      4.004    14.1005     0.3294      3.171  39.049737     49.786      6.383   268.8503     2.1998     2.4747     0.0265      0.071      3.924      5.691        342 1.4985e+01 0.0000e+00
      4.018    14.0505     0.4062      3.907  38.911128     49.684      6.374   269.0774     2.1957     2.4344     0.0264      0.073      3.941      5.715        343 1.4772e+01 0.0000e+00
      4.034    14.0129     0.4789      4.599  38.742703     49.540      6.369   269.3424     1.7590     3.2267     0.0264      0.071      3.953      5.733        344 1.4658e+01 0.0000e+00
      4.039    14.0026     0.5486      5.260  38.695760     49.529      6.359   269.5317     1.7833     3.1193     0.0263      0.067      3.962      5.746        345 1.4660e+01 0.0000e+00
      4.047    13.9620     0.6148      5.886  38.732265     49.653      6.356   269.6074     1.7711     3.1193     0.0264      0.062      3.973      5.761        346 1.4345e+01 0.0000e+00
      4.069    13.9026     0.6810      6.509  38.608302     49.482      6.353   269.6074     1.7469     3.1058     0.0263      0.058      3.989      5.786        347 1.4052e+01 0.0000e+00
      4.087    13.8516     0.7346      7.009  38.434757     49.320      6.354   269.7967     1.7590     3.1864     0.0262      0.057      4.008      5.813        348 1.3859e+01 0.0000e+00
      4.105    13.7795     0.8071      7.689  38.325333     49.254      6.353   270.1753     1.6377     3.2535     0.0262      0.056      4.026      5.839        349 1.3561e+01 0.0000e+00
      4.123    13.7002     0.8867      8.438  38.210576     49.170      6.353   270.3267     1.6701     3.4281     0.0261      0.057      4.044      5.865        350 1.3341e+01 0.0000e+00
      4.142    13.6508     1.0007      9.512  38.102997     49.122      6.351   270.3267     1.6256     3.3475     0.0260      0.061      4.062      5.891        351 1.3129e+01 0.0000e+00
      4.162    13.6387     1.1576     10.990  38.103296     49.219      6.347   270.2888     1.6175     3.3341     0.0261      0.066      4.081      5.919        352 1.2892e+01 0.0000e+00
      4.181    13.5991     1.3242     12.560  38.061929     49.252      6.344   269.9481     1.4760     4.5560     0.0261      0.072      4.098      5.944        353 1.2724e+01 0.0000e+00
      4.195    13.5254     1.4752     13.981  37.857880     48.971      6.343   270.0617     1.5043     4.7172     0.0259      0.073      4.113      5.965        354 1.2579e+01 0.0000e+00
      4.206    13.4552     1.6273     15.413  37.793661     48.952      6.339   269.9860     1.5124     4.7038     0.0259      0.069      4.127      5.985        355 1.2441e+01 0.0000e+00
      4.223    13.3848     1.7658     16.718  37.785922     49.045      6.334   270.2510     1.4800     4.6098     0.0259      0.067      4.143      6.009        356 1.2230e+01 0.0000e+00
      4.245    13.3104     1.8986     17.966  37.630249     48.917      6.333   271.0081     1.4274     5.1334     0.0258      0.067      4.164      6.040        357 1.1927e+01 0.0000e+00
      4.272    13.2315     1.9895     18.817  37.483179     48.824      6.330   270.4781     1.4274     4.9857     0.0258      0.069      4.188      6.074        358 1.1710e+01 0.0000e+00
      4.293    13.1646     2.0583     19.455  37.435074     48.846      6.326   271.0081     1.4517     5.0395     0.0257      0.071      4.207      6.102        359 1.1636e+01 0.0000e+00
      4.304    13.1133     2.1012     19.843  37.423198     48.947      6.320   270.9703     1.4477     5.1469     0.0258      0.072      4.222      6.123        360 1.1477e+01 0.0000e+00
      4.319    13.0618     2.1373     20.168  37.438674     49.034      6.320   270.9324     1.4274     4.6635     0.0258      0.072      4.236      6.144        361 1.1301e+01 0.0000e+00
      4.337    13.0115     2.1644     20.410  37.415849     49.099      6.317   271.1974     1.4396     4.7038     0.0258      0.073      4.252      6.168        362 1.1216e+01 0.0000e+00
      4.353    12.9676     2.1739     20.491  37.392308     49.092      6.317   271.3488     1.4962     4.6769     0.0258      0.073      4.269      6.192        363 1.1036e+01 0.0000e+00
      4.371    12.9307     2.1783     20.526  37.408674     49.231      6.312   271.2353     1.4760     4.6500     0.0258      0.070      4.284      6.214        364 1.0901e+01 0.0000e+00
      4.382    12.9051     2.1697     20.442  37.336186     49.141      6.311   271.1974     1.4638     5.2543     0.0257      0.065      4.295      6.230        365 1.0894e+01 0.0000e+00
      4.387    12.8857     2.1562     20.306  37.304572     49.188      6.308   271.0081     1.4557     5.2274     0.0257      0.058      4.304      6.242        366 1.0777e+01 0.0000e+00
      4.398    12.8637     2.1512     20.243  37.270066     49.148      6.308   271.5760     1.4436     5.2812     0.0257      0.054      4.313      6.255        367 1.0696e+01 0.0000e+00
      4.409    12.8403     2.1439     20.157  37.319820     49.246      6.306   271.3110     1.4679     5.2274     0.0257      0.051      4.325      6.274        368 1.0611e+01 0.0000e+00
      4.426    12.8099     2.1169     19.894  37.361312     49.349      6.307   272.3710     1.4396     5.2006     0.0258      0.049      4.343      6.299        369 1.0283e+01 0.0000e+00
      4.453    12.7729     2.0965     19.700  37.277764     49.232      6.302   272.3710     1.5730     5.4423     0.0257      0.051      4.366      6.332        370 1.0039e+01 0.0000e+00
      4.476    12.7373     2.0644     19.388  37.305160     49.345      6.300   272.5981     1.5407     5.4423     0.0258      0.056      4.388      6.365        371 9.8780e+00 0.0000e+00
      4.495    12.7082     2.0284     19.042  37.327233     49.394      6.294   272.3331     1.5487     5.5094     0.0258      0.061      4.408      6.392        372 9.7052e+00 0.0000e+00
      4.512    12.6889     1.9975     18.750  37.250313     49.366      6.295   272.5224     1.5932     5.5900     0.0257      0.068      4.424      6.417        373 9.5635e+00 0.0000e+00
      4.527    12.6757     1.9667     18.456  37.282258     49.405      6.290   272.7496     1.5043     5.7108     0.0257      0.074      4.440      6.441        374 9.4006e+00 0.0000e+00
      4.546    12.6677     1.9245     18.057  37.465462     49.726      6.290   275.4753     1.5043     5.6840     0.0259      0.076      4.460      6.468        375 9.1582e+00 0.0000e+00
      4.570    12.6490     1.9007     17.834  37.496915     49.745      6.286   275.3238     1.5285     5.6706     0.0259      0.078      4.480      6.498        376 8.8897e+00 0.0000e+00
      4.589    12.6145     1.8763     17.607  37.480416     49.753      6.280   274.3017     1.5124     5.6303     0.0259      0.077      4.500      6.526        377 8.6958e+00 0.0000e+00
      4.607    12.5763     1.8618     17.476  37.545324     49.853      6.277   274.5667     1.5124     6.9999     0.0259      0.074      4.518      6.553        378 8.4650e+00 0.0000e+00
      4.627    12.5554     1.8468     17.333  37.534795     49.899      6.276   274.9453     1.5124     6.9731     0.0259      0.074      4.536      6.579        379 8.3010e+00 0.0000e+00
      4.642    12.5484     1.8382     17.228  37.552859     49.950      6.271   277.2546     1.4962     6.9999     0.0259      0.074      4.553      6.603        380 8.1575e+00 0.0000e+00
      4.659    12.5270     1.8315     17.150  37.611847     50.090      6.271   277.2924     1.5043     6.9194     0.0260      0.074      4.570      6.628        381 7.9282e+00 0.0000e+00
      4.681    12.5099     1.8248     17.085  37.550384     49.985      6.271   277.3303     1.4557     8.1816     0.0259      0.074      4.590      6.657        382 7.6692e+00 0.0000e+00
      4.701    12.5032     1.8288     17.123  37.540371     50.016      6.267   277.6710     1.4436     8.2084     0.0259      0.074      4.608      6.684        383 7.5389e+00 0.0000e+00
      4.714    12.4926     1.8303     17.135  37.624317     50.150      6.266   277.1410     1.4355     8.2487     0.0260      0.071      4.622      6.704        384 7.4714e+00 0.0000e+00
      4.724    12.4853     1.8436     17.253  37.623894     50.158      6.266   277.2546     1.4153     8.1547     0.0260      0.069      4.633      6.720        385 7.3380e+00 0.0000e+00
      4.737    12.4857     1.8498     17.297  37.629888     50.174      6.264   278.0874     1.3344     8.2890     0.0260      0.065      4.647      6.740        386 7.1627e+00 0.0000e+00
      4.756    12.4909     1.8614     17.402  37.616862     50.182      6.262   278.8067     1.3142     8.4099     0.0260      0.063      4.663      6.763        387 7.0550e+00 0.0000e+00
      4.771    12.5033     1.8627     17.404  37.640108     50.183      6.266   278.5417     1.3223     8.4636     0.0260      0.062      4.680      6.787        388 6.9627e+00 0.0000e+00
      4.789    12.4940     1.8350     17.128  37.600958     50.175      6.263   279.0717     1.2900     8.3562     0.0260      0.060      4.698      6.813        389 6.7233e+00 0.0000e+00
      4.812    12.4374     1.7612     16.425  37.517270     49.974      6.262   279.4124     1.2980     8.4367     0.0259      0.061      4.718      6.843        390 6.5523e+00 0.0000e+00
      4.832    12.3937     1.6630     15.496  37.655269     50.242      6.260   276.9896     1.2172     8.7321     0.0260      0.064      4.737      6.871        391 6.4287e+00 0.0000e+00
      4.847    12.3899     1.5441     14.371  37.636863     50.249      6.260   277.9739     1.2414     8.6650     0.0260      0.068      4.752      6.893        392 6.2908e+00 0.0000e+00
      4.860    12.3909     1.4222     13.223  37.629183     50.306      6.258   278.3903     1.2455     8.6784     0.0260      0.070      4.765      6.911        393 6.1749e+00 0.0000e+00
      4.870    12.3878     1.3141     12.206  37.664847     50.386      6.256   279.3746     1.2131     8.5979     0.0260      0.068      4.777      6.929        394 6.0494e+00 0.0000e+00
      4.884    12.3669     1.2336     11.445  37.711136     50.384      6.258   279.4503     1.1606     9.3230     0.0260      0.065      4.792      6.949        395 5.8887e+00 0.0000e+00
      4.903    12.3359     1.2010     11.134  38.372466     51.324      6.255   279.3746     1.1646     9.3095     0.0264      0.063      4.807      6.971        396 5.7371e+00 0.0000e+00
      4.915    12.3223     1.2127     11.237  38.858906     52.023      6.253   276.4217     1.2091     9.2558     0.0267      0.059      4.818      6.988        397 5.6988e+00 0.0000e+00
      4.921    12.2985     1.2612     11.683  38.766909     51.883      6.252   276.8381     1.1889     9.2558     0.0267      0.054      4.828      7.003        398 5.6307e+00 0.0000e+00
      4.935    12.2530     1.3109     12.141  38.724273     51.898      6.252   276.9517     0.9786     9.7392     0.0267      0.051      4.842      7.022        399 5.4709e+00 0.0000e+00
      4.956    12.2151     1.3379     12.389  38.645004     51.783      6.252   278.7689     0.9745     9.7661     0.0266      0.052      4.859      7.047        400 5.3230e+00 0.0000e+00
      4.972    12.1774     1.3438     12.443  38.687590     51.922      6.249   278.7310     0.9745     9.6855     0.0267      0.054      4.878      7.075        401 5.1543e+00 0.0000e+00
      4.996    12.1267     1.3400     12.407  38.522978     51.787      6.245   277.4060     0.9745     9.6855     0.0266      0.058      4.898      7.104        402 5.0416e+00 0.0000e+00
      5.014    12.0807     1.2941     11.981  37.930329     50.973      6.243   277.5574     0.8290    10.1421     0.0262      0.062      4.915      7.129        403 4.9839e+00 0.0000e+00
      5.025    12.0359     1.2572     11.640  37.971669     51.120      6.238   277.4438     0.7805    10.1018     0.0263      0.063      4.930      7.151        404 4.8175e+00 0.0000e+00
      5.046    11.9873     1.2067     11.171  38.619871     52.087      6.235   277.4817     0.7926    10.2226     0.0267      0.067      4.949      7.178        405 4.6479e+00 0.0000e+00
      5.070    11.9526     1.1617     10.755  39.051783     52.716      6.234   277.8981     0.8088    10.1555     0.0269      0.073      4.973      7.213        406 4.5068e+00 0.0000e+00
      5.098    11.9329     1.1414     10.566  39.243662     53.051      6.227   280.1696     0.9341    10.3569     0.0270      0.077      5.000      7.252        407 4.3340e+00 0.0000e+00
      5.126    11.9206     1.1217     10.383  39.330354     53.214      6.223   278.8067     0.9179    10.3972     0.0271      0.081      5.025      7.288        408 4.1737e+00 0.0000e+00
      5.144    11.9115     1.1111     10.284  39.329549     53.243      6.223   279.1474     0.9099    10.3435     0.0271      0.084      5.045      7.318        409 4.0353e+00 0.0000e+00
      5.164    11.9055     1.1084     10.259  39.392997     53.335      6.219   279.6396     0.9260    10.3435     0.0271      0.086      5.064      7.345        410 3.9680e+00 0.0000e+00
      5.183    11.9016     1.1057     10.233  39.370062     53.349      6.215   278.8824     0.9382    10.3435     0.0271      0.088      5.083      7.372        411 3.8564e+00 0.0000e+00
      5.201    11.8990     1.1071     10.246  39.358099     53.281      6.216   279.0717     0.9948    10.5583     0.0271      0.088      5.103      7.401        412 3.6774e+00 0.0000e+00
      5.227    11.8971     1.1029     10.207  39.437552     53.477      6.210   282.5167     1.0029    10.5449     0.0272      0.087      5.123      7.431        413 3.5758e+00 0.0000e+00
      5.243    11.8957     1.0922     10.107  39.419508     53.367      6.208   281.7974     0.9786    10.5852     0.0271      0.083      5.140      7.456        414 3.5269e+00 0.0000e+00
      5.255    11.8946     1.0772      9.968  39.439887     53.483      6.205   282.0246     0.9786    10.5449     0.0272      0.077      5.155      7.476        415 3.4707e+00 0.0000e+00
      5.272    11.8925     1.0636      9.841  39.412194     53.372      6.205   280.2453     0.9301    10.9880     0.0271      0.073      5.170      7.498        416 3.3860e+00 0.0000e+00
      5.288    11.8908     1.0448      9.667  39.364977     53.373      6.204   280.4346     0.9341    10.8940     0.0271      0.071      5.188      7.524        417 3.2822e+00 0.0000e+00
      5.312    11.8879     1.0283      9.515  39.439317     53.414      6.203   283.4253     0.9260    10.8940     0.0272      0.070      5.211      7.557        418 3.1675e+00 0.0000e+00
      5.341    11.8841     1.0216      9.453  39.675658     53.796      6.201   283.3874     0.9543    10.9880     0.0273      0.073      5.237      7.595        419 3.0225e+00 0.0000e+00
      5.367    11.8817     1.0170      9.412  39.812480     53.951      6.198   283.6524     0.7845    13.7273     0.0274      0.077      5.264      7.634        420 2.8948e+00 0.0000e+00
      5.395    11.8801     1.0161      9.404  39.803016     53.957      6.194   283.3496     0.8047    13.7273     0.0274      0.082      5.290      7.674        421 2.8024e+00 0.0000e+00
      5.423    11.8791     1.0166      9.408  39.865428     54.036      6.192   283.4253     0.7966    13.6736     0.0274      0.091      5.315      7.710        422 2.7206e+00 0.0000e+00
      5.442    11.8779     1.0192      9.431  39.912802     54.114      6.187   282.9710     0.7885    13.6870     0.0275      0.096      5.334      7.736        423 2.6552e+00 0.0000e+00
      5.452    11.8765     1.0247      9.482  39.862723     54.040      6.187   283.8417     0.7805    16.5472     0.0274      0.095      5.346      7.754        424 2.6327e+00 0.0000e+00
      5.462    11.8737     1.0274      9.507  39.809092     53.966      6.186   283.6146     0.8088    16.6143     0.0274      0.090      5.359      7.772        425 2.5929e+00 0.0000e+00
      5.481    11.8702     1.0340      9.569  39.801554     53.968      6.186   284.6367     0.7966    16.4666     0.0274      0.082      5.376      7.797        426 2.4651e+00 0.0000e+00
      5.502    11.8696     1.0382      9.608  39.753444     53.896      6.186   284.2203     0.7885    16.5472     0.0274      0.075      5.395      7.824        427 2.3956e+00 0.0000e+00
      5.519    11.8715     1.0418      9.641  39.809635     53.977      6.183   284.2960     0.8088    17.1515     0.0274      0.070      5.415      7.853        428 2.3253e+00 0.0000e+00
      5.543    11.8739     1.0537      9.752  39.850286     54.054      6.182   281.8353     0.7764    17.2589     0.0274      0.067      5.436      7.885        429 2.2251e+00 0.0000e+00
      5.567    11.8767     1.0570      9.782  39.762184     53.899      6.179   282.8574     0.7724    17.2320     0.0274      0.069      5.457      7.916        430 2.1657e+00 0.0000e+00
      5.585    11.8777     1.0600      9.811  39.741286     53.896      6.178   282.7060     0.7885    17.1246     0.0274      0.073      5.476      7.942        431 2.0815e+00 0.0000e+00
      5.599    11.8759     1.0646      9.852  39.757633     53.892      6.178   282.8574     0.7926    17.2052     0.0274      0.076      5.491      7.965        432 2.0693e+00 0.0000e+00
      5.615    11.8731     1.0619      9.827  39.741840     53.890      6.179   283.3874     0.8088    16.9769     0.0274      0.077      5.509      7.990        433 1.9941e+00 0.0000e+00
      5.639    11.8712     1.0656      9.860  39.760940     53.893      6.178   282.0624     0.7724    17.0575     0.0274      0.077      5.530      8.020        434 1.8624e+00 0.0000e+00
      5.661    11.8716     1.0666      9.869  39.793194     53.973      6.177   281.9489     0.7966    16.9903     0.0274      0.077      5.551      8.050        435 1.8244e+00 0.0000e+00
      5.679    11.8754     1.0573      9.782  39.761032     53.900      6.174   282.4789     0.8168    17.0306     0.0274      0.076      5.570      8.077        436 1.7658e+00 0.0000e+00
      5.698    11.8778     1.0585      9.793  39.741637     53.899      6.173   282.2896     0.8330    17.3797     0.0274      0.075      5.585      8.100        437 1.7416e+00 0.0000e+00
      5.708    11.8771     1.0593      9.800  39.758001     53.894      6.174   282.8574     0.8613    17.4872     0.0274      0.072      5.598      8.119        438 1.6963e+00 0.0000e+00
      5.720    11.8779     1.0542      9.753  39.740666     53.890      6.174   282.8574     0.8735    17.4066     0.0274      0.070      5.611      8.138        439 1.6145e+00 0.0000e+00
      5.740    11.8806     1.0506      9.719  39.763210     53.892      6.173   282.5167     0.8573    17.4066     0.0274      0.069      5.627      8.161        440 1.6161e+00 0.0000e+00
      5.753    11.8819     1.0441      9.659  39.729945     53.890      6.174   282.3653     0.8977    19.7699     0.0274      0.066      5.643      8.185        441 1.5928e+00 0.0000e+00
      5.771    11.8778     1.0351      9.575  39.722732     53.810      6.173   282.5924     0.9099    19.7833     0.0273      0.062      5.661      8.210        442 1.4810e+00 0.0000e+00
      5.795    11.8724     1.0335      9.560  39.831516     54.035      6.173   282.9332     0.9260    19.6893     0.0274      0.062      5.680      8.239        443 1.3989e+00 0.0000e+00
      5.810    11.8704     1.0338      9.563  39.831888     53.966      6.174   282.7817     0.9220    19.8102     0.0274      0.064      5.699      8.265        444 1.3843e+00 0.0000e+00
      5.829    11.8682     1.0305      9.532  39.840932     54.050      6.172   283.8039     1.0433    20.5890     0.0274      0.066      5.720      8.296        445 1.3170e+00 0.0000e+00
      5.862    11.8657     1.0292      9.520  39.820263     53.977      6.171   283.7282     1.0716    20.5487     0.0274      0.074      5.744      8.331        446 1.2427e+00 0.0000e+00
      5.878    11.8647     1.0297      9.524  39.798282     53.980      6.167   283.9174     1.0392    20.6024     0.0274      0.078      5.764      8.360        447 1.1969e+00 0.0000e+00
      5.893    11.8641     1.0269      9.498  39.808958     53.984      6.162   284.0689     1.0352    20.5756     0.0274      0.079      5.782      8.386        448 1.1354e+00 0.0000e+00
      5.918    11.8630     1.0291      9.518  39.806977     53.985      6.161   283.9932     0.9422    21.5558     0.0274      0.081      5.802      8.415        449 1.1256e+00 0.0000e+00
      5.936    11.8615     1.0320      9.545  39.860080     54.062      6.162   284.5610     0.9503    21.3544     0.0274      0.082      5.820      8.440        450 1.0726e+00 0.0000e+00
      5.947    11.8602     1.0300      9.526  39.802206     53.988      6.160   284.3717     0.9260    21.4887     0.0274      0.078      5.832      8.458        451 1.0206e+00 0.0000e+00
      5.958    11.8592     1.0263      9.491  39.760339     53.914      6.162   284.2960     0.9058    21.3947     0.0274      0.074      5.844      8.476        452 1.0166e+00 0.0000e+00
      5.975    11.8573     1.0261      9.490  39.793520     53.992      6.163   284.3339     0.9260    21.3544     0.0274      0.069      5.859      8.498        453 9.6170e-01 0.0000e+00
      5.992    11.8563     1.0214      9.446  39.820244     53.993      6.160   283.6524     0.9260    21.7170     0.0274      0.063      5.874      8.520        454 9.4371e-01 0.0000e+00
      6.001    11.8585     1.0217      9.447  39.845744     54.072      6.163   283.7660     0.9018    21.7304     0.0274      0.060      5.888      8.541        455 9.2374e-01 0.0000e+00
      6.020    11.8588     1.0172      9.404  39.821117     53.998      6.161   284.3717     0.9462    21.5558     0.0274      0.059      5.910      8.572        456 8.3208e-01 0.0000e+00
      6.061    11.8547     1.0123      9.358  39.850893     54.070      6.158   285.0532     0.9341    21.6498     0.0274      0.063      5.941      8.617        457 7.4841e-01 0.0000e+00
      6.094    11.8502     1.0103      9.339  39.868019     54.069      6.150   285.0532     0.8371    21.6498     0.0274      0.074      5.970      8.658        458 7.3446e-01 0.0000e+00
      6.106    11.8505     1.0053      9.292  39.859135     54.076      6.148   284.9774     0.8532    21.6632     0.0274      0.082      5.986      8.682        459 7.3569e-01 0.0000e+00
      6.112    11.8513     0.9995      9.238  39.861952     54.082      6.143   285.1289     0.8532    21.6767     0.0274      0.084      5.996      8.697        460 7.0830e-01 0.0000e+00
      6.127    11.8469     0.9985      9.228  39.805184     54.006      6.144   285.1289     0.8452    21.6767     0.0274      0.082      6.010      8.716        461 6.7562e-01 0.0000e+00
      6.145    11.8452     0.9966      9.210  39.811120     54.004      6.144   284.9774     0.8694    21.6364     0.0274      0.080      6.025      8.738        462 6.5477e-01 0.0000e+00
      6.158    11.8487     0.9935      9.181  39.854566     54.088      6.143   284.4853     0.8654    21.5961     0.0274      0.075      6.040      8.760        463 6.3919e-01 0.0000e+00
      6.174    11.8465     0.9879      9.129  39.869780     54.089      6.147   284.1824     0.8492    21.7304     0.0274      0.067      6.058      8.785        464 6.0820e-01 0.0000e+00
      6.200    11.8378     0.9753      9.013  39.940513     54.198      6.147   283.9174     0.8654    21.5827     0.0275      0.061      6.078      8.814        465 6.1099e-01 0.0000e+00
      6.215    11.8329     0.9722      8.984  39.974195     54.239      6.146   285.6967     0.9341    21.8781     0.0275      0.060      6.093      8.838        466 6.1948e-01 0.0000e+00
      6.224    11.8297     0.9688      8.952  39.946526     54.215      6.148   285.5453     0.9099    21.8109     0.0275      0.062      6.107      8.858        467 5.7670e-01 0.0000e+00
      6.246    11.8255     0.9629      8.899  39.945286     54.221      6.150   285.6210     0.9220    21.7572     0.0275      0.066      6.127      8.886        468 5.3571e-01 0.0000e+00
      6.272    11.8222     0.9611      8.881  39.946077     54.226      6.149   284.9017     0.9422    21.9184     0.0275      0.069      6.150      8.920        469 4.9047e-01 0.0000e+00
      6.294    11.8193     0.9560      8.834  39.945544     54.232      6.151   284.9774     0.8532    21.7975     0.0275      0.072      6.175      8.956        470 4.8075e-01 0.0000e+00
      6.326    11.8171     0.9478      8.758  39.916287     54.200      6.147   286.5296     0.8532    21.9049     0.0275      0.079      6.201      8.995        471 4.7112e-01 0.0000e+00
      6.352    11.8158     0.9506      8.784  39.952825     54.241      6.145   286.7567     0.8532    21.8915     0.0275      0.085      6.224      9.028        472 4.3699e-01 0.0000e+00
      6.362    11.8151     0.9520      8.797  39.989072     54.321      6.143   286.9839     0.8654    21.9318     0.0275      0.086      6.241      9.051        473 4.5985e-01 0.0000e+00
      6.378    11.8137     0.9415      8.700  39.960176     54.247      6.142   286.4160     0.8532    21.8915     0.0275      0.087      6.257      9.075        474 4.5320e-01 0.0000e+00
      6.401    11.8124     0.9578      8.852  39.988786     54.324      6.141   286.5674     0.8896    21.7841     0.0275      0.088      6.274      9.099        475 4.4628e-01 0.0000e+00
      6.410    11.8118     0.9494      8.774  40.042464     54.364      6.139   286.4917     0.8452    21.8915     0.0275      0.082      6.284      9.114        476 4.2967e-01 0.0000e+00
      6.412    11.8119     0.9547      8.824  40.041702     54.404      6.139   286.8324     0.8371    21.8781     0.0276      0.071      6.289      9.123        477 4.0773e-01 0.0000e+00
      6.420    11.8130     0.9655      8.924  39.960070     54.252      6.140   286.8324     0.8735    21.8512     0.0275      0.060      6.297      9.134        478 3.9831e-01 0.0000e+00
      6.432    11.8129     0.9678      8.945  39.936397     54.253      6.144   286.9839     0.8613    22.1601     0.0275      0.050      6.312      9.154        479 3.8926e-01 0.0000e+00
      6.459    11.8115     0.9584      8.858  39.952501     54.251      6.139   288.0817     0.8411    22.0795     0.0275      0.048      6.335      9.187        480 3.5608e-01 0.0000e+00
      6.490    11.8107     0.9633      8.904  39.999358     54.327      6.135   287.8925     0.8371    22.0661     0.0275      0.054      6.357      9.221        481 3.4180e-01 0.0000e+00
      6.498    11.8101     0.9598      8.872  40.026411     54.367      6.134   285.5453     0.8573    22.0527     0.0275      0.056      6.370      9.239        482 3.8840e-01 0.0000e+00
      6.500    11.8096     0.9529      8.807  39.948500     54.254      6.133   287.1353     0.8452    22.2944     0.0275      0.056      6.375      9.247        483 3.5270e-01 0.0000e+00
      6.508    11.8107     0.9551      8.827  40.007321     54.331      6.132   286.8324     0.8452    22.2809     0.0275      0.057      6.380      9.254        484 3.3422e-01 0.0000e+00
      6.509    11.8142     0.9554      8.828  40.042208     54.408      6.128   288.0817     0.8694    22.3749     0.0276      0.054      6.384      9.259        485 3.3988e-01 0.0000e+00
      6.513    11.8172     0.9488      8.767  39.964416     54.254      6.130   287.8925     0.8573    22.2272     0.0275      0.047      6.391      9.269        486 3.3238e-01 0.0000e+00
      6.528    11.8192     0.9561      8.834  40.015134     54.363      6.132   284.6367     0.7724    22.0124     0.0275      0.039      6.402      9.285        487 3.2177e-01 0.0000e+00
      6.543    11.8217     0.9559      8.833  40.008753     54.321      6.132   284.8639     0.7966    22.0258     0.0275      0.032      6.416      9.306        488 3.0663e-01 0.0000e+00
      6.557    11.8198     0.9503      8.781  39.942690     54.242      6.135   285.0532     0.8128    22.0795     0.0275      0.030      6.431      9.327        489 3.1933e-01 0.0000e+00
      6.573    11.8175     0.9561      8.834  40.008351     54.314      6.137   286.1132     0.7966    22.0527     0.0275      0.037      6.445      9.347        490 3.2401e-01 0.0000e+00
      6.584    11.8212     0.9592      8.862  40.045702     54.392      6.136   285.9617     0.9139    21.8781     0.0276      0.043      6.457      9.365        491 3.1908e-01 0.0000e+00
      6.596    11.8239     0.9569      8.841  39.985207     54.283      6.138   284.5610     0.8896    21.8781     0.0275      0.047      6.470      9.385        492 2.9787e-01 0.0000e+00
      6.615    11.8225     0.9572      8.844  39.994639     54.314      6.136   283.9553     0.9058    21.8109     0.0275      0.053      6.488      9.410        493 2.7469e-01 0.0000e+00
      6.637    11.8174     0.9545      8.818  40.004295     54.311      6.139   284.2203     0.9220    21.8781     0.0275      0.058      6.508      9.440        494 2.8967e-01 0.0000e+00
      6.658    11.8126     0.9522      8.797  40.002855     54.312      6.136   284.5610     0.8654    22.0795     0.0275      0.061      6.527      9.467        495 2.8859e-01 0.0000e+00
      6.672    11.8104     0.9485      8.763  40.055764     54.396      6.139   284.2203     0.8532    22.1064     0.0276      0.064      6.542      9.489        496 2.8633e-01 0.0000e+00
      6.685    11.8096     0.9446      8.727  40.027450     54.365      6.137   285.8860     0.8452    22.0124     0.0275      0.065      6.557      9.510        497 2.8676e-01 0.0000e+00
      6.702    11.8094     0.9385      8.671  40.008428     54.331      6.137   285.5453     0.8209    21.9989     0.0275      0.066      6.572      9.531        498 2.3404e-01 0.0000e+00
      6.716    11.8087     0.9342      8.632  39.990442     54.332      6.138   285.5074     0.8411    22.0661     0.0275      0.067      6.587      9.553        499 2.3880e-01 0.0000e+00
      6.734    11.8071     0.9361      8.649  39.960839     54.256      6.138   284.6746     0.9422    22.3078     0.0275      0.066      6.603      9.577        500 2.6169e-01 0.0000e+00
      6.751    11.8051     0.9296      8.589  39.985938     54.333      6.137   284.7124     0.9301    22.2675     0.0275      0.064      6.620      9.602        501 2.4053e-01 0.0000e+00
      6.768    11.8033     0.9297      8.590  40.018536     54.335      6.137   284.5610     0.9341    22.2541     0.0275      0.063      6.637      9.626        502 2.1977e-01 0.0000e+00
      6.785    11.8020     0.9304      8.596  40.038933     54.414      6.137   287.6275     0.9058    22.2809     0.0276      0.063      6.654      9.651        503 2.1432e-01 0.0000e+00
      6.803    11.8015     0.9363      8.651  40.019887     54.341      6.138   286.9839     0.9139    22.2809     0.0275      0.065      6.673      9.678        504 2.0820e-01 0.0000e+00
      6.825    11.8013     0.9409      8.693  40.042241     54.419      6.135   286.0374     0.9260    22.3346     0.0276      0.068      6.693      9.707        505 2.0712e-01 0.0000e+00
      6.845    11.8015     0.9447      8.728  40.011114     54.344      6.133   286.1132     0.9139    22.1869     0.0275      0.070      6.711      9.733        506 2.1951e-01 0.0000e+00
      6.857    11.8026     0.9505      8.783  39.999292     54.344      6.134   285.7724     0.9301    22.2944     0.0275      0.071      6.726      9.755        507 1.9624e-01 0.0000e+00
      6.874    11.8042     0.9464      8.745  40.027289     54.382      6.131   288.0817     0.9139    22.4823     0.0275      0.070      6.742      9.779        508 1.7816e-01 0.0000e+00
      6.894    11.8050     0.9515      8.792  40.005938     54.342      6.131   287.5517     0.9301    22.5629     0.0275      0.071      6.760      9.804        509 1.5536e-01 0.0000e+00
      6.910    11.8049     0.9495      8.773  39.996196     54.340      6.132   287.6275     0.9543    22.5226     0.0275      0.070      6.776      9.827        510 1.4527e-01 0.0000e+00
      6.925    11.8043     0.9442      8.723  39.950418     54.263      6.133   287.4003     0.9099    22.5495     0.0275      0.069      6.789      9.846        511 1.7720e-01 0.0000e+00
      6.933    11.8039     0.9375      8.662  39.944247     54.263      6.132   286.9460     1.0473    22.4018     0.0275      0.064      6.798      9.859        512 1.8289e-01 0.0000e+00
      6.938    11.8042     0.9346      8.635  39.974210     54.302      6.131   287.2489     1.0716    22.4286     0.0275      0.058      6.804      9.867        513 2.0854e-01 0.0000e+00
      6.942    11.8049     0.9307      8.598  40.002126     54.340      6.130   287.0596     1.0756    22.4823     0.0275      0.051      6.808      9.873        514 1.8402e-01 0.0000e+00
      6.946    11.8046     0.9329      8.619  39.998500     54.340      6.130   287.0974     1.0635    22.5898     0.0275      0.044      6.811      9.878        515 1.4803e-01 0.0000e+00
      6.948    11.8048     0.9372      8.658  40.008388     54.339      6.130   286.7567     0.9745    22.7106     0.0275      0.034      6.814      9.883        516 1.8217e-01 0.0000e+00
      6.951    11.8071     0.9359      8.647  39.989822     54.339      6.132   286.9839     0.9745    22.6301     0.0275      0.025      6.819      9.891        517 1.6947e-01 0.0000e+00
      6.962    11.8082     0.9354      8.642  39.962274     54.263      6.133   286.7567     0.9665    22.6703     0.0275      0.021      6.830      9.908        518 1.5112e-01 0.0000e+00
      6.984    11.8065     0.9393      8.677  40.042672     54.411      6.132   286.6810     0.9786    22.7106     0.0276      0.023      6.850      9.935        519 1.4750e-01 0.0000e+00
      7.009    11.8048     0.9380      8.665  40.008431     54.334      6.129   286.7567     0.9745    22.7240     0.0275      0.032      6.873      9.968        520 1.5079e-01 0.0000e+00
      7.031    11.8040     0.9349      8.637  40.004886     54.336      6.128   286.8703     0.9665    22.7509     0.0275      0.044      6.896     10.002        521 1.3619e-01 0.0000e+00
      7.056    11.8035     0.9323      8.612  40.047083     54.415      6.130   286.9460     0.9867    22.6569     0.0276      0.057      6.919     10.034        522 1.3654e-01 0.0000e+00
      7.077    11.8031     0.9296      8.588  40.015250     54.340      6.126   286.7946     0.9705    22.6972     0.0275      0.069      6.939     10.064        523 1.5369e-01 0.0000e+00
      7.094    11.8025     0.9215      8.513  40.014838     54.379      6.124   287.8167     0.9665    22.7509     0.0275      0.078      6.953     10.085        524 1.3975e-01 0.0000e+00
      7.100    11.8021     0.9174      8.475  40.017931     54.341      6.125   287.4382     1.0029    22.9658     0.0275      0.080      6.962     10.098        525 1.4311e-01 0.0000e+00
      7.104    11.8019     0.9114      8.420  40.041067     54.418      6.123   287.7789     0.9665    22.9792     0.0276      0.074      6.972     10.112        526 1.2994e-01 0.0000e+00
      7.125    11.8014     0.9047      8.358  40.015711     54.343      6.124   287.7410     0.9948    22.8852     0.0275      0.067      6.988     10.135        527 1.2285e-01 0.0000e+00
      7.147    11.8004     0.9027      8.339  39.990155     54.343      6.122   287.2489     0.9867    22.8315     0.0275      0.062      7.008     10.164        528 1.2744e-01 0.0000e+00
      7.163    11.7996     0.9053      8.363  39.983875     54.306      6.119   288.2710     0.9503    22.7375     0.0275      0.059      7.029     10.194        529 1.2464e-01 0.0000e+00
      7.193    11.7983     0.9068      8.377  39.993860     54.345      6.116   288.8010     0.9422    22.7375     0.0275      0.061      7.054     10.232        530 1.2629e-01 0.0000e+00
      7.224    11.7980     0.9076      8.385  40.007395     54.346      6.111   289.4067     0.9179    22.6301     0.0275      0.069      7.082     10.272        531 1.2527e-01 0.0000e+00
      7.248    11.7986     0.9056      8.366  39.996698     54.349      6.110   289.4446     0.9058    22.7375     0.0275      0.079      7.107     10.309        532 1.2574e-01 0.0000e+00
      7.273    11.7988     0.9146      8.449  40.007172     54.349      6.106   288.7253     0.9260    22.7778     0.0275      0.089      7.132     10.345        533 1.2544e-01 0.0000e+00
      7.299    11.7981     0.9175      8.477  40.024025     54.386      6.104   288.4603     0.9301    22.6703     0.0275      0.097      7.158     10.382        534 1.2581e-01 0.0000e+00
      7.327    11.7977     0.9214      8.513  40.005392     54.348      6.102   289.2553     0.9422    22.7778     0.0275      0.100      7.188     10.425        535 1.2560e-01 0.0000e+00
      7.365    11.7988     0.9215      8.514  40.000698     54.349      6.101   289.6717     0.9058    22.6703     0.0275      0.106      7.222     10.473        536 1.2561e-01 0.0000e+00
      7.398    11.8002     0.9186      8.486  40.000202     54.349      6.096   289.5960     0.9907    23.0060     0.0275      0.112      7.253     10.518        537 1.2568e-01 0.0000e+00
      7.421    11.8008     0.9210      8.508  40.006010     54.348      6.093   290.2017     0.9867    22.9658     0.0275      0.113      7.279     10.557        538 1.2569e-01 0.0000e+00
      7.449    11.8006     0.9219      8.516  40.052801     54.422      6.094   290.3910     0.9705    22.8852     0.0276      0.114      7.305     10.596        539 1.2563e-01 0.0000e+00
      7.478    11.7997     0.9144      8.447  40.030967     54.383      6.093   287.2489     1.0029    22.9389     0.0275      0.115      7.332     10.635        540 1.2572e-01 0.0000e+00
      7.503    11.7993     0.9157      8.459  40.003518     54.345      6.093   288.3846     0.9826    22.8583     0.0275      0.115      7.360     10.674        541 1.2567e-01 0.0000e+00
      7.535    11.7990     0.9079      8.386  39.997964     54.346      6.091   288.2710     0.9301    22.6569     0.0275      0.114      7.389     10.717        542 1.2561e-01 0.0000e+00
      7.567    11.7992     0.9090      8.396  40.008211     54.347      6.089   289.7475     0.9260    22.6838     0.0275      0.114      7.419     10.760        543 1.2547e-01 0.0000e+00
      7.594    11.8023     0.9057      8.366  40.050097     54.423      6.089   289.6717     0.9341    22.7106     0.0276      0.111      7.445     10.798        544 1.2554e-01 0.0000e+00
      7.613    11.8051     0.9079      8.387  40.064501     54.423      6.088   286.6810     0.9099    22.6703     0.0276      0.109      7.466     10.829        545 1.2569e-01 0.0000e+00
      7.633    11.8033     0.9027      8.338  40.049619     54.419      6.090   286.5674     0.9543    23.0597     0.0276      0.107      7.487     10.860        546 1.2555e-01 0.0000e+00
      7.660    11.7999     0.9090      8.397  40.009287     54.338      6.090   286.6810     0.9867    23.0866     0.0275      0.104      7.512     10.896        547 1.2560e-01 0.0000e+00
      7.688    11.7981     0.9055      8.364  39.996029     54.341      6.090   287.5517     1.0029    23.0866     0.0275      0.102      7.540     10.936        548 1.2569e-01 0.0000e+00
      7.719    11.7975     0.9072      8.380  40.006786     54.346      6.091   287.8925     1.0190    23.0463     0.0275      0.101      7.570     10.980        549 1.2568e-01 0.0000e+00
      7.752    11.7970     0.9059      8.368  40.055233     54.425      6.085   287.2489     0.9139    22.9120     0.0276      0.102      7.599     11.021        550 1.2565e-01 0.0000e+00
      7.775    11.7963     0.9078      8.385  40.054403     54.426      6.087   286.7567     0.9058    22.8315     0.0276      0.103      7.622     11.055        551 1.2564e-01 0.0000e+00
      7.790    11.7956     0.9015      8.328  40.007822     54.350      6.086   286.7946     0.9058    22.9792     0.0275      0.102      7.640     11.082        552 1.2573e-01 0.0000e+00
      7.809    11.7951     0.9027      8.339  39.994542     54.351      6.088   286.6810     0.9260    22.9389     0.0275      0.101      7.659     11.109        553 1.2566e-01 0.0000e+00
      7.831    11.7950     0.9024      8.336  40.011598     54.352      6.089   286.6810     0.9745    23.2612     0.0275      0.098      7.681     11.141        554 1.2560e-01 0.0000e+00
      7.858    11.7956     0.9025      8.337  40.045927     54.429      6.087   289.1417     0.9948    23.3149     0.0276      0.094      7.707     11.178        555 1.2556e-01 0.0000e+00
      7.889    11.7960     0.8987      8.302  40.011153     54.353      6.086   288.8389     0.9705    23.4089     0.0275      0.092      7.734     11.218        556 1.2557e-01 0.0000e+00
      7.912    11.7961     0.8932      8.251  39.995542     54.352      6.085   287.6275     0.9948    23.3149     0.0275      0.091      7.759     11.254        557 1.2576e-01 0.0000e+00
      7.935    11.7963     0.8961      8.278  40.006022     54.352      6.085   287.6653     0.9948    22.9120     0.0275      0.091      7.783     11.289        558 1.2560e-01 0.0000e+00
      7.963    11.7961     0.8892      8.215  39.998111     54.352      6.085   287.1353     0.9948    22.8180     0.0275      0.095      7.810     11.327        559 1.2553e-01 0.0000e+00
      7.992    11.7955     0.8923      8.243  40.005388     54.351      6.084   287.2489     0.9745    22.8852     0.0275      0.100      7.837     11.367        560 1.2567e-01 0.0000e+00
      8.018    11.7950     0.8983      8.299  40.026632     54.390      6.084   289.5960     1.0029    22.8852     0.0275      0.103      7.862     11.404        561 1.2558e-01 0.0000e+00
      8.041    11.7956     0.9012      8.325  40.060671     54.428      6.084   289.4067     0.9948    22.7240     0.0276      0.103      7.885     11.436        562 1.2563e-01 0.0000e+00
      8.063    11.7964     0.9046      8.356  40.052025     54.430      6.087   288.8389     0.9907    22.7509     0.0276      0.101      7.906     11.466        563 1.2559e-01 0.0000e+00
      8.082    11.7968     0.8974      8.290  40.007727     54.352      6.083   287.9682     0.9867    22.6838     0.0275      0.097      7.921     11.489        564 1.2563e-01 0.0000e+00
      8.086    11.7980     0.9062      8.371  39.997138     54.351      6.085   288.3089     0.9745    22.7778     0.0275      0.090      7.929     11.500        565 1.2567e-01 0.0000e+00
      8.087    11.7993     0.9098      8.404  40.035537     54.389      6.083   289.7096     0.9988    22.6972     0.0275      0.078      7.934     11.507        566 1.2565e-01 0.0000e+00
      8.097    11.8002     0.9026      8.338  40.048934     54.425      6.087   289.6717     1.0029    22.9389     0.0276      0.065      7.944     11.522        567 1.2559e-01 0.0000e+00
      8.119    11.8003     0.8954      8.271  40.010131     54.347      6.085   289.6717     0.9826    22.9255     0.0275      0.056      7.964     11.551        568 1.2557e-01 0.0000e+00
      8.147    11.7992     0.9033      8.345  39.994832     54.346      6.084   289.2932     0.9745    22.8046     0.0275      0.054      7.989     11.587        569 1.2562e-01 0.0000e+00
      8.171    11.7982     0.9034      8.345  40.008643     54.346      6.085   289.0660     0.9826    22.8852     0.0275      0.056      8.014     11.623        570 1.2555e-01 0.0000e+00
      8.198    11.7981     0.9077      8.386  40.052273     54.423      6.086   289.4825     0.9786    22.9523     0.0276      0.063      8.039     11.659        571 1.2556e-01 0.0000e+00
      8.225    11.7978     0.9043      8.354  39.999865     54.349      6.085   289.5203     0.9665    22.9658     0.0275      0.073      8.063     11.694        572 1.2554e-01 0.0000e+00
      8.243    11.7971     0.8972      8.288  39.955204     54.273      6.084   289.5582     0.9705    22.9255     0.0275      0.084      8.083     11.723        573 1.2563e-01 0.0000e+00
      8.260    11.7962     0.8909      8.230  40.048525     54.425      6.084   289.7475     0.9867    22.7912     0.0276      0.091      8.103     11.752        574 1.2570e-01 0.0000e+00
      8.286    11.7957     0.8978      8.294  40.002390     54.350      6.083   289.5582     0.9786    22.9255     0.0275      0.093      8.126     11.786        575 1.2565e-01 0.0000e+00
      8.313    11.7956     0.8959      8.276  40.012616     54.352      6.081   289.2553     1.0029    22.9792     0.0275      0.092      8.150     11.822        576 1.2570e-01 0.0000e+00
      8.335    11.7958     0.8916      8.236  40.035800     54.428      6.083   289.7096     0.9948    22.9523     0.0276      0.091      8.172     11.854        577 1.2564e-01 0.0000e+00
      8.354    11.7982     0.9000      8.314  39.973539     54.277      6.080   289.5960     0.9867    22.9926     0.0275      0.089      8.191     11.881        578 1.2550e-01 0.0000e+00
      8.370    11.8003     0.8937      8.256  40.030768     54.428      6.083   289.0282     0.9867    23.2612     0.0276      0.086      8.210     11.908        579 1.2565e-01 0.0000e+00
      8.394    11.7996     0.8968      8.284  40.023911     54.349      6.080   289.5203     0.9907    23.3149     0.0275      0.085      8.232     11.940        580 1.2567e-01 0.0000e+00
      8.420    11.7987     0.8992      8.307  40.041403     54.421      6.082   289.2175     0.9543    23.3283     0.0276      0.086      8.254     11.972        581 1.2559e-01 0.0000e+00
      8.437    11.7981     0.8994      8.308  40.038664     54.385      6.083   290.6182     0.9867    23.2880     0.0275      0.086      8.273     12.000        582 1.2565e-01 0.0000e+00
      8.453    11.7976     0.9051      8.361  39.997654     54.348      6.079   290.7317     0.9624    22.9389     0.0275      0.082      8.290     12.024        583 1.2570e-01 0.0000e+00
      8.470    11.7990     0.9107      8.412  40.062776     54.425      6.082   290.6560     0.9826    22.8180     0.0276      0.079      8.306     12.047        584 1.2571e-01 0.0000e+00
      8.486    11.7999     0.9010      8.322  40.046620     54.426      6.080   290.7696     0.9665    22.9389     0.0276      0.076      8.322     12.071        585 1.2558e-01 0.0000e+00
      8.504    11.7984     0.8989      8.303  40.017759     54.347      6.081   290.1260     0.9948    22.9523     0.0275      0.074      8.341     12.099        586 1.2564e-01 0.0000e+00
      8.530    11.7967     0.8992      8.305  40.039360     54.422      6.081   291.4889     0.9907    22.9120     0.0276      0.074      8.364     12.131        587 1.2569e-01 0.0000e+00
      8.552    11.7961     0.8989      8.303  40.019738     54.348      6.081   292.0946     1.0473    22.8718     0.0275      0.074      8.384     12.159        588 1.2566e-01 0.0000e+00
      8.564    11.7967     0.8963      8.278  40.042180     54.427      6.079   292.1325     1.0473    22.7106     0.0276      0.072      8.397     12.178        589 1.2562e-01 0.0000e+00
      8.571    11.7974     0.9004      8.316  40.011433     54.352      6.080   292.2082     1.0554    22.6838     0.0275      0.070      8.407     12.193        590 1.2546e-01 0.0000e+00
      8.584    11.7969     0.8938      8.255  39.998672     54.351      6.080   291.9810     1.0433    22.6301     0.0275      0.067      8.420     12.212        591 1.2548e-01 0.0000e+00
      8.603    11.7963     0.8917      8.235  40.028394     54.388      6.081   290.7696     1.0595    22.6838     0.0275      0.065      8.439     12.240        592 1.2565e-01 0.0000e+00
      8.631    11.7952     0.8913      8.232  40.004108     54.351      6.083   291.4889     1.0635    22.7778     0.0275      0.066      8.463     12.276        593 1.2554e-01 0.0000e+00
      8.658    11.7938     0.8917      8.235  39.999232     54.351      6.080   291.6403     1.0312    22.7240     0.0275      0.068      8.488     12.311        594 1.2554e-01 0.0000e+00
      8.678    11.7930     0.8871      8.193  40.004797     54.353      6.078   291.9810     1.0271    22.6301     0.0275      0.070      8.510     12.343        595 1.2573e-01 0.0000e+00
      8.699    11.7922     0.8838      8.163  39.997180     54.355      6.078   293.0032     1.0433    23.2612     0.0275      0.075      8.530     12.373        596 1.2568e-01 0.0000e+00
      8.720    11.7914     0.8785      8.113  40.008712     54.356      6.076   292.7382     1.0514    23.0732     0.0275      0.082      8.550     12.402        597 1.2569e-01 0.0000e+00
      8.738    11.7906     0.8811      8.138  40.020116     54.395      6.079   289.1039     1.0312    23.1806     0.0275      0.086      8.570     12.431        598 1.2560e-01 0.0000e+00
      8.761    11.7900     0.8815      8.142  40.012657     54.359      6.073   290.2775     1.0473    23.0866     0.0275      0.087      8.593     12.464        599 1.2568e-01 0.0000e+00
      8.790    11.7896     0.8828      8.153  40.047659     54.436      6.075   290.0882     1.0433    23.0463     0.0276      0.088      8.620     12.503        600 1.2578e-01 0.0000e+00
      8.820    11.7896     0.8810      8.137  40.006220     54.361      6.075   291.8296     1.0676    23.1940     0.0275      0.089      8.649     12.544        601 1.2564e-01 0.0000e+00
      8.847    11.7894     0.8799      8.127  40.004896     54.361      6.072   291.8675     1.0676    23.1403     0.0275      0.092      8.677     12.585        602 1.2556e-01 0.0000e+00
      8.880    11.7890     0.8862      8.185  40.108639     54.513      6.075   289.1039     1.0716    23.1135     0.0276      0.098      8.707     12.628        603 1.2571e-01 0.0000e+00
      8.909    11.7888     0.8823      8.149  40.055108     54.438      6.073   289.4825     0.9665    23.3149     0.0276      0.104      8.736     12.670        604 1.2579e-01 0.0000e+00
      8.935    11.7887     0.8875      8.198  40.012184     54.362      6.070   289.4825     0.9745    23.2880     0.0275      0.109      8.763     12.709        605 1.2557e-01 0.0000e+00
      8.964    11.7889     0.8856      8.180  40.043397     54.438      6.068   290.6182     0.9988    23.3820     0.0276      0.113      8.789     12.747        606 1.2563e-01 0.0000e+00
      8.987    11.7889     0.8879      8.201  40.016266     54.363      6.069   290.4289     1.0029    23.3552     0.0275      0.112      8.811     12.780        607 1.2568e-01 0.0000e+00
      9.005    11.7887     0.8957      8.274  40.045948     54.438      6.067   290.6560     0.9907    23.2612     0.0276      0.108      8.831     12.808        608 1.2566e-01 0.0000e+00
      9.022    11.7889     0.8900      8.222  40.065790     54.438      6.072   289.8232     1.0271    23.1000     0.0276      0.102      8.847     12.832        609 1.2558e-01 0.0000e+00
      9.037    11.7893     0.8846      8.172  40.050905     54.439      6.070   289.2553     1.0473    23.1135     0.0276      0.094      8.863     12.855        610 1.2557e-01 0.0000e+00
      9.054    11.7895     0.8846      8.174  40.064471     54.438      6.070   289.5960     1.0756    23.0597     0.0276      0.085      8.882     12.883        611 1.2567e-01 0.0000e+00
      9.082    11.7898     0.8825      8.156  40.048907     54.438      6.070   290.0125     1.0514    23.1672     0.0276      0.081      8.907     12.918        612 1.2564e-01 0.0000e+00
      9.111    11.7906     0.8809      8.141  40.010945     54.361      6.068   290.2017     1.0271    22.9389     0.0275      0.080      8.931     12.953        613 1.2554e-01 0.0000e+00
      9.127    11.7918     0.8825      8.155  40.022718     54.399      6.068   291.4889     1.0312    22.9523     0.0275      0.079      8.946     12.976        614 1.2562e-01 0.0000e+00
      9.132    11.7930     0.8830      8.160  40.004588     54.360      6.069   290.6939     1.0392    22.8583     0.0275      0.076      8.953     12.986        615 1.2569e-01 0.0000e+00
      9.133    11.7941     0.8805      8.135  40.003840     54.358      6.067   290.5803     1.0473    22.8852     0.0275      0.070      8.957     12.991        616 1.2556e-01 0.0000e+00
      9.137    11.7947     0.8808      8.136  40.053314     54.432      6.070   290.2396     1.0190    22.9792     0.0276      0.062      8.960     12.995        617 1.2558e-01 0.0000e+00
      9.139    11.7950     0.8802      8.131  40.061682     54.431      6.070   290.0882     0.9907    22.9389     0.0276      0.051      8.962     12.998        618 1.2556e-01 0.0000e+00
      9.140    11.7968     0.8865      8.188  40.023093     54.392      6.071   290.9967     1.0109    22.8852     0.0275      0.037      8.965     13.002        619 1.2566e-01 0.0000e+00
      9.146    11.8004     0.8840      8.165  40.012341     54.353      6.070   290.5425     0.9948    22.8315     0.0275      0.024      8.970     13.010        620 1.2567e-01 0.0000e+00
      9.154    11.8092     0.8859      8.182  40.045395     54.427      6.074   290.4289     1.0190    22.9120     0.0276      0.016      8.980     13.024        621 1.2555e-01 0.0000e+00
      9.170    11.8164     0.8854      8.177  40.070951     54.421      6.073   290.4667     0.9948    22.9926     0.0276      0.018      8.995     13.046        622 1.2560e-01 0.0000e+00
      9.194    11.8149     0.8824      8.150  40.099197     54.485      6.071   290.6560     0.9745    22.8852     0.0276      0.026      9.014     13.073        623 1.2554e-01 0.0000e+00
      9.208    11.8158     0.8876      8.197  40.069571     54.397      6.073   290.0882     0.9786    22.8046     0.0276      0.036      9.029     13.096        624 1.2564e-01 0.0000e+00
      9.220    11.8134     0.8833      8.158  40.048486     54.401      6.072   289.4825     1.0554    23.3417     0.0276      0.044      9.043     13.116        625 1.2573e-01 0.0000e+00
      9.238    11.8041     0.8771      8.100  40.066106     54.398      6.074   289.3689     1.0837    23.3417     0.0276      0.052      9.059     13.138        626 1.2555e-01 0.0000e+00
      9.253    11.7973     0.8800      8.127  40.047645     54.402      6.071   289.1417     1.0352    23.2343     0.0276      0.059      9.075     13.162        627 1.2555e-01 0.0000e+00
      9.270    11.7935     0.8800      8.128  40.012133     54.340      6.071   288.7632     1.0352    23.2477     0.0275      0.062      9.094     13.190        628 1.2562e-01 0.0000e+00
      9.298    11.7914     0.8767      8.097  40.050973     54.426      6.073   289.3689     1.0352    23.2612     0.0276      0.067      9.118     13.225        629 1.2557e-01 0.0000e+00
      9.326    11.7896     0.8813      8.141  40.058643     54.431      6.070   288.6117     1.1201    23.1537     0.0276      0.072      9.146     13.265        630 1.2562e-01 0.0000e+00
      9.355    11.7886     0.8817      8.145  40.002590     54.359      6.072   287.6653     1.1323    23.1940     0.0275      0.078      9.172     13.303        631 1.2570e-01 0.0000e+00
      9.377    11.7883     0.8826      8.155  40.061401     54.437      6.068   287.7032     1.1484    23.1672     0.0276      0.085      9.192     13.333        632 1.2573e-01 0.0000e+00
      9.388    11.7883     0.8781      8.115  40.044787     54.439      6.067   287.0596     1.1080    23.0866     0.0276      0.088      9.206     13.353        633 1.2575e-01 0.0000e+00
      9.399    11.7881     0.8644      7.990  40.023266     54.363      6.068   286.5674     1.1767    22.9389     0.0275      0.086      9.220     13.374        634 1.2566e-01 0.0000e+00
      9.422    11.7877     0.8498      7.855  40.028851     54.439      6.065   288.8767     1.1686    22.9120     0.0276      0.084      9.238     13.400        635 1.2557e-01 0.0000e+00
      9.441    11.7876     0.8147      7.531  40.156498     54.516      6.066   288.0439     1.1929    22.9389     0.0276      0.081      9.253     13.421        636 1.2562e-01 0.0000e+00
      9.444    11.7877     0.7841      7.248  40.161069     54.668      6.064   288.1953     1.1929    22.9658     0.0277      0.071      9.260     13.431        637 1.2563e-01 0.0000e+00
      9.444    11.7877     0.7371      6.814  40.201159     54.516      6.065   286.6810     0.9705    23.0463     0.0276      0.059      9.262     13.434        638 1.2569e-01 0.0000e+00
      9.446    11.7892     0.6960      6.434  40.047275     54.592      6.065   286.2646     0.9907    23.0597     0.0276      0.047      9.268     13.443        639 1.2564e-01 0.0000e+00
      9.463    11.7935     0.6623      6.122  40.471238     54.744      6.066   290.0125     0.9665    23.0597     0.0277      0.041      9.284     13.466        640 1.2553e-01 0.0000e+00
      9.495    11.7987     0.6419      5.934  42.699644     58.238      6.064   289.3310     1.0190    23.1000     0.0292      0.044      9.307     13.500        641 1.2554e-01 0.0000e+00
      9.514    11.8062     0.6203      5.734  46.709012     63.170      6.061   289.1796     0.9584    23.1135     0.0314      0.047      9.325     13.525        642 1.2566e-01 0.0000e+00
      9.518    11.8164     0.6134      5.671  52.663197     71.788      6.057   287.2110     0.9624    23.1000     0.0352      0.047      9.333     13.536        643 1.2578e-01 0.0000e+00
      9.519    11.8227     0.6209      5.741  55.620091     75.612      6.062   286.8324     0.9867    23.1000     0.0369      0.047      9.335     13.539        644 1.2569e-01 0.0000e+00
      9.519    11.8238     0.6243      5.773  55.881915     75.742      6.059   288.4603     0.9786    23.0329     0.0370      0.047      9.335     13.540        645 1.2562e-01 0.0000e+00
      9.520    11.8242     0.6355      5.877  56.137287     76.451      6.060   289.1039     1.0473    22.9523     0.0373      0.043      9.336     13.540        646 1.2564e-01 0.0000e+00
      9.520    11.8254     0.6405      5.922  55.153862     74.664      6.061   288.3846     1.0635    22.9926     0.0365      0.034      9.336     13.541        647 1.2563e-01 0.0000e+00
      9.521    11.8262     0.6327      5.851  55.146331     75.005      6.064   288.6496     1.0352    22.9389     0.0367      0.021      9.337     13.544        648 1.2544e-01 0.0000e+00
      9.524    11.8251     0.6292      5.819  55.137238     74.812      6.067   285.9996     1.0716    22.8449     0.0366      0.009      9.340     13.548        649 1.2541e-01 0.0000e+00
      9.529    11.8235     0.6234      5.765  53.265247     72.418      6.065   287.2867     1.0595    22.7912     0.0355      0.005      9.344     13.553        650 1.2559e-01 0.0000e+00
      9.532    11.8241     0.6120      5.660  55.219809     74.509      6.066   288.1196     1.0473    23.0732     0.0365      0.006      9.348     13.558        651 1.2575e-01 0.0000e+00
      9.535    11.8268     0.6001      5.550  58.702098     80.401      6.067   288.1196     1.0554    23.1135     0.0391      0.008      9.350     13.561        652 1.2568e-01 0.0000e+00
      9.536    11.8300     0.6000      5.549  59.857497     80.513      6.068   283.7282     1.0635    23.1000     0.0391      0.009      9.352     13.563        653 1.2545e-01 0.0000e+00
      9.537    11.8333     0.6006      5.554  61.769311     84.611      6.069   285.3939     1.0514    23.0866     0.0410      0.010      9.353     13.566        654 1.2546e-01 0.0000e+00
      9.540    11.8364     0.6023      5.570  62.262052     83.881      6.069   285.3560     0.9745    22.9120     0.0407      0.010      9.356     13.570        655 1.2566e-01 0.0000e+00
      9.545    11.8365     0.6074      5.617  65.391890     89.079      6.071   286.9839     0.9907    22.9255     0.0430      0.011      9.360     13.576        656 1.2563e-01 0.0000e+00
      9.549    11.8345     0.6173      5.708  67.646058     91.883      6.073   282.8574     0.9867    22.9120     0.0443      0.011      9.364     13.582        657 1.2549e-01 0.0000e+00
      9.552    11.8352     0.6317      5.842  65.129814     88.311      6.074   282.8574     1.0069    22.8449     0.0427      0.011      9.368     13.587        658 1.2566e-01 0.0000e+00
      9.555    11.8395     0.6474      5.988  63.176791     85.809      6.072   284.0689     0.9382    22.8718     0.0415      0.012      9.370     13.591        659 1.2567e-01 0.0000e+00
      9.557    11.8437     0.6571      6.078  61.967997     84.022      6.072   283.1603     0.9382    22.9255     0.0407      0.012      9.372     13.593        660 1.2557e-01 0.0000e+00
      9.559    11.8450     0.6610      6.114  62.208877     84.429      6.073   282.5924     0.9260    22.9120     0.0409      0.012      9.374     13.595        661 1.2562e-01 0.0000e+00
      9.559    11.8441     0.6747      6.240  63.025496     85.559      6.076   282.9710     0.9139    22.8449     0.0414      0.011      9.374     13.596        662 1.2554e-01 0.0000e+00
      9.560    11.8446     0.6874      6.358  59.080980     80.467      6.077   282.8574     0.9867    22.8718     0.0391      0.010      9.375     13.597        663 1.2553e-01 0.0000e+00
      9.560    11.8451     0.7055      6.525  55.329220     74.433      6.076   285.5074     0.9826    22.8718     0.0364      0.007      9.375     13.597        664 1.2560e-01 0.0000e+00
      9.559    11.8436     0.7162      6.624  57.272170     78.266      6.074   284.6367     0.9867    22.8986     0.0381      0.005      9.374     13.596        665 1.2562e-01 0.0000e+00
      9.558    11.8418     0.7256      6.711  58.206695     78.607      6.077   285.2424     0.9826    22.8180     0.0383      0.003      9.374     13.595        666 1.2567e-01 0.0000e+00
      9.559    11.8428     0.7309      6.761  60.668691     82.407      6.078   283.5767     0.9341    23.0866     0.0400      0.001      9.374     13.595        667 1.2563e-01 0.0000e+00
      9.559    11.8480     0.7406      6.851  59.167071     80.816      6.079   288.1196     0.9139    23.0597     0.0393      0.000      9.374     13.596        668 1.2565e-01 0.0000e+00
      9.559    11.8514     0.7411      6.856  51.792426     69.614      6.080   286.6810     0.9301    23.0866     0.0343     -0.000      9.374     13.596        669 1.2562e-01 0.0000e+00
      9.560    11.8505     0.7432      6.875  50.459775     68.807      6.079   287.2110     0.9422    23.1672     0.0339     -0.000      9.375     13.597        670 1.2558e-01 0.0000e+00
      9.560    11.8495     0.7423      6.867  52.275319     70.660      6.080   285.7346     1.0271    23.1269     0.0348     -0.000      9.375     13.597        671 1.2552e-01 0.0000e+00
      9.560    11.8485     0.7472      6.912  53.154347     72.370      6.079   286.2646     1.0312    23.1000     0.0355      0.000      9.375     13.597        672 1.2570e-01 0.0000e+00
      9.560    11.8486     0.7540      6.976  54.976153     74.270      6.080   288.4225     1.0676    23.0732     0.0364      0.001      9.375     13.597        673 1.2586e-01 0.0000e+00
      9.560    11.8487     0.7640      7.069  56.925144     77.612      6.079   288.5739     1.0554    23.1135     0.0379      0.001      9.375     13.597        674 1.2558e-01 0.0000e+00
      9.560    11.8480     0.7711      7.134  55.924253     75.676      6.082   288.5360     1.0231    23.0463     0.0370      0.001      9.375     13.598        675 1.2555e-01 0.0000e+00
      9.561    11.8490     0.7745      7.165  53.846659     73.170      6.079   287.2489     1.0878    23.1000     0.0359      0.001      9.376     13.599        676 1.2560e-01 0.0000e+00
      9.562    11.8525     0.7864      7.276  52.118585     70.667      6.078   288.1953     1.0999    23.0597     0.0348      0.001      9.377     13.601        677 1.2567e-01 0.0000e+00
      9.564    11.8563     0.7945      7.350  49.228957     66.870      6.082   288.5360     1.1120    23.0329     0.0331      0.002      9.379     13.603        678 1.2571e-01 0.0000e+00
      9.566    11.8566     0.8072      7.467  49.606681     66.940      6.083   288.7632     1.1323    23.0463     0.0331      0.003      9.380     13.605        679 1.2548e-01 0.0000e+00
      9.565    11.8561     0.8117      7.510  52.717124     71.941      6.080   288.9146     1.0029    22.8718     0.0353      0.003      9.380     13.605        680 1.2548e-01 0.0000e+00
      9.566    11.8567     0.8214      7.601  52.303568     70.726      6.082   286.4539     0.9584    22.8583     0.0348      0.003      9.380     13.605        681 1.2559e-01 0.0000e+00
      9.565    11.8585     0.8278      7.660  49.676009     67.578      6.083   287.6275     0.9745    22.9389     0.0334      0.003      9.380     13.605        682 1.2570e-01 0.0000e+00
      9.566    11.8632     0.8354      7.730  47.587389     64.352      6.082   287.7032     0.9786    22.9120     0.0320      0.003      9.380     13.605        683 1.2565e-01 0.0000e+00
      9.565    11.8651     0.8468      7.836  46.117902     62.718      6.080   289.0282     1.1161    23.1135     0.0312      0.002      9.380     13.605        684 1.2559e-01 0.0000e+00
      9.565    11.8634     0.8512      7.876  45.421101     61.420      6.081   288.7632     1.1120    23.0866     0.0307      0.001      9.380     13.605        685 1.2576e-01 0.0000e+00
      9.566    11.8628     0.8557      7.918  45.249686     61.530      6.083   285.6210     1.1080    23.0732     0.0307      0.001      9.381     13.606        686 1.2567e-01 0.0000e+00
      9.567    11.8624     0.8638      7.994  44.966233     60.851      6.082   285.9617     1.1242    23.0195     0.0304      0.001      9.382     13.608        687 1.2555e-01 0.0000e+00
      9.569    11.8605     0.8607      7.965  44.913335     61.003      6.083   285.7724     1.0352    22.8449     0.0305      0.001      9.384     13.610        688 1.2556e-01 0.0000e+00
      9.569    11.8606     0.8630      7.984  44.069277     59.790      6.082   287.4003     1.0473    22.8852     0.0299      0.002      9.384     13.610        689 1.2566e-01 0.0000e+00
      9.569    11.8649     0.8679      8.029  42.812137     57.973      6.084   287.3624     1.0635    22.8852     0.0291      0.002      9.385     13.611        690 1.2566e-01 0.0000e+00
      9.571    11.8705     0.8604      7.959  42.887633     58.239      6.081   285.7724     1.0271    22.9523     0.0293      0.003      9.386     13.613        691 1.2556e-01 0.0000e+00
      9.571    11.8725     0.8695      8.043  43.055524     58.345      6.082   285.6589     1.1323    22.8852     0.0293      0.003      9.386     13.613        692 1.2558e-01 0.0000e+00
      9.571    11.8708     0.8671      8.022  43.315276     58.754      6.085   285.6210     1.1080    22.7912     0.0295      0.003      9.386     13.613        693 1.2573e-01 0.0000e+00
      9.571    11.8676     0.8704      8.053  43.365466     58.826      6.083   285.8482     1.0999    22.8583     0.0295      0.003      9.386     13.613        694 1.2575e-01 0.0000e+00
      9.572    11.8662     0.8715      8.062  42.993063     58.260      6.084   286.7189     1.1403    22.9255     0.0293      0.002      9.387     13.614        695 1.2565e-01 0.0000e+00
      9.573    11.8696     0.8750      8.094  42.740275     58.000      6.081   286.4160     1.1686    22.9389     0.0292      0.002      9.388     13.616        696 1.2567e-01 0.0000e+00
      9.574    11.8731     0.8747      8.090  42.344921     57.396      6.083   285.6589     1.1767    22.9389     0.0289      0.002      9.389     13.617        697 1.2563e-01 0.0000e+00
      9.574    11.8716     0.8741      8.085  41.942277     56.897      6.085   285.9617     1.1606    22.8986     0.0287      0.002      9.389     13.617        698 1.2561e-01 0.0000e+00
      9.574    11.8654     0.8758      8.101  41.995263     56.892      6.084   285.3939     1.1848    22.9658     0.0287      0.002      9.389     13.617        699 1.2564e-01 0.0000e+00
      9.574    11.8604     0.8723      8.069  42.278980     57.387      6.082   285.5832     1.1727    22.8315     0.0289      0.002      9.389     13.617        700 1.2563e-01 0.0000e+00
      9.574    11.8581     0.8773      8.116  41.974891     56.904      6.083   287.8167     1.2293    22.9792     0.0287      0.002      9.389     13.617        701 1.2564e-01 0.0000e+00
      9.574    11.8586     0.8746      8.092  41.809997     56.684      6.083   287.1353     1.2374    22.9523     0.0286      0.001      9.389     13.617        702 1.2558e-01 0.0000e+00
      9.574    11.8646     0.8754      8.099  41.801816     56.763      6.085   286.4917     1.2455    22.8718     0.0286      0.001      9.389     13.618        703 1.2562e-01 0.0000e+00
      9.574    11.8668     0.8725      8.072  41.362048     56.042      6.085   285.5832     1.2495    22.8583     0.0283      0.000      9.389     13.618        704 1.2561e-01 0.0000e+00
      9.575    11.8608     0.8702      8.050  41.407907     56.184      6.085   285.7724     1.2455    23.1403     0.0284      0.000      9.389     13.618        705 1.2550e-01 0.0000e+00
      9.574    11.8542     0.8677      8.027  41.537065     56.332      6.082   288.4603     1.2374    23.0597     0.0284      0.000      9.389     13.618        706 1.2557e-01 0.0000e+00
      9.575    11.8520     0.8655      8.007  41.943008     56.835      6.084   288.7253     1.2536    23.0463     0.0286      0.000      9.389     13.618        707 1.2560e-01 0.0000e+00
      9.574    11.8519     0.8677      8.027  43.187217     58.628      6.086   288.6117     1.2576    23.0329     0.0294      0.000      9.389     13.618        708 1.2557e-01 0.0000e+00
      9.575    11.8508     0.8704      8.052  43.163269     58.632      6.084   287.5517     1.3142    23.1269     0.0294      0.000      9.389     13.618        709 1.2559e-01 0.0000e+00
      9.575    11.8525 -9.990e-29 -9.990e-29  42.477179     57.493      6.086   287.4760     1.2980    23.1806     0.0289      0.000      9.389     13.618        710 1.2555e-01 0.0000e+00
      9.575    11.8589 -9.990e-29 -9.990e-29  42.379543     57.647      6.086   289.4446     1.2819    23.0866     0.0290      0.000      9.390     13.619        711 1.2542e-01 0.0000e+00
      9.575    11.8642 -9.990e-29 -9.990e-29  41.741982     56.507      6.084   289.8232     1.3142    23.0866     0.0285      0.000      9.390     13.619        712 1.2549e-01 0.0000e+00
      9.575    11.8627 -9.990e-29 -9.990e-29  41.312498     56.117      6.085   289.8232     1.2374    22.8046     0.0283      0.000      9.390     13.619        713 1.2573e-01 0.0000e+00
      9.575    11.8593 -9.990e-29 -9.990e-29  41.222945     55.843      6.087   289.5203     1.2212    22.8852     0.0282      0.000      9.390     13.619        714 1.2567e-01 0.0000e+00
      9.575    11.8589 -9.990e-29 -9.990e-29  41.289743     56.036      6.086   289.6717     1.2374    22.9120     0.0283      0.000      9.390     13.619        715 1.2567e-01 0.0000e+00
      9.576    11.8591 -9.990e-29 -9.990e-29  41.318370     56.041      6.086   288.4603     1.2091    22.9389     0.0283      0.000      9.390     13.619        716 1.2572e-01 0.0000e+00
      9.575    11.8600 -9.990e-29 -9.990e-29  41.009316     55.624      6.086   289.8232     1.1929    22.6301     0.0281      0.000      9.390     13.619        717 1.2569e-01 0.0000e+00
      9.575    11.8596 -9.990e-29 -9.990e-29  40.843676     55.397      6.086   289.5960     1.1646    22.5763     0.0280      0.000      9.390     13.619        718 1.2560e-01 0.0000e+00
      9.575    11.8581 -9.990e-29 -9.990e-29  40.693832     55.205      6.085   289.6717     1.1848    22.6972     0.0279      0.000      9.390     13.619        719 1.2549e-01 0.0000e+00
      9.575 -9.990e-29 -9.990e-29 -9.990e-29  40.661792     55.130      6.084   289.7096     1.1686    22.6166     0.0279      0.000      9.390     13.619        720 1.2559e-01 0.0000e+00
      9.576 -9.990e-29 -9.990e-29 -9.990e-29  40.735215     55.285      6.085   289.8989     1.1565    22.6301     0.0280      0.000      9.390     13.619        721 1.2566e-01 0.0000e+00
