* Sea-Bird SBE19plus  Data File:
* FileName = C:\R\Reservoirs\Data\DataNotYetUploadedToEDI\Raw_CTD\RawDownloads\081424_ccr50_S8188_0006.hex
* Software version 2.8.0.119
* Temperature SN = 8188
* Conductivity SN = 8188
* System UpLoad Time = Aug 16 2024 10:38:08
* <ApplicationData>
* <Seaterm232>
* <SoftwareVersion>2.8.0.119</SoftwareVersion>
* <BuildDate>07-Nov-2018</BuildDate>
* </Seaterm232>
* </ApplicationData>
* <InstrumentState>
* <HardwareData DeviceType='SBE19plus' SerialNumber='01908188'>
*
*    <Manufacturer>Sea-Bird Electronics, Inc.</Manufacturer>
*
*    <FirmwareVersion>3.1.8</FirmwareVersion>
*
*    <FirmwareDate>Mar  9 2016 16:22:29</FirmwareDate>
*
*    <CommandSetVersion>1.4</CommandSetVersion>
*
*    <PCBAssembly PCBSerialNum='260079' AssemblyNum='41054K'/>
*
*    <PCBAssembly PCBSerialNum='260083' AssemblyNum='41059E'/>
*
*    <PCBAssembly PCBSerialNum='260085' AssemblyNum='41606B'/>
*
*    <PCBAssembly PCBSerialNum='260081' AssemblyNum='41967C'/>
*
*    <MfgDate>30 Mar 2022</MfgDate>
*
*    <InternalSensors>
*
*       <Sensor id='Main Temperature'>
*
*          <type>temperature0</type>
*
*          <SerialNumber>01908188</SerialNumber>
*
*       </Sensor>
*
*       <Sensor id='Main Conductivity'>
*
*          <type>conductivity-0</type>
*
*          <SerialNumber>01908188</SerialNumber>
*
*       </Sensor>
*
*       <Sensor id='Main Pressure'>
*
*          <type>strain-0</type>
*
*          <SerialNumber>12220741</SerialNumber>
*
*       </Sensor>
*
*    </InternalSensors>
*
*    <ExternalSensors>
*
*       <Sensor id='volt 0'>
*
*          <type>CHL</type>
*
*          <SerialNumber>FLNTURT-7096</SerialNumber>
*
*       </Sensor>
*
*       <Sensor id='volt 1'>
*
*          <type>NTU</type>
*
*          <SerialNumber>FLNTURT-7096</SerialNumber>
*
*       </Sensor>
*
*       <Sensor id='volt 2'>
*
*          <type>OXY</type>
*
*          <SerialNumber>43-4269</SerialNumber>
*
*       </Sensor>
*
*       <Sensor id='volt 3'>
*
*          <type>not assigned</type>
*
*          <SerialNumber>not assigned</SerialNumber>
*
*       </Sensor>
*
*       <Sensor id='volt 4'>
*
*          <type>PAR</type>
*
*          <SerialNumber>PARLOGICSW-2209</SerialNumber>
*
*       </Sensor>
*
*       <Sensor id='volt 5'>
*
*          <type>not assigned</type>
*
*          <SerialNumber>not assigned</SerialNumber>
*
*       </Sensor>
*
*       <Sensor id='serial'>
*
*          <type>WETLABS</type>
*
*          <SerialNumber>FL3-7350</SerialNumber>
*
*       </Sensor>
*
*    </ExternalSensors>
*
* </HardwareData>
* <StatusData DeviceType='SBE19plus' SerialNumber='01908188'>
*
*    <DateTime>2024-08-16T10:35:18</DateTime>
*
*    <LoggingState>not logging</LoggingState>
*
*    <EventSummary numEvents='0'/>
*
*    <Power>
*
*       <vMain>12.4</vMain>
*
*       <vLith>8.6</vLith>
*
*       <iMain>61.7</iMain>
*
*       <iPump>49.8</iPump>
*
*       <iExt01>21.9</iExt01>
*
*       <iExt2345>21.1</iExt2345>
*
*       <iSerial>55.5</iSerial>
*
*    </Power>
*
*    <MemorySummary>
*
*       <Bytes>279875</Bytes>
*
*       <Samples>11195</Samples>
*
*       <SamplesFree>2620730</SamplesFree>
*
*       <SampleLength>25</SampleLength>
*
*       <Profiles>7</Profiles>
*
*    </MemorySummary>
*
* </StatusData>
* <ConfigurationData DeviceType='SBE19plus' SerialNumber='01908188'>
*
*    <ProfileMode>
*
*       <ScansToAverage>1</ScansToAverage>
*
*       <MinimumCondFreq>2</MinimumCondFreq>
*
*       <PumpDelay>90</PumpDelay>
*
*       <AutoRun>no</AutoRun>
*
*       <IgnoreSwitch>no</IgnoreSwitch>
*
*    </ProfileMode>
*
*    <Battery>
*
*       <Type>alkaline</Type>
*
*       <CutOff>7.5</CutOff>
*
*    </Battery>
*
*    <DataChannels>
*
*       <ExtVolt0>yes</ExtVolt0>
*
*       <ExtVolt1>yes</ExtVolt1>
*
*       <ExtVolt2>yes</ExtVolt2>
*
*       <ExtVolt3>no</ExtVolt3>
*
*       <ExtVolt4>yes</ExtVolt4>
*
*       <ExtVolt5>no</ExtVolt5>
*
*       <SBE38>no</SBE38>
*
*       <WETLABS>yes</WETLABS>
*
*       <OPTODE>no</OPTODE>
*
*       <SBE63>no</SBE63>
*
*       <SeaFET>no</SeaFET>
*
*       <GTD>no</GTD>
*
*    </DataChannels>
*
*    <EchoCharacters>yes</EchoCharacters>
*
*    <OutputExecutedTag>yes</OutputExecutedTag>
*
*    <OutputFormat>raw HEX</OutputFormat>
*
* </ConfigurationData>
* <CalibrationCoefficients DeviceType='SBE19plus' SerialNumber='01908188'>
*
*    <Calibration format='TEMP1' id='Main Temperature'>
*
*       <SerialNum>01908188</SerialNum>
*
*       <CalDate>07-May-24</CalDate>
*
*       <TA0>1.249325e-03</TA0>
*
*       <TA1>2.751683e-04</TA1>
*
*       <TA2>-1.314205e-06</TA2>
*
*       <TA3>1.914222e-07</TA3>
*
*       <TOFFSET>0.000000e+00</TOFFSET>
*
*    </Calibration>
*
*    <Calibration format='WBCOND0' id='Main Conductivity'>
*
*       <SerialNum>01908188</SerialNum>
*
*       <CalDate>07-May-24</CalDate>
*
*       <G>-1.014855e+00</G>
*
*       <H>1.444624e-01</H>
*
*       <I>-3.430060e-04</I>
*
*       <J>4.842261e-05</J>
*
*       <CPCOR>-9.570000e-08</CPCOR>
*
*       <CTCOR>3.250000e-06</CTCOR>
*
*       <CSLOPE>1.000000e+00</CSLOPE>
*
*    </Calibration>
*
*    <Calibration format='STRAIN0' id='Main Pressure'>
*
*       <SerialNum>12220741</SerialNum>
*
*       <CalDate>03-Apr-24</CalDate>
*
*       <PA0>7.209200e-02</PA0>
*
*       <PA1>4.836684e-04</PA1>
*
*       <PA2>-3.501227e-12</PA2>
*
*       <PTCA0>5.244614e+05</PTCA0>
*
*       <PTCA1>2.020364e+01</PTCA1>
*
*       <PTCA2>-6.074616e-01</PTCA2>
*
*       <PTCB0>2.522087e+01</PTCB0>
*
*       <PTCB1>5.750000e-04</PTCB1>
*
*       <PTCB2>0.000000e+00</PTCB2>
*
*       <PTEMPA0>-5.770713e+01</PTEMPA0>
*
*       <PTEMPA1>5.343973e+01</PTEMPA1>
*
*       <PTEMPA2>-5.775530e-01</PTEMPA2>
*
*       <POFFSET>7.020000e-01</POFFSET>
*
*       <PRANGE>1.600000e+02</PRANGE>
*
*    </Calibration>
*
*    <Calibration format='VOLT0' id='Volt 0'>
*
*       <OFFSET>-4.657200e-02</OFFSET>
*
*       <SLOPE>1.248989e+00</SLOPE>
*
*    </Calibration>
*
*    <Calibration format='VOLT0' id='Volt 1'>
*
*       <OFFSET>-4.600800e-02</OFFSET>
*
*       <SLOPE>1.249849e+00</SLOPE>
*
*    </Calibration>
*
*    <Calibration format='VOLT0' id='Volt 2'>
*
*       <OFFSET>-4.668000e-02</OFFSET>
*
*       <SLOPE>1.250379e+00</SLOPE>
*
*    </Calibration>
*
*    <Calibration format='VOLT0' id='Volt 3'>
*
*       <OFFSET>-4.643200e-02</OFFSET>
*
*       <SLOPE>1.251002e+00</SLOPE>
*
*    </Calibration>
*
*    <Calibration format='VOLT0' id='Volt 4'>
*
*       <OFFSET>-4.606100e-02</OFFSET>
*
*       <SLOPE>1.249962e+00</SLOPE>
*
*    </Calibration>
*
*    <Calibration format='VOLT0' id='Volt 5'>
*
*       <OFFSET>-4.642700e-02</OFFSET>
*
*       <SLOPE>1.248530e+00</SLOPE>
*
*    </Calibration>
*
*    <Calibration format='FREQ0' id='external frequency channel'>
*
*       <EXTFREQSF>1.000018e+00</EXTFREQSF>
*
*    </Calibration>
*
* </CalibrationCoefficients>
* <EventCounters DeviceType='SBE19plus' SerialNumber='01908188'>
*
*    <EventSummary numEvents='0'/>
*
* </EventCounters></InstrumentState>
* <Headers>
*
* cast   6 15 Aug 2024 15:50:35 samples 9378 to 10153, avg = 1, stop = mag switch
*
# nquan = 13
# nvalues = 776                         
# units = specified
# name 0 = depFM: Depth [fresh water, m]
# name 1 = dz/dtM: Descent Rate [m/s]
# name 2 = sbeox0Mg/L: Oxygen, SBE 43 [mg/l]
# name 3 = sbeox0PS: Oxygen, SBE 43 [% saturation]
# name 4 = specc: Specific Conductance [uS/cm]
# name 5 = c0uS/cm: Conductivity [uS/cm]
# name 6 = flECO-AFL: Fluorescence, WET Labs ECO-AFL/FL [mg/m^3]
# name 7 = par/sat/log: PAR/Logarithmic, Satlantic
# name 8 = turbWETntu0: Turbidity, WET Labs ECO [NTU]
# name 9 = prdM: Pressure, Strain Gauge [db]
# name 10 = prdE: Pressure, Strain Gauge [psi]
# name 11 = tv290C: Temperature [ITS-90, deg C]
# name 12 = flag:  0.000e+00
# span 0 =     -0.453,      9.846       
# span 1 =     -0.361,      0.294       
# span 2 =     2.4380,    10.1239       
# span 3 =     23.875,    118.358       
# span 4 =  -1615.969,    126.906       
# span 5 = -1.228e+03, 125.328346       
# span 6 =    -0.3752,   245.1231       
# span 7 = 9.1565e-01, 1.6479e+03       
# span 8 =    -0.8492,   944.8447       
# span 9 =     -0.445,      9.657       
# span 10 =     -0.645,     14.006      
# span 11 =    12.9685,    28.2955      
# span 12 = 0.0000e+00, 0.0000e+00      
# interval = seconds: 0.25
# start_time = Aug 15 2024 15:50:35 [Instrument's time stamp, header]
# bad_flag = -9.990e-29
# <Sensors count="10" >
#   <sensor Channel="1" >
#     <!-- Count, Temperature -->
#     <TemperatureSensor SensorID="58" >
#       <SerialNumber>8188</SerialNumber>
#       <CalibrationDate>07-May-24</CalibrationDate>
#       <A0>1.24932504e-003</A0>
#       <A1>2.75168293e-004</A1>
#       <A2>-1.31420465e-006</A2>
#       <A3>1.91422179e-007</A3>
#       <Slope>1.00000000</Slope>
#       <Offset>0.0000</Offset>
#     </TemperatureSensor>
#   </sensor>
#   <sensor Channel="2" >
#     <!-- Frequency 0, Conductivity -->
#     <ConductivitySensor SensorID="3" >
#       <SerialNumber>8188</SerialNumber>
#       <CalibrationDate>07-May-24</CalibrationDate>
#       <UseG_J>1</UseG_J>
#       <!-- Cell const and series R are applicable only for wide range sensors. -->
#       <SeriesR>0.0000</SeriesR>
#       <CellConst>2000.0000</CellConst>
#       <ConductivityType>0</ConductivityType>
#       <Coefficients equation="0" >
#         <A>0.00000000e+000</A>
#         <B>0.00000000e+000</B>
#         <C>0.00000000e+000</C>
#         <D>0.00000000e+000</D>
#         <M>0.0</M>
#         <CPcor>-9.57000000e-008</CPcor>
#       </Coefficients>
#       <Coefficients equation="1" >
#         <G>-1.01485473e+000</G>
#         <H>1.44462400e-001</H>
#         <I>-3.43006030e-004</I>
#         <J>4.84226116e-005</J>
#         <CPcor>-9.57000000e-008</CPcor>
#         <CTcor>3.2500e-006</CTcor>
#         <!-- WBOTC not applicable unless ConductivityType = 1. -->
#         <WBOTC>0.00000000e+000</WBOTC>
#       </Coefficients>
#       <Slope>1.00000000</Slope>
#       <Offset>0.00000</Offset>
#     </ConductivitySensor>
#   </sensor>
#   <sensor Channel="3" >
#     <!-- Count, Pressure, Strain Gauge -->
#     <PressureSensor SensorID="46" >
#       <SerialNumber>8188</SerialNumber>
#       <CalibrationDate>03-Apr-24</CalibrationDate>
#       <PA0>7.20920045e-002</PA0>
#       <PA1>4.83668449e-004</PA1>
#       <PA2>-3.50122678e-012</PA2>
#       <PTEMPA0>-5.77071299e+001</PTEMPA0>
#       <PTEMPA1>5.34397285e+001</PTEMPA1>
#       <PTEMPA2>-5.77553003e-001</PTEMPA2>
#       <PTCA0>5.24461366e+005</PTCA0>
#       <PTCA1>2.02036405e+001</PTCA1>
#       <PTCA2>-6.07461634e-001</PTCA2>
#       <PTCB0>2.52208750e+001</PTCB0>
#       <PTCB1>5.75000000e-004</PTCB1>
#       <PTCB2>0.00000000e+000</PTCB2>
#       <Offset>0.000000</Offset>
#     </PressureSensor>
#   </sensor>
#   <sensor Channel="4" >
#     <!-- A/D voltage 0, Fluorometer, WET Labs ECO-AFL/FL -->
#     <FluoroWetlabECO_AFL_FL_Sensor SensorID="20" >
#       <SerialNumber>FLNTURT-7096</SerialNumber>
#       <CalibrationDate>21-Mar-2024</CalibrationDate>
#       <ScaleFactor>5.00000000e+001</ScaleFactor>
#       <!-- Dark output -->
#       <Vblank>0.0710</Vblank>
#     </FluoroWetlabECO_AFL_FL_Sensor>
#   </sensor>
#   <sensor Channel="5" >
#     <!-- A/D voltage 1, Turbidity Meter, WET Labs, ECO-NTU -->
#     <TurbidityMeter SensorID="67" >
#       <SerialNumber>FLNTURT-7096</SerialNumber>
#       <CalibrationDate>21-Mar-2024</CalibrationDate>
#       <ScaleFactor>198.000000</ScaleFactor>
#       <!-- Dark output -->
#       <DarkVoltage>0.070000</DarkVoltage>
#     </TurbidityMeter>
#   </sensor>
#   <sensor Channel="6" >
#     <!-- A/D voltage 2, Oxygen, SBE 43 -->
#     <OxygenSensor SensorID="38" >
#       <SerialNumber>4269</SerialNumber>
#       <CalibrationDate>08-May-24</CalibrationDate>
#       <Use2007Equation>1</Use2007Equation>
#       <CalibrationCoefficients equation="0" >
#         <!-- Coefficients for Owens-Millard equation. -->
#         <Boc>0.0000</Boc>
#         <Soc>0.0000e+000</Soc>
#         <offset>0.0000</offset>
#         <Pcor>0.00e+000</Pcor>
#         <Tcor>0.0000</Tcor>
#         <Tau>0.0</Tau>
#       </CalibrationCoefficients>
#       <CalibrationCoefficients equation="1" >
#         <!-- Coefficients for Sea-Bird equation - SBE calibration in 2007 and later. -->
#         <Soc>4.3983e-001</Soc>
#         <offset>-0.4978</offset>
#         <A>-4.5504e-003</A>
#         <B> 2.4929e-004</B>
#         <C>-4.1306e-006</C>
#         <D0> 2.5826e+000</D0>
#         <D1> 1.92634e-004</D1>
#         <D2>-4.64803e-002</D2>
#         <E> 3.6000e-002</E>
#         <Tau20> 1.9700</Tau20>
#         <H1>-3.3000e-002</H1>
#         <H2> 5.0000e+003</H2>
#         <H3> 1.4500e+003</H3>
#       </CalibrationCoefficients>
#     </OxygenSensor>
#   </sensor>
#   <sensor Channel="7" >
#     <!-- A/D voltage 3, PAR/Logarithmic, Satlantic -->
#     <PARLog_SatlanticSensor SensorID="76" >
#       <SerialNumber>2209</SerialNumber>
#       <CalibrationDate>14-Jan-2022</CalibrationDate>
#       <a0>9.8861e-001</a0>
#       <a1>8.0845e-001</a1>
#       <Im>1.3589e+000</Im>
#       <Multiplier>1.0000e+000</Multiplier>
#     </PARLog_SatlanticSensor>
#   </sensor>
#   <sensor Channel="8" >
#     <!-- Serial RS-232, Fluorometer, WET Labs ECO-AFL/FL, 2 -->
#     <FluoroWetlabECO_AFL_FL_Sensor SensorID="20" >
#       <SerialNumber>FL3-7350</SerialNumber>
#       <CalibrationDate>10-Mar-2022</CalibrationDate>
#       <ScaleFactor>4.26000000e-002</ScaleFactor>
#       <!-- Dark output -->
#       <Vblank>50.0000</Vblank>
#     </FluoroWetlabECO_AFL_FL_Sensor>
#   </sensor>
#   <sensor Channel="9" >
#     <!-- Serial RS-232, Fluorometer, WET Labs ECO-AFL/FL, 3 -->
#     <FluoroWetlabECO_AFL_FL_Sensor SensorID="20" >
#       <SerialNumber>FL3-7350</SerialNumber>
#       <CalibrationDate>10-Mar-2022</CalibrationDate>
#       <ScaleFactor>4.23000000e-002</ScaleFactor>
#       <!-- Dark output -->
#       <Vblank>48.0000</Vblank>
#     </FluoroWetlabECO_AFL_FL_Sensor>
#   </sensor>
#   <sensor Channel="10" >
#     <!-- Serial RS-232, Fluorometer, WET Labs ECO CDOM -->
#     <FluoroWetlabCDOM_Sensor SensorID="19" >
#       <SerialNumber>FL3-7350</SerialNumber>
#       <CalibrationDate>10-Mar-2022</CalibrationDate>
#       <ScaleFactor>0.090</ScaleFactor>
#       <!-- Dark output -->
#       <Vblank>50.000</Vblank>
#     </FluoroWetlabCDOM_Sensor>
#   </sensor>
# </Sensors>
# datcnv_date = Aug 16 2024 10:56:16, 7.26.7.129 [datcnv_vars = 12]
# datcnv_in = C:\R\Reservoirs\Data\DataNotYetUploadedToEDI\Raw_CTD\RawDownloads\081524_ccr88_S8188006.hex C:\R\Reservoirs\Data\DataNotYetUploadedToEDI\Raw_CTD\RawDownloads\SBE19plusV2_8188_start20240601.xmlcon
# datcnv_skipover = 0
# datcnv_ox_hysteresis_correction = yes
# datcnv_ox_tau_correction = yes
# filter_date = Aug 16 2024 10:58:05, 7.26.7.129
# filter_in = C:\R\Reservoirs\Data\DataNotYetUploadedToEDI\Raw_CTD\RawDownloads\081524_ccr88_S8188006.cnv
# filter_low_pass_tc_A = 0.030
# filter_low_pass_tc_B = 0.150
# filter_low_pass_A_vars = sbeox0Mg/L prdM prdE tv290C
# filter_low_pass_B_vars = depFM dz/dtM sbeox0PS specc c0uS/cm flECO-AFL par/sat/log turbWETntu0
# alignctd_date = Aug 16 2024 10:59:29, 7.26.7.129
# alignctd_in = C:\R\Reservoirs\Data\DataNotYetUploadedToEDI\Raw_CTD\RawDownloads\081524_ccr88_S8188006.cnv
# alignctd_adv = dz/dtM 1.000, sbeox0PS 1.000, specc 1.000, c0uS/cm 1.000, flECO-AFL 1.000, turbWETntu0 1.000                                                                                                                        
# file_type = ascii
*END*
     -0.450      0.001     8.5065    100.947      5.635   5.617166    -0.3722 6.4948e+02    -0.7890     -0.441     -0.640    24.8196 0.0000e+00
     -0.449      0.000     8.4996     99.755      6.676   6.654611    -0.3665 6.1309e+02    -0.7859     -0.440     -0.639    24.8250 0.0000e+00
     -0.449      0.000     8.4895     98.530      7.882   7.861548    -0.3689 5.7081e+02    -0.8221     -0.440     -0.639    24.8333 0.0000e+00
     -0.449      0.005     8.4551     97.493     14.651  14.649328    -0.3752 5.3975e+02    -0.8492     -0.441     -0.639    24.8324 0.0000e+00
     -0.449      0.020     8.3751     96.795     37.659  37.971717    -0.3734 5.3985e+02    -0.8044     -0.441     -0.639    24.8415 0.0000e+00
     -0.449      0.051     8.2681     96.496     75.565  77.064751    -0.3731 5.7545e+02    -0.7274     -0.440     -0.638    24.8307 0.0000e+00
     -0.448      0.094     8.1583     96.556    106.646 109.997090    -0.3012 6.4079e+02    -0.3639     -0.441     -0.640    24.8496 0.0000e+00
     -0.433      0.139     8.0719     96.940    117.443 122.340837    -0.1544 7.1351e+02     0.2954     -0.439     -0.636    24.8208 0.0000e+00
     -0.386      0.180     7.9978     97.582    117.981 123.843647    -0.0725 7.5164e+02     0.6518     -0.391     -0.567    24.9094 0.0000e+00
     -0.310      0.215     7.8695     98.387    117.674 124.144879    -0.0569 7.1889e+02     0.6489     -0.303     -0.439    25.6401 0.0000e+00
     -0.231      0.240     7.7446     99.300    117.314 124.142436     0.0087 6.3177e+02     0.3980     -0.220     -0.318    26.5489 0.0000e+00
     -0.167      0.249     7.6961    100.329    117.064 124.087496     0.1223 5.4367e+02    -0.0479     -0.159     -0.231    27.1311 0.0000e+00
     -0.111      0.239     7.6965    101.477    116.911 124.026558     0.1806 4.5062e+02    -0.2784     -0.114     -0.164    27.5266 0.0000e+00
     -0.050      0.218     7.7263    102.623    116.683 123.815023     0.1844 3.5753e+02    -0.2945     -0.052     -0.075    27.7786 0.0000e+00
      0.012      0.195     7.7776    103.627    116.411 123.507795     0.2032 3.0610e+02    -0.3112      0.020      0.028    27.9284 0.0000e+00
      0.061      0.173     7.8450    104.473    116.272 123.312829     0.2342 2.8898e+02    -0.3078      0.063      0.092    28.0077 0.0000e+00
      0.100      0.148     7.9335    105.122    116.246 123.230907     0.2472 2.6216e+02    -0.2887      0.097      0.141    28.0458 0.0000e+00
      0.134      0.119     8.0285    105.494    116.316 123.267427     0.2394 2.1944e+02    -0.2859      0.137      0.198    28.0567 0.0000e+00
      0.159      0.091     8.1054    105.589    116.457 123.413308     0.2173 1.9552e+02    -0.3087      0.157      0.227    28.0460 0.0000e+00
      0.178      0.067     8.1768    105.444    116.575 123.562479     0.1880 1.9019e+02    -0.3244      0.175      0.253    28.0220 0.0000e+00
      0.192      0.046     8.2355    105.131    116.678 123.707019     0.1717 1.9045e+02    -0.3032      0.193      0.279    27.9947 0.0000e+00
      0.199      0.029     8.2657    104.745    116.795 123.865114     0.1676 1.9230e+02    -0.2930      0.196      0.285    27.9762 0.0000e+00
      0.202      0.018     8.2728    104.302    116.874 123.973556     0.1646 1.8870e+02    -0.3036      0.198      0.287    27.9750 0.0000e+00
      0.202      0.011     8.2578    103.808    116.879 123.995165     0.1705 1.8682e+02    -0.2941      0.199      0.288    27.9892 0.0000e+00
      0.202      0.009     8.2268    103.263    116.864 123.990000     0.1779 1.8957e+02    -0.2813      0.197      0.286    28.0061 0.0000e+00
      0.202      0.010     8.1945    102.405    116.905 124.047520     0.1760 1.8973e+02    -0.2867      0.197      0.286    28.0210 0.0000e+00
      0.205      0.014     8.1600    100.850    116.979 124.145019     0.1740 1.8631e+02    -0.2912      0.200      0.290    28.0324 0.0000e+00
      0.210      0.021     8.1158     98.492    117.024 124.214013     0.1710 1.8154e+02    -0.3011      0.205      0.297    28.0384 0.0000e+00
      0.216      0.035     8.0811     95.556    116.986 124.199698     0.1646 1.7799e+02    -0.3371      0.212      0.308    28.0419 0.0000e+00
      0.222      0.050     8.0292     92.627    116.876 124.108388     0.1669 1.7624e+02    -0.3486      0.217      0.317    28.0474 0.0000e+00
      0.229      0.063     7.9062     90.273    116.813 124.064893     0.1725 1.7378e+02    -0.3029      0.220      0.319    28.0559 0.0000e+00
      0.249      0.071     7.7174     88.477    116.812 124.083073     0.1719 1.7497e+02    -0.2654      0.237      0.344    28.0649 0.0000e+00
      0.282      0.073     7.4684     86.935    116.773 124.055413     0.1771 1.7701e+02    -0.2732      0.279      0.406    28.0764 0.0000e+00
      0.312      0.071     7.2145     85.533    116.715 124.003296     0.1835 1.7721e+02    -0.2938      0.313      0.453    28.0877 0.0000e+00
      0.328      0.064     7.0352     84.278    116.704 123.998588     0.1795 1.7871e+02    -0.3090      0.324      0.469    28.0974 0.0000e+00
      0.338      0.051     6.9065     83.229    116.701 123.998495     0.1720 1.7834e+02    -0.3202      0.332      0.480    28.1064 0.0000e+00
      0.345      0.038     6.7855     82.440    116.706 124.002175     0.1707 1.7909e+02    -0.3254      0.339      0.490    28.1118 0.0000e+00
      0.351      0.028     6.6758     81.945    116.745 124.043084     0.1720 1.7884e+02    -0.3375      0.345      0.499    28.1157 0.0000e+00
      0.358      0.023     6.5756     81.866    116.785 124.083893     0.1710 1.7449e+02    -0.3635      0.351      0.509    28.1192 0.0000e+00
      0.363      0.020     6.4908     82.245    116.795 124.086355     0.1759 1.7158e+02    -0.3646      0.357      0.518    28.1205 0.0000e+00
      0.368      0.017     6.4313     82.831    116.799 124.072840     0.1789 1.6993e+02    -0.3506      0.361      0.524    28.1190 0.0000e+00
      0.372      0.014     6.3871     83.271    116.804 124.056865     0.1723 1.6920e+02    -0.3668      0.364      0.529    28.1183 0.0000e+00
      0.375      0.010     6.3774     83.414    116.795 124.029585     0.1832 1.6896e+02    -0.3534      0.368      0.534    28.1197 0.0000e+00
      0.378      0.007     6.4159     83.368    116.795 124.015795     0.2151 1.6752e+02    -0.2919      0.371      0.539    28.1164 0.0000e+00
      0.379      0.004     6.4753     83.380    116.818 124.026508     0.2295 1.6724e+02    -0.2764      0.372      0.540    28.1075 0.0000e+00
      0.379      0.002     6.5145     83.628    116.826 124.022689     0.2275 1.6864e+02    -0.3028      0.372      0.539    28.0978 0.0000e+00
      0.379     -0.001     6.5233     84.144    116.786 123.969600     0.2167 1.6896e+02    -0.3028      0.372      0.540    28.0896 0.0000e+00
      0.379     -0.004     6.5119     84.931    116.758 123.930232     0.1851 1.6898e+02    -0.3104      0.372      0.539    28.0841 0.0000e+00
      0.378     -0.006     6.5070     85.921    116.789 123.955915     0.1665 1.6819e+02    -0.3258      0.370      0.537    28.0785 0.0000e+00
      0.377     -0.006     6.5293     86.964    116.843 124.007292     0.1740 1.6732e+02    -0.3176      0.369      0.536    28.0727 0.0000e+00
      0.374     -0.006     6.5679     87.853    116.847 124.005790     0.1892 1.6652e+02    -0.3490      0.367      0.532    28.0685 0.0000e+00
      0.371     -0.006     6.6325     88.358    116.787 123.937740     0.2113 1.6477e+02    -0.3961      0.364      0.528    28.0645 0.0000e+00
      0.369     -0.008     6.7145     88.367    116.724 123.866555     0.2327 1.6695e+02    -0.3716      0.361      0.523    28.0611 0.0000e+00
      0.369     -0.014     6.8014     87.957    116.696 123.827127     0.2397 1.6915e+02    -0.3272      0.361      0.524    28.0588 0.0000e+00
      0.369     -0.024     6.8792     87.355    116.747 123.870236     0.2185 1.6784e+02    -0.3406      0.363      0.526    28.0562 0.0000e+00
      0.366     -0.035     6.9222     86.835    116.851 123.978526     0.1925 1.6753e+02    -0.3624      0.362      0.525    28.0542 0.0000e+00
      0.357     -0.044     6.9208     86.538    116.904 124.045188     0.1853 1.6887e+02    -0.3501      0.353      0.514    28.0533 0.0000e+00
      0.338     -0.047     6.8821     86.280    116.849 123.994208     0.1757 1.7422e+02    -0.3630      0.334      0.484    28.0499 0.0000e+00
      0.315     -0.044     6.8278     85.669    116.647 123.771376     0.1626 1.8013e+02    -0.3815      0.307      0.445    28.0418 0.0000e+00
      0.296     -0.038     6.7815     84.480    116.377 123.465262     0.1574 1.8311e+02    -0.3675      0.285      0.414    28.0401 0.0000e+00
      0.291     -0.033     6.7625     82.777    116.231 123.293929     0.1562 1.8361e+02    -0.3315      0.281      0.408    28.0486 0.0000e+00
      0.295     -0.030     6.7566     80.798    116.337 123.404862     0.1564 1.7957e+02    -0.2886      0.290      0.421    28.0535 0.0000e+00
      0.299     -0.030     6.7157     78.971    116.623 123.715297     0.1609 1.7901e+02    -0.2956      0.297      0.431    28.0499 0.0000e+00
      0.292     -0.030     6.6207     77.878    116.857 123.978224     0.1669 1.8114e+02    -0.3135      0.291      0.421    28.0372 0.0000e+00
      0.275     -0.026     6.4828     77.872    116.852 123.992156     0.1677 1.8532e+02    -0.2988      0.271      0.393    28.0288 0.0000e+00
      0.253     -0.016     6.3166     78.715    116.614 123.747363     0.1703 1.8984e+02    -0.2897      0.245      0.355    28.0307 0.0000e+00
      0.239     -0.001     6.1553     79.934    116.361 123.473818     0.1720 1.9019e+02    -0.3065      0.226      0.327    28.0321 0.0000e+00
      0.246      0.017     6.0542     81.191    116.245 123.344688     0.1712 1.9066e+02    -0.3300      0.235      0.341    28.0390 0.0000e+00
      0.268      0.032     6.0640     82.215    116.317 123.413700     0.1778 1.8672e+02    -0.3339      0.264      0.383    28.0510 0.0000e+00
      0.290      0.040     6.1459     82.825    116.529 123.626192     0.1832 1.8479e+02    -0.3535      0.287      0.416    28.0550 0.0000e+00
      0.304      0.040     6.2478     82.982    116.700 123.799588     0.1837 1.8647e+02    -0.3959      0.300      0.435    28.0487 0.0000e+00
      0.310      0.031     6.3553     82.716    116.765 123.873313     0.1843 1.8571e+02    -0.3996      0.306      0.444    28.0466 0.0000e+00
      0.311      0.020     6.4405     82.070    116.785 123.903765     0.1823 1.8428e+02    -0.3632      0.306      0.443    28.0463 0.0000e+00
      0.311      0.013     6.4895     81.085    116.776 123.894986     0.1766 1.8455e+02    -0.3338      0.304      0.441    28.0374 0.0000e+00
      0.313      0.011     6.5014     79.868    116.725 123.835373     0.1679 1.8420e+02    -0.3198      0.307      0.446    28.0322 0.0000e+00
      0.317      0.011     6.4783     78.595    116.692 123.796810     0.1633 1.8193e+02    -0.3309      0.311      0.451    28.0370 0.0000e+00
      0.321      0.012     6.4271     77.487    116.726 123.837946     0.1637 1.8116e+02    -0.3648      0.315      0.457    28.0429 0.0000e+00
      0.325      0.013     6.3470     76.765    116.792 123.923522     0.1647 1.7865e+02    -0.3519      0.319      0.462    28.0427 0.0000e+00
      0.328      0.014     6.2470     76.501    116.796 123.944877     0.1672 1.7790e+02    -0.3122      0.322      0.467    28.0388 0.0000e+00
      0.330      0.015     6.1425     76.597    116.735 123.891562     0.1667 1.7790e+02    -0.2957      0.323      0.469    28.0360 0.0000e+00
      0.333      0.016     6.0473     76.849    116.671 123.824544     0.1674 1.7645e+02    -0.2904      0.326      0.472    28.0381 0.0000e+00
      0.338      0.016     5.9885     76.988    116.613 123.748410     0.1762 1.7687e+02    -0.3172      0.332      0.481    28.0458 0.0000e+00
      0.344      0.015     5.9702     76.798    116.553 123.653056     0.1861 1.7773e+02    -0.3449      0.338      0.490    28.0549 0.0000e+00
      0.349      0.012     5.9826     76.227    116.497 123.558219     0.1831 1.7808e+02    -0.3507      0.343      0.497    28.0599 0.0000e+00
      0.353      0.010     6.0103     75.360    116.519 123.556540     0.1741 1.7742e+02    -0.3532      0.346      0.503    28.0608 0.0000e+00
      0.354      0.009     6.0289     74.391    116.600 123.632710     0.1738 1.7691e+02    -0.3405      0.348      0.505    28.0560 0.0000e+00
      0.353      0.010     6.0163     73.644    116.625 123.660725     0.1712 1.7685e+02    -0.3348      0.347      0.504    28.0400 0.0000e+00
      0.353      0.012     5.9707     73.352    116.585 123.622462     0.1771 1.7485e+02    -0.3528      0.345      0.501    28.0221 0.0000e+00
      0.355      0.015     5.9004     73.477    116.544 123.579300     0.2007 1.7245e+02    -0.3175      0.345      0.500    28.0112 0.0000e+00
      0.363      0.019     5.8136     73.827    116.512 123.548083     0.2225 1.7213e+02    -0.2515      0.355      0.514    28.0065 0.0000e+00
      0.372      0.020     5.7470     74.203    116.479 123.517830     0.2329 1.7362e+02    -0.2762      0.367      0.531    28.0097 0.0000e+00
      0.378      0.020     5.7263     74.392    116.447 123.486337     0.2318 1.7635e+02    -0.3413      0.371      0.538    28.0125 0.0000e+00
      0.382      0.018     5.7432     74.218    116.407 123.440117     0.2268 1.7638e+02    -0.3520      0.374      0.543    28.0108 0.0000e+00
      0.386      0.014     5.7747     73.653    116.348 123.368203     0.2237 1.7587e+02    -0.3369      0.379      0.549    28.0116 0.0000e+00
      0.388      0.010     5.8100     72.806    116.295 123.298850     0.2285 1.7517e+02    -0.3299      0.382      0.553    28.0155 0.0000e+00
      0.390      0.008     5.8307     71.855    116.295 123.283574     0.2328 1.7285e+02    -0.3365      0.383      0.555    28.0170 0.0000e+00
      0.391      0.007     5.8174     70.955    116.342 123.319886     0.2332 1.7242e+02    -0.3485      0.384      0.557    28.0149 0.0000e+00
      0.393      0.007     5.7706     70.225    116.361 123.328665     0.2421 1.7312e+02    -0.3369      0.385      0.559    28.0107 0.0000e+00
      0.394      0.006     5.6990     69.742    116.298 123.253296     0.2444 1.7363e+02    -0.3336      0.387      0.561    28.0046 0.0000e+00
      0.396      0.005     5.6213     69.492    116.220 123.158821     0.2350 1.7360e+02    -0.3435      0.389      0.564    27.9975 0.0000e+00
      0.399      0.004     5.5485     69.359    116.218 123.141189     0.2325 1.7323e+02    -0.3182      0.392      0.567    27.9910 0.0000e+00
      0.401      0.001     5.4892     69.237    116.266 123.176483     0.2310 1.7142e+02    -0.2682      0.394      0.570    27.9869 0.0000e+00
      0.401     -0.001     5.4515     69.102    116.277 123.176326     0.2265 1.7064e+02    -0.2542      0.394      0.571    27.9841 0.0000e+00
      0.399     -0.003     5.4370     68.971    116.247 123.139273     0.2295 1.7038e+02    -0.2863      0.392      0.568    27.9794 0.0000e+00
      0.396     -0.004     5.4306     68.831    116.247 123.137683     0.2325 1.7078e+02    -0.3130      0.389      0.564    27.9722 0.0000e+00
      0.394     -0.004     5.4218     68.645    116.265 123.157098     0.2288 1.7287e+02    -0.3366      0.387      0.561    27.9645 0.0000e+00
      0.394     -0.003     5.4108     68.375    116.215 123.101214     0.2283 1.7304e+02    -0.3659      0.386      0.560    27.9589 0.0000e+00
      0.394     -0.001     5.4013     68.016    116.138 123.007604     0.2347 1.7409e+02    -0.3579      0.386      0.560    27.9569 0.0000e+00
      0.395     -0.001     5.3915     67.585    116.130 122.980073     0.2370 1.7591e+02    -0.3091      0.388      0.562    27.9570 0.0000e+00
      0.395     -0.001     5.3780     67.056    116.143 122.972909     0.2383 1.7703e+02    -0.2908      0.388      0.563    27.9579 0.0000e+00
      0.395     -0.001     5.3573     66.430    116.112 122.920957     0.2418 1.7530e+02    -0.3080      0.387      0.562    27.9572 0.0000e+00
      0.394     -0.000     5.3280     65.788    116.102 122.897505     0.2356 1.7336e+02    -0.3117      0.387      0.561    27.9520 0.0000e+00
      0.392      0.001     5.2966     65.200    116.167 122.962133     0.2246 1.7493e+02    -0.3017      0.385      0.559    27.9433 0.0000e+00
      0.392      0.003     5.2569     64.699    116.217 123.020349     0.2213 1.7436e+02    -0.2902      0.384      0.557    27.9334 0.0000e+00
      0.394      0.005     5.2054     64.309    116.240 123.055780     0.2217 1.7490e+02    -0.3094      0.387      0.560    27.9244 0.0000e+00
      0.396      0.007     5.1535     64.028    116.285 123.117744     0.2211 1.7526e+02    -0.3279      0.389      0.564    27.9187 0.0000e+00
      0.399      0.009     5.1075     63.857    116.305 123.155756     0.2223 1.7276e+02    -0.3077      0.392      0.568    27.9163 0.0000e+00
      0.401      0.011     5.0666     63.791    116.310 123.174400     0.2280 1.7195e+02    -0.3047      0.394      0.571    27.9190 0.0000e+00
      0.404      0.012     5.0360     63.757    116.333 123.206774     0.2378 1.7049e+02    -0.3271      0.395      0.573    27.9250 0.0000e+00
      0.407      0.012     5.0139     63.703    116.327 123.206194     0.2445 1.7034e+02    -0.3381      0.399      0.579    27.9306 0.0000e+00
      0.411      0.013     4.9983     63.648    116.284 123.167392     0.2397 1.7161e+02    -0.3345      0.403      0.585    27.9389 0.0000e+00
      0.414      0.013     4.9957     63.565    116.263 123.146849     0.2318 1.7244e+02    -0.3522      0.406      0.589    27.9456 0.0000e+00
      0.418      0.012     4.9955     63.400    116.221 123.094211     0.2363 1.7360e+02    -0.3802      0.410      0.594    27.9475 0.0000e+00
      0.421      0.009     4.9881     63.120    116.159 123.008360     0.2416 1.7360e+02    -0.3637      0.413      0.599    27.9498 0.0000e+00
      0.423      0.007     4.9853     62.701    116.170 122.995422     0.2352 1.7462e+02    -0.3242      0.416      0.603    27.9534 0.0000e+00
      0.425      0.005     4.9806     62.190    116.203 123.005932     0.2280 1.7592e+02    -0.3147      0.417      0.605    27.9553 0.0000e+00
      0.425      0.004     4.9679     61.674    116.212 122.999002     0.2325 1.7557e+02    -0.3179      0.417      0.605    27.9518 0.0000e+00
      0.425      0.004     4.9489     61.195    116.264 123.048002     0.2385 1.7486e+02    -0.2944      0.417      0.604    27.9428 0.0000e+00
      0.425      0.004     4.9151     60.753    116.332 123.120967     0.2310 1.7341e+02    -0.3053      0.417      0.604    27.9307 0.0000e+00
      0.426      0.005     4.8732     60.378    116.334 123.131000     0.2204 1.7358e+02    -0.3467      0.418      0.606    27.9191 0.0000e+00
      0.428      0.006     4.8319     60.098    116.299 123.101125     0.2225 1.7343e+02    -0.3484      0.419      0.608    27.9121 0.0000e+00
      0.430      0.006     4.7959     59.874    116.301 123.100766     0.2304 1.7262e+02    -0.3596      0.421      0.610    27.9097 0.0000e+00
      0.433      0.006     4.7598     59.679    116.331 123.126661     0.2299 1.7268e+02    -0.3800      0.425      0.615    27.9103 0.0000e+00
      0.435      0.005     4.7280     59.512    116.346 123.141406     0.2331 1.7136e+02    -0.3539      0.427      0.620    27.9152 0.0000e+00
      0.435      0.005     4.7084     59.362    116.342 123.142635     0.2431 1.7186e+02    -0.3184      0.426      0.619    27.9198 0.0000e+00
      0.435      0.005     4.6917     59.233    116.335 123.141526     0.2384 1.7278e+02    -0.3296      0.426      0.618    27.9171 0.0000e+00
      0.436      0.004     4.6760     59.120    116.319 123.128010     0.2276 1.7264e+02    -0.3516      0.427      0.620    27.9130 0.0000e+00
      0.437      0.004     4.6642     59.014    116.310 123.115627     0.2251 1.7212e+02    -0.3443      0.429      0.622    27.9131 0.0000e+00
      0.440      0.003     4.6512     58.914    116.331 123.128198     0.2267 1.7253e+02    -0.3446      0.432      0.625    27.9158 0.0000e+00
      0.441      0.002     4.6411     58.775    116.356 123.143588     0.2297 1.7309e+02    -0.3541      0.433      0.628    27.9188 0.0000e+00
      0.441      0.001     4.6333     58.590    116.382 123.165283     0.2258 1.7194e+02    -0.3568      0.433      0.628    27.9208 0.0000e+00
      0.440     -0.001     4.6231     58.405    116.402 123.185900     0.2232 1.7147e+02    -0.3431      0.432      0.626    27.9201 0.0000e+00
      0.439     -0.002     4.6187     58.244    116.399 123.188262     0.2325 1.7108e+02    -0.2909      0.431      0.625    27.9153 0.0000e+00
      0.438     -0.002     4.6085     58.123    116.398 123.193844     0.2350 1.7192e+02    -0.2759      0.430      0.624    27.9094 0.0000e+00
      0.438     -0.001     4.5915     58.049    116.384 123.185203     0.2274 1.7282e+02    -0.3333      0.430      0.624    27.9061 0.0000e+00
      0.438      0.000     4.5776     57.995    116.349 123.151999     0.2275 1.7319e+02    -0.3661      0.430      0.624    27.9065 0.0000e+00
      0.438      0.000     4.5639     57.930    116.333 123.133385     0.2271 1.7345e+02    -0.3631      0.430      0.623    27.9096 0.0000e+00
      0.439     -0.001     4.5536     57.845    116.368 123.164747     0.2229 1.7244e+02    -0.3658      0.431      0.624    27.9130 0.0000e+00
      0.439     -0.001     4.5486     57.739    116.397 123.190175     0.2288 1.7216e+02    -0.3652      0.431      0.625    27.9157 0.0000e+00
      0.439     -0.001     4.5454     57.616    116.377 123.168018     0.2371 1.7298e+02    -0.3557      0.431      0.625    27.9175 0.0000e+00
      0.438     -0.001     4.5405     57.528    116.372 123.169651     0.2365 1.7473e+02    -0.3540      0.429      0.622    27.9165 0.0000e+00
      0.436     -0.001     4.5336     57.497    116.402 123.209930     0.2304 1.7449e+02    -0.3450      0.427      0.620    27.9131 0.0000e+00
      0.436     -0.001     4.5266     57.502    116.429 123.245828     0.2244 1.7385e+02    -0.3146      0.428      0.620    27.9102 0.0000e+00
      0.437      0.000     4.5146     57.558    116.440 123.262689     0.2239 1.7384e+02    -0.2960      0.428      0.622    27.9099 0.0000e+00
      0.437 -2.953e-10     4.5061     57.664    116.451 123.277401     0.2247 1.7346e+02    -0.2916      0.429      0.623    27.9132 0.0000e+00
      0.437 -3.248e-09     4.5060     57.784    116.459 123.287313     0.2262 1.7234e+02    -0.2965      0.430      0.622    27.9179 0.0000e+00
      0.437 -3.573e-08     4.5039     57.891    116.421 123.246136     0.2322 1.7099e+02    -0.3202      0.429      0.623    27.9212 0.0000e+00
      0.437 -3.930e-07     4.5085     57.980    116.367 123.188737     0.2362 1.7231e+02    -0.3381      0.429      0.622    27.9234 0.0000e+00
      0.437     -0.000     4.5181     58.036    116.386 123.207135     0.2405 1.7294e+02    -0.3410      0.429      0.622    27.9245 0.0000e+00
      0.437     -0.000     4.5282     58.051    116.442 123.263974     0.2413 1.7178e+02    -0.3551      0.429      0.623    27.9250 0.0000e+00
      0.437     -0.001     4.5363     58.036    116.445 123.262139     0.2364 1.7274e+02    -0.3718      0.428      0.621    27.9249 0.0000e+00
      0.437     -0.001     4.5439     57.990    116.442 123.253158     0.2336 1.7331e+02    -0.3709      0.429      0.622    27.9243 0.0000e+00
      0.437     -0.001     4.5492     57.926    116.482 123.291778     0.2327 1.7124e+02    -0.3781      0.429      0.623    27.9236 0.0000e+00
      0.436     -0.001     4.5489     57.862    116.510 123.319868     0.2345 1.7002e+02    -0.3903      0.428      0.621    27.9229 0.0000e+00
      0.435     -0.001     4.5492     57.830    116.509 123.319973     0.2305 1.7009e+02    -0.3811      0.427      0.619    27.9213 0.0000e+00
      0.435     -0.000     4.5444     57.828    116.480 123.293048     0.2188 1.7135e+02    -0.3703      0.427      0.619    27.9180 0.0000e+00
      0.435      0.000     4.5400     57.834    116.454 123.267140     0.2138 1.7068e+02    -0.3621      0.427      0.619    27.9157 0.0000e+00
      0.435      0.001     4.5333     57.840    116.469 123.279534     0.2221 1.7043e+02    -0.3504      0.427      0.619    27.9153 0.0000e+00
      0.436      0.001     4.5307     57.827    116.500 123.306499     0.2327 1.7189e+02    -0.3322      0.428      0.621    27.9160 0.0000e+00
      0.437      0.001     4.5321     57.797    116.517 123.320344     0.2375 1.7228e+02    -0.3141      0.429      0.622    27.9179 0.0000e+00
      0.437      0.001     4.5313     57.775    116.509 123.310525     0.2373 1.7263e+02    -0.3041      0.429      0.622    27.9189 0.0000e+00
      0.437      0.001     4.5336     57.762    116.519 123.324175     0.2308 1.7353e+02    -0.2800      0.428      0.621    27.9175 0.0000e+00
      0.437      0.001     4.5324     57.753    116.541 123.348988     0.2272 1.7384e+02    -0.2630      0.428      0.620    27.9147 0.0000e+00
      0.438      0.001     4.5293     57.760    116.531 123.337727     0.2284 1.7227e+02    -0.3037      0.429      0.622    27.9121 0.0000e+00
      0.439      0.001     4.5274     57.769    116.521 123.324428     0.2285 1.7157e+02    -0.3253      0.430      0.624    27.9118 0.0000e+00
      0.439      0.001     4.5272     57.769    116.522 123.324591     0.2282 1.7186e+02    -0.2834      0.431      0.624    27.9134 0.0000e+00
      0.438      0.001     4.5252     57.792    116.536 123.339695     0.2257 1.7206e+02    -0.2789      0.430      0.623    27.9145 0.0000e+00
      0.438      0.001     4.5265     57.836    116.564 123.370645     0.2242 1.7253e+02    -0.3046      0.430      0.623    27.9139 0.0000e+00
      0.438      0.002     4.5285     57.892    116.612 123.425998     0.2268 1.7385e+02    -0.3203      0.430      0.623    27.9126 0.0000e+00
      0.438      0.003     4.5263     58.024    116.640 123.463333     0.2223 1.7416e+02    -0.3314      0.429      0.623    27.9118 0.0000e+00
      0.438      0.004     4.5285     58.277    116.590 123.412867     0.2135 1.7327e+02    -0.3351      0.430      0.623    27.9121 0.0000e+00
      0.439      0.005     4.5333     58.588    116.550 123.361448     0.2156 1.7396e+02    -0.3311      0.431      0.625    27.9131 0.0000e+00
      0.442      0.007     4.5349     58.890    116.580 123.387233     0.2212 1.7399e+02    -0.3169      0.432      0.628    27.9142 0.0000e+00
      0.446      0.010     4.5423     59.218    116.630 123.451809     0.2213 1.7304e+02    -0.3007      0.438      0.635    27.9190 0.0000e+00
      0.447      0.014     4.5654     59.700    116.614 123.460215     0.2256 1.7445e+02    -0.2737      0.438      0.636    27.9223 0.0000e+00
      0.447      0.015     4.5922     60.377    116.498 123.352507     0.2376 1.7590e+02    -0.2646      0.436      0.633    27.9158 0.0000e+00
      0.452      0.014     4.6159     61.002    116.397 123.240792     0.2367 1.7505e+02    -0.2929      0.441      0.641    27.9088 0.0000e+00
      0.461      0.009     4.6367     61.282    116.367 123.200715     0.2238 1.7321e+02    -0.3078      0.452      0.656    27.9144 0.0000e+00
      0.469      0.004     4.6686     61.178    116.372 123.208934     0.2203 1.7095e+02    -0.3075      0.463      0.671    27.9314 0.0000e+00
      0.469     -0.001     4.7306     60.854    116.422 123.271976     0.2206 1.7101e+02    -0.3234      0.464      0.672    27.9401 0.0000e+00
      0.462     -0.005     4.7912     60.527    116.485 123.349138     0.2178 1.7297e+02    -0.3286      0.453      0.657    27.9325 0.0000e+00
      0.453     -0.006     4.8131     60.344    116.515 123.391687     0.2217 1.7354e+02    -0.3011      0.442      0.641    27.9273 0.0000e+00
      0.449     -0.004     4.7993     60.312    116.498 123.377223     0.2331 1.7314e+02    -0.2661      0.438      0.635    27.9304 0.0000e+00
      0.451     -0.001     4.7671     60.367    116.443 123.310668     0.2340 1.7230e+02    -0.2824      0.441      0.640    27.9351 0.0000e+00
      0.456      0.001     4.7361     60.446    116.422 123.268993     0.2245 1.7207e+02    -0.3269      0.448      0.650    27.9402 0.0000e+00
      0.461      0.002     4.7221     60.508    116.454 123.282524     0.2210 1.7175e+02    -0.3231      0.453      0.657    27.9450 0.0000e+00
      0.461      0.001     4.7217     60.558    116.512 123.337824     0.2188 1.7087e+02    -0.3046      0.454      0.658    27.9477 0.0000e+00
      0.458      0.000     4.7279     60.677    116.553 123.391995     0.2155 1.7166e+02    -0.3099      0.449      0.652    27.9443 0.0000e+00
      0.454     -0.000     4.7360     60.897    116.538 123.391898     0.2154 1.7348e+02    -0.3191      0.444      0.644    27.9338 0.0000e+00
      0.452     -0.000     4.7426     61.162    116.478 123.336680     0.2175 1.7393e+02    -0.3124      0.442      0.640    27.9230 0.0000e+00
      0.455      0.001     4.7430     61.408    116.421 123.269987     0.2237 1.7254e+02    -0.2974      0.446      0.646    27.9195 0.0000e+00
      0.459      0.002     4.7505     61.592    116.434 123.267532     0.2299 1.7267e+02    -0.2753      0.450      0.653    27.9259 0.0000e+00
      0.460      0.002     4.7701     61.716    116.485 123.306980     0.2313 1.7407e+02    -0.2504      0.453      0.656    27.9360 0.0000e+00
      0.459      0.001     4.7911     61.786    116.520 123.337715     0.2314 1.7422e+02    -0.2716      0.451      0.654    27.9404 0.0000e+00
      0.457     -0.001     4.8132     61.790    116.545 123.366315     0.2314 1.7460e+02    -0.3259      0.448      0.650    27.9363 0.0000e+00
      0.456     -0.001     4.8272     61.729    116.555 123.379965     0.2225 1.7461e+02    -0.3573      0.446      0.647    27.9273 0.0000e+00
      0.456     -0.001     4.8374     61.621    116.542 123.366357     0.2110 1.7404e+02    -0.3768      0.447      0.649    27.9197 0.0000e+00
      0.457      0.000     4.8441     61.505    116.518 123.338193     0.2139 1.7344e+02    -0.3898      0.449      0.651    27.9177 0.0000e+00
      0.458      0.001     4.8436     61.403    116.498 123.312258     0.2233 1.7325e+02    -0.3763      0.449      0.651    27.9197 0.0000e+00
      0.458      0.001     4.8388     61.309    116.515 123.325573     0.2292 1.7370e+02    -0.3511      0.449      0.651    27.9214 0.0000e+00
      0.458      0.001     4.8287     61.234    116.550 123.362773     0.2325 1.7351e+02    -0.3259      0.449      0.652    27.9217 0.0000e+00
      0.457      0.002     4.8190     61.204    116.536 123.352818     0.2282 1.7432e+02    -0.3123      0.449      0.651    27.9204 0.0000e+00
      0.457      0.004     4.8116     61.216    116.517 123.341626     0.2210 1.7508e+02    -0.3234      0.448      0.650    27.9177 0.0000e+00
      0.458      0.006     4.8047     61.246    116.531 123.363869     0.2239 1.7321e+02    -0.3231      0.450      0.652    27.9151 0.0000e+00
      0.460      0.007     4.7970     61.267    116.516 123.348952     0.2281 1.7170e+02    -0.3090      0.451      0.654    27.9153 0.0000e+00
      0.463      0.007     4.7950     61.217    116.476 123.297680     0.2205 1.7253e+02    -0.3241      0.454      0.658    27.9177 0.0000e+00
      0.466      0.006     4.7966     61.061    116.482 123.289554     0.2184 1.7315e+02    -0.3341      0.458      0.664    27.9215 0.0000e+00
      0.469      0.006     4.7984     60.821    116.582 123.387081     0.2279 1.7293e+02    -0.3268      0.460      0.667    27.9264 0.0000e+00
      0.469      0.008     4.8028     60.648    116.699 123.522002     0.2319 1.7270e+02    -0.3392      0.460      0.666    27.9275 0.0000e+00
      0.469      0.013     4.7998     60.787    116.706 123.556835     0.2314 1.7266e+02    -0.3458      0.459      0.665    27.9227 0.0000e+00
      0.469      0.018     4.7887     61.318    116.666 123.535482     0.2307 1.7299e+02    -0.3384      0.458      0.665    27.9151 0.0000e+00
      0.475      0.022     4.7665     62.059    116.664 123.536668     0.2234 1.7259e+02    -0.3532      0.462      0.670    27.9082 0.0000e+00
      0.486      0.023     4.7434     62.807    116.568 123.434765     0.2213 1.7194e+02    -0.3880      0.476      0.691    27.9122 0.0000e+00
      0.497      0.014     4.7489     63.424    116.341 123.190022     0.2226 1.7195e+02    -0.3810      0.489      0.710    27.9309 0.0000e+00
      0.504     -0.012     4.7980     63.870    116.246 123.032793     0.2048 1.7206e+02    -0.3367      0.495      0.718    27.9415 0.0000e+00
      0.508     -0.051     4.8623     64.605    116.450 123.102296     0.1790 1.7074e+02    -0.3339      0.499      0.723    27.9393 0.0000e+00
      0.503     -0.091     4.9228     66.625    116.778 123.279928     0.1714 1.6799e+02    -0.3470      0.504      0.730    27.9367 0.0000e+00
      0.472     -0.121     4.9766     70.591    116.977 123.406997     0.1743 1.6301e+02    -0.3231      0.478      0.694    27.9437 0.0000e+00
      0.412     -0.135     5.0017     76.039    117.009 123.479093     0.1707 1.6007e+02    -0.3206      0.404      0.587    27.9324 0.0000e+00
      0.349     -0.130     5.0315     81.653    117.014 123.606070     0.1704 1.6570e+02    -0.3503      0.332      0.482    27.8544 0.0000e+00
      0.306     -0.106     5.1730     86.254    117.050 123.783007     0.1709 1.7229e+02    -0.3388      0.292      0.424    27.7610 0.0000e+00
      0.287     -0.069     5.5043     89.325    117.004 123.845356     0.1675 1.7105e+02    -0.3186      0.275      0.398    27.7213 0.0000e+00
      0.285     -0.031     5.9740     90.699    116.783 123.678057     0.1735 1.6648e+02    -0.3466      0.276      0.401    27.7451 0.0000e+00
      0.295     -0.011     6.4456     90.475    116.489 123.397198     0.1823 1.6549e+02    -0.3684      0.286      0.416    27.8090 0.0000e+00
      0.309     -0.016     6.8066     89.085    116.284 123.177693     0.1779 1.6814e+02    -0.3419      0.305      0.443    27.8738 0.0000e+00
      0.319     -0.040     7.0461     87.004    116.221 123.070128     0.1725 1.7694e+02    -0.3011      0.321      0.465    27.9252 0.0000e+00
      0.309     -0.073     7.1510     84.747    116.325 123.119612     0.1785 1.9069e+02    -0.2871      0.313      0.452    27.9502 0.0000e+00
      0.278     -0.103     7.1146     82.922    116.538 123.298488     0.1723 2.1035e+02    -0.3096      0.280      0.405    27.9609 0.0000e+00
      0.231     -0.123     6.9943     81.925    116.711 123.459576     0.1579 2.4434e+02    -0.3328      0.228      0.331    27.9662 0.0000e+00
      0.181     -0.128     6.8215     81.707    116.752 123.498614     0.1604 2.8017e+02    -0.3274      0.174      0.252    27.9430 0.0000e+00
      0.141     -0.116     6.6288     81.848    116.753 123.497680     0.1670 3.0827e+02    -0.3130      0.132      0.192    27.9102 0.0000e+00
      0.115     -0.091     6.4755     81.853    116.833 123.584682     0.1689 3.3759e+02    -0.3309      0.108      0.157    27.8895 0.0000e+00
      0.100     -0.056     6.4006     81.552    116.945 123.732112     0.1754 3.6315e+02    -0.3719      0.097      0.141    27.8816 0.0000e+00
      0.091     -0.016     6.3960     81.042    116.996 123.848005     0.1758 3.7688e+02    -0.3617      0.090      0.129    27.8833 0.0000e+00
      0.086      0.024     6.4249     80.329    116.966 123.894753     0.1648 3.7358e+02    -0.3105      0.080      0.114    27.8823 0.0000e+00
      0.094      0.064     6.4301     79.354    116.949 123.956442     0.1641 3.5201e+02    -0.3020      0.086      0.125    27.8780 0.0000e+00
      0.118      0.102     6.3974     78.230    116.975 124.048376     0.1761 3.2512e+02    -0.3288      0.113      0.164    27.8890 0.0000e+00
      0.153      0.136     6.3557     77.249    116.932 124.051541     0.1793 2.9303e+02    -0.3244      0.146      0.211    27.9195 0.0000e+00
      0.198      0.160     6.2997     76.697    116.710 123.858367     0.1680 2.5562e+02    -0.3176      0.191      0.277    27.9543 0.0000e+00
      0.250      0.166     6.2159     76.610    116.401 123.554310     0.1619 2.2097e+02    -0.3506      0.245      0.355    27.9926 0.0000e+00
      0.302      0.153     6.1156     76.785    116.249 123.376229     0.1654 1.9052e+02    -0.3789      0.296      0.429    28.0193 0.0000e+00
      0.352      0.126     6.0277     77.275    116.332 123.410256     0.1669 1.7214e+02    -0.3850      0.349      0.507    28.0370 0.0000e+00
      0.390      0.094     5.9798     78.451    116.518 123.556418     0.1719 1.6718e+02    -0.3559      0.395      0.572    28.0580 0.0000e+00
      0.400      0.063     5.9824     80.259    116.628 123.642912     0.1734 1.6788e+02    -0.3019      0.400      0.581    28.0733 0.0000e+00
      0.393      0.038     5.9976     82.063    116.637 123.637565     0.1680 1.7053e+02    -0.2813      0.382      0.555    28.0666 0.0000e+00
      0.389      0.023     6.0201     83.345    116.629 123.628141     0.1675 1.7292e+02    -0.2793      0.378      0.548    28.0333 0.0000e+00
      0.394      0.020     6.1148     84.017    116.654 123.665377     0.1679 1.7630e+02    -0.2425      0.388      0.562    28.0089 0.0000e+00
      0.401      0.030     6.2824     84.141    116.778 123.814985     0.1720 1.8338e+02    -0.2145      0.394      0.572    28.0000 0.0000e+00
      0.409      0.050     6.4413     83.907    116.923 124.004766     0.1828 1.9172e+02    -0.2493      0.398      0.578    27.9913 0.0000e+00
      0.422      0.074     6.5385     83.508    116.919 124.050334     0.1862 1.9877e+02    -0.2856      0.415      0.602    27.9916 0.0000e+00
      0.437      0.097     6.5907     82.831    116.861 124.024994     0.1780 2.0201e+02    -0.3108      0.427      0.619    27.9989 0.0000e+00
      0.462      0.117     6.5951     81.809    116.916 124.107674     0.1708 2.0107e+02    -0.3481      0.443      0.643    28.0023 0.0000e+00
      0.505      0.135     6.5634     80.754    117.006 124.231580     0.1674 2.0078e+02    -0.3591      0.494      0.717    28.0179 0.0000e+00
      0.553      0.148     6.5373     79.997    117.043 124.295470     0.1717 2.0203e+02    -0.3405      0.548      0.795    28.0473 0.0000e+00
      0.592      0.154     6.4885     79.531    117.065 124.334561     0.1966 2.0132e+02    -0.3280      0.579      0.840    28.0602 0.0000e+00
      0.630      0.152     6.3947     79.169    117.087 124.363220     0.2251 1.9936e+02    -0.3456      0.617      0.895    28.0662 0.0000e+00
      0.670      0.144     6.2986     78.853    117.096 124.369158     0.2316 1.9874e+02    -0.3481      0.659      0.956    28.0824 0.0000e+00
      0.707      0.139     6.2401     78.682    117.139 124.406348     0.2312 1.9724e+02    -0.3228      0.695      1.007    28.0934 0.0000e+00
      0.740      0.139     6.2117     78.918    117.213 124.471828     0.2377 1.9479e+02    -0.2460      0.727      1.055    28.0994 0.0000e+00
      0.770      0.142     6.1832     79.777    117.173 124.410579     0.2412 1.9289e+02    -0.1070      0.755      1.097    28.1021 0.0000e+00
      0.800      0.141     6.1566     80.924    117.007 124.211399     0.2388 1.9177e+02    -0.0493      0.782      1.135    28.0993 0.0000e+00
      0.839      0.137     6.1372     81.801    116.926 124.109696     0.2341 1.9130e+02    -0.0631      0.818      1.186    28.0961 0.0000e+00
      0.888      0.133     6.1424     82.382    117.021 124.203963     0.2364 1.9069e+02    -0.0690      0.874      1.267    28.0915 0.0000e+00
      0.929      0.132     6.2231     83.032    117.142 124.328082     0.2413 1.9023e+02    -0.0856      0.921      1.335    28.0825 0.0000e+00
      0.952      0.135     6.3378     83.851    117.206 124.382697     0.2410 1.9031e+02    -0.0921      0.936      1.358    28.0703 0.0000e+00
      0.970      0.142     6.4052     84.565    117.259 124.386838     0.2411 1.9024e+02    -0.0781      0.945      1.372    28.0635 0.0000e+00
      1.000      0.153     6.4341     84.871    117.293 124.309870     0.2338 1.8914e+02    -0.0545      0.975      1.415    28.0625 0.0000e+00
      1.043      0.166     6.4825     84.656    117.254 124.133948     0.2228 1.8783e+02    -0.0467      1.022      1.481    28.0605 0.0000e+00
      1.094      0.172     6.5583     84.078    117.187 123.964693     0.2209 1.8669e+02    -0.0535      1.070      1.551    28.0599 0.0000e+00
      1.154      0.165     6.6236     83.352    117.169 123.900185     0.2195 1.8569e+02    -0.0679      1.132      1.641    28.0458 0.0000e+00
      1.212      0.145     6.6595     82.548    117.171 123.899563     0.2226 1.8554e+02    -0.0839      1.198      1.738    27.9877 0.0000e+00
      1.250      0.117     6.6443     81.748    117.208 123.957171     0.2323 1.8589e+02    -0.0754      1.235      1.791    27.9188 0.0000e+00
      1.265      0.092     6.5952     81.179    117.283 124.051108     0.2324 1.8601e+02    -0.0678      1.242      1.802    27.8778 0.0000e+00
      1.270      0.077     6.5415     81.111    117.315 124.080497     0.2247 1.8590e+02    -0.0941      1.246      1.806    27.8587 0.0000e+00
      1.275      0.078     6.4762     81.555    117.318 124.039683     0.2253 1.8540e+02    -0.1186      1.248      1.810    27.8610 0.0000e+00
      1.286      0.094     6.4057     82.134    117.348 123.966797     0.2314 1.8475e+02    -0.0893      1.254      1.820    27.8744 0.0000e+00
      1.312      0.119     6.3504     82.429    117.395 123.881117     0.2287 1.8398e+02    -0.0496      1.280      1.857    27.8804 0.0000e+00
      1.354      0.143     6.3425     82.268    117.447 123.821960     0.2281 1.8303e+02    -0.0496      1.327      1.923    27.8819 0.0000e+00
      1.403      0.158     6.3929     81.648    117.498 123.796981     0.2491 1.8277e+02    -0.0559      1.376      1.996    27.8692 0.0000e+00
      1.453      0.163     6.4580     80.702    117.542 123.783590     0.2843 1.8287e+02    -0.0570      1.425      2.068    27.8193 0.0000e+00
      1.499      0.155     6.4919     79.673    117.593 123.796363     0.2978 1.8268e+02    -0.0634      1.475      2.139    27.7502 0.0000e+00
      1.539      0.137     6.4848     78.769    117.629 123.814949     0.2915 1.8253e+02    -0.0985      1.512      2.193    27.7008 0.0000e+00
      1.572      0.115     6.4366     78.112    117.628 123.803661     0.2941 1.8247e+02    -0.1376      1.543      2.238    27.6724 0.0000e+00
      1.598      0.091     6.3559     77.699    117.628 123.796281     0.2953 1.8229e+02    -0.1250      1.570      2.277    27.6453 0.0000e+00
      1.617      0.070     6.2724     77.481    117.632 123.793911     0.2885 1.8211e+02    -0.1177      1.589      2.305    27.6276 0.0000e+00
      1.630      0.054     6.1971     77.396    117.619 123.774987     0.2813 1.8217e+02    -0.1181      1.600      2.320    27.6213 0.0000e+00
      1.638      0.046     6.1467     77.303    117.559 123.703878     0.2777 1.8227e+02    -0.0262      1.606      2.329    27.6182 0.0000e+00
      1.644      0.051     6.1177     77.281    117.433 123.547957     0.2879 1.8204e+02     0.1348      1.612      2.339    27.6152 0.0000e+00
      1.651      0.068     6.0986     77.671    117.329 123.390192     0.3006 1.8162e+02     0.2153      1.619      2.348    27.6125 0.0000e+00
      1.661      0.097     6.1005     78.545    117.297 123.296752     0.3008 1.8137e+02     0.1918      1.625      2.358    27.6104 0.0000e+00
      1.681      0.131     6.0931     79.671    117.291 123.236514     0.2988 1.8185e+02     0.0903      1.639      2.378    27.6093 0.0000e+00
      1.724      0.165     6.0753     80.864    117.302 123.207384     0.3030 1.8310e+02    -0.0499      1.684      2.443    27.6018 0.0000e+00
      1.782      0.190     6.1072     81.897    117.338 123.217280     0.3000 1.8461e+02    -0.0960      1.747      2.534    27.5780 0.0000e+00
      1.846      0.204     6.1910     82.493    117.356 123.219724     0.2882 1.8630e+02    -0.0894      1.809      2.623    27.5495 0.0000e+00
      1.909      0.201     6.2840     82.547    117.381 123.236913     0.2899 1.8800e+02    -0.0394      1.874      2.719    27.5261 0.0000e+00
      1.964      0.183     6.3867     82.184    117.434 123.288687     0.2953 1.8959e+02     0.0976      1.932      2.802    27.5083 0.0000e+00
      2.008      0.157     6.4797     81.652    117.446 123.300083     0.2848 1.9106e+02     0.1935      1.972      2.860    27.4969 0.0000e+00
      2.043      0.133     6.5301     81.247    117.390 123.238296     0.2829 1.9217e+02     0.1931      2.006      2.910    27.4912 0.0000e+00
      2.069      0.119     6.5306     81.283    117.319 123.155451     0.3159 1.9285e+02     0.1621      2.032      2.949    27.4873 0.0000e+00
      2.086      0.114     6.4943     81.859    117.299 123.116818     0.3541 1.9326e+02     0.1611      2.047      2.969    27.4854 0.0000e+00
      2.103      0.119     6.4453     82.659    117.320 123.112164     0.3636 1.9389e+02     0.1807      2.056      2.982    27.4857 0.0000e+00
      2.132      0.129     6.4028     83.242    117.335 123.099133     0.3617 1.9525e+02     0.1933      2.084      3.023    27.4853 0.0000e+00
      2.176      0.142     6.4002     83.389    117.356 123.095611     0.3655 1.9689e+02     0.2113      2.135      3.096    27.4828 0.0000e+00
      2.222      0.151     6.4584     83.120    117.415 123.137744     0.3660 1.9829e+02     0.2267      2.182      3.164    27.4747 0.0000e+00
      2.264      0.150     6.5388     82.571    117.485 123.199313     0.3514 1.9986e+02     0.2077      2.221      3.221    27.4617 0.0000e+00
      2.305      0.137     6.5910     81.881    117.518 123.226193     0.3354 2.0157e+02     0.1528      2.261      3.279    27.4493 0.0000e+00
      2.344      0.119     6.6030     81.197    117.488 123.189924     0.3539 2.0304e+02     0.1118      2.302      3.338    27.4376 0.0000e+00
      2.374      0.106     6.5779     80.832    117.413 123.101790     0.4020 2.0397e+02     0.1241      2.332      3.383    27.4286 0.0000e+00
      2.391      0.103     6.5310     81.174    117.317 122.978988     0.4325 2.0433e+02     0.1645      2.347      3.403    27.4246 0.0000e+00
      2.402      0.111     6.4747     82.192    117.243 122.864528     0.4273 2.0479e+02     0.1878      2.353      3.413    27.4220 0.0000e+00
      2.419      0.126     6.4123     83.279    117.233 122.809016     0.4171 2.0598e+02     0.2346      2.365      3.430    27.4198 0.0000e+00
      2.453      0.145     6.3686     83.833    117.311 122.853327     0.4222 2.0802e+02     0.3191      2.399      3.478    27.4175 0.0000e+00
      2.503      0.161     6.3943     83.613    117.463 122.991015     0.4193 2.1036e+02     0.3504      2.454      3.557    27.4098 0.0000e+00
      2.561      0.166     6.5006     82.614    117.583 123.109725     0.4082 2.1233e+02     0.3729      2.514      3.645    27.3920 0.0000e+00
      2.615      0.158     6.6083     80.949    117.604 123.129204     0.4095 2.1363e+02     0.3857      2.568      3.725    27.3702 0.0000e+00
      2.658      0.143     6.6578     78.887    117.499 123.021925     0.4170 2.1426e+02     0.2988      2.613      3.788    27.3529 0.0000e+00
      2.688      0.130     6.6421     77.074    117.315 122.835651     0.4214 2.1455e+02     0.2141      2.641      3.829    27.3443 0.0000e+00
      2.705      0.125     6.5583     76.223    117.204 122.718423     0.4197 2.1475e+02     0.1865      2.654      3.849    27.3437 0.0000e+00
      2.720      0.128     6.4237     76.430    117.197 122.695748     0.4220 2.1537e+02     0.1701      2.662      3.862    27.3420 0.0000e+00
      2.749      0.136     6.2406     77.193    117.218 122.697858     0.4410 2.1686e+02     0.2218      2.687      3.897    27.3421 0.0000e+00
      2.796      0.146     6.0687     77.941    117.274 122.743898     0.4580 2.1885e+02     0.3308      2.741      3.976    27.3481 0.0000e+00
      2.850      0.150     6.0006     78.380    117.374 122.843193     0.4628 2.2050e+02     0.3902      2.800      4.060    27.3487 0.0000e+00
      2.897      0.145     6.0360     78.465    117.472 122.943598     0.4728 2.2151e+02     0.3900      2.844      4.124    27.3399 0.0000e+00
      2.933      0.130     6.1158     78.224    117.532 123.003054     0.4750 2.2228e+02     0.3969      2.879      4.175    27.3299 0.0000e+00
      2.961      0.108     6.1830     77.761    117.549 123.016459     0.4636 2.2298e+02     0.4391      2.906      4.215    27.3239 0.0000e+00
      2.982      0.090     6.2172     77.308    117.508 122.969260     0.4648 2.2376e+02     0.4541      2.926      4.244    27.3228 0.0000e+00
      2.999      0.082     6.2238     77.247    117.390 122.841584     0.4726 2.2471e+02     0.4072      2.941      4.266    27.3226 0.0000e+00
      3.012      0.084     6.2025     77.931    117.262 122.700349     0.4799 2.2551e+02     0.3866      2.955      4.286    27.3209 0.0000e+00
      3.026      0.095     6.1594     79.213    117.199 122.625605     0.5014 2.2622e+02     0.4111      2.966      4.301    27.3188 0.0000e+00
      3.048      0.110     6.1139     80.508    117.202 122.619850     0.5248 2.2728e+02     0.3948      2.983      4.326    27.3176 0.0000e+00
      3.082      0.126     6.0934     81.372    117.222 122.630741     0.5366 2.2884e+02     0.3615      3.021      4.382    27.3158 0.0000e+00
      3.123      0.140     6.1523     81.639    117.220 122.620874     0.5492 2.3061e+02     0.3865      3.063      4.443    27.3120 0.0000e+00
      3.166      0.149     6.2777     81.368    117.242 122.636933     0.5642 2.3196e+02     0.4218      3.103      4.501    27.3089 0.0000e+00
      3.209      0.149     6.3918     80.933    117.298 122.688492     0.5704 2.3311e+02     0.4108      3.150      4.568    27.3048 0.0000e+00
      3.248      0.140     6.4639     80.680    117.313 122.698649     0.5716 2.3407e+02     0.3898      3.187      4.622    27.2997 0.0000e+00
      3.282      0.129     6.4869     80.618    117.246 122.623336     0.5877 2.3442e+02     0.4433      3.217      4.666    27.2969 0.0000e+00
      3.316      0.123     6.4522     80.806    117.161 122.528082     0.6180 2.3511e+02     0.5778      3.254      4.720    27.2942 0.0000e+00
      3.342      0.122     6.4034     81.416    117.144 122.501727     0.6347 2.3697e+02     0.6422      3.282      4.761    27.2908 0.0000e+00
      3.362      0.126     6.3903     82.277    117.159 122.509262     0.6422 2.3954e+02     0.6385      3.294      4.777    27.2891 0.0000e+00
      3.389      0.131     6.3842     82.904    117.142 122.482764     0.6468 2.4210e+02     0.6706      3.315      4.809    27.2875 0.0000e+00
      3.430      0.137     6.3887     82.947    117.124 122.454126     0.6388 2.4399e+02     0.6863      3.362      4.877    27.2842 0.0000e+00
      3.475      0.146     6.4431     82.450    117.118 122.435791     0.6320 2.4391e+02     0.6573      3.411      4.947    27.2802 0.0000e+00
      3.515      0.160     6.5299     81.919    117.098 122.397448     0.6347 2.4103e+02     0.6287      3.448      5.001    27.2768 0.0000e+00
      3.551      0.170     6.5900     81.873    117.118 122.399685     0.6537 2.3699e+02     0.6145      3.483      5.052    27.2731 0.0000e+00
      3.586      0.172     6.5939     82.088    117.191 122.462802     0.6797 2.3329e+02     0.6234      3.512      5.094    27.2691 0.0000e+00
      3.633      0.168     6.5402     82.003    117.215 122.478570     0.6894 2.2958e+02     0.6684      3.556      5.156    27.2644 0.0000e+00
      3.693      0.165     6.4735     81.780    117.075 122.317525     0.6927 2.2619e+02     0.6771      3.625      5.258    27.2568 0.0000e+00
      3.745      0.165     6.4829     82.789    116.895 122.084184     0.6856 2.2415e+02     0.6264      3.681      5.340    27.2469 0.0000e+00
      3.775      0.168     6.5252     86.626    116.871 121.975959     0.6638 2.2347e+02     0.6391      3.706      5.375    27.2417 0.0000e+00
      3.799      0.170     6.5165     92.982    116.873 121.895430     0.6455 2.2245e+02     0.6930      3.718      5.393    27.2384 0.0000e+00
      3.837      0.170     6.4606     99.939    116.827 121.792364     0.6300 2.1864e+02     0.6603      3.755      5.446    27.2373 0.0000e+00
      3.891      0.171     6.4716    106.164    116.886 121.820874     0.6228 2.1272e+02     0.5182      3.816      5.535    27.2220 0.0000e+00
      3.949      0.173     6.7930    111.209    116.980 121.899103     0.6281 2.0758e+02     0.3129      3.875      5.619    27.1761 0.0000e+00
      4.001      0.174     7.3841    114.779    116.950 121.851615     0.6331 2.0404e+02     0.1699      3.929      5.699    27.1364 0.0000e+00
      4.041      0.172     7.9700    116.497    116.846 121.724058     0.6396 2.0156e+02     0.1622      3.968      5.756    27.1153 0.0000e+00
      4.071      0.168     8.4735    116.139    116.801 121.652551     0.6727 1.9940e+02     0.3567      3.990      5.788    27.1022 0.0000e+00
      4.105      0.165     8.8829    114.062    116.847 121.668951     0.7212 1.9624e+02     0.6683      4.019      5.830    27.0958 0.0000e+00
      4.150      0.164     9.1792    111.160    116.857 121.649520     0.7411 1.9189e+02     0.8390      4.067      5.898    27.0894 0.0000e+00
      4.203      0.160     9.3283    108.214    116.789 121.553950     0.7388 1.8750e+02     0.8760      4.124      5.981    27.0820 0.0000e+00
      4.253      0.150     9.2913    105.570    116.728 121.468138     0.7448 1.8415e+02     0.8760      4.175      6.055    27.0719 0.0000e+00
      4.292      0.132     9.0982    103.490    116.709 121.430305     0.7543 1.8177e+02     0.8724      4.213      6.110    27.0568 0.0000e+00
      4.322      0.107     8.8434    102.127    116.727 121.437462     0.7574 1.7985e+02     0.9015      4.241      6.152    27.0431 0.0000e+00
      4.344      0.083     8.6081    101.257    116.781 121.486459     0.7564 1.7874e+02     0.9195      4.263      6.183    27.0330 0.0000e+00
      4.358      0.068     8.3902    100.596    116.841 121.545344     0.7519 1.7797e+02     0.9175      4.276      6.203    27.0231 0.0000e+00
      4.365      0.063     8.2175    100.170    116.836 121.535647     0.7545 1.7719e+02     0.9125      4.281      6.210    27.0155 0.0000e+00
      4.372      0.066     8.1194    100.066    116.748 121.437403     0.7617 1.7650e+02     0.8932      4.283      6.212    27.0102 0.0000e+00
      4.387      0.075     8.0627    100.168    116.767 121.448622     0.7609 1.7500e+02     0.8901      4.297      6.232    27.0079 0.0000e+00
      4.412      0.085     8.0062    100.323    116.857 121.534872     0.7446 1.7292e+02     0.9093      4.325      6.273    27.0072 0.0000e+00
      4.442      0.095     7.9665    100.440    116.789 121.457279     0.7210 1.7098e+02     0.9192      4.357      6.318    27.0052 0.0000e+00
      4.471      0.100     7.9657    100.514    116.738 121.397006     0.7092 1.6921e+02     0.9069      4.384      6.360    27.0019 0.0000e+00
      4.497      0.099     7.9781    100.600    116.833 121.488072     0.7070 1.6754e+02     0.8981      4.410      6.396    26.9981 0.0000e+00
      4.522      0.094     7.9936    100.676    116.827 121.467189     0.7203 1.6609e+02     0.9501      4.436      6.433    26.9953 0.0000e+00
      4.545      0.089     8.0042    100.674    116.680 121.280878     0.7479 1.6490e+02     1.0541      4.458      6.466    26.9923 0.0000e+00
      4.566      0.085     8.0066    100.589    116.602 121.144843     0.7627 1.6385e+02     1.1260      4.479      6.496    26.9893 0.0000e+00
      4.585      0.089     8.0155    100.446    116.518 120.981657     0.7612 1.6274e+02     1.1674      4.498      6.523    26.9859 0.0000e+00
      4.604      0.101     8.0248    100.223    116.400 120.739786     0.7730 1.6151e+02     1.4165      4.515      6.548    26.9822 0.0000e+00
      4.623      0.117     8.0266     99.867    116.353 120.538835     0.8015 1.6018e+02     1.8721      4.533      6.574    26.9688 0.0000e+00
      4.651      0.133     8.0219     99.325    116.336 120.392963     0.8190 1.5791e+02     2.1450      4.553      6.604    26.9424 0.0000e+00
      4.695      0.145     8.0149     98.549    116.363 120.339724     0.8286 1.5434e+02     2.2099      4.600      6.673    26.9171 0.0000e+00
      4.747      0.151     8.0070     97.597    116.382 120.304174     0.8312 1.5083e+02     2.4164      4.660      6.759    26.8659 0.0000e+00
      4.793      0.150     7.9898     96.558    116.366 120.235809     0.8243 1.4824e+02     2.7878      4.703      6.821    26.7860 0.0000e+00
      4.829      0.143     7.9588     95.497    116.454 120.263174     0.8230 1.4624e+02     2.9921      4.738      6.872    26.7283 0.0000e+00
      4.861      0.129     7.8977     94.563    116.560 120.293983     0.8243 1.4446e+02     2.9976      4.767      6.915    26.6985 0.0000e+00
      4.889      0.112     7.8206     93.880    116.555 120.199028     0.8489 1.4279e+02     2.9236      4.795      6.955    26.6788 0.0000e+00
      4.916      0.096     7.7413     93.434    116.578 120.137838     0.9035 1.4114e+02     2.8189      4.821      6.992    26.6580 0.0000e+00
      4.942      0.084     7.6535     93.210    116.678 120.167748     0.9392 1.3959e+02     2.7614      4.848      7.031    26.6317 0.0000e+00
      4.964      0.079     7.5786     93.283    116.840 120.219598     0.9588 1.3849e+02     2.7093      4.872      7.066    26.5977 0.0000e+00
      4.977      0.082     7.5318     93.621    117.231 120.355440     1.0542 1.3783e+02     2.4289      4.883      7.082    26.5553 0.0000e+00
      4.985      0.091     7.5025     93.971    117.794 120.514119     1.2175 1.3704e+02     1.9119      4.886      7.087    26.5179 0.0000e+00
      5.001      0.104     7.4843     94.289    118.197 120.500859     1.3113 1.3514e+02     1.6075      4.895      7.100    26.4901 0.0000e+00
      5.035      0.119     7.4921     95.002    118.527 120.467252     1.3296 1.3228e+02     1.5642      4.933      7.155    26.4669 0.0000e+00
      5.079      0.130     7.5443     96.338    118.912 120.516384     1.4306 1.2958e+02     1.2856      4.983      7.227    26.3608 0.0000e+00
      5.122      0.134     7.6099     98.068    119.127 120.412449     1.6221 1.2693e+02     0.7441      5.025      7.287    26.1411 0.0000e+00
      5.159      0.127     7.6393     99.958    119.116 120.096617     1.7291 1.2424e+02     0.4423      5.062      7.342    25.9564 0.0000e+00
      5.191      0.112     7.7087    101.901    119.137 119.834097     1.7443 1.2204e+02     0.4170      5.094      7.388    25.8130 0.0000e+00
      5.216      0.097     7.8525    103.764    119.178 119.624653     1.7200 1.2039e+02     0.4730      5.119      7.423    25.6640 0.0000e+00
      5.235      0.089     8.0185    105.328    118.777 118.995885     1.6603 1.1914e+02     0.5703      5.135      7.447    25.5316 0.0000e+00
      5.251      0.090     8.1945    106.360    118.191 118.163797     1.6297 1.1798e+02     0.6320      5.149      7.469    25.4023 0.0000e+00
      5.266      0.095     8.3749    106.739    118.102 117.814317     1.6263 1.1635e+02     0.7037      5.162      7.486    25.2820 0.0000e+00
      5.288      0.101     8.5528    106.524    118.424 117.906580     1.5937 1.1363e+02     0.8540      5.178      7.511    25.1743 0.0000e+00
      5.322      0.108     8.7010    105.724    118.774 118.051655     1.5387 1.1035e+02     1.0419      5.218      7.569    25.0916 0.0000e+00
      5.360      0.113     8.8092    104.258    118.927 117.999847     1.5076 1.0768e+02     1.1554      5.261      7.631    24.9877 0.0000e+00
      5.391      0.117     8.8555    102.352    118.882 117.757167     1.5033 1.0560e+02     1.1625      5.289      7.671    24.8628 0.0000e+00
      5.416      0.117     8.8507    100.536    118.879 117.571806     1.5219 1.0353e+02     1.0925      5.312      7.703    24.7721 0.0000e+00
      5.441      0.113     8.8060     99.284    118.937 117.463021     1.5509 1.0127e+02     0.9962      5.335      7.737    24.6919 0.0000e+00
      5.470      0.109     8.6907     98.780    118.819 117.191636     1.5589 9.8864e+01     0.9255      5.364      7.779    24.6032 0.0000e+00
      5.503      0.106     8.5268     98.937    118.581 116.813061     1.5579 9.6494e+01     0.8898      5.399      7.830    24.5180 0.0000e+00
      5.534      0.103     8.3728     99.710    118.394 116.499170     1.5651 9.4637e+01     0.8396      5.429      7.874    24.4418 0.0000e+00
      5.559      0.101     8.2722    101.075    118.209 116.191655     1.5686 9.3372e+01     0.7306      5.452      7.907    24.3727 0.0000e+00
      5.580      0.100     8.2470    102.816    118.186 116.026480     1.5737 9.2359e+01     0.6703      5.473      7.938    24.3087 0.0000e+00
      5.600      0.101     8.2710    104.676    118.387 116.069989     1.6439 9.1335e+01     0.6934      5.491      7.964    24.2454 0.0000e+00
      5.623      0.104     8.3398    106.382    118.503 116.035698     2.3384 8.9974e+01     0.7018      5.511      7.992    24.1930 0.0000e+00
      5.654      0.109     8.4732    107.734    118.428 115.816191     3.5988 8.8309e+01     0.6690      5.543      8.040    24.1444 0.0000e+00
      5.688      0.113     8.6343    108.698    118.229 115.461096     4.3213 8.6866e+01     0.6743      5.580      8.094    24.0832 0.0000e+00
      5.718      0.115     8.8111    109.254    117.817 114.878224     4.8408 8.5710e+01     0.7317      5.609      8.135    24.0135 0.0000e+00
      5.746      0.116     8.9726    109.321    117.451 114.290713     9.8878 8.4431e+01     1.0881      5.633      8.172    23.9525 0.0000e+00
      5.774      0.116     9.0946    108.846    117.554 114.083911    19.1335 8.3103e+01     1.7566      5.662      8.213    23.8952 0.0000e+00
      5.802      0.119     9.1884    107.919    117.859 114.013559    24.1833 8.1788e+01     2.1193      5.689      8.250    23.8243 0.0000e+00
      5.832      0.124     9.2506    106.786    118.154 113.916763    24.6726 8.0282e+01     2.1777      5.718      8.293    23.7546 0.0000e+00
      5.863      0.129     9.2755    105.803    118.514 113.935593    25.1191 7.8684e+01     2.3591      5.749      8.339    23.6618 0.0000e+00
      5.897      0.133     9.2549    105.221    118.746 113.899897    25.8719 7.7073e+01     2.6304      5.781      8.384    23.5281 0.0000e+00
      5.933      0.135     9.1972    104.936    118.721 113.621153    26.2403 7.5409e+01     2.7799      5.817      8.437    23.3674 0.0000e+00
      5.972      0.135     9.1194    104.749    118.653 113.223656    25.9399 7.3765e+01     2.7931      5.857      8.495    23.1912 0.0000e+00
      6.009      0.133     9.0483    104.734    118.716 112.842733    22.2491 7.2336e+01     2.7219      5.895      8.549    23.0499 0.0000e+00
      6.041      0.132     9.0206    105.021    118.845 112.423303    15.4450 7.1148e+01     2.6058      5.925      8.593    22.9519 0.0000e+00
      6.070      0.131     9.0235    105.440    119.015 111.969023    11.7137 7.0069e+01     2.5226      5.953      8.635    22.8608 0.0000e+00
      6.100      0.129     9.0244    105.527    119.110 111.439227    11.2850 6.8923e+01     2.5050      5.981      8.675    22.7243 0.0000e+00
      6.134      0.129     9.0491    104.902    119.098 110.788287    10.2710 6.7534e+01     2.3934      6.014      8.722    22.5343 0.0000e+00
      6.171      0.132     9.1184    103.542    119.167 110.096064     8.4610 6.6144e+01     2.0998      6.054      8.780    22.3082 0.0000e+00
      6.206      0.136     9.2208    101.531    119.482 109.543898     7.4771 6.4953e+01     1.9083      6.088      8.830    22.0319 0.0000e+00
      6.237      0.140     9.2906     98.711    119.864 109.086585     7.3825 6.3505e+01     1.8626      6.114      8.868    21.7703 0.0000e+00
      6.272      0.144     9.2752     94.588    120.040 108.450621     7.2660 6.1411e+01     1.7880      6.149      8.919    21.5313 0.0000e+00
      6.310      0.146     9.2079     88.685    120.270 107.782991     7.0647 5.8713e+01     1.6927      6.189      8.976    21.2079 0.0000e+00
      6.348      0.146     9.1015     81.096    120.754 107.351487     6.9518 5.5213e+01     1.6378      6.225      9.028    20.8218 0.0000e+00
      6.388      0.144     8.9247     72.498    121.139 106.980578     6.8886 5.1178e+01     1.6385      6.263      9.084    20.4930 0.0000e+00
      6.431      0.140     8.6262     63.653    121.273 106.432358     6.3361 4.7741e+01     1.6673      6.308      9.148    20.1899 0.0000e+00
      6.468      0.139     8.1505     55.216    121.645 105.969635     5.3345 4.5456e+01     1.6773      6.348      9.207    19.8080 0.0000e+00
      6.495      0.141     7.4894     47.882    122.249 105.678149     4.7921 4.3665e+01     1.6216      6.370      9.238    19.4102 0.0000e+00
      6.522      0.146     6.7099     42.312    122.580 105.223944     4.7283 4.1506e+01     1.5786      6.390      9.267    19.1386 0.0000e+00
      6.559      0.152     5.9011     38.853    122.761 104.633793     4.4765 3.9178e+01     1.5683      6.430      9.326    18.9139 0.0000e+00
      6.603      0.157     5.1308     37.476    122.954 104.061399     4.0107 3.7263e+01     1.4970      6.476      9.393    18.5561 0.0000e+00
      6.650      0.160     4.4528     37.844    123.100 103.549167     3.7518 3.5682e+01     1.4384      6.520      9.457    18.1926 0.0000e+00
      6.697      0.160     3.9382     39.444    123.294 103.141318     3.7215 3.4351e+01     1.4427      6.569      9.528    17.9271 0.0000e+00
      6.739      0.155     3.6346     41.734    123.597 102.808938     3.7217 3.3356e+01     1.4464      6.613      9.591    17.6173 0.0000e+00
      6.774      0.150     3.5397     44.225    123.817 102.391443     3.7552 3.2523e+01     1.4827      6.644      9.636    17.2886 0.0000e+00
      6.806      0.148     3.6123     46.599    123.858 101.840148     3.8048 3.1636e+01     1.5724      6.674      9.680    17.0450 0.0000e+00
      6.840      0.148     3.8007     48.595    123.916 101.320794     3.8271 3.0646e+01     1.6383      6.706      9.725    16.8310 0.0000e+00
      6.878      0.150     4.0633     50.046    124.072 100.880623     3.8077 2.9578e+01     1.6617      6.743      9.780    16.5884 0.0000e+00
      6.920      0.154     4.3356     50.890    124.263 100.469022     3.5704 2.8505e+01     1.7866      6.786      9.842    16.3415 0.0000e+00
      6.963      0.155     4.6012     50.924    124.464 100.090628     3.1345 2.7525e+01     2.0159      6.828      9.904    16.1035 0.0000e+00
      7.004      0.153     4.8281     49.871    124.603  99.711285     2.8910 2.6648e+01     2.1339      6.870      9.964    15.8809 0.0000e+00
      7.044      0.150     4.9929     47.660    124.722  99.356342     2.8448 2.5829e+01     2.1494      6.908     10.019    15.6510 0.0000e+00
      7.081      0.150     5.1109     44.449    124.855  99.000472     2.6968 2.5138e+01     2.3404      6.947     10.075    15.4186 0.0000e+00
      7.114      0.155     5.1515     40.512    124.889  98.541694     2.4455 2.4577e+01     2.6916      6.978     10.121    15.1983 0.0000e+00
      7.144      0.165     5.0705     36.259    125.081  98.236757     2.3127 2.3879e+01     2.8253      7.002     10.157    14.9980 0.0000e+00
      7.184      0.171     4.8563     32.150    125.531  98.242277     2.2877 2.2938e+01     2.7558      7.040     10.211    14.8328 0.0000e+00
      7.238      0.171     4.5424     28.581    125.743  98.199294     2.0828 2.1914e+01     2.7433      7.096     10.291    14.6482 0.0000e+00
      7.297      0.166     4.1451     25.917    125.551  97.921174     1.7079 2.0999e+01     2.7769      7.158     10.382    14.4447 0.0000e+00
      7.348      0.158     3.7081     24.372    125.318  97.604275     1.5086 2.0374e+01     2.7846      7.213     10.461    14.2502 0.0000e+00
      7.382      0.150     3.2861     23.875    125.165  97.296747     1.4929 2.0043e+01     2.7685      7.245     10.509    14.1041 0.0000e+00
      7.404      0.147     2.9088     24.219    125.155  97.063676     1.4317 1.9734e+01     2.7195      7.259     10.529    14.0326 0.0000e+00
      7.427      0.149     2.6271     25.280    125.305  96.965777     1.3160 1.9190e+01     2.6382      7.277     10.555    13.9954 0.0000e+00
      7.463      0.157     2.4751     27.041    125.390  96.862105     1.2552 1.8402e+01     2.5752      7.314     10.608    13.9498 0.0000e+00
      7.513      0.169     2.4380     29.495    125.406  96.763648     1.2424 1.7473e+01     2.5411      7.365     10.682    13.8695 0.0000e+00
      7.569      0.183     2.4832     32.545    125.296  96.592629     1.1344 1.6565e+01     2.5004      7.425     10.768    13.7718 0.0000e+00
      7.621      0.195     2.5974     35.961    125.141  96.360916     0.9387 1.5822e+01     2.4268      7.480     10.847    13.6828 0.0000e+00
      7.665      0.202     2.7846     39.445    125.208  96.277864     0.8354 1.5125e+01     2.3376      7.517     10.903    13.6104 0.0000e+00
      7.709      0.203     3.0444     42.707    125.432  96.337567     0.8219 1.4242e+01     2.2804      7.555     10.957    13.5722 0.0000e+00
      7.764      0.200     3.3728     45.472    125.598  96.401490     0.7576 1.3235e+01     2.2851      7.611     11.039    13.5499 0.0000e+00
      7.825      0.195     3.7438     47.492    125.605  96.369520     0.6481 1.2323e+01     2.3246      7.674     11.132    13.5022 0.0000e+00
      7.881      0.192     4.1222     48.617    125.487  96.223445     0.5906 1.1608e+01     2.3461      7.733     11.215    13.4401 0.0000e+00
      7.927      0.191     4.4777     48.865    125.394  96.065670     0.5831 1.1084e+01     2.3393      7.779     11.283    13.3904 0.0000e+00
      7.965      0.193     4.7778     48.401    125.468  96.028424     0.5740 1.0641e+01     2.3798      7.811     11.329    13.3688 0.0000e+00
      8.003      0.196     4.9961     47.455    125.596  96.045467     0.5672 1.0113e+01     2.4583      7.843     11.376    13.3629 0.0000e+00
      8.053      0.198     5.1150     46.262    125.696  96.067294     0.5778 9.4500e+00     2.4988      7.892     11.448    13.3427 0.0000e+00
      8.115      0.200     5.1383     45.015    125.656  96.019805     0.5900 8.7328e+00     2.5264      7.957     11.541    13.3027 0.0000e+00
      8.179      0.202     5.0860     43.850    125.394  95.811826     0.5592 8.1044e+00     2.5509      8.024     11.639    13.2623 0.0000e+00
      8.234      0.204     4.9817     42.871    125.259  95.664190     0.5005 7.6884e+00     2.5549      8.080     11.721    13.2299 0.0000e+00
      8.275      0.207     4.8518     42.134    125.360  95.665100     0.4696 7.3767e+00     2.5747      8.116     11.772    13.2033 0.0000e+00
      8.314      0.211     4.7176     41.634    125.483  95.686508     0.4629 6.9707e+00     2.6182      8.147     11.816    13.2014 0.0000e+00
      8.364      0.219     4.5898     41.343    125.685  95.786714     0.4802 6.4547e+00     2.7723      8.197     11.888    13.2093 0.0000e+00
      8.428      0.229     4.4870     41.166    125.907  95.923023     0.5147 5.9218e+00     3.0646      8.263     11.985    13.1891 0.0000e+00
      8.497      0.240     4.4147     40.939    125.992  95.972270     0.5329 5.4109e+00     3.2341      8.332     12.084    13.1507 0.0000e+00
      8.566      0.249     4.3655     40.568    126.022  95.973440     0.5434 4.9652e+00     3.2426      8.404     12.189    13.1213 0.0000e+00
      8.627      0.249     4.3392     39.991    126.024  95.937145     0.5549 4.6262e+00     3.3391      8.462     12.274    13.1001 0.0000e+00
      8.685      0.239     4.3311     39.133    126.069  95.942066     0.5692 4.2887e+00     3.5764      8.512     12.346    13.0858 0.0000e+00
      8.750      0.228     4.3100     38.031    126.111  95.964788     0.5768 3.9242e+00     3.7433      8.579     12.443    13.0847 0.0000e+00
      8.816      0.221     4.2715     36.775    126.002  95.871281     0.5776 3.6531e+00     3.7438      8.652     12.549    13.0790 0.0000e+00
      8.868      0.223     4.2194     35.444    125.992  95.833192     0.5956 3.4745e+00     3.6502      8.702     12.621    13.0583 0.0000e+00
      8.909      0.230     4.1268     34.179    126.060  95.844787     0.6211 3.2835e+00     3.5388      8.733     12.666    13.0428 0.0000e+00
      8.957      0.240     4.0066     33.173    125.966  95.738966     0.6348 3.0282e+00     3.4949      8.777     12.730    13.0455 0.0000e+00
      9.022      0.253     3.8734     32.565    126.046  95.779727     0.6400 2.7233e+00     3.5319      8.843     12.826    13.0450 0.0000e+00
      9.099      0.270     3.7294     32.443    126.522  96.133256     0.6830 2.4329e+00     3.8838      8.923     12.943    13.0290 0.0000e+00
      9.178      0.287     3.5886     32.806    126.887  96.403333     0.7652 2.2161e+00     4.5220      9.004     13.059    13.0111 0.0000e+00
      9.251      0.294     3.4800     33.500    126.794  96.320565     0.8103 2.0399e+00     4.8618      9.073     13.159    12.9969 0.0000e+00
      9.323      0.289     3.4126     34.278    126.589  96.154235     0.8205 1.8413e+00     4.9032      9.139     13.254    12.9888 0.0000e+00
      9.403      0.275     3.3987     34.874    126.513  96.095145     0.8977 1.6398e+00     5.2287      9.219     13.371    12.9881 0.0000e+00
      9.483      0.258     3.4439     35.072    126.491  96.082920     1.0411 1.4856e+00     5.8104      9.306     13.498    12.9862 0.0000e+00
      9.550      0.241     3.5267     34.777    126.571  96.142656     1.1241 1.3791e+00     6.1344      9.374     13.595    12.9796 0.0000e+00
      9.600      0.221     3.6202     34.092    126.753  96.272477     1.1559 1.2977e+00     6.4336      9.416     13.657    12.9739 0.0000e+00
      9.644      0.197     3.6902     33.195    126.786  96.290246     1.3555 1.2160e+00     9.2571      9.455     13.713    12.9739 0.0000e+00
      9.693      0.170     3.7170     32.226    126.606  96.153139     1.7176 1.1261e+00    14.3857      9.504     13.784    12.9783 0.0000e+00
      9.743      0.144     3.6794     31.367    126.450  96.045161     1.9183 1.0472e+00    17.2184      9.559     13.864    12.9779 0.0000e+00
      9.785      0.118     3.5995     30.779    126.463  96.074552     1.9523 1.0036e+00    18.0663      9.602     13.927    12.9727 0.0000e+00
      9.810      0.091     3.5027     30.501    126.652  96.236061     2.1378 9.9611e-01    24.6029      9.625     13.960    12.9695 0.0000e+00
      9.821      0.065     3.3928     30.500    126.808  96.363188     2.4710 9.8326e-01    36.5469      9.632     13.971    12.9685 0.0000e+00
      9.828      0.042     3.2942     30.719    126.746  96.317445     2.6517 9.5816e-01    43.1738      9.638     13.979    12.9727 0.0000e+00
      9.833      0.026     3.2316     31.051    126.621  96.227929     2.6749 9.4698e-01    44.7838      9.643     13.987    12.9822 0.0000e+00
      9.837      0.017     3.2032     31.388    126.607  96.234483     2.7773 9.4530e-01    56.1503      9.648     13.993    12.9907 0.0000e+00
      9.841      0.012     3.2045     31.719    126.604  96.260470     2.9711 9.4340e-01    76.9543      9.651     13.998    12.9942 0.0000e+00
      9.843      0.008     3.2314     32.030    126.402  96.133474     3.0848 9.3097e-01    88.2319      9.653     14.001    12.9929 0.0000e+00
      9.845      0.003     3.2728     32.262    126.198  95.993214     3.0850 9.1565e-01    88.0665      9.655     14.004    12.9931 0.0000e+00
      9.846     -0.006     3.3064     32.461    126.276  96.063145     2.8441 9.1993e-01    74.3360      9.657     14.006    13.0003 0.0000e+00
      9.846     -0.021     3.3386     32.688    126.371  96.161644     2.3916 9.4259e-01    48.9405      9.656     14.005    13.0135 0.0000e+00
      9.844     -0.044     3.3777     32.965    126.306  96.162452     2.1393 9.7265e-01    35.0052      9.654     14.002    13.0262 0.0000e+00
      9.837     -0.067     3.3961     33.326    126.292  96.209211     2.0910 1.0024e+00    33.1180      9.650     13.996    13.0307 0.0000e+00
      9.818     -0.085     3.4151     33.785    126.327  96.250264     1.8163 1.0484e+00    26.5688      9.636     13.976    13.0318 0.0000e+00
      9.782     -0.095     3.4390     34.306    126.304  96.182038     1.3158 1.1209e+00    14.8029      9.596     13.920    13.0397 0.0000e+00
      9.739     -0.095     3.4639     34.816    126.352  96.133504     1.0419 1.1868e+00     8.4133      9.545     13.844    13.0618 0.0000e+00
      9.706     -0.085     3.4989     35.232    126.453  96.140146     1.0180 1.2293e+00     7.8503      9.512     13.796    13.0935 0.0000e+00
      9.689     -0.068     3.5474     35.458    126.484  96.126039     1.1486 1.2476e+00     7.8925      9.499     13.778    13.1042 0.0000e+00
      9.683     -0.048     3.6081     35.428    126.464  96.099126     1.4070 1.2511e+00     8.0990      9.496     13.772    13.0778 0.0000e+00
      9.681     -0.031     3.6671     35.126    126.441  96.087194     1.5416 1.2552e+00     8.2187      9.495     13.771    13.0350 0.0000e+00
      9.678     -0.019     3.7182     34.610    126.471  96.118009     1.5366 1.2647e+00     8.2071      9.492     13.766    13.0056 0.0000e+00
      9.672     -0.011     3.7447     34.000    126.492  96.131140     1.4496 1.2874e+00     7.9934      9.485     13.756    12.9934 0.0000e+00
      9.666     -0.004     3.7433     33.407    126.480  96.109720     1.2966 1.3086e+00     7.5914      9.477     13.746    12.9888 0.0000e+00
      9.663      0.003     3.7092     32.907    126.433  96.063365     1.2122 1.3137e+00     7.3643      9.474     13.741    12.9932 0.0000e+00
      9.666      0.010     3.6484     32.534    126.329  95.979344     1.2007 1.3100e+00     7.3069      9.477     13.746    12.9991 0.0000e+00
      9.673      0.016     3.5807     32.289    126.333  95.979316     1.1922 1.2921e+00     7.1726      9.486     13.758    12.9974 0.0000e+00
      9.682      0.019     3.5157     32.198    126.448  96.063018     1.1871 1.2669e+00     6.9760      9.496     13.773    12.9906 0.0000e+00
      9.689      0.020     3.4618     32.255    126.420  96.037764     1.1907 1.2608e+00     6.8524      9.502     13.782    12.9855 0.0000e+00
      9.692      0.019     3.4240     32.395    125.767  95.537743     1.1936 1.2693e+00     6.8454      9.504     13.785    12.9847 0.0000e+00
      9.695      0.019     3.3964     32.561    118.776  90.221644     1.2055 1.2629e+00     6.9941      9.507     13.788    12.9837 0.0000e+00
      9.698      0.022     3.3861     32.724     40.325  30.603314     1.2298 1.2434e+00     7.2084      9.509     13.792    12.9820 0.0000e+00
      9.702      0.028     3.3965     32.877   -823.813-626.051326     1.2447 1.2282e+00     7.3076      9.514     13.798    12.9806 0.0000e+00
      9.709      0.033     3.4128     33.014  -1615.969 -1.228e+03     1.2552 1.2144e+00     7.3353      9.520     13.806    12.9791 0.0000e+00
      9.720      0.037     3.4322     33.136   -824.022-626.010567     1.2791 1.1945e+00     7.5090      9.530     13.823    12.9777 0.0000e+00
      9.734      0.038     3.4485     33.228     39.972  30.342230     1.3084 1.1682e+00     7.8288      9.546     13.845    12.9757 0.0000e+00
      9.747      0.036     3.4661     33.280    118.504  90.002842     1.3154 1.1514e+00     8.0091      9.560     13.865    12.9749 0.0000e+00
      9.756      0.032     3.4808     33.318    125.711  95.483682     1.3119 1.1527e+00     8.0755      9.570     13.880    12.9740 0.0000e+00
      9.761      0.026     3.4933     33.356    126.553  96.133769     1.3006 1.1525e+00     8.5630      9.573     13.885    12.9714 0.0000e+00
      9.765      0.018     3.5049     33.401    126.658  96.228222     1.2650 1.1412e+00     9.4393      9.575     13.888    12.9702 0.0000e+00
      9.770      0.012     3.5071     33.444    126.446  96.080797     1.2453 1.1281e+00     9.9498      9.581     13.897    12.9720 0.0000e+00
      9.774      0.007     3.5119     33.473    126.311  95.986055     1.2532 1.1181e+00    10.5479      9.587     13.905    12.9739 0.0000e+00
      9.774      0.004     3.5145     33.501    126.464  96.104448     1.3167 1.1141e+00    16.9454      9.586     13.903    12.9774 0.0000e+00
      9.772      0.002     3.5193     33.534    126.616  96.218081     1.4330 1.1136e+00    28.7292      9.582     13.899    12.9847 0.0000e+00
      9.771      0.000     3.5246     33.583    126.509  96.133899     1.4973 1.1123e+00    35.2293      9.582     13.898    12.9910 0.0000e+00
      9.771      0.000     3.5256     33.627    126.390  96.040234     1.5215 1.1054e+00    36.4167      9.582     13.897    12.9939 0.0000e+00
      9.771      0.001     3.5296     33.638    126.480  96.107314     1.6384 1.0981e+00    43.4980      9.582     13.898    12.9940 0.0000e+00
      9.772      0.002     3.5315     33.613    126.593  96.195694     1.8274 1.1039e+00    56.5084      9.583     13.900    12.9932 0.0000e+00
      9.773      0.002     3.5379     33.558    126.626  96.223329     1.9258 1.1135e+00    63.6716      9.584     13.901    12.9921 0.0000e+00
      9.774      0.002     3.5446     33.478    126.734  96.305210     1.9354 1.1160e+00    64.7040      9.585     13.902    12.9899 0.0000e+00
      9.774      0.001     3.5449     33.380    126.817  96.368312     1.9604 1.1176e+00    68.8530      9.586     13.903    12.9893 0.0000e+00
      9.774     -0.001     3.5424     33.282    126.731  96.305127     2.0195 1.1207e+00    76.3463      9.585     13.902    12.9909 0.0000e+00
      9.774     -0.009     3.5362     33.218    126.620  96.222412     2.0611 1.1171e+00    80.3219      9.585     13.902    12.9926 0.0000e+00
      9.774     -0.030     3.5275     33.194    126.657  96.253730     2.0474 1.1054e+00    79.6023      9.585     13.902    12.9918 0.0000e+00
      9.773     -0.066     3.5172     33.189    126.755  96.343205     1.8707 1.1072e+00    67.8851      9.586     13.903    12.9914 0.0000e+00
      9.768     -0.116     3.5043     33.210    126.639  96.282534     1.5633 1.1384e+00    46.3186      9.585     13.902    12.9930 0.0000e+00
      9.743     -0.173     3.4975     33.265    126.414  96.133246     1.4007 1.2269e+00    34.4876      9.569     13.880    12.9936 0.0000e+00
      9.686     -0.228     3.4969     33.336    126.374  96.104878     1.3780 1.3884e+00    32.8138      9.508     13.791    12.9932 0.0000e+00
      9.603     -0.271     3.4949     33.439    126.439  96.143896     1.2537 1.5798e+00    25.9443      9.418     13.660    12.9976 0.0000e+00
      9.511     -0.296     3.4950     33.593    126.344  96.060075     1.0250 1.7990e+00    13.5367      9.328     13.529    13.0125 0.0000e+00
      9.418     -0.300     3.5019     33.792    126.244  95.976891     0.9013 2.0182e+00     6.7702      9.232     13.389    13.0241 0.0000e+00
      9.335     -0.290     3.5086     34.038    126.217  95.955513     0.8851 2.1862e+00     6.1026      9.146     13.265    13.0226 0.0000e+00
      9.270     -0.278     3.5179     34.326    126.101  95.869710     0.8464 2.3572e+00     5.7047      9.088     13.183    13.0171 0.0000e+00
      9.214     -0.271     3.5367     34.643    126.036  95.824960     0.7893 2.5397e+00     5.0842      9.036     13.106    13.0115 0.0000e+00
      9.159     -0.267     3.5565     34.989    125.935  95.755033     0.7586 2.7476e+00     4.7447      8.986     13.033    13.0081 0.0000e+00
      9.093     -0.267     3.5830     35.367    125.767  95.637260     0.7516 3.0837e+00     4.6906      8.927     12.947    13.0086 0.0000e+00
      9.011     -0.272     3.6142     35.809    125.828  95.695168     0.7225 3.4940e+00     4.3952      8.837     12.816    13.0100 0.0000e+00
      8.929     -0.280     3.6463     36.343    126.005  95.842187     0.6667 3.8475e+00     3.8172      8.750     12.691    13.0114 0.0000e+00
      8.859     -0.289     3.6839     36.952    125.994  95.848246     0.6326 4.1399e+00     3.4695      8.685     12.597    13.0142 0.0000e+00
      8.799     -0.294     3.7213     37.585    125.865  95.768454     0.6311 4.4504e+00     3.4183      8.630     12.517    13.0180 0.0000e+00
      8.733     -0.292     3.7659     38.170    125.919  95.831052     0.6136 4.9394e+00     3.3701      8.572     12.434    13.0231 0.0000e+00
      8.649     -0.286     3.8229     38.645    126.097  95.992109     0.5592 5.6004e+00     3.2981      8.486     12.308    13.0275 0.0000e+00
      8.559     -0.281     3.8882     38.983    126.090  96.012947     0.5199 6.2183e+00     3.2695      8.387     12.164    13.0329 0.0000e+00
      8.480     -0.279     3.9569     39.128    125.880  95.878700     0.5194 6.7175e+00     3.2635      8.308     12.052    13.0408 0.0000e+00
      8.419     -0.279     4.0211     39.045    125.728  95.799383     0.5284 7.1239e+00     3.1236      8.252     11.969    13.0484 0.0000e+00
      8.367     -0.280     4.0692     38.829    125.760  95.871350     0.5324 7.5888e+00     2.8823      8.209     11.906    13.0596 0.0000e+00
      8.306     -0.282     4.1065     38.625    125.774  95.931535     0.5420 8.3550e+00     2.7841      8.156     11.830    13.0706 0.0000e+00
      8.225     -0.287     4.1243     38.532    125.775  95.982227     0.5495 9.3370e+00     2.7946      8.069     11.702    13.0783 0.0000e+00
      8.136     -0.294     4.1095     38.600    125.918  96.143743     0.5709 1.0307e+01     2.6998      7.976     11.568    13.0928 0.0000e+00
      8.051     -0.302     4.0782     38.841    125.980  96.249703     0.6179 1.1253e+01     2.5649      7.893     11.447    13.1135 0.0000e+00
      7.977     -0.307     4.0519     39.230    125.875  96.241724     0.6413 1.2078e+01     2.5367      7.815     11.334    13.1338 0.0000e+00
      7.914     -0.310     4.0389     39.780    125.855  96.319816     0.6459 1.2907e+01     2.5306      7.764     11.260    13.1527 0.0000e+00
      7.844     -0.314     4.0427     40.489    125.785  96.376629     0.6904 1.4231e+01     2.4571      7.703     11.173    13.1734 0.0000e+00
      7.756     -0.319     4.0691     41.274    125.632  96.383840     0.7719 1.5816e+01     2.3683      7.605     11.030    13.1952 0.0000e+00
      7.664     -0.324     4.1059     42.110    125.673  96.543386     0.8253 1.7251e+01     2.3161      7.514     10.899    13.2223 0.0000e+00
      7.574     -0.331     4.1581     43.035    125.922  96.875393     0.8410 1.8726e+01     2.3059      7.429     10.775    13.2605 0.0000e+00
      7.489     -0.334     4.2343     44.028    126.091  97.196736     0.9533 2.0076e+01     2.3819      7.337     10.642    13.3047 0.0000e+00
      7.413     -0.333     4.3123     45.006    126.074  97.431726     1.1782 2.1306e+01     2.4805      7.270     10.546    13.3560 0.0000e+00
      7.335     -0.332     4.3907     45.845    126.256  97.877710     1.3057 2.2904e+01     2.5027      7.201     10.445    13.4086 0.0000e+00
      7.245     -0.333     4.4846     46.398    126.521  98.502180     1.3158 2.4676e+01     2.5126      7.104     10.302    13.4536 0.0000e+00
      7.154     -0.340     4.5837     46.576    126.691  99.192267     1.3348 2.6392e+01     2.4967      7.014     10.172    13.5287 0.0000e+00
      7.069     -0.351     4.6780     46.322    126.848 100.022796     1.5622 2.8222e+01     2.4138      6.931     10.053    13.6370 0.0000e+00
      6.986     -0.359     4.7620     45.691    126.906 100.914655     1.9841 3.0347e+01     2.3348      6.851      9.937    13.7365 0.0000e+00
      6.896     -0.361     4.8031     44.922    126.824 101.801101     2.2220 3.3261e+01     2.2960      6.770      9.819    13.9068 0.0000e+00
      6.795     -0.361     4.8012     44.375    126.304 102.429697     2.2717 3.6755e+01     2.2537      6.663      9.665    14.1235 0.0000e+00
      6.693     -0.360     4.7472     44.543    125.776 103.065502     2.5328 4.0463e+01     2.1329      6.560      9.514    14.3976 0.0000e+00
      6.599     -0.360     4.6347     45.799    125.872 104.311317     3.0037 4.4727e+01     1.9685      6.470      9.384    14.7523 0.0000e+00
      6.513     -0.357     4.5132     48.208    125.500 105.433176     3.2576 4.9463e+01     1.8795      6.382      9.257    15.1046 0.0000e+00
      6.433     -0.351     4.3947     51.654    124.617 106.137698     3.3225 5.5738e+01     1.8461      6.314      9.157    15.5529 0.0000e+00
      6.344     -0.345     4.3560     55.762    124.645 107.515990     3.8149 6.3527e+01     1.7707      6.229      9.033    15.9724 0.0000e+00
      6.248     -0.339     4.4461     60.016    124.619 109.150790     4.7025 6.9727e+01     1.6546      6.121      8.876    16.3560 0.0000e+00
      6.159     -0.334     4.6199     64.323    123.472 110.026247     5.2018 7.4018e+01     1.6097      6.039      8.758    17.0064 0.0000e+00
      6.074     -0.327     4.8985     68.976    122.338 110.606352     5.4219 7.8190e+01     1.6397      5.958      8.642    17.6465 0.0000e+00
      5.992     -0.311     5.2740     74.310    121.545 111.122914     7.3289 8.2008e+01     1.7775      5.869      8.511    18.0385 0.0000e+00
      5.918     -0.284     5.5982     80.734    120.762 111.365904    10.8240 8.5823e+01     2.0046      5.807      8.422    18.7305 0.0000e+00
      5.841     -0.257     5.8734     88.215    120.386 111.705214    12.7409 9.0386e+01     2.0853      5.733      8.315    19.6431 0.0000e+00
      5.766     -0.235     6.2223     96.084    120.216 112.090806    12.9754 9.3967e+01     2.0672      5.642      8.181    20.2441 0.0000e+00
      5.716     -0.219     6.6182    103.541    120.223 112.620517    13.6250 9.5673e+01     2.0943      5.597      8.117    20.7377 0.0000e+00
      5.685     -0.208     7.1306    109.679    120.462 113.543237    14.7862 9.7603e+01     2.1379      5.582      8.097    21.1653 0.0000e+00
      5.643     -0.206     7.7934    113.971    120.289 114.318025    15.3977 1.0136e+02     2.1484      5.544      8.041    21.3935 0.0000e+00
      5.583     -0.217     8.4662    116.653    119.819 114.763606    15.3055 1.0578e+02     2.0849      5.473      7.937    21.6313 0.0000e+00
      5.523     -0.236     9.1264    118.053    119.649 115.318751    13.7317 1.0993e+02     1.9194      5.411      7.847    21.8061 0.0000e+00
      5.468     -0.251     9.6416    118.358    119.715 116.054306    10.8222 1.1601e+02     1.7267      5.372      7.792    22.0577 0.0000e+00
      5.397     -0.257     9.9048    117.918    119.789 116.772094     9.2147 1.2460e+02     1.6424      5.301      7.689    22.5391 0.0000e+00
      5.314     -0.260    10.0533    117.027    120.032 117.589442     8.9385 1.3198e+02     1.6212      5.203      7.546    22.9234 0.0000e+00
      5.245     -0.257    10.1239    115.707    120.148 118.301067     7.5002 1.3667e+02     1.5048      5.135      7.448    23.1811 0.0000e+00
      5.191     -0.243    10.0827    114.074    119.889 118.695069     4.8725 1.4161e+02     1.2988      5.096      7.392    23.4641 0.0000e+00
      5.131     -0.224     9.9764    112.396    119.358 118.808504     3.4284 1.4794e+02     1.1568      5.038      7.307    23.7581 0.0000e+00
      5.062     -0.213     9.8694    110.868    118.770 118.787110     3.2616 1.5284e+02     1.0927      4.955      7.187    23.9661 0.0000e+00
      5.012     -0.216     9.7084    109.518    118.470 118.982738     2.8559 1.5481e+02     1.0722      4.904      7.114    24.2146 0.0000e+00
      4.982     -0.221     9.5103    108.186    118.235 119.333444     2.1209 1.5721e+02     1.1160      4.894      7.097    24.4998 0.0000e+00
      4.937     -0.221     9.3192    106.810    117.766 119.550697     1.7176 1.6347e+02     1.1756      4.858      7.045    24.7726 0.0000e+00
      4.862     -0.222     9.1453    105.364    117.239 119.564903     1.6642 1.7175e+02     1.2093      4.769      6.917    25.0268 0.0000e+00
      4.783     -0.226     9.0169    103.543    116.934 119.574246     1.4580 1.7775e+02     1.4548      4.678      6.785    25.1885 0.0000e+00
      4.726     -0.222     8.8700    101.137    116.936 119.800511     1.0976 1.8136e+02     1.9468      4.630      6.716    25.4249 0.0000e+00
      4.681     -0.207     8.6943     98.448    117.127 120.187052     0.9050 1.8598e+02     2.2488      4.598      6.669    25.7857 0.0000e+00
      4.628     -0.195     8.5517     95.993    117.256 120.497605     0.8800 1.9098e+02     2.2902      4.537      6.580    26.0332 0.0000e+00
      4.580     -0.195     8.4009     94.133    117.178 120.623361     0.8641 1.9350e+02     2.0699      4.480      6.498    26.1262 0.0000e+00
      4.547     -0.206     8.1786     93.094    116.950 120.616785     0.8438 1.9569e+02     1.6449      4.463      6.472    26.2240 0.0000e+00
      4.507     -0.216     7.9323     92.983    116.827 120.691229     0.8333 2.0133e+02     1.4085      4.434      6.432    26.3041 0.0000e+00
      4.439     -0.223     7.7167     93.705    116.904 120.910023     0.8329 2.0993e+02     1.3751      4.358      6.322    26.3685 0.0000e+00
      4.359     -0.226     7.5487     95.050    116.842 120.943798     0.8129 2.1762e+02     1.2755      4.267      6.188    26.4597 0.0000e+00
      4.294     -0.219     7.4457     96.720    116.627 120.826974     0.7822 2.2296e+02     1.0623      4.205      6.099    26.5647 0.0000e+00
      4.242     -0.194     7.4289     98.325    116.611 120.929761     0.7657 2.2859e+02     0.9258      4.165      6.041    26.6603 0.0000e+00
      4.191     -0.154     7.4846     99.598    116.722 121.163852     0.7521 2.3414e+02     0.8949      4.107      5.958    26.7144 0.0000e+00
      4.149     -0.113     7.5960    100.513    116.731 121.270702     0.7303 2.3661e+02     0.8259      4.058      5.885    26.7442 0.0000e+00
      4.130     -0.083     7.7360    101.169    116.670 121.267094     0.7103 2.3679e+02     0.7108      4.045      5.866    26.7920 0.0000e+00
      4.128     -0.066     7.8653    101.637    116.633 121.256719     0.6998 2.3659e+02     0.6354      4.047      5.870    26.8459 0.0000e+00
      4.128     -0.063     7.9588    101.980    116.646 121.281685     0.6903 2.3650e+02     0.6005      4.049      5.873    26.8988 0.0000e+00
      4.123     -0.072     8.0206    102.265    116.656 121.296192     0.6909 2.3760e+02     0.5986      4.047      5.871    26.9453 0.0000e+00
      4.105     -0.086     8.0692    102.535    116.651 121.295742     0.7073 2.4127e+02     0.6476      4.033      5.851    26.9681 0.0000e+00
      4.069     -0.098     8.1023    102.785    116.683 121.344442     0.7073 2.4707e+02     0.6766      3.995      5.794    26.9782 0.0000e+00
      4.024     -0.107     8.1279    102.971    116.722 121.407671     0.6906 2.5204e+02     0.6411      3.941      5.717    26.9814 0.0000e+00
      3.989     -0.116     8.1482    103.066    116.807 121.514718     0.6700 2.5373e+02     0.4931      3.903      5.662    26.9831 0.0000e+00
      3.972     -0.124     8.1706    103.119    116.894 121.615817     0.6489 2.5438e+02     0.2936      3.893      5.647    26.9820 0.0000e+00
      3.958     -0.128     8.1910    103.164    116.875 121.607110     0.6439 2.5753e+02     0.1867      3.889      5.639    26.9885 0.0000e+00
      3.929     -0.130     8.2050    103.095    116.800 121.545860     0.6443 2.6309e+02     0.1626      3.863      5.601    27.0034 0.0000e+00
      3.880     -0.138     8.2105    102.910    116.725 121.489057     0.6359 2.6914e+02     0.2421      3.807      5.521    27.0097 0.0000e+00
      3.827     -0.155     8.2096    102.786    116.757 121.534122     0.6116 2.7334e+02     0.3576      3.745      5.432    27.0131 0.0000e+00
      3.791     -0.170     8.2199    102.789    116.833 121.613387     0.5851 2.7524e+02     0.3920      3.711      5.384    27.0177 0.0000e+00
      3.765     -0.176     8.2139    102.814    116.778 121.560879     0.5839 2.7863e+02     0.4177      3.701      5.368    27.0241 0.0000e+00
      3.723     -0.179     8.1891    102.787    116.713 121.513033     0.6227 2.8632e+02     0.4970      3.661      5.310    27.0361 0.0000e+00
      3.662     -0.184     8.1761    102.753    116.816 121.648693     0.6815 2.9417e+02     0.5958      3.586      5.201    27.0427 0.0000e+00
      3.606     -0.189     8.1823    102.778    116.901 121.769043     0.7056 2.9868e+02     0.6513      3.528      5.117    27.0382 0.0000e+00
      3.562     -0.187     8.1871    102.866    116.772 121.672471     0.6974 3.0470e+02     0.6519      3.495      5.069    27.0376 0.0000e+00
      3.516     -0.177     8.1800    102.896    116.642 121.572273     0.6775 3.1400e+02     0.6370      3.452      5.008    27.0497 0.0000e+00
      3.464     -0.171     8.1744    102.780    116.693 121.648778     0.6551 3.2075e+02     0.6436      3.392      4.921    27.0619 0.0000e+00
      3.421     -0.179     8.1728    102.635    116.807 121.779168     0.6439 3.2257e+02     0.6633      3.346      4.853    27.0745 0.0000e+00
      3.395     -0.197     8.1820    102.611    116.803 121.784869     0.6377 3.2369e+02     0.6689      3.331      4.832    27.0925 0.0000e+00
      3.361     -0.216     8.1868    102.698    116.719 121.717737     0.6232 3.2904e+02     0.6427      3.311      4.801    27.1092 0.0000e+00
      3.296     -0.235     8.1705    102.799    116.752 121.785889     0.5987 3.3776e+02     0.6209      3.241      4.700    27.1195 0.0000e+00
      3.213     -0.248     8.1527    102.918    116.846 121.926974     0.5837 3.4586e+02     0.6467      3.145      4.562    27.1218 0.0000e+00
      3.135     -0.247     8.1518    103.122    116.801 121.923300     0.5810 3.5376e+02     0.6452      3.071      4.455    27.1243 0.0000e+00
      3.065     -0.222     8.1619    103.376    116.725 121.877935     0.5576 3.6401e+02     0.5684      3.008      4.362    27.1330 0.0000e+00
      3.000     -0.178     8.1672    103.551    116.807 121.992307     0.5091 3.7304e+02     0.4735      2.934      4.255    27.1469 0.0000e+00
      2.957     -0.130     8.1702    103.597    116.870 122.078637     0.4801 3.7456e+02     0.4240      2.886      4.187    27.1683 0.0000e+00
      2.942     -0.094     8.1843    103.582    116.754 121.966993     0.4747 3.7053e+02     0.4163      2.880      4.177    27.1881 0.0000e+00
      2.943     -0.078     8.2079    103.579    116.659 121.870023     0.4616 3.6872e+02     0.3468      2.886      4.186    27.2014 0.0000e+00
      2.944     -0.084     8.2217    103.654    116.715 121.929158     0.4341 3.6870e+02     0.2011      2.891      4.193    27.2140 0.0000e+00
      2.934     -0.108     8.2202    103.823    116.850 122.068214     0.4112 3.6749e+02     0.1308      2.885      4.185    27.2237 0.0000e+00
      2.904     -0.137     8.2174    104.044    116.963 122.187379     0.4109 3.7014e+02     0.1502      2.857      4.144    27.2272 0.0000e+00
      2.849     -0.159     8.2149    104.269    116.976 122.210593     0.4036 3.7894e+02     0.1946      2.800      4.060    27.2265 0.0000e+00
      2.779     -0.169     8.2198    104.452    116.965 122.212517     0.3751 3.8727e+02     0.2905      2.722      3.947    27.2276 0.0000e+00
      2.720     -0.172     8.2360    104.569    116.955 122.210663     0.3611 3.9057e+02     0.3825      2.655      3.851    27.2262 0.0000e+00
      2.687     -0.168     8.2538    104.588    116.932 122.188183     0.3553 3.8957e+02     0.4135      2.629      3.813    27.2248 0.0000e+00
      2.667     -0.157     8.2733    104.505    116.951 122.213523     0.3483 3.8482e+02     0.4246      2.620      3.800    27.2307 0.0000e+00
      2.638     -0.141     8.2865    104.409    116.971 122.244264     0.3556 3.8412e+02     0.4487      2.596      3.764    27.2379 0.0000e+00
      2.591     -0.126     8.2961    104.358    117.002 122.287092     0.3646 3.8883e+02     0.4650      2.544      3.690    27.2416 0.0000e+00
      2.540     -0.111     8.3000    104.332    117.031 122.322175     0.3617 3.8842e+02     0.4499      2.481      3.600    27.2401 0.0000e+00
      2.505     -0.096     8.2881    104.272    116.970 122.259264     0.3561 3.8555e+02     0.3692      2.448      3.550    27.2417 0.0000e+00
      2.492     -0.086     8.2781    104.098    116.921 122.208430     0.3573 3.8605e+02     0.2442      2.442      3.541    27.2482 0.0000e+00
      2.490     -0.089     8.2746    103.829    116.966 122.253145     0.3587 3.8447e+02     0.1743      2.441      3.540    27.2527 0.0000e+00
      2.488     -0.111     8.2734    103.636    116.975 122.254324     0.3564 3.8277e+02     0.1420      2.444      3.545    27.2546 0.0000e+00
      2.473     -0.146     8.2720    103.628    116.950 122.222675     0.3375 3.8550e+02     0.1289      2.438      3.535    27.2547 0.0000e+00
      2.428     -0.184     8.2586    103.705    117.000 122.279680     0.3035 3.9087e+02     0.1532      2.394      3.471    27.2554 0.0000e+00
      2.352     -0.217     8.2306    103.740    117.100 122.397986     0.2845 3.9569e+02     0.1615      2.310      3.351    27.2548 0.0000e+00
      2.268     -0.237     8.2110    103.752    117.107 122.425534     0.2801 3.9633e+02     0.1602      2.216      3.214    27.2494 0.0000e+00
      2.199     -0.232     8.2162    103.852    117.001 122.339998     0.2771 3.9408e+02     0.1714      2.150      3.119    27.2452 0.0000e+00
      2.145     -0.204     8.2267    104.059    116.947 122.318618     0.2821 3.9286e+02     0.1602      2.106      3.055    27.2486 0.0000e+00
      2.093     -0.166     8.2274    104.317    117.023 122.439873     0.2969 3.9454e+02     0.1273      2.049      2.973    27.2550 0.0000e+00
      2.051     -0.139     8.2223    104.572    117.188 122.646755     0.3006 3.9906e+02     0.1173      2.000      2.900    27.2633 0.0000e+00
      2.032     -0.137     8.2281    104.723    117.287 122.774060     0.2756 3.9740e+02     0.0738      1.987      2.880    27.2735 0.0000e+00
      2.027     -0.158     8.2462    104.776    117.179 122.683350     0.2371 3.8328e+02    -0.0207      1.993      2.890    27.2882 0.0000e+00
      2.008     -0.192     8.2622    104.863    117.051 122.573035     0.2157 3.7751e+02    -0.0646      1.983      2.875    27.3101 0.0000e+00
      1.954     -0.231     8.2853    105.011    117.051 122.599714     0.2159 3.8692e+02    -0.0793      1.930      2.798    27.3252 0.0000e+00
      1.868     -0.267     8.2975    105.183    117.019 122.596774     0.2225 3.9223e+02    -0.0953      1.837      2.664    27.3319 0.0000e+00
      1.766     -0.293     8.2916    105.293    117.001 122.605740     0.2262 3.9123e+02    -0.0863      1.727      2.505    27.3422 0.0000e+00
      1.674     -0.298     8.2997    105.288    117.079 122.708160     0.2258 3.9401e+02    -0.0736      1.631      2.364    27.3518 0.0000e+00
      1.604     -0.278     8.3095    105.271    117.095 122.743965     0.2267 3.9629e+02    -0.0789      1.570      2.277    27.3626 0.0000e+00
      1.543     -0.236     8.3234    105.317    117.035 122.697683     0.2284 4.0207e+02    -0.0814      1.519      2.203    27.3779 0.0000e+00
      1.479     -0.186     8.3349    105.399    117.019 122.694196     0.2294 4.1470e+02    -0.0706      1.447      2.098    27.3891 0.0000e+00
      1.425     -0.137     8.3269    105.488    117.018 122.701836     0.2294 4.1695e+02    -0.0857      1.385      2.009    27.3977 0.0000e+00
      1.398     -0.093     8.3220    105.525    116.967 122.653663     0.2199 4.1095e+02    -0.0922      1.364      1.978    27.4061 0.0000e+00
      1.393     -0.056     8.3271    105.474    116.967 122.657354     0.1934 4.0436e+02    -0.0448      1.364      1.979    27.4129 0.0000e+00
      1.396     -0.032     8.3324    105.402    117.048 122.746464     0.1683 3.9895e+02    -0.0287      1.369      1.986    27.4191 0.0000e+00
      1.401     -0.034     8.3406    105.356    117.076 122.776282     0.1679 4.0928e+02    -0.0691      1.375      1.994    27.4227 0.0000e+00
      1.405     -0.067     8.3467    105.325    117.048 122.745097     0.1719 4.5186e+02    -0.0876      1.378      1.999    27.4239 0.0000e+00
      1.400     -0.118     8.3378    105.319    117.083 122.778617     0.1642 4.9015e+02    -0.0799      1.381      2.003    27.4261 0.0000e+00
      1.372     -0.173     8.3305    105.361    117.206 122.908767     0.1614 4.9365e+02    -0.0798      1.361      1.973    27.4283 0.0000e+00
      1.308     -0.221     8.3288    105.425    117.306 123.022914     0.1642 4.9556e+02    -0.0854      1.293      1.875    27.4282 0.0000e+00
      1.218     -0.257     8.3250    105.398    117.263 122.999353     0.1626 5.1687e+02    -0.0796      1.193      1.730    27.4275 0.0000e+00
      1.129     -0.275     8.3248    105.246    117.183 122.964938     0.1598 5.6057e+02    -0.0785      1.098      1.593    27.4251 0.0000e+00
      1.056     -0.275     8.3271    105.061    117.226 123.084304     0.1564 6.0012e+02    -0.1056      1.033      1.499    27.4246 0.0000e+00
      0.991     -0.269     8.3369    104.929    117.326 123.283284     0.1478 6.2414e+02    -0.1324      0.973      1.412    27.4294 0.0000e+00
      0.930     -0.270     8.3358    104.948    117.376 123.461277     0.1509 6.4557e+02    -0.1278      0.904      1.312    27.4345 0.0000e+00
      0.879     -0.281     8.3151    105.177    117.426 123.667938     0.1682 6.2519e+02    -0.0499      0.862      1.251    27.4560 0.0000e+00
      0.822     -0.299     8.2951    105.543    117.531 123.940759     0.1749 5.4614e+02     0.0886      0.823      1.192    27.4918 0.0000e+00
      0.734     -0.317     8.2755    105.898    117.594 124.168433     0.1717 4.6891e+02     0.1728      0.729      1.058    27.5266 0.0000e+00
      0.627     -0.327     8.2669    106.169    117.575 124.306637     0.1639 4.4672e+02     0.1787      0.608      0.882    27.5797 0.0000e+00
      0.530     -0.319     8.2769    106.426    117.583 124.452522     0.1578 4.9253e+02     0.1255      0.513      0.745    27.6508 0.0000e+00
      0.445     -0.289     8.3007    106.686    117.594 124.568414     0.1673 5.7253e+02     0.0095      0.439      0.636    27.7205 0.0000e+00
      0.365     -0.245     8.3219    106.845    117.513 124.548536     0.1747 6.7265e+02    -0.0557      0.351      0.509    27.7885 0.0000e+00
      0.306     -0.200     8.3280    106.884    117.421 124.485107     0.1694 7.2391e+02    -0.0447      0.284      0.412    27.8594 0.0000e+00
      0.279     -0.159     8.3379    106.873    117.389 124.483621     0.1645 6.3192e+02    -0.0636      0.270      0.392    27.9207 0.0000e+00
      0.262     -0.123     8.3578    106.869    117.382 124.530625     0.1503 5.6057e+02    -0.1469      0.267      0.387    27.9633 0.0000e+00
      0.231     -0.089     8.3656    106.923    117.439 124.644280     0.1275 7.0615e+02    -0.2632      0.227      0.330    27.9936 0.0000e+00
      0.198     -0.062     8.3643    107.032    117.522 124.766576     0.1140 8.8510e+02    -0.3357      0.185      0.270    28.0018 0.0000e+00
      0.182     -0.039     8.3616    107.071    117.517 124.781618     0.1082 8.6911e+02    -0.3362      0.175      0.254    28.0085 0.0000e+00
      0.179     -0.017     8.3552    106.945    117.416 124.689769     0.1098 8.0004e+02    -0.3044      0.174      0.252    28.0396 0.0000e+00
      0.184      0.005     8.3543    106.721    117.328 124.610966     0.1161 7.4432e+02    -0.2950      0.177      0.259    28.0648 0.0000e+00
      0.194      0.016     8.3657    106.459    117.352 124.647333     0.1148 7.5288e+02    -0.3258      0.190      0.275    28.0766 0.0000e+00
      0.207      0.011     8.3727    106.187    117.408 124.720254     0.1108 8.3320e+02    -0.3670      0.205      0.297    28.0853 0.0000e+00
      0.218     -0.007     8.3567    105.954    117.472 124.810589     0.1119 8.8055e+02    -0.3815      0.216      0.313    28.0904 0.0000e+00
      0.219     -0.027     8.3374    105.806    117.592 124.989328     0.1104 9.1165e+02    -0.3640      0.220      0.320    28.0980 0.0000e+00
      0.206     -0.045     8.3165    105.805    117.632 125.108046     0.1094 9.1260e+02    -0.3613      0.209      0.302    28.1015 0.0000e+00
      0.179     -0.054     8.2920    105.960    117.550 125.086591     0.1099 9.7392e+02    -0.3483      0.176      0.256    28.1057 0.0000e+00
      0.149     -0.053     8.2729    106.152    117.438 125.002847     0.0897 1.0461e+03    -0.3098      0.142      0.205    28.1126 0.0000e+00
      0.129     -0.042     8.2559    106.252    117.402 124.982262     0.0566 1.0978e+03    -0.3085      0.122      0.176    28.1312 0.0000e+00
      0.124     -0.023     8.2486    106.252    117.449 125.042347     0.0383 1.1534e+03    -0.3326      0.118      0.172    28.1742 0.0000e+00
      0.128     -0.003     8.2600    106.207    117.389 124.979056     0.0422 1.1168e+03    -0.3610      0.124      0.181    28.2052 0.0000e+00
      0.136      0.017     8.2790    106.184    117.326 124.899096     0.0693 1.0725e+03    -0.3767      0.133      0.194    28.2152 0.0000e+00
      0.143      0.033     8.2845    106.222    117.406 124.962253     0.0973 1.2252e+03    -0.3509      0.142      0.205    28.2227 0.0000e+00
      0.150      0.041     8.2821    106.263    117.453 124.992350     0.1023 1.4096e+03    -0.3238      0.147      0.212    28.2271 0.0000e+00
      0.159      0.033     8.2770    106.241    117.459 124.990130     0.0963 1.3531e+03    -0.3242      0.153      0.222    28.2287 0.0000e+00
      0.176      0.003     8.2733    106.166    117.467 125.003611     0.0938 1.2326e+03    -0.3203      0.170      0.247    28.2228 0.0000e+00
      0.197     -0.053     8.2813    106.095    117.466 125.018943     0.0974 1.0672e+03    -0.3117      0.199      0.287    28.2108 0.0000e+00
      0.204     -0.127     8.2881    106.044    117.586 125.175546     0.1044 9.8440e+02    -0.3231      0.214      0.311    28.2012 0.0000e+00
      0.171     -0.206     8.2863    105.937    117.684 125.328346     0.1094 1.2484e+03    -0.3209      0.187      0.272    28.1965 0.0000e+00
      0.089     -0.276     8.2780    105.520    117.597 125.297729     0.0982 1.5726e+03    -0.2844      0.100      0.144    28.1989 0.0000e+00
     -0.026     -0.321     8.2703    104.408    117.477 125.214714     0.1071 1.6479e+03    -0.0888     -0.027     -0.039    28.2081 0.0000e+00
     -0.145     -0.335     8.2669    102.393    117.277 125.006790     0.5903 1.4597e+03     1.9069     -0.148     -0.215    28.2167 0.0000e+00
     -0.247     -0.315     8.2613     99.595    115.217 122.783752     6.1230 1.2001e+03    23.7774     -0.253     -0.369    28.2376 0.0000e+00
     -0.321     -0.265     8.2384     96.294     92.429  98.472535    66.8892 1.0841e+03   264.5513     -0.326     -0.473    28.2709 0.0000e+00
     -0.370     -0.203     8.1542     92.914     48.581  51.740384   178.2764 1.0689e+03   705.8609     -0.361     -0.524    28.2928 0.0000e+00
     -0.410     -0.143     7.9941     90.629     21.229  22.584512   239.0397 1.0285e+03   944.7234     -0.405     -0.589    28.2955 0.0000e+00
     -0.440     -0.093     7.7659     90.662     16.185  17.188118   244.5750 9.0266e+02   944.8447     -0.442     -0.641    28.2779 0.0000e+00
     -0.452     -0.057     7.5115     92.683     15.170  16.081971   245.0727 7.1031e+02   707.0872     -0.445     -0.645    28.2570 0.0000e+00
     -0.453     -0.032     7.2168     95.523     14.474  15.316290   245.1089 5.3031e+02   267.7990     -0.443     -0.644    28.2369 0.0000e+00
     -0.453     -0.013     6.9919     98.345     14.381  15.189560   245.1174 3.9347e+02    28.3240     -0.445     -0.645    28.1737 0.0000e+00
     -0.452     -0.006     7.0236     99.667     14.623  15.431582   245.1231 3.1008e+02     8.5376     -0.444     -0.643    28.0882 0.0000e+00
     -0.452 -9.990e-29     7.2444 -9.990e-29 -9.990e-29 -9.990e-29 -9.990e-29 2.7294e+02 -9.990e-29     -0.443     -0.643    27.9984 0.0000e+00
     -0.452 -9.990e-29     7.4793 -9.990e-29 -9.990e-29 -9.990e-29 -9.990e-29 2.5459e+02 -9.990e-29     -0.443     -0.643    27.9042 0.0000e+00
     -0.451 -9.990e-29     7.7608 -9.990e-29 -9.990e-29 -9.990e-29 -9.990e-29 2.4810e+02 -9.990e-29     -0.443     -0.642    27.7904 0.0000e+00
     -0.451 -9.990e-29     7.9451 -9.990e-29 -9.990e-29 -9.990e-29 -9.990e-29 2.4770e+02 -9.990e-29     -0.443     -0.642    27.7172 0.0000e+00
