* Sea-Bird SBE19plus  Data File:
* FileName = C:\DATA\082018_fcr_0001.hex
* Software version 2.6.3.104
* Temperature SN = 7809
* Conductivity SN = 7809
* System UpLoad Time = Aug 20 2018 17:52:05
* <ApplicationData>
* <Seaterm232>
* <SoftwareVersion>2.6.3.104</SoftwareVersion>
* <BuildDate>30-Jun-2017</BuildDate>
* </Seaterm232>
* </ApplicationData>
* <InstrumentState>
* <HardwareData DeviceType='SBE19plus' SerialNumber='01907809'>
*
*    <Manufacturer>Sea-Bird Electronics, Inc.</Manufacturer>
*
*    <FirmwareVersion>3.1.8</FirmwareVersion>
*
*    <FirmwareDate>Mar  9 2016 16:22:29</FirmwareDate>
*
*    <CommandSetVersion>1.4</CommandSetVersion>
*
*    <PCBAssembly PCBSerialNum='120721' AssemblyNum='41054J'/>
*
*    <PCBAssembly PCBSerialNum='120715' AssemblyNum='41967A'/>
*
*    <PCBAssembly PCBSerialNum='116699' AssemblyNum='41606'/>
*
*    <PCBAssembly PCBSerialNum='120719' AssemblyNum='41059D'/>
*
*    <MfgDate>28-Apr-2017</MfgDate>
*
*    <InternalSensors>
*
*       <Sensor id='Main Temperature'>
*
*          <type>temperature0</type>
*
*          <SerialNumber>01907809</SerialNumber>
*
*       </Sensor>
*
*       <Sensor id='Main Conductivity'>
*
*          <type>conductivity-0</type>
*
*          <SerialNumber>01907809</SerialNumber>
*
*       </Sensor>
*
*       <Sensor id='Main Pressure'>
*
*          <type>strain-0</type>
*
*          <SerialNumber>10586018</SerialNumber>
*
*       </Sensor>
*
*    </InternalSensors>
*
*    <ExternalSensors>
*
*       <Sensor id='volt 0'>
*
*          <type>pH</type>
*
*          <SerialNumber>27-0363</SerialNumber>
*
*       </Sensor>
*
*       <Sensor id='volt 1'>
*
*          <type>ORP</type>
*
*          <SerialNumber>27-0363</SerialNumber>
*
*       </Sensor>
*
*       <Sensor id='volt 2'>
*
*          <type>OXY</type>
*
*          <SerialNumber>43-0434</SerialNumber>
*
*       </Sensor>
*
*       <Sensor id='volt 3'>
*
*          <type>PAR</type>
*
*          <SerialNumber>1122</SerialNumber>
*
*       </Sensor>
*
*       <Sensor id='volt 4'>
*
*          <type>ECO AFL/FL</type>
*
*          <SerialNumber>FLNTURT-2496</SerialNumber>
*
*       </Sensor>
*
*       <Sensor id='volt 5'>
*
*          <type>ECO-NTU</type>
*
*          <SerialNumber>FLNTURT-2496</SerialNumber>
*
*       </Sensor>
*
*       <Sensor id='serial'>
*
*          <type>not assigned</type>
*
*          <SerialNumber>not assigned</SerialNumber>
*
*       </Sensor>
*
*    </ExternalSensors>
*
* </HardwareData>
* <StatusData DeviceType='SBE19plus' SerialNumber='01907809'>
*
*    <DateTime>2018-08-20T21:51:35</DateTime>
*
*    <LoggingState>not logging</LoggingState>
*
*    <EventSummary numEvents='0'/>
*
*    <Power>
*
*       <vMain>13.0</vMain>
*
*       <vLith>8.7</vLith>
*
*       <iMain>63.3</iMain>
*
*       <iPump>40.8</iPump>
*
*       <iExt01>13.7</iExt01>
*
*       <iExt2345>42.5</iExt2345>
*
*    </Power>
*
*    <MemorySummary>
*
*       <Bytes>97175</Bytes>
*
*       <Samples>4225</Samples>
*
*       <SamplesFree>2856563</SamplesFree>
*
*       <SampleLength>23</SampleLength>
*
*       <Profiles>5</Profiles>
*
*    </MemorySummary>
*
* </StatusData>
* <ConfigurationData DeviceType='SBE19plus' SerialNumber='01907809'>
*
*    <ProfileMode>
*
*       <ScansToAverage>1</ScansToAverage>
*
*       <MinimumCondFreq>5</MinimumCondFreq>
*
*       <PumpDelay>45</PumpDelay>
*
*       <AutoRun>no</AutoRun>
*
*       <IgnoreSwitch>no</IgnoreSwitch>
*
*    </ProfileMode>
*
*    <Battery>
*
*       <Type>alkaline</Type>
*
*       <CutOff>7.5</CutOff>
*
*    </Battery>
*
*    <DataChannels>
*
*       <ExtVolt0>yes</ExtVolt0>
*
*       <ExtVolt1>yes</ExtVolt1>
*
*       <ExtVolt2>yes</ExtVolt2>
*
*       <ExtVolt3>yes</ExtVolt3>
*
*       <ExtVolt4>yes</ExtVolt4>
*
*       <ExtVolt5>yes</ExtVolt5>
*
*       <SBE38>no</SBE38>
*
*       <WETLABS>no</WETLABS>
*
*       <OPTODE>no</OPTODE>
*
*       <SBE63>no</SBE63>
*
*       <SeaFET>no</SeaFET>
*
*       <GTD>no</GTD>
*
*    </DataChannels>
*
*    <EchoCharacters>yes</EchoCharacters>
*
*    <OutputExecutedTag>yes</OutputExecutedTag>
*
*    <OutputFormat>raw HEX</OutputFormat>
*
* </ConfigurationData>
* <CalibrationCoefficients DeviceType='SBE19plus' SerialNumber='01907809'>
*
*    <Calibration format='TEMP1' id='Main Temperature'>
*
*       <SerialNum>01907809</SerialNum>
*
*       <CalDate>09-Mar-18</CalDate>
*
*       <TA0>1.210932e-03</TA0>
*
*       <TA1>2.843566e-04</TA1>
*
*       <TA2>-1.945074e-06</TA2>
*
*       <TA3>2.128067e-07</TA3>
*
*       <TOFFSET>0.000000e+00</TOFFSET>
*
*    </Calibration>
*
*    <Calibration format='WBCOND0' id='Main Conductivity'>
*
*       <SerialNum>01907809</SerialNum>
*
*       <CalDate>09-Mar-18</CalDate>
*
*       <G>-1.006721e+00</G>
*
*       <H>1.269065e-01</H>
*
*       <I>-1.405844e-04</I>
*
*       <J>2.478371e-05</J>
*
*       <CPCOR>-9.570000e-08</CPCOR>
*
*       <CTCOR>3.250000e-06</CTCOR>
*
*       <CSLOPE>1.000000e+00</CSLOPE>
*
*    </Calibration>
*
*    <Calibration format='STRAIN0' id='Main Pressure'>
*
*       <SerialNum>10586018</SerialNum>
*
*       <CalDate>07-Mar-18</CalDate>
*
*       <PA0>-4.081764e-02</PA0>
*
*       <PA1>4.851884e-04</PA1>
*
*       <PA2>-3.511682e-12</PA2>
*
*       <PTCA0>5.252134e+05</PTCA0>
*
*       <PTCA1>1.795324e+00</PTCA1>
*
*       <PTCA2>-2.843535e-01</PTCA2>
*
*       <PTCB0>2.516687e+01</PTCB0>
*
*       <PTCB1>3.750000e-04</PTCB1>
*
*       <PTCB2>0.000000e+00</PTCB2>
*
*       <PTEMPA0>-5.378069e+01</PTEMPA0>
*
*       <PTEMPA1>5.366207e+01</PTEMPA1>
*
*       <PTEMPA2>4.872143e-02</PTEMPA2>
*
*       <POFFSET>5.000000e-01</POFFSET>
*
*       <PRANGE>1.600000e+02</PRANGE>
*
*    </Calibration>
*
*    <Calibration format='VOLT0' id='Volt 0'>
*
*       <OFFSET>-4.920000e-02</OFFSET>
*
*       <SLOPE>1.248122e+00</SLOPE>
*
*    </Calibration>
*
*    <Calibration format='VOLT0' id='Volt 1'>
*
*       <OFFSET>-4.784000e-02</OFFSET>
*
*       <SLOPE>1.248871e+00</SLOPE>
*
*    </Calibration>
*
*    <Calibration format='VOLT0' id='Volt 2'>
*
*       <OFFSET>-4.864632e-02</OFFSET>
*
*       <SLOPE>1.248714e+00</SLOPE>
*
*    </Calibration>
*
*    <Calibration format='VOLT0' id='Volt 3'>
*
*       <OFFSET>-4.743790e-02</OFFSET>
*
*       <SLOPE>1.248571e+00</SLOPE>
*
*    </Calibration>
*
*    <Calibration format='VOLT0' id='Volt 4'>
*
*       <OFFSET>-4.671263e-02</OFFSET>
*
*       <SLOPE>1.248951e+00</SLOPE>
*
*    </Calibration>
*
*    <Calibration format='VOLT0' id='Volt 5'>
*
*       <OFFSET>-4.871053e-02</OFFSET>
*
*       <SLOPE>1.249136e+00</SLOPE>
*
*    </Calibration>
*
*    <Calibration format='FREQ0' id='external frequency channel'>
*
*       <EXTFREQSF>1.000014e+00</EXTFREQSF>
*
*    </Calibration>
*
* </CalibrationCoefficients>
* <EventCounters DeviceType='SBE19plus' SerialNumber='01907809'>
*
*    <EventSummary numEvents='0'/>
*
* </EventCounters></InstrumentState>
* <Headers>
*
* cast   1 20 Aug 2018 15:22:31 samples 1 to 891, avg = 1, stop = mag switch
*
# nquan = 17
# nvalues = 689                         
# units = specified
# name 0 = depFM: Depth [fresh water, m]
# name 1 = tv290C: Temperature [ITS-90, deg C]
# name 2 = sbeox0Mg/L: Oxygen, SBE 43 [mg/l]
# name 3 = sbeox0PS: Oxygen, SBE 43 [% saturation]
# name 4 = c0uS/cm: Conductivity [uS/cm]
# name 5 = specc: Specific Conductance [uS/cm]
# name 6 = ph: pH
# name 7 = orp: Oxidation Reduction Potential [mV]
# name 8 = flECO-AFL: Fluorescence, WET Labs ECO-AFL/FL [mg/m^3]
# name 9 = turbWETntu0: Turbidity, WET Labs ECO [NTU]
# name 10 = sal00: Salinity, Practical [PSU]
# name 11 = dz/dtM: Descent Rate [m/s]
# name 12 = prdM: Pressure, Strain Gauge [db]
# name 13 = prdE: Pressure, Strain Gauge [psi]
# name 14 = scan: Scan Count
# name 15 = par/sat/log: PAR/Logarithmic, Satlantic
# name 16 = flag:  0.000e+00
# span 0 =     -0.545,      9.610       
# span 1 =    11.7228,    25.9023       
# span 2 =    -0.0045,     9.1821       
# span 3 =     -0.042,    112.957       
# span 4 =   0.508566, 135.472074       
# span 5 =      0.569,    184.390       
# span 6 =      6.041,      7.952       
# span 7 = -1240.7455,   385.4506       
# span 8 =    -0.2021,     8.0226       
# span 9 =    -0.3720,    21.2201       
# span 10 =     0.0117,     0.0869      
# span 11 =     -0.070,      0.226      
# span 12 =     -0.534,      9.422      
# span 13 =     -0.775,     13.665      
# span 14 =          1,        689      
# span 15 = 1.2473e-01, 4.4905e+02      
# span 16 = 0.0000e+00, 0.0000e+00      
# interval = seconds: 0.25
# start_time = Aug 20 2018 15:22:31 [Instrument's time stamp, header]
# bad_flag = -9.990e-29
# <Sensors count="9" >
#   <sensor Channel="1" >
#     <!-- Count, Temperature -->
#     <TemperatureSensor SensorID="58" >
#       <SerialNumber>7809</SerialNumber>
#       <CalibrationDate>09-Mar-18</CalibrationDate>
#       <A0>1.21093245e-003</A0>
#       <A1>2.84356597e-004</A1>
#       <A2>-1.94507398e-006</A2>
#       <A3>2.12806664e-007</A3>
#       <Slope>1.00000000</Slope>
#       <Offset>0.0000</Offset>
#     </TemperatureSensor>
#   </sensor>
#   <sensor Channel="2" >
#     <!-- Frequency 0, Conductivity -->
#     <ConductivitySensor SensorID="3" >
#       <SerialNumber>7809</SerialNumber>
#       <CalibrationDate>09-Mar-18</CalibrationDate>
#       <UseG_J>1</UseG_J>
#       <!-- Cell const and series R are applicable only for wide range sensors. -->
#       <SeriesR>0.0000</SeriesR>
#       <CellConst>2000.0000</CellConst>
#       <ConductivityType>0</ConductivityType>
#       <Coefficients equation="0" >
#         <A>0.00000000e+000</A>
#         <B>0.00000000e+000</B>
#         <C>0.00000000e+000</C>
#         <D>0.00000000e+000</D>
#         <M>0.0</M>
#         <CPcor>-9.57000000e-008</CPcor>
#       </Coefficients>
#       <Coefficients equation="1" >
#         <G>-1.00672082e+000</G>
#         <H>1.26906489e-001</H>
#         <I>-1.40584351e-004</I>
#         <J>2.47837121e-005</J>
#         <CPcor>-9.57000000e-008</CPcor>
#         <CTcor>3.2500e-006</CTcor>
#         <!-- WBOTC not applicable unless ConductivityType = 1. -->
#         <WBOTC>0.00000000e+000</WBOTC>
#       </Coefficients>
#       <Slope>1.00000000</Slope>
#       <Offset>0.00000</Offset>
#     </ConductivitySensor>
#   </sensor>
#   <sensor Channel="3" >
#     <!-- Count, Pressure, Strain Gauge -->
#     <PressureSensor SensorID="46" >
#       <SerialNumber>7809</SerialNumber>
#       <CalibrationDate>07-Mar-18</CalibrationDate>
#       <PA0>-4.08176359e-002</PA0>
#       <PA1>4.85188419e-004</PA1>
#       <PA2>-3.51168169e-012</PA2>
#       <PTEMPA0>-5.37806900e+001</PTEMPA0>
#       <PTEMPA1>5.36620721e+001</PTEMPA1>
#       <PTEMPA2>4.87214332e-002</PTEMPA2>
#       <PTCA0>5.25213435e+005</PTCA0>
#       <PTCA1>1.79532409e+000</PTCA1>
#       <PTCA2>-2.84353509e-001</PTCA2>
#       <PTCB0>2.51668750e+001</PTCB0>
#       <PTCB1>3.75000000e-004</PTCB1>
#       <PTCB2>0.00000000e+000</PTCB2>
#       <Offset>0.000000</Offset>
#     </PressureSensor>
#   </sensor>
#   <sensor Channel="4" >
#     <!-- A/D voltage 0, pH -->
#     <pH_Sensor SensorID="43" >
#       <SerialNumber>0363</SerialNumber>
#       <CalibrationDate>16-Mar-18</CalibrationDate>
#       <Slope>4.6194</Slope>
#       <Offset>2.5947</Offset>
#     </pH_Sensor>
#   </sensor>
#   <sensor Channel="5" >
#     <!-- A/D voltage 1, Oxidation Reduction Potential -->
#     <OxidationReductionPotentialSensor SensorID="41" >
#       <SerialNumber>0363</SerialNumber>
#       <CalibrationDate>16-Mar-18</CalibrationDate>
#       <B>2.499480</B>
#       <M>-0.496195</M>
#       <Offset>0.0</Offset>
#     </OxidationReductionPotentialSensor>
#   </sensor>
#   <sensor Channel="6" >
#     <!-- A/D voltage 2, Oxygen, SBE 43 -->
#     <OxygenSensor SensorID="38" >
#       <SerialNumber>0434</SerialNumber>
#       <CalibrationDate>13-Mar-18</CalibrationDate>
#       <Use2007Equation>1</Use2007Equation>
#       <CalibrationCoefficients equation="0" >
#         <!-- Coefficients for Owens-Millard equation. -->
#         <Boc>0.0000</Boc>
#         <Soc>0.0000e+000</Soc>
#         <offset>0.0000</offset>
#         <Pcor>0.00e+000</Pcor>
#         <Tcor>0.0000</Tcor>
#         <Tau>0.0</Tau>
#       </CalibrationCoefficients>
#       <CalibrationCoefficients equation="1" >
#         <!-- Coefficients for Sea-Bird equation - SBE calibration in 2007 and later. -->
#         <Soc>4.5718e-001</Soc>
#         <offset>-0.6113</offset>
#         <A>-4.0649e-003</A>
#         <B> 2.0945e-004</B>
#         <C>-3.3182e-006</C>
#         <D0> 2.5826e+000</D0>
#         <D1> 1.92634e-004</D1>
#         <D2>-4.64803e-002</D2>
#         <E> 3.6000e-002</E>
#         <Tau20> 1.2200</Tau20>
#         <H1>-3.3000e-002</H1>
#         <H2> 5.0000e+003</H2>
#         <H3> 1.4500e+003</H3>
#       </CalibrationCoefficients>
#     </OxygenSensor>
#   </sensor>
#   <sensor Channel="7" >
#     <!-- A/D voltage 3, PAR/Logarithmic, Satlantic -->
#     <PARLog_SatlanticSensor SensorID="76" >
#       <SerialNumber>1122</SerialNumber>
#       <CalibrationDate>22-Jun-2017</CalibrationDate>
#       <a0>9.6090e-001</a0>
#       <a1>8.0780e-001</a1>
#       <Im>1.3589e+000</Im>
#       <Multiplier>1.0000e+000</Multiplier>
#     </PARLog_SatlanticSensor>
#   </sensor>
#   <sensor Channel="8" >
#     <!-- A/D voltage 4, Fluorometer, WET Labs ECO-AFL/FL -->
#     <FluoroWetlabECO_AFL_FL_Sensor SensorID="20" >
#       <SerialNumber>FLNTURT-2496</SerialNumber>
#       <CalibrationDate>25-Jan-2017</CalibrationDate>
#       <ScaleFactor>5.30000000e+001</ScaleFactor>
#       <!-- Dark output -->
#       <Vblank>0.0560</Vblank>
#     </FluoroWetlabECO_AFL_FL_Sensor>
#   </sensor>
#   <sensor Channel="9" >
#     <!-- A/D voltage 5, Turbidity Meter, WET Labs, ECO-NTU -->
#     <TurbidityMeter SensorID="67" >
#       <SerialNumber>FLNTURT-2496</SerialNumber>
#       <CalibrationDate>25-Jan-2017</CalibrationDate>
#       <ScaleFactor>176.000000</ScaleFactor>
#       <!-- Dark output -->
#       <DarkVoltage>0.072000</DarkVoltage>
#     </TurbidityMeter>
#   </sensor>
# </Sensors>
# datcnv_date = Aug 20 2018 17:55:41, 7.26.7.114 [datcnv_vars = 16]
# datcnv_in = C:\DATA\082018_fcr50.hex C:\DATA\SBE19plusV2_7809.xmlcon
# datcnv_skipover = 0
# datcnv_ox_hysteresis_correction = yes
# datcnv_ox_tau_correction = yes
# filter_date = Aug 20 2018 17:55:57, 7.26.7.114
# filter_in = C:\DATA\082018_fcr50.cnv
# filter_low_pass_tc_A = 0.030
# filter_low_pass_tc_B = 0.150
# filter_low_pass_A_vars = tv290C c0uS/cm par/sat/log
# filter_low_pass_B_vars = prdM prdE
# alignctd_date = Aug 20 2018 17:56:12, 7.26.7.114
# alignctd_in = C:\DATA\082018_fcr50.cnv
# alignctd_adv = tv290C 0.500, sbeox0Mg/L 3.000, sbeox0PS 3.000                                                                                                                                                                      
# file_type = ascii
*END*
     -0.545    24.6897     8.3410    100.336   0.572214      0.569      6.160 -1240.7455    -0.1698    -0.3720     0.0118 2.1053e-16     -0.534     -0.775          1 4.0619e+02 0.0000e+00
     -0.544    24.6828     8.3244    100.308   0.613246      0.625      6.137 -1240.7455    -0.1738    -0.2243     0.0117      0.000     -0.534     -0.774          2 3.9126e+02 0.0000e+00
     -0.544    24.6780     8.2798    100.320   0.628432      0.625      6.041 -1240.7455    -0.1617    -0.1974     0.0117      0.000     -0.534     -0.774          3 3.5179e+02 0.0000e+00
     -0.544    24.6747     8.2501    100.365   0.612528      0.625      6.145 -1240.7455    -0.1738    -0.2780     0.0117      0.000     -0.534     -0.774          4 2.6073e+02 0.0000e+00
     -0.544    24.6728     8.2267    100.327   0.633039      0.625      6.155 -1240.7455    -0.1658    -0.2243     0.0117      0.000     -0.534     -0.774          5 1.9974e+02 0.0000e+00
     -0.543    24.6724     8.2064    100.328   0.662119      0.681      6.152 -1240.7455    -0.1617    -0.1706     0.0117      0.001     -0.533     -0.773          6 1.8779e+02 0.0000e+00
     -0.543    24.6709     8.1881    100.343   0.694764      0.681      6.154 -1240.7455    -0.1819    -0.2243     0.0117      0.001     -0.533     -0.773          7 2.0790e+02 0.0000e+00
     -0.544    24.6713     8.1764    100.363   0.710838      0.737      6.151 -1240.7455    -0.2021    -0.1572     0.0117      0.001     -0.533     -0.773          8 2.2475e+02 0.0000e+00
     -0.543    24.6691     8.1919    100.641   0.701327      0.681      6.153 -1240.7455    -0.1860    -0.1974     0.0117      0.001     -0.533     -0.773          9 2.3785e+02 0.0000e+00
     -0.543    24.6718     8.2187    101.010   0.647387      0.681      6.150 -1240.7455    -0.1496    -0.2109     0.0117      0.001     -0.533     -0.773         10 2.5434e+02 0.0000e+00
     -0.543    24.6682     8.2528    101.446   0.659540      0.625      6.147 -1240.7455    -0.1779    -0.3586     0.0117      0.000     -0.532     -0.772         11 2.8144e+02 0.0000e+00
     -0.543    24.7724     8.2963    101.985   0.508566      0.569      6.143 -1240.7455    -0.1860    -0.2646     0.0117      0.000     -0.527     -0.765         12 3.2506e+02 0.0000e+00
     -0.528    25.0514     8.3439    102.570   0.776059      0.681      6.222     8.8466    -0.1900    -0.1706     0.0117      0.004     -0.504     -0.731         13 3.4824e+02 0.0000e+00
     -0.467    25.2785     8.3794    103.008   9.121482      8.839      6.925   385.4506    -0.1617    -0.2243     0.0137      0.023     -0.454     -0.658         14 3.6373e+02 0.0000e+00
     -0.396    25.4105     8.4143    103.424  25.995109     26.217      7.325   158.6857    -0.1860    -0.1974     0.0202      0.055     -0.389     -0.563         15 3.8019e+02 0.0000e+00
     -0.322    25.5480     8.4438    103.774  35.989079     35.994      7.587   153.1585    -0.1698    -0.2646     0.0241      0.098     -0.324     -0.469         16 3.8972e+02 0.0000e+00
     -0.275    25.6761     8.4890    104.316  36.433915     36.009      7.742   153.3099     0.1375    16.4801     0.0242      0.138     -0.272     -0.394         17 3.9444e+02 0.0000e+00
     -0.237    25.7665     8.5103    104.579  36.293894     35.968      7.816   155.5056     0.1618    16.5203     0.0242      0.170     -0.223     -0.324         18 4.0307e+02 0.0000e+00
     -0.166    25.8141     8.4562    103.926  36.459855     35.930      7.863   167.4307     0.1456    16.5203     0.0242      0.201     -0.166     -0.241         19 4.1902e+02 0.0000e+00
     -0.107    25.8364     8.3184    102.246  36.345954     35.812      7.893   169.0585     0.1699    16.4666     0.0242      0.223     -0.111     -0.162         20 4.2171e+02 0.0000e+00
     -0.069    25.8452     8.1384    100.048  36.346619     35.751      7.905   178.6364     3.0772     0.9305     0.0242      0.226     -0.070     -0.102         21 4.3324e+02 0.0000e+00
     -0.036    25.8475     7.9546     97.797  36.310708     35.708      7.896   171.5193     3.1096     0.8902     0.0242      0.212     -0.037     -0.054         22 4.2808e+02 0.0000e+00
     -0.009    25.8480     7.7788     95.641  36.301659     35.702      7.866   175.9864     3.1379     0.8231     0.0242      0.193     -0.011     -0.016         23 4.4905e+02 0.0000e+00
      0.010    25.8477     7.6236     93.734  36.268901     35.645      7.820   180.3779     3.1298     0.7291     0.0241      0.172      0.010      0.014         24 4.2495e+02 0.0000e+00
      0.028    25.8420     7.4964     92.169  36.292154     35.700      7.787   183.1414     3.3684     0.8365     0.0242      0.153      0.027      0.039         25 3.1189e+02 0.0000e+00
      0.044    25.8346     7.3819     90.761  36.243060     35.618      7.707   189.0850     3.3482     0.8634     0.0241      0.131      0.044      0.064         26 2.9653e+02 0.0000e+00
      0.062    25.8282     7.2957     89.702  36.241025     35.650      7.678   190.9779     3.3603     0.7559     0.0241      0.105      0.065      0.094         27 2.8914e+02 0.0000e+00
      0.095    25.8283     7.2169     88.733  36.265033     35.654      7.664   194.6879     3.3967     0.9305     0.0241      0.091      0.091      0.131         28 2.7856e+02 0.0000e+00
      0.119    25.8346     7.1478     87.882  36.242843     35.659      7.651   197.1865     3.3724     0.7559     0.0241      0.086      0.111      0.162         29 2.8427e+02 0.0000e+00
      0.126    25.8421     7.0664     86.882  36.268641     35.659      7.645   194.7636     3.4493     0.7291     0.0241      0.081      0.123      0.178         30 2.7059e+02 0.0000e+00
      0.133    25.8494     6.9811     85.837  36.351562     35.765      7.635   197.5650     3.4210     0.9171     0.0242      0.075      0.129      0.186         31 2.7240e+02 0.0000e+00
      0.135    25.8545     6.9000     84.841  36.347257     35.732      7.606   199.5336     3.4048     0.7828     0.0242      0.068      0.132      0.190         32 2.7680e+02 0.0000e+00
      0.135    25.8578     6.8139     83.783  36.362971     35.754      7.586   201.5779     3.4493     0.7694     0.0242      0.057      0.133      0.192         33 2.7430e+02 0.0000e+00
      0.137    25.8585     6.7355     82.819  36.361662     35.751      7.572   202.2215     3.4371     0.8499     0.0242      0.045      0.135      0.196         34 2.7227e+02 0.0000e+00
      0.142    25.8578     6.6527     81.803  36.319227     35.693      7.560   203.2815     3.4290     0.9036     0.0242      0.032      0.139      0.201         35 2.7721e+02 0.0000e+00
      0.143    25.8576     6.5732     80.828  36.297145     35.693      7.552   204.3036     3.4048     0.8634     0.0242      0.019      0.141      0.204         36 2.7161e+02 0.0000e+00
      0.146    25.8580     6.4900     79.806  36.211189     35.583      7.544   205.5151     3.4533     0.9171     0.0241      0.012      0.143      0.207         37 2.7361e+02 0.0000e+00
      0.147    25.8582     6.4298     79.063  36.218588     35.611      7.542   204.7958     3.5261     0.9171     0.0241      0.010      0.144      0.209         38 2.7767e+02 0.0000e+00
      0.148    25.8572     6.4159     78.890  36.258279     35.638      7.544   205.4772     3.4978     0.7828     0.0241      0.008      0.144      0.209         39 2.7663e+02 0.0000e+00
      0.147    25.8578     6.4760     79.630  36.250769     35.638      7.545   206.8779     3.4816     0.8365     0.0241      0.007      0.144      0.209         40 2.7515e+02 0.0000e+00
      0.148    25.8597     6.5861     80.988  36.257592     35.639      7.546   209.5279     3.4937     0.7962     0.0241      0.006      0.145      0.210         41 2.7606e+02 0.0000e+00
      0.148    25.8612     6.6972     82.357  36.309107     35.693      7.548   210.7015     3.5867     0.8097     0.0242      0.004      0.145      0.211         42 2.7644e+02 0.0000e+00
      0.149    25.8616     6.7982     83.603  36.334954     35.719      7.549   210.2472     3.5625     0.8902     0.0242      0.003      0.146      0.211         43 2.7551e+02 0.0000e+00
      0.149    25.8615     6.8860     84.684  36.314399     35.691      7.550   211.4965     3.5625     0.8499     0.0242      0.002      0.146      0.211         44 2.7602e+02 0.0000e+00
      0.149    25.8624     6.9518     85.495  36.305026     35.691      7.549   211.8372     3.5787     0.8902     0.0242      0.001      0.147      0.212         45 2.7396e+02 0.0000e+00
      0.151    25.8642     7.0006     86.096  36.316960     35.691      7.553   212.8972     3.5584     0.8499     0.0242      0.002      0.148      0.214         46 2.7413e+02 0.0000e+00
      0.151    25.8652     7.0237     86.381  36.358866     35.745      7.555   215.0551     3.5706     0.8902     0.0242      0.002      0.149      0.217         47 2.7270e+02 0.0000e+00
      0.155    25.8631     7.0270     86.421  36.371509     35.744      7.561   215.3580     3.5625     0.8768     0.0242      0.003      0.154      0.223         48 2.6948e+02 0.0000e+00
      0.165    25.8613     7.0096     86.208  36.330883     35.715      7.562   213.9951     3.6029     0.8499     0.0242      0.007      0.160      0.232         49 2.6888e+02 0.0000e+00
      0.168    25.8625     6.9945     86.019  36.320448     35.690      7.563   215.0551     3.5665     0.7828     0.0242      0.009      0.164      0.238         50 2.6503e+02 0.0000e+00
      0.168    25.8648     6.9812     85.853  36.354837     35.746      7.565   216.4180     3.5867     0.8902     0.0242      0.011      0.165      0.239         51 2.6595e+02 0.0000e+00
      0.168    25.8673     6.9753     85.780  36.377064     35.745      7.568   217.3265     3.5989     0.8634     0.0242      0.012      0.165      0.240         52 2.6549e+02 0.0000e+00
      0.170    25.8694     6.9812     85.850  36.411423     35.798      7.568   218.1215     3.5827     0.7559     0.0242      0.012      0.166      0.240         53 2.6368e+02 0.0000e+00
      0.169    25.8709     6.9744     85.766  36.490030     35.851      7.570   218.5001     3.5544     0.8902     0.0242      0.010      0.166      0.240         54 2.6561e+02 0.0000e+00
      0.169    25.8718     6.9681     85.689  36.546167     35.932      7.574   218.5001     3.5503     0.8097     0.0243      0.008      0.165      0.240         55 2.6443e+02 0.0000e+00
      0.169    25.8721     6.9571     85.555  36.489856     35.849      7.578   217.9701     3.5706     0.9842     0.0242      0.004      0.165      0.240         56 2.6333e+02 0.0000e+00
      0.169    25.8726     6.9544     85.523  36.471132     35.848      7.579   218.1215     3.5908     0.9036     0.0242      0.001      0.166      0.240         57 2.6436e+02 0.0000e+00
      0.169    25.8729     6.9522     85.497  36.480491     35.848      7.577   218.5001     3.5584     0.9305     0.0242      0.001      0.166      0.241         58 2.6546e+02 0.0000e+00
      0.170    25.8725     6.9464     85.428  36.537526     35.903      7.575   218.7651     3.6150     0.7694     0.0243      0.001      0.166      0.241         59 2.6422e+02 0.0000e+00
      0.170    25.8714     6.9392     85.341  36.607766     35.985      7.572   220.2794     3.6312     0.8097     0.0243      0.000      0.166      0.241         60 2.6444e+02 0.0000e+00
      0.170    25.8701     6.9289     85.214  36.600693     35.958      7.566   220.6580     3.6595     0.8634     0.0243      0.000      0.166      0.241         61 2.6464e+02 0.0000e+00
      0.170    25.8692     6.9185     85.088  36.575988     35.958      7.563   221.3773     3.6474     0.8231     0.0243      0.001      0.167      0.242         62 2.6398e+02 0.0000e+00
      0.170    25.8681     6.9061     84.937  36.608852     35.959      7.566   221.6801     3.6393     0.7559     0.0243      0.001      0.167      0.242         63 2.6425e+02 0.0000e+00
      0.170    25.8675     6.8909     84.751  36.648771     36.042      7.569   222.0965     3.6393     0.8097     0.0243      0.001      0.167      0.242         64 2.6388e+02 0.0000e+00
      0.170    25.8676     6.8724     84.525  36.615286     35.961      7.574   222.7401     3.6191     0.8634     0.0243      0.001      0.167      0.242         65 2.6492e+02 0.0000e+00
      0.170    25.8684     6.8550     84.311  36.591206     35.989      7.583   225.0873     3.6231     0.9305     0.0243      0.000      0.167      0.242         66 2.6308e+02 0.0000e+00
      0.170    25.8695     6.8428     84.161  36.560104     35.906      7.586   224.5573     3.5706     0.9171     0.0243      0.000      0.167      0.242         67 2.6361e+02 0.0000e+00
      0.171    25.8704     6.8329     84.040  36.565015     35.961      7.591   224.8601     3.5706     0.9305     0.0243      0.000      0.168      0.243         68 2.6425e+02 0.0000e+00
      0.172    25.8715     6.8231     83.919  36.555433     35.905      7.593   225.1251     3.5706     0.7962     0.0243      0.001      0.168      0.244         69 2.6380e+02 0.0000e+00
      0.172    25.8723     6.8093     83.747  36.572027     35.959      7.600   225.7687     3.5382     0.8499     0.0243      0.001      0.168      0.244         70 2.6417e+02 0.0000e+00
      0.172    25.8726     6.7932     83.548  36.574023     35.931      7.606   228.2294     3.5584     0.8231     0.0243      0.001      0.169      0.245         71 2.6168e+02 0.0000e+00
      0.172    25.8732     6.7717     83.278  36.523289     35.903      7.612   228.6837     3.5544     1.0111     0.0243      0.001      0.169      0.245         72 2.6187e+02 0.0000e+00
      0.172    25.8744     6.7478     82.980  36.546186     35.903      7.622   228.7594     3.5584     0.8097     0.0243      0.001      0.169      0.245         73 2.6391e+02 0.0000e+00
      0.172    25.8752     6.7154     82.579  36.575187     35.957      7.628   228.5323     3.5544     0.7559     0.0243      0.001      0.169      0.245         74 2.6387e+02 0.0000e+00
      0.172    25.8754     6.6833     82.180  36.546516     35.901      7.634   227.9644     3.5787     0.9171     0.0243      0.001      0.169      0.245         75 2.6394e+02 0.0000e+00
      0.172    25.8758     6.6467     81.727  36.581866     35.956      7.639   229.0244     3.5665     0.8097     0.0243      0.001      0.169      0.245         76 2.6431e+02 0.0000e+00
      0.172    25.8764     6.6119     81.296  36.620171     35.983      7.642   229.5923     3.5787     0.9036     0.0243      0.000      0.169      0.245         77 2.6412e+02 0.0000e+00
      0.172    25.8768     6.5814     80.920  36.587823     35.955      7.644   229.9709     3.5625     0.8365     0.0243      0.000      0.169      0.245         78 2.6472e+02 0.0000e+00
      0.172    25.8763     6.5560     80.605  36.592464     35.955      7.648   230.4251     3.5665     0.8634     0.0243      0.000      0.169      0.245         79 2.6412e+02 0.0000e+00
      0.173    25.8752     6.5217     80.181  36.584736     35.955      7.646   230.8794     3.5625     0.8902     0.0243      0.000      0.169      0.246         80 2.6389e+02 0.0000e+00
      0.174    25.8735     6.4874     79.756  36.597439     35.955      7.645   231.0687     3.5625     0.8365     0.0243      0.000      0.170      0.247         81 2.6475e+02 0.0000e+00
      0.174    25.8705     6.4486     79.277  36.665633     36.038      7.643   231.7880     3.5625     0.8365     0.0243      0.001      0.170      0.247         82 2.6506e+02 0.0000e+00
      0.173    25.8679     6.4081     78.775  36.618509     35.984      7.641   230.6144     3.5706     0.8097     0.0243      0.001      0.170      0.246         83 2.6510e+02 0.0000e+00
      0.173    25.8656     6.3684     78.284  36.596768     35.959      7.642   231.1444     3.6838     0.9036     0.0243      0.001      0.170      0.246         84 2.6445e+02 0.0000e+00
      0.174    25.8636     6.3229     77.722  36.663032     36.043      7.644   231.5230     3.7121     0.9171     0.0243      0.001      0.170      0.247         85 2.6477e+02 0.0000e+00
      0.173    25.8617     6.2779     77.166  36.595363     35.963      7.646   232.6587     3.7161     0.8902     0.0243      0.001      0.170      0.247         86 2.6570e+02 0.0000e+00
      0.174    25.8598     6.2277     76.545  36.592004     35.964      7.650   233.3780     3.7161     0.8097     0.0243      0.000      0.170      0.247         87 2.6537e+02 0.0000e+00
      0.174    25.8584     6.1858     76.026  36.607897     35.993      7.652   232.0151     3.5423     0.8634     0.0243      0.000      0.171      0.247         88 2.6572e+02 0.0000e+00
      0.174    25.8569     6.1416     75.479  36.605245     35.967      7.656   232.5830     3.5746     0.8634     0.0243      0.000      0.171      0.247         89 2.6576e+02 0.0000e+00
      0.174    25.8548     6.0978     74.936  36.654623     36.050      7.657   233.0752     3.5625     0.8365     0.0243      0.000      0.170      0.247         90 2.6570e+02 0.0000e+00
      0.174    25.8529     6.0512     74.359  36.605765     35.969      7.657   234.2109     3.5867     0.8902     0.0243      0.000      0.170      0.247         91 2.6622e+02 0.0000e+00
      0.173    25.8514     6.0153     73.915  36.577071     35.970      7.662   234.7030     3.5706     0.7694     0.0243      0.000      0.170      0.247         92 2.6652e+02 0.0000e+00
      0.174    25.8491     5.9752     73.420  36.601355     35.971      7.660   234.7787     3.6393     0.8499     0.0243     -0.000      0.170      0.247         93 2.6638e+02 0.0000e+00
      0.174    25.8467     5.9408     72.995  36.605203     36.000      7.662   233.9837     3.6231     0.8097     0.0243     -0.000      0.170      0.247         94 2.6701e+02 0.0000e+00
      0.174    25.8443     5.9262     72.808  36.542625     35.919      7.666   234.4380     3.6312     0.9574     0.0243     -0.000      0.170      0.247         95 2.6720e+02 0.0000e+00
      0.174    25.8420     5.9222     72.751  36.530938     35.921      7.668   234.8544     3.6393     0.8634     0.0243     -0.000      0.170      0.247         96 2.6682e+02 0.0000e+00
      0.175    25.8397     5.9173     72.700  36.530770     35.923      7.671   235.1952     3.6919     0.8902     0.0243      0.000      0.171      0.248         97 2.6675e+02 0.0000e+00
      0.176    25.8370     5.9079     72.590  36.542836     35.924      7.672   235.4223     3.7081     0.8499     0.0243      0.001      0.172      0.250         98 2.6716e+02 0.0000e+00
      0.176    25.8341     5.8870     72.322  36.545585     35.953      7.674   236.7473     3.6878     0.8365     0.0243      0.001      0.172      0.250         99 2.6791e+02 0.0000e+00
      0.176    25.8310     5.8689     72.080  36.497691     35.873      7.670   236.1037     3.6919     0.8365     0.0242      0.001      0.172      0.250        100 2.6742e+02 0.0000e+00
      0.177    25.8281     5.8462     71.792  36.513462     35.930      7.670   236.2173     3.6312     0.6888     0.0243      0.002      0.173      0.251        101 2.6727e+02 0.0000e+00
      0.177    25.8259     5.8280     71.563  36.496301     35.877      7.670   236.0280     3.6110     0.5814     0.0242      0.002      0.174      0.253        102 2.6632e+02 0.0000e+00
      0.180    25.8239     5.8121     71.362  36.459731     35.879      7.675   235.5737     3.6231     0.6082     0.0242      0.003      0.176      0.257        103 2.6634e+02 0.0000e+00
      0.183    25.8224     5.7931     71.125  36.440337     35.826      7.677   235.5737     3.6555     0.6082     0.0242      0.004      0.181      0.263        104 2.6454e+02 0.0000e+00
      0.192    25.8159     5.7825     70.993  36.490778     35.910      7.685   236.4066     3.7242     0.8634     0.0242      0.007      0.191      0.276        105 2.5821e+02 0.0000e+00
      0.209    25.8104     5.7765     70.918  36.485936     35.883      7.669   237.0502     3.7081     0.8902     0.0242      0.013      0.201      0.291        106 2.5719e+02 0.0000e+00
      0.212    25.8169     5.7727     70.870  36.416708     35.833      7.609   236.4444     3.7121     0.8231     0.0242      0.019      0.204      0.296        107 2.5814e+02 0.0000e+00
      0.203    25.8215     5.7578     70.685  36.310006     35.727      7.606   236.1037     3.6919     0.9305     0.0242      0.019      0.198      0.287        108 2.6176e+02 0.0000e+00
      0.188    25.8123     5.7525     70.618  36.203502     35.612      7.635   234.0594     3.7606     0.8634     0.0241      0.014      0.188      0.272        109 2.6630e+02 0.0000e+00
      0.182    25.7988     5.7436     70.506  36.252660     35.664      7.670   234.0216     3.7525     0.8365     0.0241      0.007      0.182      0.264        110 2.6728e+02 0.0000e+00
      0.186    25.7910     5.7342     70.388  36.278487     35.698      7.698   237.0502     3.7647     0.8231     0.0242      0.001      0.183      0.266        111 2.6591e+02 0.0000e+00
      0.191    25.7867     5.7243     70.264  36.319658     35.735      7.720   237.2394     3.7606     0.7828     0.0242     -0.004      0.187      0.271        112 2.6441e+02 0.0000e+00
      0.193    25.7827     5.7156     70.155  36.349722     35.795      7.725   237.5044     3.6757     0.8902     0.0242     -0.008      0.189      0.274        113 2.6777e+02 0.0000e+00
      0.193    25.7798     5.7090     70.073  36.270735     35.688      7.719   237.3530     3.7283     0.8365     0.0241     -0.010      0.189      0.274        114 2.6861e+02 0.0000e+00
      0.193    25.7781     5.7073     70.051  36.240007     35.691      7.700   237.2773     3.6919     0.7828     0.0241     -0.006      0.190      0.275        115 2.6902e+02 0.0000e+00
      0.196    25.7770     5.7028     69.992  36.298989     35.721      7.685   237.6937     3.7081     0.8097     0.0242      0.001      0.192      0.278        116 2.6888e+02 0.0000e+00
      0.198    25.7761     5.6992     69.945  36.345627     35.804      7.683   237.2773     3.7040     0.7425     0.0242      0.006      0.194      0.281        117 2.6991e+02 0.0000e+00
      0.200    25.7747     5.6900     69.829  36.330259     35.750      7.696   237.2773     3.7525     0.9439     0.0242      0.008      0.196      0.285        118 2.7129e+02 0.0000e+00
      0.201    25.7724     5.6811     69.717  36.347773     35.806      7.715   237.3909     3.7525     0.8902     0.0242      0.007      0.198      0.287        119 2.7240e+02 0.0000e+00
      0.202    25.7704     5.6650     69.517  36.323834     35.752      7.734   237.5423     3.7525     0.8365     0.0242      0.006      0.198      0.288        120 2.7506e+02 0.0000e+00
      0.202    25.7683     5.6382     69.184  36.300736     35.753      7.751   237.5044     3.7485     0.8365     0.0242      0.006      0.198      0.288        121 2.7561e+02 0.0000e+00
      0.203    25.7664     5.6125     68.867  36.346861     35.782      7.766   236.4066     3.8981     0.8499     0.0242      0.005      0.199      0.289        122 2.7545e+02 0.0000e+00
      0.204    25.7648     5.5840     68.513  36.296091     35.756      7.778   237.2773     3.9021     0.8097     0.0242      0.005      0.200      0.290        123 2.7389e+02 0.0000e+00
      0.204    25.7637     5.5570     68.180  36.215624     35.647      7.791   237.5802     3.9224     0.8768     0.0241      0.004      0.201      0.291        124 2.7211e+02 0.0000e+00
      0.207    25.7626     5.5286     67.828  36.298708     35.759      7.798   237.8830     3.8819     0.8097     0.0242      0.004      0.203      0.295        125 2.6663e+02 0.0000e+00
      0.212    25.7603     5.5010     67.485  36.311332     35.759      7.805   238.4130     3.9749     0.8097     0.0242      0.004      0.207      0.299        126 2.6199e+02 0.0000e+00
      0.212    25.7577     5.4761     67.177  36.259231     35.705      7.796   238.8295     3.9385     0.8499     0.0241      0.005      0.208      0.302        127 2.5933e+02 0.0000e+00
      0.212    25.7557     5.4556     66.922  36.274570     35.734      7.788   236.7094     3.9709     0.8365     0.0242      0.006      0.208      0.302        128 2.5540e+02 0.0000e+00
      0.212    25.7534     5.4326     66.637  36.262586     35.709      7.793   237.2016     3.9709     0.8634     0.0241      0.006      0.208      0.302        129 2.5280e+02 0.0000e+00
      0.212    25.7513     5.4158     66.429  36.185172     35.655      7.801   237.2773     3.9345     0.7962     0.0241      0.005      0.208      0.302        130 2.5010e+02 0.0000e+00
      0.212    25.7490     5.4027     66.265  36.133644     35.574      7.809   239.1323     3.9507     0.8097     0.0241      0.004      0.208      0.302        131 2.4841e+02 0.0000e+00
      0.212    25.7463     5.3885     66.088  36.178420     35.658      7.816   239.0945     3.9668     0.8902     0.0241      0.003      0.208      0.302        132 2.4661e+02 0.0000e+00
      0.212    25.7439     5.3730     65.896  36.188767     35.632      7.822   238.0345     3.9951     0.7962     0.0241      0.001      0.208      0.302        133 2.4486e+02 0.0000e+00
      0.212    25.7414     5.3513     65.627  36.180085     35.662      7.826   238.6402     4.0679     0.9574     0.0241      0.000      0.208      0.302        134 2.4422e+02 0.0000e+00
      0.212    25.7388     5.3514     65.627  36.129909     35.581      7.821   239.0187     4.0720     0.8902     0.0241     -0.000      0.208      0.302        135 2.4384e+02 0.0000e+00
      0.212    25.7363     5.3277     65.334  36.102920     35.582      7.824   239.3595     4.1043     0.8634     0.0241     -0.000      0.208      0.302        136 2.4353e+02 0.0000e+00
      0.212    25.7334     5.3108     65.126  36.124697     35.584      7.824   239.8137     4.0962     0.9171     0.0241     -0.000      0.208      0.302        137 2.4253e+02 0.0000e+00
      0.212    25.7308     5.2931     64.907  36.191783     35.669      7.832   239.8895     4.0841     0.8365     0.0241     -0.000      0.208      0.302        138 2.4278e+02 0.0000e+00
      0.212    25.7285     5.2691     64.612  36.167726     35.643      7.835   240.3059     4.1003     0.9036     0.0241      0.000      0.208      0.302        139 2.4254e+02 0.0000e+00
      0.212    25.7261     5.2490     64.363  36.124978     35.590      7.842   239.8895     4.0801     0.7291     0.0241      0.000      0.208      0.302        140 2.4212e+02 0.0000e+00
      0.212    25.7240     5.2249     64.066  36.185666     35.674      7.846   240.0787     4.0841     0.8902     0.0241      0.000      0.208      0.302        141 2.4204e+02 0.0000e+00
      0.212    25.7218     5.2018     63.782  36.121861     35.593      7.846   240.1545     4.1124     0.9036     0.0241      0.000      0.208      0.302        142 2.4230e+02 0.0000e+00
      0.212    25.7197     5.1815     63.532  36.115408     35.595      7.849   240.4195     4.1569     0.9036     0.0241      0.000      0.208      0.302        143 2.4273e+02 0.0000e+00
      0.212    25.7180     5.1594     63.259  36.164039     35.651      7.852   241.2902     4.1690     0.8231     0.0241      0.000      0.208      0.302        144 2.4179e+02 0.0000e+00
      0.212    25.7165     5.1360     62.971  36.120658     35.598      7.847   241.3280     4.1529     0.7157     0.0241      0.000      0.208      0.302        145 2.4226e+02 0.0000e+00
      0.212    25.7147     5.1199     62.771  36.110079     35.599      7.845   241.6687     4.1367     0.8365     0.0241     -0.000      0.208      0.302        146 2.4282e+02 0.0000e+00
      0.212    25.7133     5.1058     62.597  36.117890     35.600      7.848   241.1766     4.0882     0.8634     0.0241     -0.000      0.208      0.302        147 2.4293e+02 0.0000e+00
      0.213    25.7122     5.0889     62.386  36.110939     35.601      7.847   241.3280     4.0922     0.8365     0.0241      0.000      0.208      0.302        148 2.4285e+02 0.0000e+00
      0.212    25.7113     5.0726     62.185  36.118729     35.602      7.853   241.4416     4.0720     0.7694     0.0241      0.000      0.208      0.302        149 2.4347e+02 0.0000e+00
      0.212    25.7103     5.0546     61.962  36.108196     35.603      7.855   242.6530     4.0922     0.8499     0.0241      0.000      0.208      0.302        150 2.4349e+02 0.0000e+00
      0.212    25.7092     5.0440     61.830  36.064730     35.548      7.858   243.1452     4.0235     0.7962     0.0241      0.000      0.208      0.302        151 2.4334e+02 0.0000e+00
      0.212    25.7082     5.0354     61.723  36.054187     35.549      7.861   243.6752     4.0032     0.8902     0.0241      0.000      0.208      0.302        152 2.4412e+02 0.0000e+00
      0.213    25.7069     5.0209     61.544  36.062001     35.550      7.864   243.5616     4.0113     0.8231     0.0241      0.000      0.208      0.302        153 2.4393e+02 0.0000e+00
      0.212    25.7055     5.0083     61.388  36.055009     35.551      7.863   243.3723     4.0477     0.8499     0.0241      0.000      0.208      0.302        154 2.4363e+02 0.0000e+00
      0.212    25.7039     4.9969     61.246  36.062891     35.551      7.864   243.0316     4.0315     0.8768     0.0241     -0.000      0.208      0.302        155 2.4285e+02 0.0000e+00
      0.212    25.7020     4.9782     61.016  36.111508     35.608      7.864   244.1295     4.0275     0.9305     0.0241     -0.000      0.208      0.302        156 2.4332e+02 0.0000e+00
      0.213    25.7002     4.9749     60.974  36.053821     35.554      7.865   243.7888     4.0315     0.9036     0.0241      0.000      0.209      0.303        157 2.4327e+02 0.0000e+00
      0.213    25.6983     4.9619     60.814  36.016048     35.500      7.863   244.0159     4.0275     0.8365     0.0240      0.000      0.209      0.303        158 2.4245e+02 0.0000e+00
      0.212    25.6963     4.9470     60.630  36.039884     35.556      7.864   244.2809     4.0073     0.8097     0.0241      0.000      0.208      0.302        159 2.4299e+02 0.0000e+00
      0.212    25.6944     4.9301     60.422  36.024160     35.502      7.865   243.9780     4.0922     0.9036     0.0240      0.000      0.208      0.302        160 2.4278e+02 0.0000e+00
      0.213    25.6928     4.9177     60.270  36.094935     35.614      7.864   243.7509     4.0720     1.0111     0.0241      0.000      0.208      0.302        161 2.4226e+02 0.0000e+00
      0.212    25.6912     4.8994     60.044  36.070439     35.560      7.865   243.9780     4.0882     0.8499     0.0241     -0.000      0.208      0.302        162 2.4278e+02 0.0000e+00
      0.212    25.6895     4.8891     59.917  35.995328     35.506      7.864   243.7888     4.1165     0.8499     0.0240     -0.000      0.208      0.302        163 2.4310e+02 0.0000e+00
      0.212    25.6883     4.8757     59.751  36.010461     35.507      7.865   244.2430     4.0558     0.7962     0.0240     -0.000      0.208      0.302        164 2.4200e+02 0.0000e+00
      0.212    25.6872     4.8596     59.552  36.051608     35.564      7.863   244.5080     4.0720     0.9171     0.0241     -0.000      0.208      0.302        165 2.4231e+02 0.0000e+00
      0.212    25.6860     4.8497     59.429  36.062756     35.565      7.864   245.0002     4.1084     0.9574     0.0241     -0.000      0.208      0.302        166 2.4254e+02 0.0000e+00
      0.212    25.6850     4.8407     59.317  36.055905     35.565      7.865   244.2430     4.0882     0.8231     0.0241      0.000      0.208      0.302        167 2.4137e+02 0.0000e+00
      0.213    25.6844     4.8306     59.191  36.060133     35.566      7.860   244.5080     4.1003     0.8231     0.0241      0.000      0.209      0.303        168 2.4220e+02 0.0000e+00
      0.213    25.6837     4.8159     59.010  35.998177     35.512      7.863   244.5459     4.0598     0.8097     0.0240      0.000      0.209      0.303        169 2.4340e+02 0.0000e+00
      0.212    25.6827     4.8168     59.020  36.014375     35.512      7.866   245.4545     4.0720     0.8365     0.0240      0.000      0.209      0.303        170 2.4249e+02 0.0000e+00
      0.213    25.6818     4.8342     59.265  36.039975     35.568      7.867   245.7952     4.1245     0.9036     0.0241      0.000      0.209      0.303        171 2.4188e+02 0.0000e+00
      0.213    25.6805     5.1437     63.142  35.966320     35.458      7.870   245.6059     4.0841     0.7559     0.0240      0.000      0.209      0.303        172 2.4378e+02 0.0000e+00
      0.213    25.6791     5.7733     70.940  35.987406     35.514      7.871   244.5080     4.0882     0.8097     0.0240      0.000      0.209      0.303        173 2.4299e+02 0.0000e+00
      0.213    25.6778     6.5479     80.500  36.013735     35.515      7.871   244.7352     4.0558     0.8365     0.0240      0.000      0.209      0.303        174 2.4219e+02 0.0000e+00
      0.213    25.6763     7.3028     89.807  35.992871     35.516      7.874   244.8488     4.1124     0.8365     0.0240      0.000      0.209      0.303        175 2.4422e+02 0.0000e+00
      0.213    25.6746     7.9718     98.049  36.013369     35.517      7.873   245.1138     4.0760     0.8768     0.0240      0.000      0.209      0.303        176 2.4377e+02 0.0000e+00
      0.213    25.6730     8.5137    104.724  36.047542     35.573      7.872   244.9245     4.0558     0.8634     0.0241      0.000      0.209      0.303        177 2.4292e+02 0.0000e+00
      0.212    25.6715     8.9271    109.815  36.009662     35.519      7.874   244.8866     4.0801     0.8097     0.0240     -0.000      0.209      0.303        178 2.4384e+02 0.0000e+00
      0.213    25.6699     9.1445    112.492  36.060513     35.575      7.873   245.2652     4.0720     0.8097     0.0241     -0.000      0.209      0.303        179 2.4387e+02 0.0000e+00
      0.213    25.6689     9.1821    112.957  35.984261     35.521      7.876   245.1516     4.0922     0.8499     0.0240     -0.000      0.209      0.303        180 2.4314e+02 0.0000e+00
      0.213    25.7003     9.0992    111.938  36.045239     35.522      7.876   244.9245     4.1003     0.9305     0.0240     -0.000      0.209      0.303        181 2.4485e+02 0.0000e+00
      0.213    25.7694     8.9861    110.546  36.548142     36.102      7.874   244.8866     4.0477     0.8902     0.0243     -0.000      0.209      0.303        182 2.4451e+02 0.0000e+00
      0.213    25.8243     8.8692    109.107  36.752366     36.219      7.879   245.1138     4.0558     0.8902     0.0243     -0.000      0.209      0.303        183 2.4294e+02 0.0000e+00
      0.213    25.8525     8.7549    107.701  36.740154     36.195      7.878   246.6280     4.0639     0.8365     0.0243      0.000      0.209      0.303        184 2.4506e+02 0.0000e+00
      0.213    25.8687     8.6476    106.381  36.741266     36.129      7.878   246.5523     3.9507     0.8902     0.0243      0.000      0.209      0.303        185 2.4425e+02 0.0000e+00
      0.213    25.8776     8.5537    105.225  36.780615     36.164      7.880   246.1359     3.9871     0.8634     0.0244      0.000      0.209      0.303        186 2.4338e+02 0.0000e+00
      0.213    25.8828     8.4874    104.409  36.780145     36.153      7.879   246.4766     3.9426     0.8097     0.0244      0.000      0.209      0.304        187 2.4523e+02 0.0000e+00
      0.214    25.8855     8.4491    103.937  36.741840     36.091      7.878   246.2116     3.9911     0.9842     0.0243      0.001      0.210      0.305        188 2.4380e+02 0.0000e+00
      0.216    25.8868     8.4165    103.538  36.768963     36.143      7.878   246.7038     4.0113     0.8365     0.0244      0.001      0.211      0.306        189 2.4319e+02 0.0000e+00
      0.214    25.8877     8.3865    103.168  36.776049     36.113      7.881   248.3316     4.0558     0.9171     0.0243      0.001      0.211      0.306        190 2.4471e+02 0.0000e+00
      0.215    25.8883     8.3710    102.978  36.762679     36.140      7.876   248.4831     4.0275     0.9171     0.0244      0.001      0.211      0.306        191 2.4394e+02 0.0000e+00
      0.215    25.8882     8.3732    103.005  36.755943     36.084      7.874   248.3695     4.0194     0.7828     0.0243      0.001      0.211      0.306        192 2.4357e+02 0.0000e+00
      0.215    25.8877     8.3897    103.209  36.754772     36.139      7.874   248.1045     4.2175     0.8634     0.0244      0.001      0.211      0.306        193 2.4443e+02 0.0000e+00
      0.215    25.8877     8.4056    103.404  36.704817     36.029      7.874   248.2559     4.2175     0.8634     0.0243      0.001      0.211      0.306        194 2.4315e+02 0.0000e+00
      0.215    25.8875     8.4061    103.410  36.729133     36.112      7.875   248.5588     4.2459     0.8634     0.0243      0.001      0.211      0.306        195 2.4336e+02 0.0000e+00
      0.215    25.8874     8.3935    103.253  36.754169     36.084      7.876   248.8238     4.2378     0.8634     0.0243      0.000      0.211      0.306        196 2.4485e+02 0.0000e+00
      0.215    25.8872     8.3766    103.046  36.762638     36.139      7.876   248.9373     4.1892     0.7962     0.0244     -0.000      0.211      0.306        197 2.4316e+02 0.0000e+00
      0.215    25.8871     8.3562    102.795  36.807572     36.139      7.876   249.0888     4.2054     0.8634     0.0244      0.000      0.211      0.306        198 2.4315e+02 0.0000e+00
      0.215    25.8873     8.3381    102.573  36.816888     36.194      7.879   249.0509     4.2499     0.7559     0.0244      0.000      0.211      0.306        199 2.4385e+02 0.0000e+00
      0.215    25.8872     8.3272    102.437  36.751047     36.085      7.878   249.0509     4.2216     0.8097     0.0243      0.000      0.211      0.306        200 2.4302e+02 0.0000e+00
      0.215    25.8875     8.3351    102.535  36.800532     36.167      7.879   248.4831     4.2054     0.8231     0.0244      0.000      0.211      0.306        201 2.4411e+02 0.0000e+00
      0.215    25.8878     8.3491    102.708  36.844281     36.194      7.878   249.0509     4.1245     0.8365     0.0244      0.000      0.211      0.306        202 2.4385e+02 0.0000e+00
      0.215    25.8878     8.3648    102.904  36.785580     36.139      7.877   249.1645     4.1650     0.8902     0.0244      0.000      0.211      0.306        203 2.4336e+02 0.0000e+00
      0.215    25.8876     8.3817    103.115  36.784607     36.139      7.877   249.8081     4.1650     0.9708     0.0244     -0.000      0.211      0.306        204 2.4432e+02 0.0000e+00
      0.215    25.8874     8.3957    103.290  36.786173     36.139      7.876   249.7702     4.1529     0.7291     0.0244      0.000      0.211      0.306        205 2.4343e+02 0.0000e+00
      0.215    25.8869     8.3951    103.285  36.813290     36.167      7.872   248.6723     4.0437     0.8768     0.0244      0.000      0.211      0.306        206 2.4368e+02 0.0000e+00
      0.215    25.8868     8.3927    103.255  36.780519     36.139      7.871   249.5052     4.0032     0.7559     0.0244      0.000      0.211      0.306        207 2.4375e+02 0.0000e+00
      0.215    25.8871     8.3956    103.292  36.737979     36.085      7.866   249.8459     3.9951     0.8365     0.0243      0.000      0.211      0.306        208 2.4312e+02 0.0000e+00
      0.215    25.8873     8.3882    103.202  36.777253     36.140      7.862   249.7323     4.0032     0.8902     0.0244      0.000      0.210      0.304        209 2.4383e+02 0.0000e+00
      0.212    25.8868     8.3939    103.271  36.731642     36.085      7.853   250.8681     4.2135     0.7962     0.0243     -0.001      0.205      0.297        210 2.4586e+02 0.0000e+00
      0.199    25.8864     8.3957    103.292  36.735422     36.084      7.839   250.0352     4.2216     0.8634     0.0243     -0.005      0.194      0.281        211 2.5106e+02 0.0000e+00
      0.182    25.8871     8.3893    103.212  36.713229     36.085      7.837   248.5588     4.1933     0.8768     0.0243     -0.012      0.177      0.257        212 2.5576e+02 0.0000e+00
      0.163    25.8888     8.3707    102.981  36.610964     35.948      7.841   248.1423     4.2054     0.8634     0.0243     -0.023      0.159      0.232        213 2.6112e+02 0.0000e+00
      0.145    25.8904     8.3575    102.817  36.655076     36.030      7.838   248.0666     4.1529     0.6351     0.0243     -0.034      0.142      0.207        214 2.6323e+02 0.0000e+00
      0.129    25.8919     8.3572    102.814  36.599014     35.946      7.835   248.8238     4.1529     0.5814     0.0243     -0.045      0.125      0.182        215 2.7277e+02 0.0000e+00
      0.109    25.8930     8.3569    102.812  36.532435     35.890      7.832   249.0131     4.1529     0.5142     0.0243     -0.056      0.107      0.155        216 2.8733e+02 0.0000e+00
      0.088    25.8928     8.3608    102.865  36.589637     35.944      7.834   248.1802     4.1650     0.7828     0.0243     -0.065      0.088      0.129        217 2.8678e+02 0.0000e+00
      0.073    25.8933     8.3755    103.050  36.616804     35.971      7.841   248.4073     3.8981     0.8634     0.0243     -0.070      0.073      0.106        218 2.9567e+02 0.0000e+00
      0.061    25.8941     8.3934    103.274  36.587602     35.943      7.849   248.3695     3.8860     0.8097     0.0243     -0.069      0.059      0.087        219 3.1354e+02 0.0000e+00
      0.047    25.8937     8.3993    103.347  36.537001     35.888      7.848   248.4831     3.8698     0.8097     0.0243     -0.067      0.046      0.067        220 3.1723e+02 0.0000e+00
      0.032    25.8928     8.4069    103.439  36.531480     35.887      7.848   248.0666     3.8819     0.8365     0.0243     -0.064      0.034      0.050        221 3.2790e+02 0.0000e+00
      0.028    25.8923     8.4024    103.380  36.594472     35.943      7.855   248.0288     3.8779     0.7559     0.0243     -0.059      0.027      0.039        222 3.4309e+02 0.0000e+00
      0.023    25.8914     8.3932    103.262  36.606904     35.971      7.855   249.6566     3.9264     0.8365     0.0243     -0.053      0.019      0.029        223 3.3830e+02 0.0000e+00
      0.007    25.8903     8.3817    103.123  36.545667     35.889      7.839   248.4452     3.9102     0.9305     0.0243     -0.047      0.009      0.014        224 3.3203e+02 0.0000e+00
     -0.000    25.8903     8.3720    103.009  36.522384     35.889      7.840   248.0288     3.8577     0.8365     0.0243     -0.042      0.002      0.003        225 3.3513e+02 0.0000e+00
     -0.001    25.8917     8.3864    103.190  36.546901     35.890      7.843   247.4988     3.8738     0.8634     0.0243     -0.037 9.5452e-10     -0.000        226 3.3564e+02 0.0000e+00
     -0.000    25.8939     8.3966    103.319  36.574475     35.945      7.855   247.4609     3.8900     0.8365     0.0243     -0.031 1.0500e-08     -0.000        227 3.3256e+02 0.0000e+00
     -0.000    25.8964     8.4124    103.516  36.606707     35.944      7.867   247.6502     3.9264     0.8499     0.0243     -0.024 1.1550e-07 1.4758e-07        228 3.3426e+02 0.0000e+00
     -0.000    25.8983     8.4282    103.704  36.595767     35.970      7.885   248.9752     3.9102     0.8634     0.0243     -0.018      0.000      0.000        229 3.3528e+02 0.0000e+00
      0.000    25.8985     8.4251    103.659  36.499111     35.831      7.899   248.5209     3.8860     0.8768     0.0242     -0.013      0.000      0.000        230 3.3369e+02 0.0000e+00
     -0.000    25.8976     8.4243    103.648  36.519377     35.884      7.907   248.4452     3.9749     0.8365     0.0243     -0.007      0.000      0.000        231 3.3417e+02 0.0000e+00
      0.001    25.8955     8.4131    103.508  36.540885     35.884      7.912   248.2181     3.9790     0.8634     0.0243     -0.001      0.002      0.003        232 3.3538e+02 0.0000e+00
      0.005    25.8936     8.3999    103.343  36.590982     35.940      7.923   248.4073     3.9628     0.8231     0.0243      0.002      0.006      0.009        233 3.3428e+02 0.0000e+00
      0.013    25.8945     8.3891    103.206  36.605330     35.969      7.926   248.9373     3.9547     0.8902     0.0243      0.005      0.012      0.018        234 3.3808e+02 0.0000e+00
      0.020    25.8973     8.3781    103.069  36.552690     35.888      7.929   248.9752     3.8738     0.7962     0.0243      0.009      0.020      0.029        235 3.3582e+02 0.0000e+00
      0.030    25.8996     8.3749    103.028  36.567514     35.942      7.932   249.2402     3.9062     0.8768     0.0243      0.014      0.030      0.044        236 3.1124e+02 0.0000e+00
      0.043    25.9016     8.3729    103.002  36.497903     35.830      7.930   249.3916     3.8900     0.8499     0.0242      0.021      0.042      0.062        237 2.9449e+02 0.0000e+00
      0.057    25.9023     8.3826    103.117  36.520683     35.884      7.927   248.9752     3.8860     0.8768     0.0243      0.028      0.057      0.084        238 2.8721e+02 0.0000e+00
      0.075    25.8994     8.3845    103.135  36.539164     35.882      7.921   249.0131     3.8051     0.8902     0.0243      0.037      0.075      0.110        239 2.8212e+02 0.0000e+00
      0.099    25.8962     8.3717    102.976  36.563880     35.909      7.908   249.0509     3.8132     0.7828     0.0243      0.047      0.097      0.140        240 2.7364e+02 0.0000e+00
      0.121    25.8951     8.3684    102.936  36.667881     36.021      7.890   249.2023     3.8213     0.7291     0.0243      0.056      0.118      0.170        241 2.6564e+02 0.0000e+00
      0.139    25.8940     8.3603    102.834  36.676671     36.023      7.872   249.5052     3.8011     0.8902     0.0243      0.064      0.134      0.194        242 2.6296e+02 0.0000e+00
      0.149    25.8922     8.3578    102.805  36.671578     36.024      7.858   249.2781     3.8253     0.7962     0.0243      0.068      0.146      0.212        243 2.5736e+02 0.0000e+00
      0.161    25.8904     8.3606    102.843  36.674219     36.025      7.856   249.9216     3.8698     0.8634     0.0243      0.069      0.157      0.228        244 2.5512e+02 0.0000e+00
      0.171    25.8892     8.3690    102.949  36.673384     36.026      7.856   249.3159     3.8819     0.8365     0.0243      0.066      0.168      0.244        245 2.4875e+02 0.0000e+00
      0.184    25.8886     8.3641    102.890  36.672619     36.027      7.872   248.8616     3.8819     0.8902     0.0243      0.062      0.180      0.261        246 2.4449e+02 0.0000e+00
      0.197    25.8881     8.3602    102.844  36.675173     36.028      7.875   249.1645     3.9143     0.8634     0.0243      0.056      0.191      0.277        247 2.4656e+02 0.0000e+00
      0.201    25.8860     8.3666    102.925  36.670205     36.029      7.863   248.8238     4.1488     0.7828     0.0243      0.049      0.199      0.288        248 2.4570e+02 0.0000e+00
      0.210    25.8831     8.3778    103.065  36.589824     35.947      7.865   249.2402     4.1448     0.7559     0.0243      0.043      0.207      0.301        249 2.4203e+02 0.0000e+00
      0.224    25.8822     8.3908    103.226  36.537934     35.893      7.870   249.0131     4.1326     0.8365     0.0243      0.041      0.219      0.318        250 2.3945e+02 0.0000e+00
      0.237    25.8824     8.3961    103.292  36.616147     35.978      7.885   248.1802     4.1245     0.8902     0.0243      0.042      0.232      0.336        251 2.3521e+02 0.0000e+00
      0.250    25.8816     8.3878    103.191  36.670446     36.033      7.891   248.1045     4.2782     0.8499     0.0243      0.042      0.244      0.354        252 2.3104e+02 0.0000e+00
      0.260    25.8817     8.3644    102.900  36.677974     36.033      7.896   248.7102     4.2822     0.9036     0.0243      0.043      0.254      0.368        253 2.3077e+02 0.0000e+00
      0.265    25.8836     8.3549    102.784  36.666096     36.034      7.893   248.8238     4.2661     0.8097     0.0243      0.042      0.262      0.379        254 2.2884e+02 0.0000e+00
      0.275    25.8851     8.3500    102.730  36.596251     35.951      7.897   248.5966     4.2984     0.8365     0.0243      0.041      0.272      0.395        255 2.2464e+02 0.0000e+00
      0.293    25.8861     8.3469    102.699  36.675918     36.032      7.900   248.4073     4.2822     0.8634     0.0243      0.044      0.287      0.416        256 2.2102e+02 0.0000e+00
      0.309    25.8869     8.3378    102.589  36.744908     36.113      7.904   247.6123     4.2742     0.8902     0.0243      0.046      0.302      0.438        257 2.1906e+02 0.0000e+00
      0.320    25.8881     8.3429    102.652  36.688349     36.030      7.901   247.8773     4.2822     0.7828     0.0243      0.046      0.313      0.455        258 2.1857e+02 0.0000e+00
      0.329    25.8894     8.3561    102.814  36.716643     36.085      7.902   248.4073     4.2742     0.7694     0.0243      0.046      0.324      0.470        259 2.1563e+02 0.0000e+00
      0.343    25.8897     8.3681    102.960  36.739356     36.084      7.911   248.1045     4.4157     0.9036     0.0243      0.047      0.338      0.490        260 2.1278e+02 0.0000e+00
      0.361    25.8902     8.3643    102.910  36.719402     36.083      7.918   248.5966     4.3995     0.8768     0.0243      0.051      0.358      0.519        261 2.0986e+02 0.0000e+00
      0.390    25.8905     8.3548    102.790  36.682156     36.028      7.918   249.4673     4.4157     0.8499     0.0243      0.057      0.383      0.555        262 2.0406e+02 0.0000e+00
      0.421    25.8895     8.3462    102.672  36.667071     36.028      7.921   249.9973     4.3955     0.8768     0.0243      0.065      0.410      0.595        263 2.0021e+02 0.0000e+00
      0.443    25.8900     8.3408    102.605  36.589880     35.945      7.930   250.2245     4.4036     0.7828     0.0243      0.072      0.435      0.632        264 1.9633e+02 0.0000e+00
      0.469    25.8933     8.3362    102.549  36.600264     35.946      7.924   251.0573     4.2297     0.7828     0.0243      0.081      0.457      0.663        265 1.9225e+02 0.0000e+00
      0.487    25.8967     8.3299    102.470  36.713468     36.083      7.896   250.6788     4.2216     0.8365     0.0243      0.088      0.475      0.688        266 1.9140e+02 0.0000e+00
      0.497    25.8975     8.3294    102.463  36.745592     36.080      7.883   251.5495     4.2297     0.7962     0.0243      0.090      0.487      0.706        267 1.9038e+02 0.0000e+00
      0.507    25.8976     8.3328    102.505  36.708580     36.078      7.880   252.1173     4.2095     0.8634     0.0243      0.085      0.496      0.720        268 1.8925e+02 0.0000e+00
      0.514    25.8980     8.3453    102.661  36.700208     36.022      7.885   252.5716     4.3429     0.8231     0.0243      0.076      0.505      0.733        269 1.8786e+02 0.0000e+00
      0.525    25.8969     8.3686    102.950  36.756010     36.132      7.895   252.2309     4.3389     0.8365     0.0244      0.064      0.516      0.748        270 1.8530e+02 0.0000e+00
      0.540    25.8959     8.3831    103.126  36.757773     36.077      7.902   251.9281     4.3631     0.8365     0.0243      0.054      0.531      0.769        271 1.8332e+02 0.0000e+00
      0.558    25.8932     8.3947    103.263  36.757334     36.132      7.913   252.5716     4.3429     0.7694     0.0244      0.050      0.548      0.794        272 1.8044e+02 0.0000e+00
      0.577    25.8876     8.3980    103.280  36.697238     36.024      7.915   252.8745     4.3429     0.8097     0.0243      0.049      0.565      0.819        273 1.7819e+02 0.0000e+00
      0.592    25.8866     8.3995    103.272  36.654606     36.025      7.914   254.8809     4.3389     0.8634     0.0243      0.052      0.580      0.841        274 1.7681e+02 0.0000e+00
      0.604    25.8870     8.3778    102.989  36.602776     35.947      7.918   254.3131     4.3833     0.9439     0.0243      0.055      0.593      0.861        275 1.7426e+02 0.0000e+00
      0.620    25.8859     8.3531    102.677  36.672764     36.030      7.922   254.9945     4.3429     0.8902     0.0243      0.059      0.607      0.881        276 1.7182e+02 0.0000e+00
      0.633    25.8855     8.3334    102.430  36.775125     36.140      7.918   254.5781     4.3955     0.7694     0.0244      0.061      0.620      0.899        277 1.7075e+02 0.0000e+00
      0.643    25.8858     8.3185    102.245  36.742324     36.085      7.922   255.1081     4.4157     0.8365     0.0243      0.059      0.630      0.915        278 1.6919e+02 0.0000e+00
      0.653    25.8875     8.3060    102.089  36.802561     36.168      7.931   255.5624     4.4036     0.8097     0.0244      0.055      0.641      0.930        279 1.6747e+02 0.0000e+00
      0.665    25.8881     8.2963    101.967  36.789138     36.140      7.931   255.5624     4.4116     0.8634     0.0244      0.052      0.653      0.946        280 1.6650e+02 0.0000e+00
      0.676    25.8875     8.2823    101.793  36.729369     36.084      7.931   255.1459     4.4319     0.9439     0.0243      0.048      0.664      0.964        281 1.6400e+02 0.0000e+00
      0.692    25.8835     8.2748    101.696  36.728646     36.084      7.938   255.2216     4.3793     0.8097     0.0243      0.047      0.678      0.984        282 1.6182e+02 0.0000e+00
      0.708    25.8713     8.2802    101.758  36.582425     35.947      7.946   255.4866     4.4116     0.9305     0.0243      0.048      0.695      1.008        283 1.5972e+02 0.0000e+00
      0.727    25.8577     8.3014    102.010  36.436794     35.785      7.952   255.8652     4.4238     0.8902     0.0242      0.050      0.714      1.035        284 1.5670e+02 0.0000e+00
      0.749    25.8489     8.3175    102.201  36.435336     35.821      7.947   255.2216     4.3591     0.8768     0.0242      0.056      0.733      1.064        285 1.5463e+02 0.0000e+00
      0.767    25.8439     8.3322    102.379  36.435949     35.803      7.944   255.7895     4.3672     0.8768     0.0242      0.061      0.751      1.090        286 1.5244e+02 0.0000e+00
      0.783    25.8415     8.3382    102.452  36.406380     35.809      7.941   256.2059     4.3389     0.8499     0.0242      0.066      0.766      1.111        287 1.5089e+02 0.0000e+00
      0.792    25.8408     8.3318    102.371  36.383162     35.758      7.928   255.6759     4.3469     0.8097     0.0242      0.067      0.777      1.127        288 1.5041e+02 0.0000e+00
      0.802    25.8397     8.3223    102.253  36.464846     35.870      7.925   255.5245     4.3510     0.8231     0.0242      0.065      0.790      1.145        289 1.4828e+02 0.0000e+00
      0.823    25.8383     8.3178    102.196  36.453021     35.843      7.925   255.1081     4.3955     0.8902     0.0242      0.064      0.807      1.171        290 1.4561e+02 0.0000e+00
      0.844    25.8368     8.3053    102.035  36.368220     35.761      7.926   255.6759     4.4197     0.9036     0.0242      0.063      0.826      1.198        291 1.4375e+02 0.0000e+00
      0.859    25.8346     8.2810    101.730  36.422086     35.817      7.927   255.7516     4.3753     0.7291     0.0242      0.062      0.841      1.220        292 1.4231e+02 0.0000e+00
      0.871    25.8318     8.2693    101.579  36.415645     35.818      7.926   255.2974     4.3874     0.8097     0.0242      0.060      0.854      1.239        293 1.4136e+02 0.0000e+00
      0.883    25.8276     8.2568    101.420  36.376237     35.765      7.931   255.7138     4.3429     0.8768     0.0242      0.059      0.868      1.259        294 1.3892e+02 0.0000e+00
      0.904    25.8239     8.2438    101.259  36.411814     35.821      7.927   256.5088     4.3753     0.8634     0.0242      0.061      0.884      1.283        295 1.3698e+02 0.0000e+00
      0.918    25.8225     8.2401    101.212  36.401032     35.797      7.900   255.2595     4.3469     0.8768     0.0242      0.062      0.899      1.304        296 1.3635e+02 0.0000e+00
      0.928    25.8218     8.2390    101.196  36.419316     35.827      7.894   255.1459     4.3146     0.8634     0.0242      0.061      0.913      1.323        297 1.3442e+02 0.0000e+00
      0.946    25.8205     8.2413    101.224  36.418719     35.828      7.898   255.3352     4.3348     0.8365     0.0242      0.058      0.929      1.346        298 1.3225e+02 0.0000e+00
      0.965    25.8199     8.2537    101.376  36.372115     35.774      7.910   255.7138     4.3591     0.8902     0.0242      0.059      0.948      1.374        299 1.3006e+02 0.0000e+00
      0.989    25.8187     8.2798    101.695  36.358680     35.774      7.912   255.4109     4.3510     0.8634     0.0242      0.062      0.969      1.405        300 1.2783e+02 0.0000e+00
      1.009    25.8152     8.3088    102.050  36.376124     35.775      7.914   256.4709     4.3146     0.8231     0.0242      0.067      0.988      1.433        301 1.2638e+02 0.0000e+00
      1.023    25.8113     8.3249    102.246  36.380066     35.803      7.914   255.9031     4.3469     0.8634     0.0242      0.069      1.003      1.454        302 1.2525e+02 0.0000e+00
      1.036    25.8075     8.3237    102.229  36.324115     35.723      7.916   255.8274     4.3308     0.7962     0.0242      0.069      1.017      1.474        303 1.2370e+02 0.0000e+00
      1.052    25.8048     8.3064    102.016  36.356779     35.781      7.917   255.6002     4.3631     0.8097     0.0242      0.069      1.032      1.496        304 1.2212e+02 0.0000e+00
      1.068    25.8036     8.2954    101.879  36.369078     35.784      7.914   256.0924     4.3469     0.8902     0.0242      0.069      1.046      1.516        305 1.2142e+02 0.0000e+00
      1.077    25.8028     8.2805    101.694  36.368130     35.786      7.915   256.2816     4.3510     0.8365     0.0242      0.064      1.058      1.533        306 1.2054e+02 0.0000e+00
      1.090    25.8022     8.2679    101.537  36.387620     35.814      7.919   256.7359     4.4036     0.9305     0.0242      0.059      1.071      1.553        307 1.1873e+02 0.0000e+00
      1.108    25.8018     8.2594    101.423  36.374482     35.787      7.923   256.1302     4.4076     0.8634     0.0242      0.056      1.088      1.578        308 1.1677e+02 0.0000e+00
      1.130    25.8015     8.2578    101.391  36.354820     35.787      7.922   256.4331     4.4116     0.7828     0.0242      0.057      1.108      1.608        309 1.1448e+02 0.0000e+00
      1.154    25.8005     8.2541    101.330  36.323113     35.733      7.913   256.3574     4.4480     0.8365     0.0242      0.061      1.129      1.638        310 1.1293e+02 0.0000e+00
      1.169    25.7997     8.2446    101.183  36.354625     35.788      7.903   256.2438     4.4036     0.8634     0.0242      0.065      1.147      1.663        311 1.1207e+02 0.0000e+00
      1.185    25.7991     8.2280    100.949  36.374922     35.789      7.901   256.4331     4.4036     0.8902     0.0242      0.067      1.165      1.689        312 1.0996e+02 0.0000e+00
      1.210    25.7982     8.2198    100.830  36.386830     35.817      7.897   257.6824     4.3955     0.8634     0.0242      0.072      1.185      1.719        313 1.0787e+02 0.0000e+00
      1.230    25.7970     8.2015    100.592  36.428782     35.845      7.893   256.9631     4.4036     0.9574     0.0242      0.076      1.205      1.747        314 1.0651e+02 0.0000e+00
      1.245    25.7960     8.1794    100.299  36.411690     35.845      7.896   257.4552     4.3591     0.7828     0.0242      0.077      1.222      1.772        315 1.0530e+02 0.0000e+00
      1.263    25.7954     8.1661    100.052  36.378441     35.791      7.898   257.4931     4.3510     0.9574     0.0242      0.076      1.240      1.799        316 1.0362e+02 0.0000e+00
      1.286    25.7940     8.1514     99.720  36.410844     35.847      7.901   256.3574     4.3469     0.9305     0.0242      0.075      1.263      1.832        317 1.0106e+02 0.0000e+00
      1.315    25.7890     8.1174     99.181  36.401027     35.820      7.897   258.5531     4.3267     0.8902     0.0242      0.077      1.288      1.868        318 9.9078e+01 0.0000e+00
      1.336    25.7826     8.1051     98.904  36.420317     35.848      7.895   258.4017     4.4642     0.8097     0.0242      0.081      1.312      1.903        319 9.7341e+01 0.0000e+00
      1.362    25.7734     8.0657     98.313  36.416498     35.852      7.895   258.4774     4.4642     0.8634     0.0242      0.085      1.337      1.939        320 9.4925e+01 0.0000e+00
      1.392    25.7572     8.0085     97.542  36.376124     35.801      7.887   258.4017     4.4642     0.7962     0.0242      0.089      1.364      1.978        321 9.2912e+01 0.0000e+00
      1.417    25.7413     7.9516     96.686  36.351930     35.807      7.884   257.4931     4.4561     0.8097     0.0242      0.094      1.388      2.012        322 9.1473e+01 0.0000e+00
      1.436    25.7309     7.8869     95.732  36.327977     35.764      7.882   257.7202     4.5410     0.8499     0.0242      0.097      1.407      2.040        323 9.0354e+01 0.0000e+00
      1.450    25.7235     7.8292     94.908  36.376281     35.858      7.883   258.4774     4.5410     0.8365     0.0242      0.095      1.423      2.064        324 8.9302e+01 0.0000e+00
      1.468    25.7115     7.7815     94.238  36.380801     35.838      7.886   258.4774     4.5572     0.8097     0.0242      0.091      1.444      2.094        325 8.7434e+01 0.0000e+00
      1.499    25.6644     7.7414     93.695  36.352019     35.843      7.886   258.9695     4.5613     0.7828     0.0242      0.088      1.471      2.133        326 8.4703e+01 0.0000e+00
      1.532    25.5834     7.7070     93.263  36.382446     35.851      7.881   259.5374     4.3955     0.8634     0.0242      0.090      1.497      2.172        327 8.3542e+01 0.0000e+00
      1.547    25.5137     7.6810     92.944  36.461579     35.994      7.864   258.8938     4.4238     0.8902     0.0242      0.089      1.517      2.200        328 8.3361e+01 0.0000e+00
      1.560    25.4438     7.6505     92.567  36.550152     36.109      7.868   258.8181     4.4197     0.8634     0.0243      0.085      1.537      2.230        329 8.0621e+01 0.0000e+00
      1.601    25.3852     7.6309     92.325  36.746798     36.379      7.866   258.8181     4.4197     0.8634     0.0244      0.089      1.566      2.271        330 7.8523e+01 0.0000e+00
      1.626    25.3394     7.6268     92.267  36.780417     36.457      7.859   258.8938     4.4116     0.7291     0.0244      0.094      1.592      2.310        331 7.7757e+01 0.0000e+00
      1.645    25.2518     7.6230     92.153  36.745623     36.446      7.853   259.3102     4.3389     0.9036     0.0243      0.097      1.615      2.343        332 7.6052e+01 0.0000e+00
      1.671    25.1550     7.6186     92.073  36.819790     36.586      7.847   260.3324     4.3753     0.8634     0.0244      0.097      1.643      2.383        333 7.3855e+01 0.0000e+00
      1.711    25.0850     7.6147     92.053  36.866107     36.653      7.831   261.3167     4.3672     0.8365     0.0244      0.100      1.678      2.434        334 7.1301e+01 0.0000e+00
      1.752    25.0313     7.6065     91.953  36.954960     36.862      7.807   259.8024     4.3429     0.7828     0.0245      0.107      1.712      2.483        335 6.9712e+01 0.0000e+00
      1.775    24.9990     7.6073     91.873  36.916875     36.831      7.791   259.6888     4.3874     0.8902     0.0244      0.115      1.736      2.518        336 6.9014e+01 0.0000e+00
      1.786    24.9887     7.6079     91.776  36.883880     36.869      7.779   259.8024     4.4197     0.9036     0.0244      0.114      1.750      2.538        337 6.8724e+01 0.0000e+00
      1.792    24.9872     7.6034     91.621  36.907071     36.894      7.769   260.9381     4.4036     0.8499     0.0244      0.104      1.758      2.551        338 6.8227e+01 0.0000e+00
      1.802    24.9808     7.5618     91.058  36.888032     36.901      7.760   260.9381     4.4076     0.8768     0.0244      0.094      1.768      2.564        339 6.7581e+01 0.0000e+00
      1.814    24.9802     7.4744     89.944  36.907579     36.903      7.753   261.5817     4.3146     0.8097     0.0244      0.083      1.781      2.582        340 6.6881e+01 0.0000e+00
      1.830    24.9720     7.3821     88.763  36.912405     36.934      7.739   260.1809     4.3106     0.7559     0.0244      0.069      1.796      2.605        341 6.5726e+01 0.0000e+00
      1.850    24.9359     7.2723     87.313  36.852370     36.852      7.728   261.1652     4.3267     0.9305     0.0244      0.058      1.813      2.629        342 6.4712e+01 0.0000e+00
      1.865    24.9183     7.1493     85.709  36.833997     36.856      7.714   261.3924     4.3389     0.8365     0.0244      0.051      1.828      2.650        343 6.4069e+01 0.0000e+00
      1.875    24.9355     6.9766     83.561  36.846296     36.886      7.702   261.3167     4.3833     0.7694     0.0244      0.051      1.839      2.668        344 6.3501e+01 0.0000e+00
      1.887    24.9316     6.7546     80.872  36.896394     36.953      7.691   262.5281     4.3833     0.8634     0.0244      0.053      1.852      2.686        345 6.2886e+01 0.0000e+00
      1.904    24.8827     6.4875     77.669  36.979277     37.025      7.681   261.3924     4.3874     0.7559     0.0245      0.056      1.869      2.711        346 6.1682e+01 0.0000e+00
      1.928    24.8182     6.2524     74.794  36.891448     36.941      7.667   261.9602     4.4116     0.8499     0.0244      0.060      1.892      2.744        347 6.0210e+01 0.0000e+00
      1.955    24.7621     6.0642     72.375  36.798084     36.869      7.654   261.8467     4.5249     0.9305     0.0244      0.065      1.916      2.779        348 5.9281e+01 0.0000e+00
      1.976    24.7216     5.9035     70.260  36.828552     36.970      7.641   261.9602     4.5451     0.8097     0.0244      0.069      1.939      2.813        349 5.8062e+01 0.0000e+00
      2.002    24.6880     5.7589     68.398  36.794242     36.958      7.627   262.5281     4.5330     0.8902     0.0244      0.075      1.962      2.847        350 5.6903e+01 0.0000e+00
      2.025    24.6412     5.5734     66.070  36.840810     37.042      7.612   262.8310     4.5410     0.9036     0.0244      0.082      1.985      2.880        351 5.6016e+01 0.0000e+00
      2.047    24.5639     5.3709     63.571  36.918919     37.153      7.598   263.9667     4.5491     0.8231     0.0245      0.088      2.007      2.910        352 5.4905e+01 0.0000e+00
      2.069    24.4841     5.1577     61.022  36.845355     37.102      7.585   264.0802     4.9050     0.8634     0.0244      0.091      2.026      2.938        353 5.4274e+01 0.0000e+00
      2.081    24.4339     4.9433     58.448  36.843406     37.162      7.571   264.3452     4.9009     0.8365     0.0244      0.089      2.040      2.958        354 5.4001e+01 0.0000e+00
      2.090    24.4141     4.7416     55.901  36.832401     37.221      7.559   263.6638     4.8969     0.8097     0.0244      0.082      2.052      2.976        355 5.3506e+01 0.0000e+00
      2.105    24.4096     4.5666     53.676  36.799767     37.203      7.545   264.0045     4.9292     0.9439     0.0244      0.075      2.068      2.999        356 5.2691e+01 0.0000e+00
      2.130    24.3654     4.4070     51.666  36.824724     37.274      7.533   264.3074     6.3364     0.9708     0.0244      0.071      2.094      3.037        357 5.1125e+01 0.0000e+00
      2.173    24.2418     4.2831     50.107  36.771695     37.192      7.512   267.5252     6.3566     1.0111     0.0244      0.074      2.131      3.090        358 4.9006e+01 0.0000e+00
      2.216    24.0940     4.1703     48.719  36.658154     37.139      7.492   267.2602     6.3364     1.0245     0.0244      0.084      2.168      3.144        359 4.7827e+01 0.0000e+00
      2.240    23.9810     4.0660     47.469  36.610138     37.148      7.479   267.0710     6.3202     1.0514     0.0243      0.094      2.196      3.185        360 4.7111e+01 0.0000e+00
      2.261    23.8814     3.9604     46.220  36.653550     37.347      7.463   266.5031     7.3635     1.3333     0.0244      0.102      2.217      3.215        361 4.6137e+01 0.0000e+00
      2.281    23.7987     3.8451     44.849  36.604198     37.346      7.448   266.8438     7.3635     1.3065     0.0243      0.109      2.236      3.242        362 4.5477e+01 0.0000e+00
      2.296    23.7770     3.7650     43.833  36.552980     37.395      7.431   268.3203     7.3716     1.2931     0.0243      0.110      2.253      3.268        363 4.4641e+01 0.0000e+00
      2.317    23.7362     3.6980     42.964  36.539384     37.429      7.419   268.2445     7.3433     1.2931     0.0243      0.105      2.273      3.296        364 4.3693e+01 0.0000e+00
      2.339    23.5903     3.6416     42.226  36.472858     37.390      7.405   268.8124     7.1856     1.2662     0.0243      0.096      2.294      3.326        365 4.3022e+01 0.0000e+00
      2.359    23.4268     3.5634     41.239  36.368859     37.301      7.391   268.3960     7.1573     1.2662     0.0243      0.085      2.315      3.358        366 4.2102e+01 0.0000e+00
      2.385    23.2919     3.4714     40.081  36.312931     37.362      7.376   268.5853     7.1694     1.3871     0.0242      0.080      2.339      3.392        367 4.0930e+01 0.0000e+00
      2.409    23.1780     3.3435     38.534  36.364567     37.542      7.358   268.5095     7.1613     1.2393     0.0243      0.082      2.361      3.424        368 4.0140e+01 0.0000e+00
      2.428    23.1063     3.2156     36.989  36.393651     37.678      7.342   269.5317     7.4403     1.2931     0.0243      0.083      2.379      3.450        369 3.9750e+01 0.0000e+00
      2.439    23.0679     3.0791     35.344  36.365782     37.737      7.327   269.9103     7.4039     1.2393     0.0243      0.083      2.392      3.470        370 3.9460e+01 0.0000e+00
      2.450    23.0524     2.9460     33.756  36.369646     37.795      7.314   270.2510     7.4201     1.3199     0.0243      0.079      2.405      3.488        371 3.8859e+01 0.0000e+00
      2.469    23.0172     2.8040     32.084  36.359222     37.823      7.299   270.4403     7.4484     1.2931     0.0243      0.075      2.423      3.513        372 3.8097e+01 0.0000e+00
      2.490    22.9244     2.6680     30.498  36.438094     37.895      7.281   270.7053     7.3999     1.2662     0.0243      0.072      2.443      3.543        373 3.7376e+01 0.0000e+00
      2.514    22.8120     2.5352     28.976  36.657074     38.181      7.265   269.8724     7.1047     1.2528     0.0244      0.070      2.467      3.578        374 3.6395e+01 0.0000e+00
      2.542    22.7117     2.4213     27.712  36.798554     38.376      7.243   270.8188     7.1007     1.2393     0.0245      0.072      2.492      3.614        375 3.5602e+01 0.0000e+00
      2.566    22.6074     2.3275     26.700  36.766279     38.463      7.224   270.9703     7.1371     1.3602     0.0245      0.076      2.514      3.647        376 3.4858e+01 0.0000e+00
      2.584    22.4899     2.2508     25.831  36.756611     38.488      7.207   270.9703     7.1290     1.2931     0.0245      0.080      2.532      3.673        377 3.4401e+01 0.0000e+00
      2.597    22.3898     2.2090     25.295  36.810638     38.687      7.191   272.0681     7.1007     1.2662     0.0245      0.083      2.547      3.694        378 3.4134e+01 0.0000e+00
      2.609    22.2924     2.1942     25.069  36.758416     38.668      7.177   271.6517     7.0926     1.2931     0.0245      0.082      2.562      3.716        379 3.3333e+01 0.0000e+00
      2.632    22.1822     2.2030     25.160  36.851317     38.895      7.158   270.0238     7.1007     1.2393     0.0245      0.079      2.579      3.741        380 3.2744e+01 0.0000e+00
      2.648    22.0895     2.2181     25.295  37.021337     39.124      7.136   270.4024     7.0966     1.2393     0.0246      0.075      2.595      3.764        381 3.2415e+01 0.0000e+00
      2.660    22.0161     2.2182     25.227  37.051099     39.275      7.124   270.2131     7.4767     1.3333     0.0246      0.069      2.607      3.781        382 3.2117e+01 0.0000e+00
      2.668    21.9669     2.2131     25.128  37.081271     39.352      7.111   271.5003     7.4929     1.3333     0.0246      0.062      2.615      3.793        383 3.1841e+01 0.0000e+00
      2.674    21.9598     2.1711     24.578  37.191458     39.562      7.094   271.3867     7.4767     1.3871     0.0247      0.055      2.622      3.802        384 3.1678e+01 0.0000e+00
      2.679    22.0308     2.0947     23.594  37.151292     39.544      7.083   271.4245     7.4808     1.3468     0.0247      0.050      2.627      3.811        385 3.1547e+01 0.0000e+00
      2.685    22.1469     2.0049     22.496  37.101619     39.491      7.073   270.7431     7.2179     1.2393     0.0247      0.044      2.635      3.821        386 3.1225e+01 0.0000e+00
      2.696    22.1703     1.8784     20.989  37.134634     39.492      7.066   270.1374     7.2381     1.2393     0.0247      0.038      2.645      3.836        387 3.0815e+01 0.0000e+00
      2.710    22.0556     1.7297     19.261  37.169494     39.390      7.058   269.7967     7.2422     1.1856     0.0247      0.034      2.659      3.856        388 3.0253e+01 0.0000e+00
      2.727    21.9430     1.5674     17.409  37.295478     39.549      7.049   270.3267     7.2058     1.2662     0.0248      0.035      2.674      3.877        389 2.9882e+01 0.0000e+00
      2.741    21.9151     1.3841     15.311  37.274447     39.587      7.040   270.4024     6.9632     1.2931     0.0247      0.039      2.690      3.900        390 2.9428e+01 0.0000e+00
      2.760    21.8401     1.2126     13.369  37.373670     39.805      7.031   271.0838     6.9955     1.2796     0.0248      0.045      2.706      3.925        391 2.8793e+01 0.0000e+00
      2.776    21.7034     1.0602     11.678  37.616956     40.092      7.021   270.7431     6.9955     1.2662     0.0249      0.052      2.720      3.945        392 2.8611e+01 0.0000e+00
      2.783    21.6160     0.9135     10.062  37.742895     40.276      7.011   270.5538     6.9794     1.2662     0.0250      0.055      2.730      3.960        393 2.8466e+01 0.0000e+00
      2.793    21.4584     0.7843      8.633  37.780541     40.458      7.001   270.3645     6.9753     1.2393     0.0250      0.056      2.743      3.979        394 2.7841e+01 0.0000e+00
      2.816    21.2091     0.6623      7.266  38.074407     40.800      6.993   270.5160     6.8540     1.2796     0.0251      0.057      2.763      4.007        395 2.7119e+01 0.0000e+00
      2.842    21.0034     0.5761      6.292  38.326416     41.296      6.981   270.8188     6.8580     1.2662     0.0253      0.060      2.788      4.043        396 2.6456e+01 0.0000e+00
      2.870    20.7955     0.5260      5.726  38.445844     41.528      6.961   272.5981     6.8459     1.2796     0.0253      0.065      2.813      4.080        397 2.5756e+01 0.0000e+00
      2.894    20.6200     0.4899      5.325  38.845429     42.282      6.943   272.2195     6.8338     1.3602     0.0256      0.072      2.835      4.114        398 2.5339e+01 0.0000e+00
      2.910    20.4848     0.4531      4.922  38.956436     42.480      6.927   272.7117     6.9025     1.3333     0.0256      0.077      2.854      4.139        399 2.5100e+01 0.0000e+00
      2.926    20.2844     0.4167      4.514  39.138364     42.919      6.912   272.1817     6.9308     1.3871     0.0257      0.081      2.871      4.163        400 2.4628e+01 0.0000e+00
      2.947    20.1174     0.3974      4.291  39.538683     43.441      6.900   272.9010     6.9227     1.2393     0.0259      0.084      2.888      4.187        401 2.4203e+01 0.0000e+00
      2.960    20.0665     0.3851      4.153  39.674544     43.823      6.877   274.6424     6.9147     1.2393     0.0260      0.083      2.900      4.206        402 2.4161e+01 0.0000e+00
      2.964    20.0662     0.3698      3.983  39.592325     43.863      6.860   274.9074     6.8217     1.2259     0.0260      0.074      2.907      4.217        403 2.4001e+01 0.0000e+00
      2.970    20.0314     0.3504      3.770  39.581756     43.909      6.847   275.0210     6.8661     1.2528     0.0260      0.063      2.915      4.228        404 2.3821e+01 0.0000e+00
      2.983    19.8707     0.3306      3.557  39.687734     44.035      6.839   274.5288     6.8864     1.2931     0.0260      0.054      2.930      4.250        405 2.3291e+01 0.0000e+00
      3.014    19.6410     0.3135      3.365  39.875746     44.251      6.824   275.2103     6.8661     1.2931     0.0261      0.052      2.954      4.284        406 2.2588e+01 0.0000e+00
      3.039    19.4757     0.2980      3.187  40.000424     44.598      6.800   275.8538     6.9349     1.4408     0.0262      0.056      2.974      4.314        407 2.2453e+01 0.0000e+00
      3.044    19.4109     0.2911      3.107  39.888630     44.644      6.785   276.6867     6.9106     1.5213     0.0261      0.057      2.984      4.329        408 2.2525e+01 0.0000e+00
      3.045    19.3707     0.2770      2.950  39.925988     44.902      6.772   276.8003     6.9025     1.4676     0.0262      0.055      2.994      4.344        409 2.2249e+01 0.0000e+00
      3.074    19.2329     0.2685      2.855  39.954018     44.970      6.760   278.3146     6.8985     1.4945     0.0262      0.059      3.019      4.379        410 2.1174e+01 0.0000e+00
      3.117    19.0748     0.2621      2.778  39.942786     45.003      6.738   278.3146     6.6963     1.5348     0.0262      0.071      3.050      4.424        411 2.0725e+01 0.0000e+00
      3.136    19.0077     0.2580      2.725  40.029001     45.243      6.724   277.1410     6.7287     1.4273     0.0263      0.078      3.073      4.457        412 2.0625e+01 0.0000e+00
      3.149    18.9482     0.2541      2.676  39.995115     45.376      6.715   277.9739     6.7246     1.4945     0.0263      0.080      3.089      4.480        413 2.0240e+01 0.0000e+00
      3.166    18.9038     0.2495      2.623  39.955363     45.379      6.704   277.9739     6.7287     1.5079     0.0263      0.078      3.102      4.499        414 2.0249e+01 0.0000e+00
      3.172    18.8903     0.2399      2.515  39.989526     45.502      6.699   278.9203     6.7084     1.4408     0.0263      0.076      3.113      4.516        415 2.0032e+01 0.0000e+00
      3.188    18.7763     0.2289      2.391  40.071292     45.619      6.692   278.9960     6.4739     1.2528     0.0263      0.077      3.132      4.542        416 1.9302e+01 0.0000e+00
      3.222    18.6080     0.2227      2.320  40.328270     45.941      6.681   279.6017     6.4577     1.3871     0.0265      0.078      3.158      4.580        417 1.8794e+01 0.0000e+00
      3.248    18.4958     0.2113      2.194  40.619034     46.386      6.669   277.5574     6.4658     1.2796     0.0266      0.074      3.184      4.618        418 1.8493e+01 0.0000e+00
      3.272    18.4061     0.2085      2.157  40.629126     46.597      6.660   278.1253     6.4860     1.3333     0.0267      0.073      3.208      4.653        419 1.8040e+01 0.0000e+00
      3.296    18.3040     0.1976      2.037  40.671777     46.718      6.650   278.6931     6.7367     1.4810     0.0267      0.080      3.229      4.684        420 1.7791e+01 0.0000e+00
      3.310    18.1638     0.2006      2.060  40.862683     47.102      6.641   278.7689     6.7448     1.5348     0.0268      0.085      3.247      4.710        421 1.7505e+01 0.0000e+00
      3.329    17.9884     0.1969      2.013  41.222253     47.538      6.633   279.6774     6.7125     1.4408     0.0270      0.087      3.267      4.737        422 1.7143e+01 0.0000e+00
      3.354    17.8491     0.1981      2.017  41.737356     48.401      6.621   277.8603     6.7125     1.4408     0.0273      0.090      3.288      4.768        423 1.6850e+01 0.0000e+00
      3.373    17.7588     0.2089      2.120  41.823741     48.604      6.615   277.9739     6.6397     1.8436     0.0273      0.087      3.310      4.801        424 1.6542e+01 0.0000e+00
      3.399    17.6251     0.2161      2.189  41.826850     48.825      6.606   278.4660     6.6680     1.6959     0.0274      0.084      3.336      4.838        425 1.5997e+01 0.0000e+00
      3.434    17.4623     0.2197      2.219  41.911572     48.994      6.594   279.4503     6.6478     1.6825     0.0274      0.086      3.366      4.882        426 1.5509e+01 0.0000e+00
      3.463    17.3222     0.2255      2.270  41.896379     49.143      6.584   279.8289     6.6680     1.7093     0.0274      0.092      3.396      4.926        427 1.5114e+01 0.0000e+00
      3.494    17.1623     0.2307      2.317  41.845833     49.275      6.572   279.9424     6.2070     2.2464     0.0274      0.098      3.429      4.974        428 1.4500e+01 0.0000e+00
      3.534    16.9957     0.2274      2.278  41.855890     49.427      6.558   280.9646     6.2070     2.2733     0.0275      0.109      3.468      5.030        429 1.3561e+01 0.0000e+00
      3.582    16.8327     0.2277      2.275  41.883950     49.691      6.540   281.6460     6.2353     2.3941     0.0275      0.122      3.510      5.091        430 1.2702e+01 0.0000e+00
      3.619    16.6475     0.2248      2.238  41.722001     49.648      6.532   282.2139     6.2151     2.2464     0.0274      0.132      3.549      5.147        431 1.2067e+01 0.0000e+00
      3.656    16.4283     0.2181      2.162  41.701516     49.847      6.521   283.0467     7.9862     2.5553     0.0275      0.141      3.586      5.201        432 1.1223e+01 0.0000e+00
      3.695    16.2217     0.2175      2.152  41.790872     50.163      6.511   283.9174     7.9903     2.5284     0.0275      0.147      3.622      5.253        433 1.0581e+01 0.0000e+00
      3.727    16.0815     0.2185      2.161  41.640577     50.266      6.506   282.3653     8.0226     2.4479     0.0275      0.149      3.654      5.300        434 1.0026e+01 0.0000e+00
      3.758    15.9787     0.2085      2.063  41.621668     50.448      6.500   281.4189     7.9903     2.4747     0.0275      0.149      3.684      5.344        435 9.5168e+00 0.0000e+00
      3.787    15.8446     0.2096      2.066  41.547508     50.622      6.495   279.6774     7.9862     2.5284     0.0275      0.144      3.713      5.386        436 9.0801e+00 0.0000e+00
      3.816    15.6990     0.2028      1.990  41.109944     50.097      6.488   277.7467     6.9996     2.1659     0.0273      0.136      3.742      5.426        437 8.5602e+00 0.0000e+00
      3.845    15.5756     0.2012      1.967  40.949930     50.160      6.486   278.7689     6.9753     2.0719     0.0273      0.128      3.768      5.465        438 8.1477e+00 0.0000e+00
      3.866    15.4621     0.1999      1.948  40.916043     50.240      6.478   278.5796     6.9874     2.0987     0.0272      0.121      3.789      5.496        439 7.9488e+00 0.0000e+00
      3.880    15.3518     0.1991      1.933  40.825862     50.318      6.473   277.4060     6.9955     2.1390     0.0272      0.111      3.807      5.522        440 7.7576e+00 0.0000e+00
      3.903    15.1644     0.2043      1.977  40.587569     50.155      6.467   276.6488     5.0546     2.1524     0.0271      0.102      3.830      5.556        441 7.3065e+00 0.0000e+00
      3.937    14.9753     0.2042      1.970  40.115019     49.695      6.463   275.3617     5.0222     2.1390     0.0269      0.099      3.855      5.591        442 7.0208e+00 0.0000e+00
      3.951    14.8848     0.2129      2.049  39.960396     49.722      6.450   272.5981     5.0384     2.0584     0.0268      0.094      3.870      5.612        443 7.0286e+00 0.0000e+00
      3.950    14.8773     0.2125      2.041  40.097783     50.173      6.444   270.0238     5.0182     2.1390     0.0270      0.084      3.875      5.620        444 7.0602e+00 0.0000e+00
      3.954    14.8796     0.2172      2.084  40.122127     50.279      6.439   268.8881     4.6664     2.1793     0.0270      0.072      3.886      5.636        445 6.9073e+00 0.0000e+00
      3.985    14.7346     0.2161      2.071  40.167474     50.368      6.432   268.1310     4.6826     2.1659     0.0270      0.066      3.914      5.676        446 6.3208e+00 0.0000e+00
      4.036    14.5121     0.2142      2.049  39.922702     50.069      6.421   267.2602     4.6543     2.1659     0.0269      0.072      3.954      5.734        447 5.8527e+00 0.0000e+00
      4.072    14.3394     0.2219      2.121  39.507146     49.665      6.413   266.3517     4.6907     2.1122     0.0266      0.083      3.992      5.790        448 5.6095e+00 0.0000e+00
      4.107    14.1820     0.2120      2.024  39.498101     50.014      6.409   264.4210     4.4157     2.5016     0.0267      0.093      4.026      5.840        449 5.3673e+00 0.0000e+00
      4.140    14.0221     0.2111      2.013  39.222113     49.843      6.401   264.4967     4.4116     2.5150     0.0266      0.105      4.060      5.888        450 5.2430e+00 0.0000e+00
      4.173    13.8750     0.2081      1.983  38.871790     49.577      6.396   263.8152     4.3955     2.5016     0.0264      0.121      4.094      5.938        451 5.0719e+00 0.0000e+00
      4.213    13.7392     0.2080      1.977  38.984909     49.962      6.390   263.9288     4.3955     2.5150     0.0265      0.137      4.131      5.993        452 4.9155e+00 0.0000e+00
      4.253    13.6206     0.2086      1.980  38.784785     49.898      6.386   263.0960     3.9709     2.9178     0.0264      0.146      4.170      6.049        453 4.7604e+00 0.0000e+00
      4.292    13.5309     0.2091      1.981  38.942941     50.183      6.380   259.8024     3.9507     2.8507     0.0265      0.146      4.205      6.099        454 4.6419e+00 0.0000e+00
      4.319    13.4669     0.2221      2.102  40.568057     52.544      6.374   259.4617     3.9790     2.9178     0.0275      0.141      4.233      6.138        455 4.5916e+00 0.0000e+00
      4.336    13.4151     0.2438      2.306  42.250576     54.843      6.376   259.2345     3.9507     2.8776     0.0284      0.136      4.253      6.168        456 4.5049e+00 0.0000e+00
      4.356    13.3570     0.2786      2.636  43.227535     56.170      6.371   259.9159     3.9547     3.5758     0.0290      0.128      4.273      6.198        457 4.4017e+00 0.0000e+00
      4.381    13.3143     0.3307      3.131  43.594906     56.790      6.368   259.4617     3.0489     3.9786     0.0293      0.119      4.297      6.232        458 4.3221e+00 0.0000e+00
      4.407    13.2716     0.3838      3.633  43.336248     56.440      6.363   258.8181     3.0813     4.0189     0.0291      0.110      4.325      6.272        459 4.2128e+00 0.0000e+00
      4.442    13.2159     0.4403      4.167  42.748370     55.847      6.355   258.2124     3.0530     4.0189     0.0288      0.104      4.357      6.319        460 4.1059e+00 0.0000e+00
      4.479    13.1617     0.4930      4.660  41.626630     54.334      6.348   257.8338     3.0692     3.8309     0.0281      0.103      4.393      6.371        461 3.9823e+00 0.0000e+00
      4.517    13.0811     0.5353      5.051  40.311702     52.774      6.340   257.7959     2.0299     7.1745     0.0274      0.107      4.428      6.423        462 3.7803e+00 0.0000e+00
      4.552    12.9910     0.5744      5.411  40.023729     52.329      6.331   257.4174     2.0219     7.2282     0.0272      0.116      4.462      6.471        463 3.6652e+00 0.0000e+00
      4.581    12.9139     0.6003      5.648  39.938062     52.593      6.320   257.2281     2.0380     7.2014     0.0273      0.125      4.490      6.512        464 3.5958e+00 0.0000e+00
      4.604    12.8634     0.6298      5.919  38.994447     51.168      6.319   256.4709     2.0259     7.1476     0.0266      0.128      4.512      6.544        465 3.5164e+00 0.0000e+00
      4.617    12.8523     0.6618      6.215  38.943579     51.423      6.315   256.0545     1.6984     9.2424     0.0267      0.123      4.526      6.564        466 3.5131e+00 0.0000e+00
      4.625    12.8697     0.6997      6.568  39.230117     51.786      6.312   255.3352     1.6984     9.2827     0.0268      0.112      4.536      6.579        467 3.4550e+00 0.0000e+00
      4.635    12.8866     0.7463      7.005  39.290490     51.876      6.309   255.1081     1.6903     9.2558     0.0269      0.096      4.548      6.595        468 3.4086e+00 0.0000e+00
      4.651    12.8827     0.7844      7.359  39.432074     52.109      6.314   254.6538     1.7186     9.2827     0.0270      0.080      4.564      6.619        469 3.3526e+00 0.0000e+00
      4.674    12.8614     0.8175      7.664  39.083581     51.532      6.314   255.7895     1.6377    11.9683     0.0267      0.069      4.585      6.649        470 3.2213e+00 0.0000e+00
      4.700    12.8099     0.8168      7.653  38.893579     51.354      6.312   254.7674     1.6256    11.9683     0.0267      0.065      4.608      6.683        471 3.1500e+00 0.0000e+00
      4.720    12.7343     0.7786      7.292  38.808271     51.233      6.311   254.7295     1.6134    11.9683     0.0266      0.065      4.630      6.714        472 3.0538e+00 0.0000e+00
      4.743    12.6615     0.6940      6.496  38.804130     51.304      6.311   253.8588     1.6539    11.9683     0.0266      0.069      4.653      6.748        473 2.9535e+00 0.0000e+00
      4.770    12.6042     0.5832      5.458  39.047078     51.740      6.312   253.1016     1.4355    14.7344     0.0268      0.077      4.679      6.786        474 2.8739e+00 0.0000e+00
      4.799    12.5578     0.4765      4.458  39.039913     51.841      6.310   254.5402     1.4355    14.6404     0.0268      0.087      4.709      6.830        475 2.7452e+00 0.0000e+00
      4.837    12.5197     0.3699      3.460  39.020733     51.845      6.307   253.9345     1.4396    14.7076     0.0268      0.097      4.744      6.880        476 2.6141e+00 0.0000e+00
      4.873    12.5018     0.2698      2.524  40.465239     53.807      6.300   252.8745     1.4517    14.7076     0.0276      0.106      4.782      6.935        477 2.4826e+00 0.0000e+00
      4.915    12.4958     0.2052      1.919  45.638352     60.681      6.294   252.2309     1.3991    15.3924     0.0306      0.116      4.828      7.002        478 2.2525e+00 0.0000e+00
      4.983    12.4773     0.1551      1.451  52.285594     69.920      6.280   252.0416     1.3627    15.2581     0.0347      0.134      4.886      7.086        479 1.9698e+00 0.0000e+00
      5.049    12.4474     0.1467      1.373  53.678882     71.682      6.246   252.3066     1.3749    15.2447     0.0355      0.157      4.941      7.165        480 1.8489e+00 0.0000e+00
      5.079    12.4206     0.1514      1.417  51.917846     69.070      6.229   249.9595     1.3668    15.3118     0.0343      0.172      4.976      7.217        481 1.8117e+00 0.0000e+00
      5.096    12.4005     0.1643      1.538  51.271338     68.639      6.220   247.8773     1.3749    15.3924     0.0341      0.175      4.999      7.251        482 1.6861e+00 0.0000e+00
      5.121    12.3813     0.1628      1.522  50.743381     67.605      6.215   246.7038     0.9745    14.6404     0.0336      0.170      5.022      7.284        483 1.6037e+00 0.0000e+00
      5.146    12.3670     0.1829      1.708  51.090804     68.426      6.215   245.8330     0.9867    14.5061     0.0340      0.159      5.045      7.316        484 1.5511e+00 0.0000e+00
      5.165    12.3600     0.1950      1.820  51.254526     68.499      6.215   245.0002     0.9786    14.4390     0.0340      0.142      5.065      7.346        485 1.5048e+00 0.0000e+00
      5.185    12.3508     0.2101      1.960  51.815963     69.273      6.217   244.5080     0.9948    14.4927     0.0343      0.121      5.084      7.374        486 1.4651e+00 0.0000e+00
      5.202    12.3414     0.2380      2.220  51.935603     69.698      6.221   244.2052     0.8290    14.0630     0.0345      0.098      5.102      7.399        487 1.3919e+00 0.0000e+00
      5.220    12.3459     0.2417      2.255  50.897888     67.880      6.226   238.8673     0.8492    14.1302     0.0337      0.084      5.121      7.427        488 1.3368e+00 0.0000e+00
      5.244    12.3592     0.2619      2.442  50.762497     68.198      6.233   230.2359     0.8735    14.1570     0.0339      0.081      5.142      7.457        489 1.2582e+00 0.0000e+00
      5.265    12.3702     0.2687      2.504  50.056067     66.842      6.238   226.6773     0.8532    14.1570     0.0333      0.080      5.162      7.487        490 1.2152e+00 0.0000e+00
      5.284    12.3793     0.2799      2.608  50.322665     67.378      6.242   223.8758     1.0271    15.6207     0.0335      0.079      5.182      7.516        491 1.2248e+00 0.0000e+00
      5.305    12.3650     0.2770      2.579  49.480933     66.387      6.245   221.9830     1.0271    15.4461     0.0331      0.078      5.204      7.548        492 1.1550e+00 0.0000e+00
      5.331    12.3214     0.2724      2.536  47.126695     62.740      6.249   221.3015     1.0554    15.6610     0.0315      0.081      5.231      7.587        493 1.0682e+00 0.0000e+00
      5.365    12.2762     0.2775      2.582  46.931064     63.026      6.252   219.6358     1.0554    15.6475     0.0316      0.086      5.263      7.634        494 9.6919e-01 0.0000e+00
      5.406    12.2460     0.2777      2.583  46.905029     62.652      6.252   219.2194     1.3749    19.2596     0.0314      0.096      5.298      7.684        495 8.6421e-01 0.0000e+00
      5.436    12.2330     0.3119      2.900  47.663624     64.002      6.253   219.3708     1.3668    19.2596     0.0320      0.105      5.325      7.723        496 8.5466e-01 0.0000e+00
      5.446    12.2275     0.3517      3.269  48.746971     65.445      6.254   217.4022     1.3668    19.2328     0.0326      0.106      5.340      7.744        497 8.5262e-01 0.0000e+00
      5.452    12.2189     0.4273      3.971  48.376155     64.978      6.256   211.9508     1.3668    19.2999     0.0324      0.103      5.351      7.762        498 8.4309e-01 0.0000e+00
      5.474    12.2018     0.5097      4.737  48.510904     65.063      6.261   208.6951     1.1565    20.0787     0.0324      0.098      5.371      7.791        499 8.0850e-01 0.0000e+00
      5.506    12.1806     0.5986      5.562  47.362509     63.876      6.261   206.2722     1.1848    20.0385     0.0319      0.094      5.397      7.828        500 7.4308e-01 0.0000e+00
      5.531    12.1631     0.6992      6.497  46.451882     61.988      6.265   204.9094     1.1606    20.0787     0.0311      0.090      5.422      7.863        501 7.0043e-01 0.0000e+00
      5.547    12.1441     0.7781      7.232  46.112723     62.588      6.265   202.7136     1.1606    20.1056     0.0313      0.083      5.442      7.892        502 6.9065e-01 0.0000e+00
      5.570    12.1246     0.8498      7.901  43.719359     58.253      6.270   201.2372     1.1646    20.1459     0.0294      0.079      5.463      7.924        503 6.9736e-01 0.0000e+00
      5.596    12.1080     0.8989      8.355  42.190366     57.267      6.267   199.1929     1.1161    20.3204     0.0290      0.082      5.487      7.958        504 6.6150e-01 0.0000e+00
      5.617    12.0935     0.9311      8.650  41.220928     55.076      6.268   197.6408     1.1363    20.3070     0.0280      0.088      5.510      7.991        505 6.3764e-01 0.0000e+00
      5.642    12.0833     0.9527      8.850  40.683245     55.175      6.270   196.4672     1.0878    20.3204     0.0280      0.092      5.533      8.025        506 6.1871e-01 0.0000e+00
      5.668    12.0741     0.9589      8.907  40.723438     54.557      6.268   195.4829     1.1039    20.2399     0.0277      0.092      5.557      8.060        507 5.6667e-01 0.0000e+00
      5.692    12.0654     0.9529      8.856  40.814920     55.325      6.271   194.9529     1.0959    19.4745     0.0281      0.091      5.581      8.095        508 5.5610e-01 0.0000e+00
      5.716    12.0594     0.9431      8.767  40.450741     54.321      6.277   194.6500     1.1201    19.6222     0.0276      0.093      5.605      8.130        509 5.2462e-01 0.0000e+00
      5.739    12.0573     0.9343      8.687  40.375663     54.598      6.281   193.2493     1.1120    19.5953     0.0277      0.095      5.627      8.161        510 4.8619e-01 0.0000e+00
      5.760    12.0565     0.9057      8.422  40.700687     54.833      6.287   191.8107     1.0756    19.4611     0.0278      0.094      5.645      8.186        511 4.7838e-01 0.0000e+00
      5.768    12.0646     0.8497      7.900  40.728582     54.987      6.285   190.7507     1.0918    18.8837     0.0279      0.089      5.657      8.204        512 4.7662e-01 0.0000e+00
      5.777    12.0763     0.7576      7.044  40.934280     55.214      6.288   190.3722     1.1080    18.7897     0.0280      0.081      5.673      8.228        513 4.6086e-01 0.0000e+00
      5.814    12.0645     0.6380      5.932  40.563367     54.751      6.287   190.3722     1.0959    18.8031     0.0278      0.079      5.702      8.269        514 4.1408e-01 0.0000e+00
      5.850    12.0472     0.5063      4.707  40.033193     53.939      6.282   190.1450     1.1323    18.8568     0.0275      0.082      5.734      8.317        515 3.8470e-01 0.0000e+00
      5.878    12.0390     0.3669      3.411  39.665786     53.544      6.282   189.1229     1.0595    20.7770     0.0273      0.086      5.762      8.358        516 3.8804e-01 0.0000e+00
      5.900    12.0408     0.2501      2.325  39.863643     53.719      6.281   187.7600     1.0352    20.8039     0.0274      0.090      5.786      8.393        517 3.6205e-01 0.0000e+00
      5.925    12.0584     0.1424      1.323  43.169081     58.146      6.283   187.5329     1.0514    20.7904     0.0293      0.095      5.811      8.429        518 3.4887e-01 0.0000e+00
      5.952    12.0727     0.0700      0.650  46.529907     63.127      6.284   188.1386     1.0635    20.8710     0.0315      0.102      5.839      8.469        519 3.4422e-01 0.0000e+00
      5.987    12.0788     0.0231      0.215  47.312291     63.510      6.281   188.2522     0.9422    21.1261     0.0317      0.109      5.874      8.519        520 2.9300e-01 0.0000e+00
      6.031    12.0824     0.0001      0.001  48.664414     65.901      6.277   188.9715     0.9179    21.1530     0.0327      0.117      5.915      8.579        521 3.0131e-01 0.0000e+00
      6.078    12.0826    -0.0045     -0.042  49.476859     66.531      6.271   189.1986     0.8977    21.2201     0.0330      0.122      5.959      8.644        522 2.7173e-01 0.0000e+00
      6.124    12.0816     0.0019      0.018  49.061237     66.335      6.255   189.6529     0.9301    21.1933     0.0329      0.132      5.999      8.700        523 2.1384e-01 0.0000e+00
      6.148    12.0810     0.0131      0.121  48.766144     65.543      6.244   190.1450     0.7643    20.8039     0.0326      0.140      6.024      8.737        524 2.3358e-01 0.0000e+00
      6.155    12.0783     0.0155      0.144  49.161489     66.450      6.238   189.9557     0.8168    20.8173     0.0330      0.139      6.039      8.758        525 2.3989e-01 0.0000e+00
      6.171    12.0741     0.0289      0.269  48.539565     65.395      6.238   189.8800     0.7683    20.7099     0.0325      0.131      6.054      8.780        526 2.1603e-01 0.0000e+00
      6.193    12.0717     0.0360      0.334  48.145243     64.834      6.235   190.2965     0.7724    20.8039     0.0323      0.120      6.077      8.815        527 1.9161e-01 0.0000e+00
      6.227    12.0656     0.0412      0.382  49.028978     66.238      6.232   189.9557     0.7926    20.7233     0.0329      0.109      6.112      8.865        528 1.8420e-01 0.0000e+00
      6.279    12.0533     0.0528      0.490  48.270765     65.072      6.230   190.5993     0.7077    19.9579     0.0324      0.105      6.156      8.928        529 1.7760e-01 0.0000e+00
      6.324    12.0424     0.0546      0.507  46.714663     63.008      6.223   191.2050     0.6834    19.9445     0.0314      0.108      6.197      8.987        530 1.6752e-01 0.0000e+00
      6.353    12.0366     0.0657      0.610  46.543685     62.727      6.223   191.2429     0.6794    19.8370     0.0313      0.114      6.227      9.031        531 1.7125e-01 0.0000e+00
      6.372    12.0333     0.0676      0.628  46.851347     63.350      6.224   191.0536     0.7077    19.9310     0.0316      0.123      6.251      9.066        532 1.6500e-01 0.0000e+00
      6.398    12.0281     0.0737      0.684  46.302121     62.416      6.227   192.0000     1.3627    20.4950     0.0312      0.130      6.278      9.105        533 1.5963e-01 0.0000e+00
      6.435    12.0199     0.0821      0.761  45.832473     61.931      6.229   192.0000     1.3749    20.6024     0.0310      0.133      6.310      9.152        534 1.5578e-01 0.0000e+00
      6.470    12.0143     0.0795      0.738  45.863058     61.863      6.230   191.3943     1.4032    20.5621     0.0309      0.132      6.342      9.198        535 1.4061e-01 0.0000e+00
      6.496    12.0124     0.0864      0.801  45.818947     61.953      6.230   191.6593     1.3506    20.5756     0.0310      0.125      6.369      9.238        536 1.3638e-01 0.0000e+00
      6.519    12.0097     0.0872      0.809  45.828025     61.811      6.234   189.9936     1.8682    19.4342     0.0309      0.116      6.393      9.272        537 1.5727e-01 0.0000e+00
      6.542    12.0057     0.0863      0.801  45.495677     61.588      6.238   189.6907     1.8763    19.5282     0.0308      0.110      6.417      9.306        538 1.5327e-01 0.0000e+00
      6.569    12.0042     0.0894      0.829  45.193976     60.875      6.239   189.0472     1.9046    19.4611     0.0305      0.110      6.440      9.340        539 1.2666e-01 0.0000e+00
      6.590    12.0063     0.0946      0.878  45.402308     61.523      6.241   187.9114     1.8965    19.5282     0.0308      0.108      6.458      9.367        540 1.2473e-01 0.0000e+00
      6.594    12.0068     0.0958      0.889  45.740861     61.602      6.241   187.1922     1.8237    19.2865     0.0308      0.098      6.468      9.382        541 1.2591e-01 0.0000e+00
      6.603    12.0033     0.0941      0.873  45.722206     62.013      6.243   187.0786     1.8197    19.2194     0.0310      0.084      6.483      9.402        542 1.2523e-01 0.0000e+00
      6.637    11.9984     0.0967      0.897  44.802399     60.313      6.242   186.3972     1.8278    19.2999     0.0302      0.078      6.508      9.440        543 1.2579e-01 0.0000e+00
      6.667    11.9951     0.0937      0.869  44.660057     60.469      6.239   185.6779     1.8399    19.2865     0.0303      0.078      6.536      9.481        544 1.2553e-01 0.0000e+00
      6.691    11.9923     0.0951      0.882  44.920125     60.629      6.241   184.9964     1.5690    19.6625     0.0304      0.079      6.561      9.517        545 1.2551e-01 0.0000e+00
      6.715    11.9913     0.0964      0.894  44.834822     60.634      6.239   184.6936     1.5649    19.7028     0.0304      0.082      6.586      9.552        546 1.2552e-01 0.0000e+00
      6.741    11.9936     0.0969      0.898  45.003601     60.790      6.239   183.8229     1.5811    19.6222     0.0304      0.086      6.612      9.590        547 1.2568e-01 0.0000e+00
      6.772    11.9974     0.0985      0.913  45.214523     61.132      6.242   184.1257     1.5851    19.5953     0.0306      0.095      6.639      9.630        548 1.2558e-01 0.0000e+00
      6.797    12.0007     0.0978      0.907  45.343830     61.278      6.237   183.8607     1.5447    19.6893     0.0307      0.103      6.664      9.665        549 1.2558e-01 0.0000e+00
      6.816    12.0000     0.1049      0.973  45.287776     61.198      6.240   183.5200     1.6458    19.5282     0.0306      0.104      6.684      9.693        550 1.2562e-01 0.0000e+00
      6.832    11.9961     0.1011      0.937  45.165587     61.040      6.241   183.7850     1.6458    19.4611     0.0306      0.098      6.702      9.719        551 1.2567e-01 0.0000e+00
      6.853    11.9904     0.0945      0.876  45.110140     60.929      6.242   183.0279     1.6134    19.4611     0.0305      0.093      6.724      9.752        552 1.2557e-01 0.0000e+00
      6.887    11.9833     0.0992      0.920  45.089721     60.972      6.242   182.9521     1.6498    19.5013     0.0305      0.093      6.753      9.795        553 1.2544e-01 0.0000e+00
      6.919    11.9764     0.1010      0.936  44.894271     60.642      6.237   182.8007     1.7186    19.4745     0.0304      0.095      6.785      9.841        554 1.2552e-01 0.0000e+00
      6.951    11.9691     0.1017      0.943  44.611561     60.351      6.231   182.6871     1.7064    19.5819     0.0302      0.098      6.818      9.888        555 1.2566e-01 0.0000e+00
      6.988    11.9617     0.1042      0.965  44.373347     59.947      6.229   182.9521     1.6822    19.4476     0.0301      0.104      6.850      9.934        556 1.2558e-01 0.0000e+00
      7.012    11.9564     0.1013      0.938  44.359907     60.033      6.229   182.3086     1.7064    19.4476     0.0301      0.110      6.875      9.972        557 1.2557e-01 0.0000e+00
      7.032    11.9516     0.1009      0.935  44.242556     59.820      6.229   182.1571     1.6862    19.7968     0.0300      0.114      6.899     10.007        558 1.2560e-01 0.0000e+00
      7.065    11.9487     0.1046      0.970  44.400707     60.054      6.226   182.0436     1.7064    19.8236     0.0301      0.117      6.925     10.044        559 1.2550e-01 0.0000e+00
      7.087    11.9470     0.1048      0.972  44.726864     60.554      6.228   181.8921     1.6943    19.7699     0.0303      0.115      6.947     10.075        560 1.2549e-01 0.0000e+00
      7.099    11.9438     0.0961      0.891  44.845513     60.635      6.227   181.6271     1.6862    19.6625     0.0304      0.106      6.964     10.100        561 1.2569e-01 0.0000e+00
      7.120    11.9401     0.0962      0.892  45.232246     61.243      6.226   181.8543     1.2091    19.9713     0.0306      0.098      6.986     10.133        562 1.2570e-01 0.0000e+00
      7.156    11.9375     0.0908      0.841  45.729240     61.854      6.227   180.8700     1.2374    19.9176     0.0309      0.094      7.016     10.176        563 1.2553e-01 0.0000e+00
      7.187    11.9355     0.0878      0.813  46.333848     62.730      6.223   181.4757     1.2293    19.9445     0.0313      0.094      7.047     10.220        564 1.2560e-01 0.0000e+00
      7.214    11.9333     0.0879      0.814  46.972479     63.567      6.223   180.6050     1.2212    20.0519     0.0316      0.097      7.076     10.262        565 1.2561e-01 0.0000e+00
      7.246    11.9328     0.0884      0.819  47.575575     64.404      6.222   180.6807     1.1686    19.7162     0.0320      0.102      7.103     10.302        566 1.2556e-01 0.0000e+00
      7.268    11.9330     0.0874      0.809  47.957390     64.938      6.223   180.6429     1.1686    19.6088     0.0322      0.104      7.125     10.335        567 1.2561e-01 0.0000e+00
      7.284    11.9333     0.0934      0.865  48.099857     65.090      6.221   180.5671     1.1686    19.6893     0.0323      0.105      7.144     10.362        568 1.2567e-01 0.0000e+00
      7.305    11.9335     0.0911      0.844  48.496339     65.657      6.220   179.7343     1.1686    19.6893     0.0326      0.104      7.164     10.390        569 1.2567e-01 0.0000e+00
      7.326    11.9323     0.0962      0.891  49.036904     66.376      6.222   179.7343     1.1606    19.6625     0.0329      0.099      7.184     10.420        570 1.2563e-01 0.0000e+00
      7.347    11.9310     0.0973      0.902  49.415585     66.906      6.216   179.6586     1.0676    19.6893     0.0331      0.092      7.204     10.447        571 1.2553e-01 0.0000e+00
      7.362    11.9294     0.1017      0.942  49.716774     67.287      6.217   179.7343     1.0271    19.6759     0.0333      0.085      7.220     10.471        572 1.2545e-01 0.0000e+00
      7.377    11.9287     0.0980      0.908  50.027336     67.744      6.218   179.4314     1.0312    19.6759     0.0335      0.079      7.235     10.493        573 1.2554e-01 0.0000e+00
      7.394    11.9302     0.0962      0.891  50.127254     67.860      6.218   178.9771     1.0433    19.7699     0.0335      0.073      7.250     10.516        574 1.2570e-01 0.0000e+00
      7.408    11.9303     0.0913      0.846  50.245394     68.013      6.219   178.8636     1.0231    19.7296     0.0336      0.070      7.265     10.537        575 1.2557e-01 0.0000e+00
      7.423    11.9287     0.0891      0.825  50.770736     68.729      6.218   179.2421     1.0473    19.6625     0.0339      0.068      7.281     10.559        576 1.2555e-01 0.0000e+00
      7.441    11.9270     0.0906      0.840  51.402753     69.600      6.219   178.5607     1.0352    19.7565     0.0343      0.065      7.298     10.584        577 1.2563e-01 0.0000e+00
      7.460    11.9255     0.0946      0.877  51.833398     70.172      6.219   178.5986     1.0352    19.7028     0.0346      0.063      7.317     10.611        578 1.2566e-01 0.0000e+00
      7.480    11.9251     0.0852      0.790  52.312580     70.819      6.221   178.1443     1.1403    20.0116     0.0349      0.064      7.337     10.641        579 1.2572e-01 0.0000e+00
      7.504    11.9259     0.0920      0.852  53.002992     71.768      6.220   177.3493     1.1242    19.9310     0.0353      0.068      7.360     10.674        580 1.2562e-01 0.0000e+00
      7.529    11.9261     0.0965      0.894  53.497344     72.451      6.216   177.2357     1.1161    19.9445     0.0356      0.073      7.385     10.711        581 1.2556e-01 0.0000e+00
      7.558    11.9257     0.0931      0.863  54.250277     73.396      6.214   177.5386     1.1282    19.9445     0.0360      0.080      7.411     10.749        582 1.2549e-01 0.0000e+00
      7.584    11.9261     0.0891      0.826  55.420529     75.100      6.211   177.1600     1.0999    19.4879     0.0368      0.087      7.435     10.783        583 1.2546e-01 0.0000e+00
      7.602    11.9271     0.0891      0.826  56.226896     76.086      6.211   175.4943     1.1242    19.4879     0.0372      0.091      7.454     10.810        584 1.2545e-01 0.0000e+00
      7.615    11.9280     0.0873      0.809  56.364029     76.388      6.210   175.1914     1.1039    19.4611     0.0373      0.091      7.469     10.833        585 1.2560e-01 0.0000e+00
      7.631    11.9288     0.0890      0.824  56.051470     75.819      6.209   175.0021     1.1161    19.5148     0.0371      0.088      7.485     10.856        586 1.2560e-01 0.0000e+00
      7.649    11.9311     0.0936      0.867  56.348667     76.308      6.210   174.9643     1.2455    19.2596     0.0373      0.083      7.503     10.883        587 1.2548e-01 0.0000e+00
      7.673    11.9324     0.0889      0.823  57.300530     77.558      6.210   173.7150     1.2536    19.2596     0.0379      0.079      7.525     10.914        588 1.2554e-01 0.0000e+00
      7.697    11.9320     0.0925      0.857  58.400074     79.067      6.206   173.4878     1.2374    19.3134     0.0385      0.077      7.546     10.944        589 1.2557e-01 0.0000e+00
      7.713    11.9302     0.0908      0.842  58.899582     79.785      6.205   172.8821     1.2293    19.2462     0.0389      0.074      7.565     10.971        590 1.2557e-01 0.0000e+00
      7.731    11.9279     0.0923      0.855  59.499693     80.429      6.205   173.7907     1.3668    18.4674     0.0392      0.074      7.585     11.000        591 1.2552e-01 0.0000e+00
      7.759    11.9269     0.0933      0.865  61.097801     82.820      6.202   172.8064     1.3830    18.4540     0.0402      0.077      7.612     11.039        592 1.2559e-01 0.0000e+00
      7.795    11.9258     0.0868      0.805  62.701446     84.796      6.198   172.0871     1.3789    18.4808     0.0411      0.085      7.644     11.086        593 1.2550e-01 0.0000e+00
      7.827    11.9233     0.0871      0.807  63.918637     86.654      6.194   171.5571     1.3587    18.4540     0.0419      0.093      7.675     11.131        594 1.2545e-01 0.0000e+00
      7.855    11.9196     0.0853      0.790  64.721013     87.529      6.189   171.0271     1.3749    18.3600     0.0423      0.100      7.703     11.172        595 1.2557e-01 0.0000e+00
      7.883    11.9163     0.0875      0.810  65.445223     88.710      6.188   171.5950     1.1727    17.5409     0.0429      0.105      7.730     11.211        596 1.2556e-01 0.0000e+00
      7.909    11.9148     0.0865      0.801  66.730197     90.235      6.188   170.4971     1.1767    17.6751     0.0436      0.110      7.753     11.245        597 1.2551e-01 0.0000e+00
      7.926    11.9157     0.0924      0.856  67.815126     92.025      6.189   170.0428     1.1767    17.6751     0.0444      0.111      7.772     11.273        598 1.2557e-01 0.0000e+00
      7.943    11.9235     0.0836      0.774  68.818204     92.977      6.191   170.6864     1.1727    17.5274     0.0448      0.107      7.792     11.302        599 1.2565e-01 0.0000e+00
      7.972    11.9373     0.0875      0.810  73.117140     99.042      6.192   170.8757     1.1767    17.2186     0.0475      0.101      7.815     11.334        600 1.2557e-01 0.0000e+00
      7.992    11.9456     0.0881      0.816  76.845993    104.292      6.197   169.2478     1.1727    17.3797     0.0499      0.094      7.833     11.361        601 1.2558e-01 0.0000e+00
      7.997    11.9482     0.0890      0.824  75.231350    101.751      6.200   167.4307     1.1565    17.3797     0.0488      0.085      7.847     11.381        602 1.2569e-01 0.0000e+00
      8.015    11.9487     0.0885      0.819  75.809823    102.334      6.206   167.9607     1.1686    17.4066     0.0491      0.078      7.868     11.411        603 1.2564e-01 0.0000e+00
      8.059    11.9383     0.0887      0.820  77.671507    105.587      6.203   167.3171     1.3870    13.0425     0.0505      0.079      7.902     11.460        604 1.2559e-01 0.0000e+00
      8.097    11.9231     0.0891      0.825  75.410963    101.642      6.202   165.4242     1.3830    13.0559     0.0487      0.086      7.935     11.509        605 1.2566e-01 0.0000e+00
      8.119    11.9111     0.0859      0.795  74.313840    100.801      6.203   165.2350     1.4032    13.0962     0.0484      0.094      7.960     11.544        606 1.2570e-01 0.0000e+00
      8.134    11.9032     0.0921      0.852  74.549393    100.804      6.207   164.7050     1.3951    13.0828     0.0483      0.097      7.975     11.565        607 1.2575e-01 0.0000e+00
      8.141    11.9047     0.0885      0.819  74.523502    101.027      6.212   164.0235     1.4881    11.9548     0.0484      0.093      7.985     11.580        608 1.2565e-01 0.0000e+00
      8.151    11.9053     0.0863      0.799  74.464937    100.859      6.221   161.7521     1.4881    12.0220     0.0484      0.089      7.997     11.599        609 1.2555e-01 0.0000e+00
      8.174    11.8976     0.0865      0.800  74.235977    100.551      6.222   159.8971     1.5002    12.0220     0.0482      0.086      8.017     11.627        610 1.2575e-01 0.0000e+00
      8.200    11.8880     0.0889      0.822  74.422133    100.852      6.227   160.1242     1.5043    12.0623     0.0484      0.079      8.041     11.662        611 1.2570e-01 0.0000e+00
      8.224    11.8785     0.0861      0.796  74.530429    100.950      6.232   159.1399     1.4881    10.3301     0.0484      0.071      8.066     11.698        612 1.2560e-01 0.0000e+00
      8.251    11.8705     0.0865      0.800  75.319588    102.076      6.239   157.0199     1.5043    10.3166     0.0489      0.072      8.091     11.735        613 1.2567e-01 0.0000e+00
      8.276    11.8662     0.0884      0.818  76.144312    103.281      6.249   156.5656     1.5043    10.3972     0.0495      0.078      8.113     11.768        614 1.2552e-01 0.0000e+00
      8.293    11.8658     0.0885      0.819  76.594734    103.796      6.254   156.3006     1.5043    10.3032     0.0497      0.084      8.132     11.795        615 1.2544e-01 0.0000e+00
      8.309    11.8665     0.0905      0.838  76.334127    103.656      6.262   153.4613     1.6862     9.0947     0.0496      0.088      8.150     11.822        616 1.2562e-01 0.0000e+00
      8.334    11.8663     0.0831      0.769  77.181898    104.379      6.269   152.4392     1.6862     9.0410     0.0499      0.090      8.173     11.854        617 1.2558e-01 0.0000e+00
      8.359    11.8638     0.0819      0.758  79.581793    108.252      6.275   152.2878     1.7186     9.0678     0.0517      0.089      8.198     11.891        618 1.2544e-01 0.0000e+00
      8.387    11.8582     0.0797      0.737  80.718546    109.202      6.281   149.9785     1.6903     9.0678     0.0521      0.088      8.226     11.932        619 1.2567e-01 0.0000e+00
      8.422    11.8535     0.0828      0.766  83.049689    112.743      6.285   148.6913     1.6781     8.9738     0.0538      0.092      8.258     11.978        620 1.2565e-01 0.0000e+00
      8.456    11.8511     0.0888      0.822  85.569346    116.105      6.287   147.8963     1.7024     8.1144     0.0553      0.098      8.289     12.022        621 1.2541e-01 0.0000e+00
      8.480    11.8494     0.0792      0.733  85.728742    116.310      6.287   148.1235     1.6862     8.1279     0.0554      0.103      8.312     12.056        622 1.2539e-01 0.0000e+00
      8.492    11.8468     0.0862      0.797  86.121744    116.772      6.291   146.7606     1.7064     8.3159     0.0556      0.106      8.328     12.078        623 1.2557e-01 0.0000e+00
      8.503    11.8435     0.0851      0.788  85.615456    116.361      6.296   145.0192     1.7186     8.2756     0.0554      0.102      8.343     12.101        624 1.2571e-01 0.0000e+00
      8.530    11.8468     0.0891      0.824  86.745347    117.242      6.302   145.9656     1.6337     9.2961     0.0558      0.097      8.365     12.133        625 1.2569e-01 0.0000e+00
      8.559    11.8548     0.0881      0.815  91.733573    124.899      6.304   144.1485     1.6498     9.2961     0.0593      0.093      8.389     12.168        626 1.2563e-01 0.0000e+00
      8.575    11.8620     0.0882      0.815  93.652267    126.940      6.307   142.2556     1.6215     9.2558     0.0603      0.087      8.409     12.196        627 1.2552e-01 0.0000e+00
      8.591    11.8680     0.0866      0.800  93.457867    126.798      6.314   144.1485     1.6296     9.2558     0.0602      0.080      8.427     12.223        628 1.2566e-01 0.0000e+00
      8.617    11.8721     0.0864      0.798  94.563195    128.256      6.316   143.0127     1.8358     8.4233     0.0609      0.078      8.450     12.256        629 1.2561e-01 0.0000e+00
      8.642    11.8750     0.0891      0.823  95.667668    129.718      6.323   141.4985     1.8480     8.5039     0.0615      0.081      8.475     12.292        630 1.2549e-01 0.0000e+00
      8.669    11.8760     0.0873      0.806  96.902297    131.414      6.325   141.3849     1.8358     8.4233     0.0623      0.087      8.500     12.328        631 1.2565e-01 0.0000e+00
      8.693    11.8741     0.0852      0.787  97.607897    132.354      6.329   140.5899     1.8358     8.4233     0.0628      0.090      8.522     12.360        632 1.2562e-01 0.0000e+00
      8.708    11.8689     0.0895      0.826  97.675201    132.426      6.331   138.5834     1.9733     5.4557     0.0628      0.089      8.541     12.388        633 1.2558e-01 0.0000e+00
      8.729    11.8587     0.0807      0.744  97.621777    132.357      6.337   138.3184     1.9410     5.3752     0.0628      0.087      8.561     12.417        634 1.2567e-01 0.0000e+00
      8.753    11.8442     0.0827      0.763  97.614886    132.376      6.340   138.3563     1.9572     5.4826     0.0628      0.089      8.584     12.449        635 1.2569e-01 0.0000e+00
      8.776    11.8308     0.0842      0.777  97.743285    132.564      6.348   134.8734     1.9410     5.3752     0.0629      0.089      8.605     12.481        636 1.2564e-01 0.0000e+00
      8.795    11.8182     0.0872      0.805  97.789253    132.731      6.354   135.4413     2.0057     4.0458     0.0629      0.086      8.624     12.508        637 1.2564e-01 0.0000e+00
      8.811    11.8031     0.0882      0.815  98.033705    133.009      6.359   134.6842     2.0178     4.0189     0.0630      0.083      8.640     12.531        638 1.2549e-01 0.0000e+00
      8.825    11.7878     0.0844      0.780  98.658874    134.042      6.365   132.1856     2.0299     3.9652     0.0635      0.078      8.653     12.550        639 1.2554e-01 0.0000e+00
      8.835    11.7721     0.0897      0.829  98.855828    134.251      6.372   132.7156     2.0219     4.0592     0.0636      0.073      8.665     12.568        640 1.2561e-01 0.0000e+00
      8.850    11.7569     0.0852      0.787  99.186941    134.801      6.378   131.2770     1.9612     3.5892     0.0639      0.069      8.680     12.590        641 1.2554e-01 0.0000e+00
      8.870    11.7444     0.0885      0.817 100.210506    136.232      6.385   129.8763     1.9572     3.5221     0.0645      0.065      8.697     12.615        642 1.2565e-01 0.0000e+00
      8.888    11.7350     0.0833      0.769 101.569032    138.158      6.391   128.4756     1.9531     3.4281     0.0654      0.062      8.714     12.638        643 1.2553e-01 0.0000e+00
      8.899    11.7289     0.0763      0.704 102.435599    139.425      6.398   128.7027     1.9572     3.4952     0.0660      0.060      8.725     12.655        644 1.2556e-01 0.0000e+00
      8.905    11.7259     0.0850      0.784 102.375475    139.309      6.405   126.4313     1.9814     3.3207     0.0659      0.056      8.734     12.667        645 1.2558e-01 0.0000e+00
      8.915    11.7253     0.0851      0.785 102.715109    139.789      6.411   127.6427     1.9369     3.3341     0.0661      0.054      8.742     12.680        646 1.2543e-01 0.0000e+00
      8.924    11.7323     0.0834      0.770 103.143728    140.488      6.415   125.3713     1.9572     3.3878     0.0665      0.051      8.750     12.691        647 1.2540e-01 0.0000e+00
      8.928    11.7655     0.0786      0.726 103.210926    140.413      6.423   123.5163     1.9652     3.3744     0.0664      0.046      8.756     12.700        648 1.2554e-01 0.0000e+00
      8.934    11.7976     0.0828      0.765 102.452936    139.625      6.430   123.6677     2.0866     3.2267     0.0661      0.039      8.764     12.710        649 1.2570e-01 0.0000e+00
      8.947    11.7932     0.0808      0.746 102.301564    138.813      6.435   123.2134     2.0623     3.1461     0.0657      0.034      8.776     12.728        650 1.2565e-01 0.0000e+00
      8.965    11.7782     0.0857      0.792 102.089944    139.140      6.441   121.0934     2.0704     3.0924     0.0659      0.034      8.796     12.756        651 1.2554e-01 0.0000e+00
      8.994    11.7712     0.0821      0.758 102.269910    138.367      6.444   121.5855     2.0744     3.1058     0.0655      0.041      8.822     12.794        652 1.2550e-01 0.0000e+00
      9.028    11.7649     0.0811      0.749 103.595291    141.506      6.446   121.1313     2.0866     3.1461     0.0669      0.054      8.853     12.839        653 1.2555e-01 0.0000e+00
      9.058    11.7509     0.0840      0.776 103.832944    140.508      6.448   118.5570     2.2240     2.7164     0.0665      0.069      8.883     12.884        654 1.2562e-01 0.0000e+00
      9.086    11.7329     0.0825      0.761 109.891018    149.642      6.454   118.4434     2.1998     2.7164     0.0707      0.083      8.914     12.929        655 1.2565e-01 0.0000e+00
      9.124    11.7245     0.0812      0.750 115.821118    157.835      6.456   115.1498     2.2200     2.7164     0.0745      0.100      8.952     12.984        656 1.2551e-01 0.0000e+00
      9.176    11.7359     0.0838      0.774 120.269941    163.066      6.457   116.0584     2.2159     2.7164     0.0769      0.118      8.998     13.051        657 1.2558e-01 0.0000e+00
      9.226    11.7567     0.0749      0.691 130.474223    178.167      6.457   116.5505     2.2604     2.2599     0.0840      0.135      9.041     13.114        658 1.2569e-01 0.0000e+00
      9.256    11.7711     0.0773      0.713 135.087701    183.841      6.462   113.8627     2.2847     2.3002     0.0866      0.145      9.074     13.161        659 1.2565e-01 0.0000e+00
      9.276    11.7773     0.0855      0.789 134.759555    183.164      6.470   113.5977     2.2645     2.3136     0.0863      0.146      9.099     13.198        660 1.2560e-01 0.0000e+00
      9.305    11.7766     0.0756      0.697 135.472074    184.390      6.476   111.3262     2.2847     2.3002     0.0869      0.144      9.127     13.238        661 1.2550e-01 0.0000e+00
      9.343    11.7727     0.0855      0.789 135.363356    183.825      6.481   110.6827     2.4060     1.6422     0.0866      0.142      9.155     13.279        662 1.2551e-01 0.0000e+00
      9.357    11.7709     0.0828      0.764 135.103468    183.867      6.491   109.4712     2.3817     1.8436     0.0866      0.134      9.173     13.306        663 1.2561e-01 0.0000e+00
      9.362    11.7688     0.0866      0.799 134.811935    183.085      6.501   105.8369     2.3979     1.6556     0.0863      0.116      9.191     13.331        664 1.2556e-01 0.0000e+00
      9.402    11.7619     0.0839      0.774 135.130073    183.896      6.512   105.0041     2.4020     1.6825     0.0867      0.103      9.224     13.379        665 1.2565e-01 0.0000e+00
      9.455    11.7525     0.0850      0.785 135.422871    184.020      6.527   102.2405     2.3656     1.5616     0.0867      0.103      9.266     13.440        666 1.2566e-01 0.0000e+00
      9.487    11.7436     0.0825      0.761 135.192682    183.979      6.543   102.5055     2.3332     1.5213     0.0867      0.110      9.300     13.488        667 1.2558e-01 0.0000e+00
      9.507    11.7363     0.0846      0.781 134.939674    183.453      6.555   101.4455     2.3413     1.4945     0.0864      0.114      9.325     13.524        668 1.2564e-01 0.0000e+00
      9.533    11.7297     0.0805      0.743 134.903212    183.651      6.569    99.8176     2.3170     1.4676     0.0865      0.115      9.347     13.557        669 1.2559e-01 0.0000e+00
      9.554    11.7252     0.0818      0.755 134.791002    183.380      6.583    98.4926     2.4788     1.5213     0.0864      0.114      9.366     13.584        670 1.2558e-01 0.0000e+00
      9.565    11.7228     0.0798      0.736 134.662070    183.338      6.598    96.4483     2.4788     1.5885     0.0864      0.112      9.378     13.600        671 1.2552e-01 0.0000e+00
      9.568    11.7239     0.0808      0.746 134.676219    183.322      6.607    96.1076     2.5071     1.4945     0.0864      0.102      9.383     13.608        672 1.2559e-01 0.0000e+00
      9.571    11.7322     0.0808      0.746 134.624380    183.295      6.617    91.6026     2.4869     1.4408     0.0864      0.079      9.385     13.612        673 1.2564e-01 0.0000e+00
      9.572    11.7418     0.0833      0.769 134.666978    183.330      6.626    88.0440     2.4626     1.7362     0.0864      0.057      9.387     13.615        674 1.2561e-01 0.0000e+00
      9.574    11.7468     0.0800      0.739 134.623204    183.247      6.636    84.3719     2.4909     1.7362     0.0863      0.041      9.390     13.618        675 1.2551e-01 0.0000e+00
      9.578    11.7482     0.0789      0.729 134.619236    183.163      6.644    83.6526     2.4788     1.6556     0.0863      0.029      9.393     13.623        676 1.2553e-01 0.0000e+00
      9.582    11.7459     0.0797      0.737 134.552683    183.098      6.650    82.9711     2.4788     1.6690     0.0863      0.019      9.397     13.627        677 1.2547e-01 0.0000e+00
      9.584    11.7396 -9.990e-29 -9.990e-29 134.407977    182.825      6.656    81.7976     2.3898     1.9645     0.0861      0.013      9.399     13.631        678 1.2539e-01 0.0000e+00
      9.587    11.7363 -9.990e-29 -9.990e-29 134.203238    182.643      6.665    81.5704     2.4181     1.8436     0.0861      0.011      9.401     13.635        679 1.2558e-01 0.0000e+00
      9.588    11.7369 -9.990e-29 -9.990e-29 134.062386    182.371      6.673    81.6840     2.4181     1.8570     0.0859      0.010      9.403     13.638        680 1.2558e-01 0.0000e+00
      9.590    11.7355 -9.990e-29 -9.990e-29 133.987201    182.425      6.680    82.3276     2.3898     1.9510     0.0860      0.010      9.403     13.639        681 1.2553e-01 0.0000e+00
      9.588    11.7341 -9.990e-29 -9.990e-29 134.028580    182.308      6.688    80.4347     2.6769     1.8973     0.0859      0.009      9.402     13.638        682 1.2549e-01 0.0000e+00
      9.586    11.7379 -9.990e-29 -9.990e-29 134.010892    182.505      6.692    78.8447     2.6850     1.9376     0.0860      0.007      9.400     13.635        683 1.2555e-01 0.0000e+00
      9.583    11.7489 -9.990e-29 -9.990e-29 133.413159    181.481      6.700    78.5040     2.6648     1.9645     0.0855      0.003      9.399     13.632        684 1.2566e-01 0.0000e+00
      9.583    11.7617 -9.990e-29 -9.990e-29 131.375038    178.977      6.710    78.3526     2.6688     1.9645     0.0843      0.000      9.399     13.632        685 1.2564e-01 0.0000e+00
      9.587    11.7774 -9.990e-29 -9.990e-29 128.829114    175.028      6.713    79.1854     2.7982     1.8839     0.0825     -0.001      9.403     13.638        686 1.2558e-01 0.0000e+00
      9.596    11.7876 -9.990e-29 -9.990e-29 127.403717    173.475      6.724    78.5418     2.8265     2.0584     0.0818      0.001      9.411     13.649        687 1.2541e-01 0.0000e+00
      9.607 -9.990e-29 -9.990e-29 -9.990e-29 126.444862    171.688      6.729    78.0876     2.8144     1.7630     0.0810      0.006      9.419     13.660        688 1.2541e-01 0.0000e+00
      9.610 -9.990e-29 -9.990e-29 -9.990e-29 125.970460    171.365      6.735    75.5511     2.8063     1.8839     0.0808      0.011      9.422     13.665        689 1.2553e-01 0.0000e+00
