* Sea-Bird SBE19plus  Data File:
* FileName = C:\DATA\082718_fcr_0002.hex
* Software version 2.6.3.104
* Temperature SN = 7809
* Conductivity SN = 7809
* System UpLoad Time = Aug 27 2018 20:55:31
* <ApplicationData>
* <Seaterm232>
* <SoftwareVersion>2.6.3.104</SoftwareVersion>
* <BuildDate>30-Jun-2017</BuildDate>
* </Seaterm232>
* </ApplicationData>
* <InstrumentState>
* <HardwareData DeviceType='SBE19plus' SerialNumber='01907809'>
*
*    <Manufacturer>Sea-Bird Electronics, Inc.</Manufacturer>
*
*    <FirmwareVersion>3.1.8</FirmwareVersion>
*
*    <FirmwareDate>Mar  9 2016 16:22:29</FirmwareDate>
*
*    <CommandSetVersion>1.4</CommandSetVersion>
*
*    <PCBAssembly PCBSerialNum='120721' AssemblyNum='41054J'/>
*
*    <PCBAssembly PCBSerialNum='120715' AssemblyNum='41967A'/>
*
*    <PCBAssembly PCBSerialNum='116699' AssemblyNum='41606'/>
*
*    <PCBAssembly PCBSerialNum='120719' AssemblyNum='41059D'/>
*
*    <MfgDate>28-Apr-2017</MfgDate>
*
*    <InternalSensors>
*
*       <Sensor id='Main Temperature'>
*
*          <type>temperature0</type>
*
*          <SerialNumber>01907809</SerialNumber>
*
*       </Sensor>
*
*       <Sensor id='Main Conductivity'>
*
*          <type>conductivity-0</type>
*
*          <SerialNumber>01907809</SerialNumber>
*
*       </Sensor>
*
*       <Sensor id='Main Pressure'>
*
*          <type>strain-0</type>
*
*          <SerialNumber>10586018</SerialNumber>
*
*       </Sensor>
*
*    </InternalSensors>
*
*    <ExternalSensors>
*
*       <Sensor id='volt 0'>
*
*          <type>pH</type>
*
*          <SerialNumber>27-0363</SerialNumber>
*
*       </Sensor>
*
*       <Sensor id='volt 1'>
*
*          <type>ORP</type>
*
*          <SerialNumber>27-0363</SerialNumber>
*
*       </Sensor>
*
*       <Sensor id='volt 2'>
*
*          <type>OXY</type>
*
*          <SerialNumber>43-0434</SerialNumber>
*
*       </Sensor>
*
*       <Sensor id='volt 3'>
*
*          <type>PAR</type>
*
*          <SerialNumber>1122</SerialNumber>
*
*       </Sensor>
*
*       <Sensor id='volt 4'>
*
*          <type>ECO AFL/FL</type>
*
*          <SerialNumber>FLNTURT-2496</SerialNumber>
*
*       </Sensor>
*
*       <Sensor id='volt 5'>
*
*          <type>ECO-NTU</type>
*
*          <SerialNumber>FLNTURT-2496</SerialNumber>
*
*       </Sensor>
*
*       <Sensor id='serial'>
*
*          <type>not assigned</type>
*
*          <SerialNumber>not assigned</SerialNumber>
*
*       </Sensor>
*
*    </ExternalSensors>
*
* </HardwareData>
* <StatusData DeviceType='SBE19plus' SerialNumber='01907809'>
*
*    <DateTime>2018-08-28T00:54:17</DateTime>
*
*    <LoggingState>not logging</LoggingState>
*
*    <EventSummary numEvents='0'/>
*
*    <Power>
*
*       <vMain>12.9</vMain>
*
*       <vLith>8.8</vLith>
*
*       <iMain>63.3</iMain>
*
*       <iPump>41.6</iPump>
*
*       <iExt01>13.8</iExt01>
*
*       <iExt2345>42.0</iExt2345>
*
*    </Power>
*
*    <MemorySummary>
*
*       <Bytes>168268</Bytes>
*
*       <Samples>7316</Samples>
*
*       <SamplesFree>2853472</SamplesFree>
*
*       <SampleLength>23</SampleLength>
*
*       <Profiles>7</Profiles>
*
*    </MemorySummary>
*
* </StatusData>
* <ConfigurationData DeviceType='SBE19plus' SerialNumber='01907809'>
*
*    <ProfileMode>
*
*       <ScansToAverage>1</ScansToAverage>
*
*       <MinimumCondFreq>5</MinimumCondFreq>
*
*       <PumpDelay>45</PumpDelay>
*
*       <AutoRun>no</AutoRun>
*
*       <IgnoreSwitch>no</IgnoreSwitch>
*
*    </ProfileMode>
*
*    <Battery>
*
*       <Type>alkaline</Type>
*
*       <CutOff>7.5</CutOff>
*
*    </Battery>
*
*    <DataChannels>
*
*       <ExtVolt0>yes</ExtVolt0>
*
*       <ExtVolt1>yes</ExtVolt1>
*
*       <ExtVolt2>yes</ExtVolt2>
*
*       <ExtVolt3>yes</ExtVolt3>
*
*       <ExtVolt4>yes</ExtVolt4>
*
*       <ExtVolt5>yes</ExtVolt5>
*
*       <SBE38>no</SBE38>
*
*       <WETLABS>no</WETLABS>
*
*       <OPTODE>no</OPTODE>
*
*       <SBE63>no</SBE63>
*
*       <SeaFET>no</SeaFET>
*
*       <GTD>no</GTD>
*
*    </DataChannels>
*
*    <EchoCharacters>yes</EchoCharacters>
*
*    <OutputExecutedTag>yes</OutputExecutedTag>
*
*    <OutputFormat>raw HEX</OutputFormat>
*
* </ConfigurationData>
* <CalibrationCoefficients DeviceType='SBE19plus' SerialNumber='01907809'>
*
*    <Calibration format='TEMP1' id='Main Temperature'>
*
*       <SerialNum>01907809</SerialNum>
*
*       <CalDate>09-Mar-18</CalDate>
*
*       <TA0>1.210932e-03</TA0>
*
*       <TA1>2.843566e-04</TA1>
*
*       <TA2>-1.945074e-06</TA2>
*
*       <TA3>2.128067e-07</TA3>
*
*       <TOFFSET>0.000000e+00</TOFFSET>
*
*    </Calibration>
*
*    <Calibration format='WBCOND0' id='Main Conductivity'>
*
*       <SerialNum>01907809</SerialNum>
*
*       <CalDate>09-Mar-18</CalDate>
*
*       <G>-1.006721e+00</G>
*
*       <H>1.269065e-01</H>
*
*       <I>-1.405844e-04</I>
*
*       <J>2.478371e-05</J>
*
*       <CPCOR>-9.570000e-08</CPCOR>
*
*       <CTCOR>3.250000e-06</CTCOR>
*
*       <CSLOPE>1.000000e+00</CSLOPE>
*
*    </Calibration>
*
*    <Calibration format='STRAIN0' id='Main Pressure'>
*
*       <SerialNum>10586018</SerialNum>
*
*       <CalDate>07-Mar-18</CalDate>
*
*       <PA0>-4.081764e-02</PA0>
*
*       <PA1>4.851884e-04</PA1>
*
*       <PA2>-3.511682e-12</PA2>
*
*       <PTCA0>5.252134e+05</PTCA0>
*
*       <PTCA1>1.795324e+00</PTCA1>
*
*       <PTCA2>-2.843535e-01</PTCA2>
*
*       <PTCB0>2.516687e+01</PTCB0>
*
*       <PTCB1>3.750000e-04</PTCB1>
*
*       <PTCB2>0.000000e+00</PTCB2>
*
*       <PTEMPA0>-5.378069e+01</PTEMPA0>
*
*       <PTEMPA1>5.366207e+01</PTEMPA1>
*
*       <PTEMPA2>4.872143e-02</PTEMPA2>
*
*       <POFFSET>5.000000e-01</POFFSET>
*
*       <PRANGE>1.600000e+02</PRANGE>
*
*    </Calibration>
*
*    <Calibration format='VOLT0' id='Volt 0'>
*
*       <OFFSET>-4.920000e-02</OFFSET>
*
*       <SLOPE>1.248122e+00</SLOPE>
*
*    </Calibration>
*
*    <Calibration format='VOLT0' id='Volt 1'>
*
*       <OFFSET>-4.784000e-02</OFFSET>
*
*       <SLOPE>1.248871e+00</SLOPE>
*
*    </Calibration>
*
*    <Calibration format='VOLT0' id='Volt 2'>
*
*       <OFFSET>-4.864632e-02</OFFSET>
*
*       <SLOPE>1.248714e+00</SLOPE>
*
*    </Calibration>
*
*    <Calibration format='VOLT0' id='Volt 3'>
*
*       <OFFSET>-4.743790e-02</OFFSET>
*
*       <SLOPE>1.248571e+00</SLOPE>
*
*    </Calibration>
*
*    <Calibration format='VOLT0' id='Volt 4'>
*
*       <OFFSET>-4.671263e-02</OFFSET>
*
*       <SLOPE>1.248951e+00</SLOPE>
*
*    </Calibration>
*
*    <Calibration format='VOLT0' id='Volt 5'>
*
*       <OFFSET>-4.871053e-02</OFFSET>
*
*       <SLOPE>1.249136e+00</SLOPE>
*
*    </Calibration>
*
*    <Calibration format='FREQ0' id='external frequency channel'>
*
*       <EXTFREQSF>1.000014e+00</EXTFREQSF>
*
*    </Calibration>
*
* </CalibrationCoefficients>
* <EventCounters DeviceType='SBE19plus' SerialNumber='01907809'>
*
*    <EventSummary numEvents='0'/>
*
* </EventCounters></InstrumentState>
* <Headers>
*
* cast   2 24 Aug 2018 20:27:13 samples 1515 to 2509, avg = 1, stop = mag switch
*
# nquan = 17
# nvalues = 851                         
# units = specified
# name 0 = depFM: Depth [fresh water, m]
# name 1 = tv290C: Temperature [ITS-90, deg C]
# name 2 = sbeox0Mg/L: Oxygen, SBE 43 [mg/l]
# name 3 = sbeox0PS: Oxygen, SBE 43 [% saturation]
# name 4 = c0uS/cm: Conductivity [uS/cm]
# name 5 = specc: Specific Conductance [uS/cm]
# name 6 = ph: pH
# name 7 = orp: Oxidation Reduction Potential [mV]
# name 8 = flECO-AFL: Fluorescence, WET Labs ECO-AFL/FL [mg/m^3]
# name 9 = turbWETntu0: Turbidity, WET Labs ECO [NTU]
# name 10 = sal00: Salinity, Practical [PSU]
# name 11 = dz/dtM: Descent Rate [m/s]
# name 12 = prdM: Pressure, Strain Gauge [db]
# name 13 = prdE: Pressure, Strain Gauge [psi]
# name 14 = scan: Scan Count
# name 15 = par/sat/log: PAR/Logarithmic, Satlantic
# name 16 = flag:  0.000e+00
# span 0 =     -0.510,      9.708       
# span 1 =    11.6693,    26.2335       
# span 2 =     0.0610,    10.0084       
# span 3 =      0.563,    120.630       
# span 4 =  -0.722618, 152.253793       
# span 5 =     -0.020,    207.020       
# span 6 =      6.228,      8.113       
# span 7 =  -981.8019,  1240.2295       
# span 8 =    -2.0703,   258.0773       
# span 9 =    -0.3317,    59.7852       
# span 10 =     0.0000,     0.0975      
# span 11 =     -0.064,      0.144      
# span 12 =     -0.500,      9.519      
# span 13 =     -0.725,     13.806      
# span 14 =          1,        851      
# span 15 = -2.764e+01, 2.1853e+03      
# span 16 = 0.0000e+00, 0.0000e+00      
# interval = seconds: 0.25
# start_time = Aug 24 2018 20:27:13 [Instrument's time stamp, header]
# bad_flag = -9.990e-29
# <Sensors count="9" >
#   <sensor Channel="1" >
#     <!-- Count, Temperature -->
#     <TemperatureSensor SensorID="58" >
#       <SerialNumber>7809</SerialNumber>
#       <CalibrationDate>09-Mar-18</CalibrationDate>
#       <A0>1.21093245e-003</A0>
#       <A1>2.84356597e-004</A1>
#       <A2>-1.94507398e-006</A2>
#       <A3>2.12806664e-007</A3>
#       <Slope>1.00000000</Slope>
#       <Offset>0.0000</Offset>
#     </TemperatureSensor>
#   </sensor>
#   <sensor Channel="2" >
#     <!-- Frequency 0, Conductivity -->
#     <ConductivitySensor SensorID="3" >
#       <SerialNumber>7809</SerialNumber>
#       <CalibrationDate>09-Mar-18</CalibrationDate>
#       <UseG_J>1</UseG_J>
#       <!-- Cell const and series R are applicable only for wide range sensors. -->
#       <SeriesR>0.0000</SeriesR>
#       <CellConst>2000.0000</CellConst>
#       <ConductivityType>0</ConductivityType>
#       <Coefficients equation="0" >
#         <A>0.00000000e+000</A>
#         <B>0.00000000e+000</B>
#         <C>0.00000000e+000</C>
#         <D>0.00000000e+000</D>
#         <M>0.0</M>
#         <CPcor>-9.57000000e-008</CPcor>
#       </Coefficients>
#       <Coefficients equation="1" >
#         <G>-1.00672082e+000</G>
#         <H>1.26906489e-001</H>
#         <I>-1.40584351e-004</I>
#         <J>2.47837121e-005</J>
#         <CPcor>-9.57000000e-008</CPcor>
#         <CTcor>3.2500e-006</CTcor>
#         <!-- WBOTC not applicable unless ConductivityType = 1. -->
#         <WBOTC>0.00000000e+000</WBOTC>
#       </Coefficients>
#       <Slope>1.00000000</Slope>
#       <Offset>0.00000</Offset>
#     </ConductivitySensor>
#   </sensor>
#   <sensor Channel="3" >
#     <!-- Count, Pressure, Strain Gauge -->
#     <PressureSensor SensorID="46" >
#       <SerialNumber>7809</SerialNumber>
#       <CalibrationDate>07-Mar-18</CalibrationDate>
#       <PA0>-4.08176359e-002</PA0>
#       <PA1>4.85188419e-004</PA1>
#       <PA2>-3.51168169e-012</PA2>
#       <PTEMPA0>-5.37806900e+001</PTEMPA0>
#       <PTEMPA1>5.36620721e+001</PTEMPA1>
#       <PTEMPA2>4.87214332e-002</PTEMPA2>
#       <PTCA0>5.25213435e+005</PTCA0>
#       <PTCA1>1.79532409e+000</PTCA1>
#       <PTCA2>-2.84353509e-001</PTCA2>
#       <PTCB0>2.51668750e+001</PTCB0>
#       <PTCB1>3.75000000e-004</PTCB1>
#       <PTCB2>0.00000000e+000</PTCB2>
#       <Offset>0.000000</Offset>
#     </PressureSensor>
#   </sensor>
#   <sensor Channel="4" >
#     <!-- A/D voltage 0, pH -->
#     <pH_Sensor SensorID="43" >
#       <SerialNumber>0363</SerialNumber>
#       <CalibrationDate>16-Mar-18</CalibrationDate>
#       <Slope>4.6194</Slope>
#       <Offset>2.5947</Offset>
#     </pH_Sensor>
#   </sensor>
#   <sensor Channel="5" >
#     <!-- A/D voltage 1, Oxidation Reduction Potential -->
#     <OxidationReductionPotentialSensor SensorID="41" >
#       <SerialNumber>0363</SerialNumber>
#       <CalibrationDate>16-Mar-18</CalibrationDate>
#       <B>2.499480</B>
#       <M>-0.496195</M>
#       <Offset>0.0</Offset>
#     </OxidationReductionPotentialSensor>
#   </sensor>
#   <sensor Channel="6" >
#     <!-- A/D voltage 2, Oxygen, SBE 43 -->
#     <OxygenSensor SensorID="38" >
#       <SerialNumber>0434</SerialNumber>
#       <CalibrationDate>13-Mar-18</CalibrationDate>
#       <Use2007Equation>1</Use2007Equation>
#       <CalibrationCoefficients equation="0" >
#         <!-- Coefficients for Owens-Millard equation. -->
#         <Boc>0.0000</Boc>
#         <Soc>0.0000e+000</Soc>
#         <offset>0.0000</offset>
#         <Pcor>0.00e+000</Pcor>
#         <Tcor>0.0000</Tcor>
#         <Tau>0.0</Tau>
#       </CalibrationCoefficients>
#       <CalibrationCoefficients equation="1" >
#         <!-- Coefficients for Sea-Bird equation - SBE calibration in 2007 and later. -->
#         <Soc>4.5718e-001</Soc>
#         <offset>-0.6113</offset>
#         <A>-4.0649e-003</A>
#         <B> 2.0945e-004</B>
#         <C>-3.3182e-006</C>
#         <D0> 2.5826e+000</D0>
#         <D1> 1.92634e-004</D1>
#         <D2>-4.64803e-002</D2>
#         <E> 3.6000e-002</E>
#         <Tau20> 1.2200</Tau20>
#         <H1>-3.3000e-002</H1>
#         <H2> 5.0000e+003</H2>
#         <H3> 1.4500e+003</H3>
#       </CalibrationCoefficients>
#     </OxygenSensor>
#   </sensor>
#   <sensor Channel="7" >
#     <!-- A/D voltage 3, PAR/Logarithmic, Satlantic -->
#     <PARLog_SatlanticSensor SensorID="76" >
#       <SerialNumber>1122</SerialNumber>
#       <CalibrationDate>22-Jun-2017</CalibrationDate>
#       <a0>9.6090e-001</a0>
#       <a1>8.0780e-001</a1>
#       <Im>1.3589e+000</Im>
#       <Multiplier>1.0000e+000</Multiplier>
#     </PARLog_SatlanticSensor>
#   </sensor>
#   <sensor Channel="8" >
#     <!-- A/D voltage 4, Fluorometer, WET Labs ECO-AFL/FL -->
#     <FluoroWetlabECO_AFL_FL_Sensor SensorID="20" >
#       <SerialNumber>FLNTURT-2496</SerialNumber>
#       <CalibrationDate>25-Jan-2017</CalibrationDate>
#       <ScaleFactor>5.30000000e+001</ScaleFactor>
#       <!-- Dark output -->
#       <Vblank>0.0560</Vblank>
#     </FluoroWetlabECO_AFL_FL_Sensor>
#   </sensor>
#   <sensor Channel="9" >
#     <!-- A/D voltage 5, Turbidity Meter, WET Labs, ECO-NTU -->
#     <TurbidityMeter SensorID="67" >
#       <SerialNumber>FLNTURT-2496</SerialNumber>
#       <CalibrationDate>25-Jan-2017</CalibrationDate>
#       <ScaleFactor>176.000000</ScaleFactor>
#       <!-- Dark output -->
#       <DarkVoltage>0.072000</DarkVoltage>
#     </TurbidityMeter>
#   </sensor>
# </Sensors>
# datcnv_date = Aug 27 2018 21:10:56, 7.26.7.114 [datcnv_vars = 16]
# datcnv_in = C:\DATA\082418_fcr50.hex C:\DATA\SBE19plusV2_7809.xmlcon
# datcnv_skipover = 0
# datcnv_ox_hysteresis_correction = yes
# datcnv_ox_tau_correction = yes
# filter_date = Aug 27 2018 21:11:27, 7.26.7.114
# filter_in = C:\DATA\082418_fcr50.cnv
# filter_low_pass_tc_A = 0.030
# filter_low_pass_tc_B = 0.150
# filter_low_pass_A_vars = tv290C c0uS/cm par/sat/log
# filter_low_pass_B_vars = prdM prdE
# alignctd_date = Aug 27 2018 21:11:52, 7.26.7.114
# alignctd_in = C:\DATA\082418_fcr50.cnv
# alignctd_adv = tv290C 0.500, sbeox0Mg/L 3.000, sbeox0PS 3.000                                                                                                                                                                      
# file_type = ascii
*END*
     -0.509    26.2335     7.8395     97.034   0.625741      0.661      6.444   343.2776    -0.1698    -0.0229     0.0123      0.000     -0.499     -0.724          1 1.3983e+02 0.0000e+00
     -0.510    26.2331     7.8380     97.015   0.701173      0.606      6.456   304.6632    -0.1617    -0.0095     0.0123     -0.000     -0.500     -0.725          2 1.4743e+02 0.0000e+00
     -0.510    26.2328     7.8381     97.017   1.058490      1.123      6.444   304.3604    -0.1779     0.0174     0.0123     -0.000     -0.500     -0.725          3 1.4901e+02 0.0000e+00
     -0.509    26.2327     7.8380     97.015   0.743591      0.661      6.442   263.3231    -0.1819    -0.0229     0.0123     -0.000     -0.499     -0.724          4 1.6431e+02 0.0000e+00
     -0.509    26.2321     7.8423     97.061   0.589748      0.606      6.443   268.2067    -0.1698    -0.0095     0.0123     -0.000     -0.499     -0.724          5 1.7967e+02 0.0000e+00
     -0.509    26.2314     7.8477     97.130   0.687420      0.661      6.459   252.3823    -0.1900     0.0308     0.0123     -0.000     -0.499     -0.724          6 1.8625e+02 0.0000e+00
     -0.510    26.2309     7.8522     97.184   0.681252      0.661      6.454   223.5351    -0.1698    -0.1572     0.0123     -0.000     -0.500     -0.725          7 1.8512e+02 0.0000e+00
     -0.510    26.2307     7.8538     97.203   0.597424      0.606      6.450   219.9765    -0.1738    -0.1437     0.0123     -0.000     -0.500     -0.725          8 1.8099e+02 0.0000e+00
     -0.510    26.2304     7.8558     97.228   0.436471      0.388      6.453   175.9864    -0.1779    -0.2243     0.0123     -0.000     -0.500     -0.725          9 1.6841e+02 0.0000e+00
     -0.510    26.2299     7.8618     97.304   0.763134      0.769      6.450   176.8950    -0.1698    -0.2243     0.0123     -0.000     -0.500     -0.725         10 1.6128e+02 0.0000e+00
     -0.510    26.2294     7.8658     97.352   0.664595      0.661      6.443   135.3656    -0.1779    -0.2512     0.0123     -0.000     -0.500     -0.725         11 1.7997e+02 0.0000e+00
     -0.509    26.2291     7.8675     97.374   0.559097      0.497      6.444   132.6020    -0.1334    -0.2243     0.0123     -0.000     -0.500     -0.725         12 1.5753e+02 0.0000e+00
     -0.510    26.2293     7.8642     97.334   0.983246      1.015      6.438   156.2628    -0.1617    -0.2780     0.0123     -0.000     -0.500     -0.725         13 1.8836e+02 0.0000e+00
     -0.510    26.2294     7.8680     97.380   0.521635      0.497      6.453   152.8178    -0.1658    -0.3317     0.0123     -0.000     -0.500     -0.725         14 1.9924e+02 0.0000e+00
     -0.509    26.2286     7.8676     97.376   0.748681      0.661      6.441    86.8704    -0.1617    -0.1706     0.0123      0.000     -0.500     -0.725         15 2.2083e+02 0.0000e+00
     -0.510    26.2267     7.8720     97.430   0.878328      1.015      6.460    -0.7312    -0.1698    -0.2512     0.0123      0.000     -0.500     -0.725         16 1.0592e+02 0.0000e+00
     -0.509    26.2254     7.8688     97.391   0.182668     -0.020      6.459   -37.4149    -0.1658    -0.3317     0.0000      0.000     -0.500     -0.725         17 1.8431e+02 0.0000e+00
     -0.509    26.2253     7.8714     97.423   0.755848      0.906      6.459   -60.1671    -0.1617    -0.2243     0.0123      0.000     -0.500     -0.725         18 7.4979e+02 0.0000e+00
     -0.509    26.2254     7.8757     97.476   0.727521      0.606      6.458   -84.6986    -0.2021    -0.2377     0.0123      0.000     -0.500     -0.725         19 1.3929e+02 0.0000e+00
     -0.510    26.2256     7.8757     97.476   0.395544      0.443      6.460   -97.2672    -0.2021    -0.2109     0.0123     -0.000     -0.500     -0.725         20 2.3951e+02 0.0000e+00
     -0.510    26.2258     7.8849     97.590   0.606468      0.552      6.464   -98.2515    -0.1658    -0.2512     0.0123     -0.000     -0.500     -0.725         21 1.7443e+03 0.0000e+00
     -0.509    26.2261     7.8794     97.523   0.701879      0.715      6.468  -140.5002    -0.1819    -0.2109     0.0123     -0.000     -0.500     -0.725         22 2.0449e+03 0.0000e+00
     -0.509    26.2262     7.8804     97.535   0.632080      0.606      6.469  -157.8767    -0.1617    -0.2512     0.0123     -0.000     -0.500     -0.725         23 1.8153e+03 0.0000e+00
     -0.509    26.2261     7.8827     97.564   0.693331      0.661      6.470  -183.4682    -0.1698    -0.2377     0.0123     -0.000     -0.500     -0.725         24 2.0324e+03 0.0000e+00
     -0.509    26.2263     7.8876     97.625   0.566439      0.606      6.471  -192.7054    -0.1860    -0.0497     0.0123      0.000     -0.500     -0.725         25 1.7381e+03 0.0000e+00
     -0.509    26.2263     7.8872     97.620   0.168272      0.089      6.473  -216.5176    -0.1981     0.0174     0.0125      0.000     -0.500     -0.725         26 1.3359e+03 0.0000e+00
     -0.509    26.2264     7.8887     97.631   0.567121      0.606      6.472  -224.0512    -0.1698    -0.0229     0.0123      0.000     -0.500     -0.725         27 1.0161e+03 0.0000e+00
     -0.509    26.2263     7.8879     97.627   1.017472      0.960      6.472  -252.0655    -0.1698    -0.0229     0.0123      0.000     -0.500     -0.725         28 4.5016e+02 0.0000e+00
     -0.509    26.2264     7.8942     97.706   0.673638      0.715      6.467  -289.4306    -0.1941     0.0174     0.0123      0.000     -0.499     -0.724         29 1.3580e+03 0.0000e+00
     -0.509    26.2263     7.8957     97.724   0.491711      0.388      6.466  -310.5550    -0.1617    -0.0497     0.0123      0.000     -0.499     -0.724         30 1.9087e+03 0.0000e+00
     -0.510    26.2264     7.8973     97.742   0.562933      0.661      6.453  -358.5580    -0.1455    -0.0497     0.0123      0.000     -0.500     -0.725         31 1.6821e+03 0.0000e+00
     -0.510    26.2268     7.9064     97.854   0.407368      0.279      6.452  -395.2417    -0.1577    -0.0095     0.0124     -0.000     -0.500     -0.725         32 1.8208e+03 0.0000e+00
     -0.509    26.2267     7.9060     97.847   0.774130      0.851      6.454  -449.6047    -0.1658    -0.0497     0.0123     -0.000     -0.500     -0.725         33 1.8445e+03 0.0000e+00
     -0.510    26.2269     7.9142     97.947   0.728232      0.661      6.452  -481.8969    -0.1860    -0.0095     0.0123     -0.000     -0.500     -0.725         34 1.8890e+03 0.0000e+00
     -0.510    26.2271     7.9130     97.932   0.671726      0.661      6.463  -506.5420    -0.1698    -0.0095     0.0123     -0.000     -0.500     -0.725         35 1.8526e+03 0.0000e+00
     -0.509    26.2270     7.9123     97.923   0.518781      0.552      6.458  -532.8528    -0.1577    -0.0632     0.0123     -0.000     -0.500     -0.725         36 1.8533e+03 0.0000e+00
     -0.509    26.2270     7.9142     97.945   0.504085      0.388      6.468  -544.0585    -0.1819    -0.0766     0.0123     -0.000     -0.500     -0.725         37 1.8027e+03 0.0000e+00
     -0.509    26.2268     7.9131     97.932   0.630805      0.770      6.475  -558.8607    -0.1536     0.0443     0.0123      0.000     -0.499     -0.724         38 1.7686e+03 0.0000e+00
     -0.509    26.2269     7.9179     97.989   0.153847     -0.020      6.465  -554.9235    -0.1496     0.0711     0.0000      0.000     -0.499     -0.724         39 1.7148e+03 0.0000e+00
     -0.509    26.2267     7.9128     97.926   0.475931      0.606      6.464  -480.6098    -0.1779    -0.0229     0.0123      0.000     -0.499     -0.724         40 1.7351e+03 0.0000e+00
     -0.509    26.2257     7.9117     97.913   0.614846      0.497      6.470  -405.1981    -0.1779    -0.1034     0.0123      0.000     -0.499     -0.724         41 1.7790e+03 0.0000e+00
     -0.509    26.2249     7.9172     97.978   0.602687      0.661      6.509  -339.2508    -0.1658    -0.0497     0.0123      0.000     -0.499     -0.724         42 1.8835e+03 0.0000e+00
     -0.509    26.2241     7.9276     98.106   0.550274      0.497      6.542  -498.7812    -0.1617     0.0577     0.0123      0.000     -0.500     -0.725         43 1.8542e+03 0.0000e+00
     -0.509    26.2234     7.9295     98.130   0.443225      0.443      6.529  -550.1535    -0.1819    -0.0363     0.0123     -0.000     -0.500     -0.725         44 1.9592e+03 0.0000e+00
     -0.509    26.2230     7.9294     98.128   0.676698      0.661      6.514  -570.1422    -0.1738     0.0577     0.0123     -0.000     -0.499     -0.724         45 1.7890e+03 0.0000e+00
     -0.509    26.2226     7.9349     98.196   0.614994      0.606      6.505  -583.9979    -0.1900    -0.0632     0.0123     -0.000     -0.499     -0.724         46 2.0636e+03 0.0000e+00
     -0.509    26.2223     7.9399     98.257   0.579225      0.552      6.494  -603.8351    -0.1860    -0.2512     0.0123     -0.000     -0.499     -0.724         47 1.6051e+03 0.0000e+00
     -0.509    26.2218     7.9429     98.294   0.602786      0.606      6.495  -625.0352    -0.1698    -0.2512     0.0123     -0.000     -0.499     -0.724         48 6.0612e+02 0.0000e+00
     -0.509    26.2215     7.9479     98.356   0.585671      0.552      6.493  -641.3517    -0.1536    -0.2109     0.0123     -0.000     -0.499     -0.724         49 1.6082e+03 0.0000e+00
     -0.509    26.2213     7.9487     98.367   0.600523      0.606      6.490  -645.2131    -0.1415    -0.1706     0.0123      0.000     -0.499     -0.724         50 2.1853e+03 0.0000e+00
     -0.510    26.2209     7.9475     98.352   0.584303      0.552      6.491  -676.9375    -0.1617    -0.2780     0.0123      0.000     -0.499     -0.724         51 1.5980e+03 0.0000e+00
     -0.509    26.2199     7.9547     98.441   0.605858      0.606      6.487  -685.0389    -0.1900    -0.2243     0.0123      0.000     -0.499     -0.724         52 3.6580e+02 0.0000e+00
     -0.508    26.2194     7.9522     98.410   0.632911      0.606      6.491  -711.9554    -0.2021    -0.2243     0.0123      0.000     -0.499     -0.724         53 -2.764e+01 0.0000e+00
     -0.509    26.2192     7.9572     98.450   0.609847      0.606      6.493  -720.3597    -0.1779    -0.2512     0.0123      0.000     -0.499     -0.724         54 1.7099e+02 0.0000e+00
     -0.509    26.2193     8.0089     98.708   0.634561      0.606      6.493  -736.1841    -0.1779    -0.2243     0.0123      0.000     -0.499     -0.724         55 4.8446e+01 0.0000e+00
     -0.509    26.2189     8.0934     99.262   0.602157      0.606      6.494  -756.7027    -0.1900    -0.2780     0.0123      0.000     -0.499     -0.724         56 1.2356e+02 0.0000e+00
     -0.508    26.2188     8.1651     99.848   0.650174      0.606      6.499  -777.0699    -0.1496    -0.1706     0.0123      0.000     -0.499     -0.723         57 6.5886e+01 0.0000e+00
     -0.508    26.2182     8.2187    100.315   0.634017      0.661      6.498  -686.1368    -0.1658    -0.1572     0.0123      0.000     -0.499     -0.723         58 1.2430e+02 0.0000e+00
     -0.508    26.2193     8.2448    100.495   0.681478      0.606      6.501  -822.6122    -0.1577    -0.2914     0.0123      0.000     -0.499     -0.723         59 9.2994e+01 0.0000e+00
     -0.508    26.2178     8.2995    101.053   0.591110      0.661      6.502  -833.1365    -0.1698    -0.2109     0.0123      0.000     -0.498     -0.722         60 2.1238e+02 0.0000e+00
     -0.508    26.2206     8.3285    101.321   0.746477      0.606      6.505  -853.0873    -0.1617    -0.2109     0.0123      0.000     -0.498     -0.722         61 1.0343e+02 0.0000e+00
     -0.508    26.2165     8.3659    101.681   0.488126      0.661      6.503  -882.6159    -0.1496    -0.2780     0.0123      0.000     -0.498     -0.723         62 5.4669e+02 0.0000e+00
     -0.508    26.2231     8.3986    101.995   0.971835      0.661      6.506  -901.8853    -0.1698     0.2457     0.0123      0.000     -0.498     -0.723         63 1.7358e+03 0.0000e+00
     -0.508    26.1993     8.4245    102.231   0.144511      0.606      6.507  -927.7418    -0.1900     0.1651     0.0123      0.000     -0.497     -0.722         64 1.9165e+03 0.0000e+00
     -0.508    25.9946     8.4442    102.412   1.458504      0.661      6.501  -981.8019    -0.1455     0.1920     0.0123      0.000     -0.489     -0.710         65 1.7839e+03 0.0000e+00
     -0.479    25.7260     8.4569    102.526  -0.722618      0.552      6.360  -770.8235    -0.1698     0.2591     0.0123      0.008     -0.467     -0.678         66 1.8600e+03 0.0000e+00
     -0.443    25.5620     8.4620    102.561   2.918092      0.773      6.717  -692.0804    -0.1941     0.1785     0.0122      0.023     -0.436     -0.633         67 1.8259e+03 0.0000e+00
     -0.414    25.4592     8.4555    102.468  15.883934     18.055      6.860  -491.7019   258.0773    16.6009     0.0172      0.041     -0.406     -0.589         68 1.8689e+03 0.0000e+00
     -0.388    25.3823     8.4440    102.321  22.862198     20.238      6.989  1240.2295   258.0692    16.6143     0.0180      0.060     -0.375     -0.544         69 1.8671e+03 0.0000e+00
     -0.343    25.3247     8.4275    102.118  34.653150     36.391      7.372   155.0892   258.0490    16.5069     0.0243      0.083     -0.336     -0.487         70 1.8935e+03 0.0000e+00
     -0.296    25.2773     8.4121    101.930  37.942402     36.390      7.705   174.4721   258.0571    16.5606     0.0243      0.108     -0.296     -0.430         71 1.8868e+03 0.0000e+00
     -0.269    25.2287     8.3969    101.755  35.786331     36.322      7.889   180.0371    -2.0582    26.2153     0.0243      0.125     -0.265     -0.385         72 1.8928e+03 0.0000e+00
     -0.244    25.1823     8.3911    101.687  37.010122     36.327      7.999   184.6179    -2.0703    26.2959     0.0243      0.134     -0.242     -0.351         73 1.8953e+03 0.0000e+00
     -0.227    25.1417     8.3858    101.632  36.241486     36.364      8.002   183.4822    -2.0420    26.2825     0.0243      0.130     -0.226     -0.328         74 1.8785e+03 0.0000e+00
     -0.220    25.1104     8.3471    101.163  36.713250     36.396      7.985   186.0186    -2.0501    26.2556     0.0243      0.119     -0.218     -0.315         75 1.8641e+03 0.0000e+00
     -0.217    25.0893     8.3276    100.934  36.363726     36.371      7.950   185.5264     1.0190    59.6777     0.0243      0.103     -0.213     -0.310         76 1.8507e+03 0.0000e+00
     -0.215    25.0748     8.2575    100.082  36.557846     36.393      7.898   186.2079     1.0312    59.7852     0.0243      0.083     -0.211     -0.307         77 1.8412e+03 0.0000e+00
     -0.215    25.0672     8.1838     99.177  36.560663     36.548      7.848   185.7914     1.0271    59.7180     0.0243      0.058     -0.211     -0.306         78 1.8378e+03 0.0000e+00
     -0.215    25.0641     8.1174     98.366  36.567845     36.475      7.820   184.6179     1.0554    59.7717     0.0243      0.036     -0.211     -0.306         79 1.8454e+03 0.0000e+00
     -0.214    25.0611     8.0834     97.958  36.519256     36.480      7.810   184.0879     2.0623     0.9976     0.0243      0.022     -0.210     -0.304         80 1.8533e+03 0.0000e+00
     -0.212    25.0615     8.0815     97.942  36.591475     36.539      7.866   183.5957     2.0582     1.0111     0.0243      0.012     -0.207     -0.300         81 1.8660e+03 0.0000e+00
     -0.207    25.0654     8.0709     97.858  36.596609     36.540      7.924   183.8229     2.0663     1.0514     0.0243      0.007     -0.201     -0.291         82 1.8791e+03 0.0000e+00
     -0.197    25.0675     8.0219     97.282  36.661166     36.625      7.981   179.8100     2.0663     1.1319     0.0243      0.009     -0.190     -0.275         83 1.8858e+03 0.0000e+00
     -0.176    25.0709     8.0038     96.987  36.600112     36.537      8.037   180.1129     2.1634     1.3065     0.0243      0.016     -0.171     -0.248         84 1.8803e+03 0.0000e+00
     -0.150    25.0730     7.9821     96.553  36.583611     36.536      8.066   180.1886     2.1270     1.2662     0.0243      0.027     -0.145     -0.210         85 1.8926e+03 0.0000e+00
     -0.117    25.0752     7.9619     96.160  36.592723     36.533      8.064   176.9707     2.1391     1.3199     0.0243      0.044     -0.110     -0.160         86 1.8765e+03 0.0000e+00
     -0.067    25.0748     7.9826     96.331  36.588772     36.532      8.043   178.6743     2.1553     1.3065     0.0243      0.068     -0.070     -0.102         87 1.8854e+03 0.0000e+00
     -0.032    25.0680     7.9952     96.453  36.677504     36.614      8.050   178.4471     2.1229     1.3736     0.0243      0.091     -0.034     -0.049         88 1.8545e+03 0.0000e+00
     -0.003    25.0653     8.0059     96.581  36.749229     36.698      8.047   174.5100     2.2847     1.3065     0.0244      0.110     -0.002     -0.003         89 1.8964e+03 0.0000e+00
      0.031    25.0656     8.0078     96.608  36.736786     36.675      8.034   174.2828     2.3009     1.2796     0.0244      0.125      0.030      0.043         90 1.8140e+03 0.0000e+00
      0.065    25.0722     7.9802     96.276  36.722652     36.677      8.005   175.5700     2.2645     1.2528     0.0244      0.134      0.056      0.080         91 1.4368e+03 0.0000e+00
      0.073    25.0946     7.9151     95.493  36.737163     36.676      7.928   178.1821     2.2726     1.3468     0.0244      0.131      0.063      0.091         92 1.4130e+03 0.0000e+00
      0.054    25.1051     7.8332     94.508  36.718726     36.673      7.925   177.2736     2.3575     1.0379     0.0244      0.112      0.050      0.072         93 1.4847e+03 0.0000e+00
      0.026    25.0615     7.7305     93.272  36.686272     36.599      7.944   177.3493     2.3251     1.0648     0.0243      0.079      0.025      0.036         94 1.4429e+03 0.0000e+00
     -0.003    24.9683     7.6133     91.862  36.599588     36.536      7.949   176.7436     2.3373     1.0648     0.0243      0.038     -0.002     -0.003         95 1.4419e+03 0.0000e+00
     -0.030    24.8840     7.4889     90.367  36.381715     36.316      7.956   176.5921     2.3251     0.9842     0.0242     -0.001     -0.024     -0.035         96 1.1215e+03 0.0000e+00
     -0.038    24.8393     7.3661     88.892  36.304933     36.330      7.959   177.4250     2.4100     1.2528     0.0242     -0.033     -0.035     -0.050         97 5.0646e+02 0.0000e+00
     -0.038    24.8225     7.2446     87.434  36.309614     36.391      7.960   178.7879     2.4222     1.2796     0.0242     -0.055     -0.037     -0.054         98 1.7225e+02 0.0000e+00
     -0.038    24.8215     7.1399     86.170  36.316610     36.423      7.955   179.4693     2.3858     1.2528     0.0242     -0.064     -0.038     -0.055         99 1.6059e+02 0.0000e+00
     -0.040    24.8238     7.0648     85.257  36.385229     36.519      7.943   183.3686     2.3939     1.3871     0.0242     -0.058     -0.040     -0.057        100 1.5139e+02 0.0000e+00
     -0.042    24.8248     7.0080     84.564  36.372524     36.492      7.936   181.5514     2.4262     1.3871     0.0242     -0.043     -0.042     -0.060        101 1.5875e+02 0.0000e+00
     -0.044    24.8260     6.9535     83.896  36.362081     36.490      7.932   182.2329     2.3939     1.3199     0.0242     -0.027     -0.043     -0.062        102 1.6523e+02 0.0000e+00
     -0.045    24.8277     6.9444     83.782  36.427882     36.546      7.926   182.8764     2.3939     1.2662     0.0242     -0.014     -0.043     -0.063        103 2.8211e+02 0.0000e+00
     -0.044    24.8295     7.0409     84.934  36.468588     36.601      7.922   182.5736     2.3898     1.2393     0.0243     -0.006     -0.043     -0.062        104 5.8164e+02 0.0000e+00
     -0.044    24.8320     7.2763     87.749  36.430059     36.544      7.923   183.2171     2.4667     1.1319     0.0242     -0.004     -0.043     -0.062        105 8.9905e+02 0.0000e+00
     -0.043    24.8353     7.5614     91.182  36.446173     36.570      7.922   188.2522     2.4667     1.1319     0.0243     -0.003     -0.043     -0.062        106 1.1640e+03 0.0000e+00
     -0.044    24.8398     7.8146     94.220  36.478194     36.596      7.919   188.4036     2.4869     1.0514     0.0243     -0.002     -0.043     -0.062        107 1.3256e+03 0.0000e+00
     -0.044    24.8441     8.0381     96.900  36.479184     36.594      7.921   189.3500     2.4747     1.0916     0.0243     -0.001     -0.043     -0.062        108 1.3866e+03 0.0000e+00
     -0.044    24.8440     8.1728     98.511  36.474597     36.591      7.920   187.7222     2.4505     0.9842     0.0243     -0.000     -0.042     -0.062        109 1.4209e+03 0.0000e+00
     -0.041    24.8402     8.2120     98.971  36.424583     36.531      7.921   187.8736     2.4262     1.0111     0.0242      0.001     -0.041     -0.059        110 1.4343e+03 0.0000e+00
     -0.040    24.8350     8.1897     98.679  36.452446     36.560      7.915   190.7507     2.4060     1.1185     0.0243      0.002     -0.040     -0.057        111 1.4394e+03 0.0000e+00
     -0.040    24.8288     8.1727     98.451  36.469580     36.591      7.912   190.7129     2.4181     1.1453     0.0243      0.002     -0.037     -0.053        112 1.4411e+03 0.0000e+00
     -0.032    24.8263     8.1646     98.342  36.373604     36.482      7.917   189.5015     2.3898     1.0379     0.0242      0.004     -0.024     -0.034        113 1.4449e+03 0.0000e+00
      0.003    24.8172     8.1629     98.314  36.364278     36.487      7.910   189.2365     2.3453     1.0648     0.0242      0.015      0.001      0.001        114 1.4366e+03 0.0000e+00
      0.029    24.8042     8.1392     98.026  36.421872     36.545      7.849   188.1007     2.3373     1.1319     0.0242      0.030      0.021      0.031        115 1.4471e+03 0.0000e+00
      0.032    24.7990     8.0732     97.228  36.479884     36.607      7.843   187.7600     2.3332     1.0782     0.0243      0.041      0.030      0.044        116 1.4452e+03 0.0000e+00
      0.033    24.7916     8.0122     96.492  36.440380     36.590      7.854   187.8736     2.3292     1.2125     0.0243      0.047      0.032      0.047        117 1.4498e+03 0.0000e+00
      0.033    24.7826     7.9801     96.105  36.322744     36.452      7.868   187.9872     2.4060     1.2393     0.0242      0.047      0.034      0.049        118 1.4249e+03 0.0000e+00
      0.037    24.7762     7.9742     96.034  36.359355     36.514      7.880   188.6307     2.4020     1.2931     0.0242      0.045      0.039      0.056        119 1.4497e+03 0.0000e+00
      0.048    24.7687     7.9879     96.195  36.365165     36.520      7.891   188.6307     2.3979     1.2796     0.0242      0.041      0.049      0.071        120 1.3788e+03 0.0000e+00
      0.065    24.7561     8.0067     96.421  36.315518     36.469      7.888   188.4415     2.4060     1.3333     0.0242      0.035      0.061      0.089        121 1.1700e+03 0.0000e+00
      0.073    24.7441     8.0388     96.806  36.361824     36.530      7.900   189.0850     2.4586     1.2662     0.0242      0.028      0.069      0.100        122 1.1634e+03 0.0000e+00
      0.072    24.7375     8.0891     97.411  36.337200     36.512      7.910   184.5800     2.4424     1.3468     0.0242      0.024      0.071      0.102        123 1.1172e+03 0.0000e+00
      0.072    24.7334     8.1380     98.002  36.316508     36.493      7.921   187.2300     2.4909     1.2393     0.0242      0.025      0.071      0.102        124 9.4005e+02 0.0000e+00
      0.072    24.7314     8.1636     98.313  36.357922     36.554      7.931   187.9872     2.4707     1.2796     0.0242      0.024      0.071      0.102        125 7.7171e+02 0.0000e+00
      0.072    24.7299     8.1770     98.478  36.315325     36.501      7.937   188.1764     2.4667     1.0245     0.0242      0.021      0.071      0.103        126 6.4724e+02 0.0000e+00
      0.072    24.7293     8.1797     98.520  36.310202     36.502      7.945   190.6750     2.4545     1.0782     0.0242      0.015      0.071      0.103        127 4.9720e+02 0.0000e+00
      0.073    24.7294     8.1793     98.533  36.393957     36.587      7.949   186.3214     2.4626     1.0111     0.0242      0.008      0.071      0.104        128 3.8043e+02 0.0000e+00
      0.073    24.7288     8.1666     98.398  36.359390     36.560      7.952   186.9272     2.4667     1.0782     0.0242      0.002      0.071      0.104        129 3.3442e+02 0.0000e+00
      0.073    24.7272     8.1349     98.033  36.323562     36.503      7.952   187.6843     2.4667     1.0648     0.0242      0.000      0.071      0.104        130 2.6820e+02 0.0000e+00
      0.073    24.7262     8.0955     97.570  36.349569     36.560      7.950   188.2522     2.4788     1.0379     0.0242      0.001      0.072      0.105        131 2.4351e+02 0.0000e+00
      0.074    24.7254     8.0430     96.945  36.327025     36.505      7.952   189.9557     2.4626     1.0648     0.0242      0.001      0.072      0.105        132 2.2108e+02 0.0000e+00
      0.073    24.7253     7.9722     96.098  36.351618     36.562      7.952   190.0693     2.4707     1.1185     0.0242      0.001      0.072      0.105        133 1.8839e+02 0.0000e+00
      0.073    24.7268     7.8885     95.094  36.348622     36.534      7.956   188.6307     2.4747     1.0379     0.0242      0.001      0.072      0.105        134 1.7441e+02 0.0000e+00
      0.073    24.7282     7.7921     93.937  36.301093     36.506      7.955   188.2522     2.4828     1.2931     0.0242      0.000      0.072      0.105        135 1.6852e+02 0.0000e+00
      0.074    24.7301     7.6879     92.685  36.321791     36.505      7.961   188.2522     2.4505     1.2393     0.0242      0.000      0.072      0.105        136 1.6313e+02 0.0000e+00
      0.073    24.7355     7.5866     91.469  36.352523     36.561      7.964   187.8736     2.4586     1.1991     0.0242      0.000      0.072      0.105        137 1.6027e+02 0.0000e+00
      0.074    24.7448     7.4817     90.209  36.322163     36.503      7.967   187.7979     2.4586     1.2931     0.0242      0.000      0.072      0.105        138 1.5794e+02 0.0000e+00
      0.073    24.7552     7.3669     88.831  36.359572     36.555      7.971   188.1386     2.6324     1.0379     0.0242      0.000      0.072      0.105        139 1.5915e+02 0.0000e+00
      0.074    24.7642     7.2723     87.696  36.394943     36.576      7.975   191.3943     2.6001     1.1051     0.0242      0.000      0.072      0.105        140 1.5817e+02 0.0000e+00
      0.074    24.7705     7.1774     86.556  36.367116     36.541      7.976   190.6750     2.5799     1.0514     0.0242      0.000      0.072      0.105        141 1.5964e+02 0.0000e+00
      0.074    24.7752     7.0854     85.452  36.364538     36.534      7.975   190.9022     2.6244     0.9976     0.0242      0.000      0.072      0.105        142 1.5916e+02 0.0000e+00
      0.074    24.7789     7.0029     84.462  36.368489     36.529      7.978   189.8043     2.4788     1.0916     0.0242      0.000      0.072      0.105        143 1.5714e+02 0.0000e+00
      0.074    24.7817     6.9116     83.366  36.421515     36.582      7.977   190.1072     2.4869     1.0648     0.0242      0.000      0.073      0.105        144 1.5751e+02 0.0000e+00
      0.075    24.7845     6.8334     82.429  36.446839     36.607      7.980   194.8772     2.4747     1.1453     0.0243      0.000      0.073      0.106        145 1.5765e+02 0.0000e+00
      0.075    24.7872     6.7623     81.576  36.425948     36.577      7.981   194.8393     2.4667     1.0916     0.0242      0.000      0.073      0.106        146 1.5882e+02 0.0000e+00
      0.075    24.7900     6.6913     80.724  36.417855     36.575      7.982   194.8772     2.4667     1.0379     0.0242      0.001      0.073      0.106        147 1.5818e+02 0.0000e+00
      0.074    24.7932     6.6215     79.886  36.427251     36.573      7.982   193.0979     2.4586     1.0379     0.0242      0.001      0.073      0.106        148 1.5760e+02 0.0000e+00
      0.075    24.7965     6.5624     79.178  36.414253     36.571      7.986   193.6279     2.4626     1.0782     0.0242      0.000      0.073      0.106        149 1.5836e+02 0.0000e+00
      0.075    24.7997     6.4980     78.405  36.434029     36.569      7.987   194.1958     2.4909     1.1051     0.0242      0.000      0.073      0.106        150 1.5680e+02 0.0000e+00
      0.074    24.8030     6.4446     77.765  36.491615     36.651      7.985   196.1265     2.4626     1.0648     0.0243      0.000      0.073      0.106        151 1.5865e+02 0.0000e+00
      0.075    24.8063     6.3982     77.210  36.431563     36.564      7.988   196.4293     2.4505     1.3871     0.0242      0.000      0.074      0.107        152 1.5869e+02 0.0000e+00
      0.075    24.8095     6.3507     76.641  36.419784     36.562      7.987   196.1643     2.4707     1.2528     0.0242      0.000      0.074      0.107        153 1.5845e+02 0.0000e+00
      0.074    24.8129     6.3100     76.154  36.476614     36.615      7.987   196.2022     2.4747     1.2931     0.0243      0.000      0.073      0.106        154 1.6025e+02 0.0000e+00
      0.074    24.8164     6.2742     75.725  36.479474     36.613      7.991   195.4829     2.4828     1.2931     0.0243     -0.000      0.073      0.106        155 1.6007e+02 0.0000e+00
      0.075    24.8196     6.2356     75.264  36.505202     36.639      7.990   195.3315     2.5880     1.2528     0.0243      0.000      0.073      0.106        156 1.6203e+02 0.0000e+00
      0.075    24.8229     6.2032     74.877  36.474254     36.608      7.991   196.2779     2.5758     1.2931     0.0243      0.000      0.074      0.107        157 1.6315e+02 0.0000e+00
      0.075    24.8260     6.1893     74.713  36.429009     36.550      7.994   196.6186     2.6163     1.3871     0.0242      0.000      0.074      0.107        158 1.6444e+02 0.0000e+00
      0.075    24.8291     6.1650     74.423  36.472529     36.603      7.993   197.1108     2.5758     1.3199     0.0243      0.000      0.074      0.107        159 1.6750e+02 0.0000e+00
      0.075    24.8323     6.1447     74.182  36.479409     36.601      7.996   198.2843     2.5111     1.0111     0.0243      0.000      0.074      0.107        160 1.6980e+02 0.0000e+00
      0.075    24.8353     6.1269     73.971  36.479763     36.599      7.996   198.6629     2.5475     1.0379     0.0243      0.000      0.074      0.107        161 1.7545e+02 0.0000e+00
      0.076    24.8384     6.1107     73.778  36.501746     36.624      7.998   194.5743     2.5637     1.0782     0.0243      0.000      0.074      0.107        162 1.8829e+02 0.0000e+00
      0.076    24.8416     6.1047     73.709  36.481709     36.594      7.998   195.2936     2.5556     1.0648     0.0243      0.000      0.074      0.107        163 2.0098e+02 0.0000e+00
      0.076    24.8443     6.0935     73.578  36.475038     36.592      7.996   195.6343     2.5111     1.0514     0.0243      0.000      0.074      0.107        164 2.1534e+02 0.0000e+00
      0.076    24.8467     6.0877     73.512  36.480388     36.589      8.000   197.8300     2.5273     1.0379     0.0243      0.000      0.074      0.107        165 2.3857e+02 0.0000e+00
      0.076    24.8499     6.0829     73.458  36.475050     36.587      7.999   197.9436     2.5273     1.0782     0.0243      0.000      0.074      0.107        166 2.6052e+02 0.0000e+00
      0.075    24.8529     6.0803     73.430  36.481680     36.586      8.000   198.1708     2.5556     1.1319     0.0243      0.000      0.074      0.107        167 2.8426e+02 0.0000e+00
      0.075    24.8553     6.0762     73.385  36.561113     36.667      8.000   194.6500     2.5435     1.2662     0.0243      0.000      0.074      0.107        168 3.1163e+02 0.0000e+00
      0.076    24.8581     6.0704     73.317  36.524490     36.637      8.000   195.1422     2.5111     1.3065     0.0243      0.000      0.074      0.107        169 3.3923e+02 0.0000e+00
      0.075    24.8609     6.0644     73.249  36.497597     36.579      8.001   194.3472     2.5394     1.2662     0.0243     -0.000      0.074      0.107        170 3.6730e+02 0.0000e+00
      0.075    24.8634     6.0560     73.145  36.564921     36.689      8.001   195.6343     2.5556     1.3333     0.0243     -0.000      0.074      0.107        171 3.7926e+02 0.0000e+00
      0.076    24.8661     6.2876     75.917  36.559341     36.631      8.001   195.8993     2.5314     1.2125     0.0243     -0.000      0.074      0.108        172 3.9531e+02 0.0000e+00
      0.076    24.8689     6.8387     82.541  36.593518     36.714      8.000   196.1265     2.6082     1.0782     0.0243      0.000      0.074      0.108        173 4.0583e+02 0.0000e+00
      0.076    24.8718     7.5453     91.045  36.552046     36.627      8.000   195.8236     2.5799     0.9574     0.0243      0.000      0.074      0.107        174 3.8730e+02 0.0000e+00
      0.075    24.8745     8.2529     99.554  36.521972     36.625      7.999   196.2022     2.5960     1.0111     0.0243      0.000      0.074      0.107        175 3.9148e+02 0.0000e+00
      0.076    24.8772     8.8801    107.086  36.541967     36.623      8.002   195.4829     2.6082     1.0379     0.0243      0.000      0.074      0.107        176 3.8848e+02 0.0000e+00
      0.076    24.8800     9.3887    113.191  36.527162     36.621      8.002   196.0508     2.6001     0.9842     0.0243      0.000      0.074      0.107        177 3.6021e+02 0.0000e+00
      0.075    24.8829     9.7833    117.931  36.599713     36.675      8.005   196.0508     2.6163     0.9842     0.0243     -0.000      0.074      0.107        178 3.5811e+02 0.0000e+00
      0.076    24.8852     9.9844    120.347  36.599973     36.701      8.003   200.8965     2.5799     1.0514     0.0243     -0.000      0.074      0.108        179 3.4845e+02 0.0000e+00
      0.076    24.8885    10.0084    120.630  36.556496     36.615      8.002   198.4358     2.5799     1.0648     0.0243     -0.000      0.074      0.108        180 3.3192e+02 0.0000e+00
      0.076    24.8857     9.9108    119.443  36.505521     36.613      8.004   198.9658     2.6931     1.3065     0.0243      0.000      0.074      0.108        181 3.4840e+02 0.0000e+00
      0.076    24.8680     9.7778    117.833  36.455795     36.499      8.005   199.0793     2.6607     1.3065     0.0242      0.000      0.074      0.108        182 3.5900e+02 0.0000e+00
      0.075    24.8481     9.6563    116.361  36.648039     36.753      8.004   197.5650     2.6527     1.2796     0.0243      0.000      0.074      0.107        183 3.8019e+02 0.0000e+00
      0.076    24.8335     9.5563    115.149  36.770485     36.850      8.006   202.4865     2.6486     1.2931     0.0244     -0.000      0.074      0.107        184 4.1811e+02 0.0000e+00
      0.075    24.8178     9.4918    114.367  36.718650     36.837      8.005   202.6001     2.6567     1.3468     0.0244     -0.000      0.074      0.107        185 4.3316e+02 0.0000e+00
      0.076    24.8009     9.4208    113.511  36.682897     36.792      8.006   202.5243     2.6567     1.3602     0.0243     -0.000      0.074      0.107        186 4.6501e+02 0.0000e+00
      0.076    24.7872     9.3781    112.998  36.666688     36.803      8.005   202.7515     2.6688     1.2931     0.0243     -0.000      0.074      0.108        187 4.7935e+02 0.0000e+00
      0.076    24.7793     9.3290    112.410  36.679510     36.816      8.005   201.3129     2.6891     1.2796     0.0243      0.000      0.074      0.108        188 4.8659e+02 0.0000e+00
      0.076    24.7757     9.2776    111.791  36.666950     36.826      8.006   201.3129     2.7214     0.9976     0.0243      0.000      0.074      0.108        189 5.1957e+02 0.0000e+00
      0.075    24.7726     9.2340    111.259  36.682326     36.832      8.009   202.1836     2.7376     0.9842     0.0243      0.000      0.074      0.107        190 5.1837e+02 0.0000e+00
      0.075    24.7686     9.1910    110.736  36.719697     36.891      8.007   202.9408     2.7376     0.9842     0.0244      0.000      0.074      0.107        191 5.0191e+02 0.0000e+00
      0.075    24.7646     9.1524    110.267  36.679763     36.837      8.007   203.0165     2.7214     1.0648     0.0243     -0.000      0.074      0.107        192 5.0910e+02 0.0000e+00
      0.075    24.7608     9.0987    109.620  36.672707     36.840      8.007   203.3951     2.6971     1.1722     0.0243     -0.000      0.074      0.107        193 5.0447e+02 0.0000e+00
      0.075    24.7577     9.0568    109.115  36.728481     36.899      8.010   203.5844     2.7133     1.3333     0.0244     -0.000      0.074      0.107        194 4.8544e+02 0.0000e+00
      0.076    24.7558     9.0356    108.862  36.669674     36.845      8.009   204.2279     2.7457     1.3602     0.0243     -0.000      0.074      0.107        195 4.8035e+02 0.0000e+00
      0.076    24.7553     9.0352    108.856  36.686575     36.848      8.010   200.2151     2.7295     1.2931     0.0243     -0.000      0.074      0.108        196 4.6498e+02 0.0000e+00
      0.076    24.7561     9.0404    108.914  36.707451     36.905      8.009   201.5022     2.7457     1.3333     0.0244      0.000      0.074      0.108        197 4.5991e+02 0.0000e+00
      0.076    24.7577     9.0551    109.085  36.614035     36.765      8.010   201.5401     2.7254     1.2796     0.0243      0.000      0.074      0.108        198 4.7135e+02 0.0000e+00
      0.076    24.7576     9.0594    109.130  36.565553     36.765      8.010   203.5086     2.7214     1.2259     0.0243      0.000      0.074      0.108        199 4.6086e+02 0.0000e+00
      0.076    24.7551     9.0590    109.122  36.560171     36.707      8.009   203.6601     2.7133     1.2662     0.0243      0.000      0.074      0.108        200 4.5766e+02 0.0000e+00
      0.076    24.7524     9.0472    108.978  36.591074     36.792      8.010   199.3822     2.7538     1.3602     0.0243      0.001      0.074      0.108        201 4.6281e+02 0.0000e+00
      0.076    24.7506     9.0021    108.439  36.556754     36.709      8.011   199.4579     2.6446     1.0111     0.0243      0.000      0.074      0.108        202 4.5891e+02 0.0000e+00
      0.076    24.7502     8.9512    107.829  36.573223     36.767      8.012   200.2529     2.6405     1.0782     0.0243      0.000      0.074      0.108        203 4.5662e+02 0.0000e+00
      0.075    24.7507     8.9100    107.332  36.600239     36.769      8.009   201.7672     2.6486     1.1319     0.0243     -0.000      0.074      0.108        204 4.4191e+02 0.0000e+00
      0.076    24.7513     8.8799    106.969  36.582454     36.769      8.009   201.5022     2.6688     1.0111     0.0243     -0.000      0.074      0.108        205 4.4002e+02 0.0000e+00
      0.075    24.7507     8.8735    106.886  36.595357     36.769      8.009   201.8051     2.7052     1.0379     0.0243     -0.000      0.074      0.108        206 4.2536e+02 0.0000e+00
      0.076    24.7486     8.8824    106.978  36.613838     36.796      8.009   201.5401     2.7052     1.0782     0.0243     -0.000      0.074      0.108        207 3.9101e+02 0.0000e+00
      0.076    24.7457     8.9032    107.176  36.589113     36.769      8.008   200.5179     2.7174     1.1051     0.0243     -0.000      0.074      0.108        208 3.7317e+02 0.0000e+00
      0.076    24.7427     8.9287    107.416  36.596470     36.770      8.009   200.7451     2.7133     1.1453     0.0243      0.000      0.074      0.108        209 3.4352e+02 0.0000e+00
      0.076    24.7407     8.9720    107.896  36.664003     36.857      8.009   200.8208     2.7901     1.2931     0.0243      0.000      0.074      0.108        210 3.1058e+02 0.0000e+00
      0.076    24.7398     9.0065    108.313  36.683025     36.859      8.008   201.1993     2.7861     1.2528     0.0243      0.000      0.074      0.108        211 2.8178e+02 0.0000e+00
      0.076    24.7417     9.0249    108.560  36.661777     36.860      8.010   204.0008     2.7821     1.2662     0.0243      0.000      0.074      0.108        212 2.5613e+02 0.0000e+00
      0.076    24.7435     9.0457    108.823  36.601469     36.777      8.007   203.0922     2.7901     1.2931     0.0243      0.000      0.074      0.108        213 2.3230e+02 0.0000e+00
      0.077    24.7434     9.0648    109.055  36.580122     36.775      8.009   203.3194     2.7901     1.3065     0.0243      0.000      0.074      0.108        214 2.1761e+02 0.0000e+00
      0.076    24.7424     9.0757    109.189  36.599365     36.774      8.004   203.5465     2.7780     1.2662     0.0243      0.000      0.074      0.108        215 2.0782e+02 0.0000e+00
      0.076    24.7402     9.0592    108.997  36.577519     36.774      8.010   201.8051     2.7821     1.2125     0.0243      0.000      0.074      0.107        216 1.9311e+02 0.0000e+00
      0.076    24.7316     9.0394    108.778  36.547990     36.718      8.006   201.9565     2.7821     1.3199     0.0243     -0.000      0.074      0.107        217 1.9271e+02 0.0000e+00
      0.076    24.7059     9.0262    108.609  36.606456     36.805      8.009   207.4836     2.7982     1.2931     0.0243     -0.000      0.074      0.107        218 1.8460e+02 0.0000e+00
      0.076    24.6724     9.0233    108.542  36.593739     36.782      8.010   206.8401     2.7982     1.3065     0.0243     -0.000      0.074      0.107        219 1.8087e+02 0.0000e+00
      0.076    24.6520     9.0195    108.470  36.534162     36.746      8.008   207.2186     2.7740     1.2662     0.0243     -0.000      0.074      0.107        220 1.8300e+02 0.0000e+00
      0.075    24.6529     9.0101    108.349  36.532314     36.771      8.010   205.2879     2.7901     1.2662     0.0243     -0.000      0.074      0.107        221 1.7680e+02 0.0000e+00
      0.076    24.6652     8.9990    108.221  36.536735     36.786      8.009   205.7044     2.7901     1.2931     0.0243     -0.000      0.075      0.108        222 1.7867e+02 0.0000e+00
      0.076    24.6715     9.0069    108.328  36.587987     36.841      8.011   205.5529     2.8710     1.2931     0.0243      0.000      0.075      0.108        223 1.7320e+02 0.0000e+00
      0.076    24.6732     9.0083    108.357  36.616829     36.860      8.009   207.9001     2.8912     1.3333     0.0243      0.000      0.075      0.108        224 1.7305e+02 0.0000e+00
      0.076    24.6743     9.0129    108.426  36.589816     36.827      8.008   208.3922     2.8508     1.2393     0.0243      0.000      0.075      0.108        225 1.7339e+02 0.0000e+00
      0.076    24.6785     9.0157    108.475  36.591941     36.826      8.011   208.5058     2.8589     1.3199     0.0243      0.000      0.074      0.108        226 1.6874e+02 0.0000e+00
      0.076    24.6863     8.9984    108.272  36.584524     36.825      8.008   208.3165     2.8427     1.0379     0.0243      0.000      0.074      0.108        227 1.7005e+02 0.0000e+00
      0.076    24.6822     8.9631    107.835  36.539728     36.766      8.008   208.2408     2.8387     1.1051     0.0243     -0.000      0.074      0.108        228 1.6621e+02 0.0000e+00
      0.076    24.6665     8.9302    107.414  36.558709     36.788      8.008   206.1208     2.8508     1.0916     0.0243     -0.000      0.074      0.108        229 1.6636e+02 0.0000e+00
      0.077    24.6534     8.9103    107.144  36.531241     36.763      8.009   208.3544     2.8589     1.0648     0.0243     -0.000      0.075      0.108        230 1.6665e+02 0.0000e+00
      0.076    24.6490     8.8911    106.892  36.484935     36.718      8.009   208.3165     2.8548     1.0514     0.0243      0.000      0.075      0.108        231 1.6421e+02 0.0000e+00
      0.076    24.6522     8.8921    106.886  36.468045     36.728      8.009   209.2629     2.8589     1.0379     0.0243      0.000      0.075      0.108        232 1.6741e+02 0.0000e+00
      0.076    24.6578     8.9064    107.040  36.433630     36.675      8.013   209.3008     2.8346     1.0379     0.0242      0.000      0.075      0.108        233 1.6870e+02 0.0000e+00
      0.077    24.6635     8.9335    107.365  36.468448     36.729      8.011   209.1115     2.8508     1.0379     0.0243      0.000      0.075      0.108        234 1.6985e+02 0.0000e+00
      0.076    24.6706     8.9565    107.636  36.513691     36.753      8.012   204.5686     2.9115     1.3199     0.0243      0.000      0.075      0.108        235 1.7306e+02 0.0000e+00
      0.076    24.6782     8.9650    107.710  36.525620     36.777      8.010   206.4615     2.9115     1.3468     0.0243      0.000      0.075      0.108        236 1.7834e+02 0.0000e+00
      0.076    24.6809     8.9663    107.690  36.483260     36.715      8.011   206.4236     2.9115     1.2662     0.0243     -0.000      0.075      0.108        237 1.8747e+02 0.0000e+00
      0.076    24.6749     8.9779    107.790  36.418109     36.653      8.011   206.6508     2.9074     1.2931     0.0242     -0.000      0.075      0.108        238 1.9274e+02 0.0000e+00
      0.076    24.6616     8.9772    107.745  36.428741     36.651      8.012   209.2629     2.9034     1.3199     0.0242     -0.000      0.075      0.108        239 2.0408e+02 0.0000e+00
      0.077    24.6471     8.9827    107.788  36.440368     36.684      8.012   205.1744     2.9802     1.2796     0.0243     -0.000      0.075      0.108        240 2.1989e+02 0.0000e+00
      0.076    24.6362     8.9937    107.913  36.433301     36.666      8.013   204.9851     2.9681     1.3871     0.0242     -0.000      0.075      0.108        241 2.3606e+02 0.0000e+00
      0.076    24.6265     9.0172    108.194  36.407883     36.677      8.011   204.9094     3.0004     1.3333     0.0242     -0.000      0.074      0.108        242 2.5560e+02 0.0000e+00
      0.076    24.6181     9.0248    108.282  36.383031     36.628      8.011   204.7579     2.9802     1.2393     0.0242 1.0577e-12      0.074      0.108        243 2.7724e+02 0.0000e+00
      0.076    24.6175     9.0339    108.392  36.345599     36.635      8.011   206.4994     2.9964     1.3871     0.0242     -0.000      0.074      0.108        244 2.9832e+02 0.0000e+00
      0.076    24.6147     9.0368    108.432  36.335836     36.586      8.010   206.4994     2.9964     1.3602     0.0242     -0.000      0.074      0.108        245 3.0479e+02 0.0000e+00
      0.076    24.6009     9.0366    108.430  36.365525     36.670      8.011   206.7644     3.0004     1.3333     0.0242     -0.000      0.075      0.108        246 3.2919e+02 0.0000e+00
      0.076    24.5824     9.0410    108.477  36.278992     36.531      8.013   205.7801     2.9842     1.2259     0.0242      0.000      0.075      0.108        247 3.4595e+02 0.0000e+00
      0.076    24.5629     9.0425    108.484  36.235915     36.542      8.013   205.8936     3.0166     1.2662     0.0242     -0.000      0.075      0.108        248 3.5355e+02 0.0000e+00
      0.076    24.5450     9.0374    108.410  36.211529     36.499      8.014   205.8558     3.0328     1.2931     0.0242      0.000      0.075      0.108        249 3.8877e+02 0.0000e+00
      0.076    24.5333     9.0290    108.313  36.190714     36.513      8.013   205.7801     3.0489     1.2662     0.0242      0.000      0.075      0.108        250 3.9334e+02 0.0000e+00
      0.076    24.5298     9.0175    108.180  36.261828     36.583      8.014   205.5529     3.0489     1.2796     0.0242      0.000      0.075      0.108        251 4.2202e+02 0.0000e+00
      0.076    24.5291     9.0176    108.163  36.330647     36.676      8.011   210.1715     3.1055     1.3065     0.0242      0.000      0.075      0.108        252 4.5446e+02 0.0000e+00
      0.076    24.5276     9.0075    108.030  36.312687     36.651      8.010   209.2629     3.1298     1.2528     0.0242      0.000      0.075      0.108        253 4.5752e+02 0.0000e+00
      0.077    24.5283     9.0133    108.084  36.254524     36.595      8.009   209.5279     3.1379     1.3065     0.0242      0.000      0.075      0.108        254 4.9871e+02 0.0000e+00
      0.076    24.5307     9.0137    108.070  36.254736     36.596      8.010   207.2944     3.0853     1.3065     0.0242      0.000      0.075      0.108        255 5.1221e+02 0.0000e+00
      0.077    24.5308     9.0173    108.099  36.253105     36.595      8.006   207.8244     3.0611     1.2393     0.0242      0.000      0.075      0.108        256 5.3825e+02 0.0000e+00
      0.076    24.5280     9.0220    108.147  36.286214     36.622      8.005   212.3672     3.0530     1.2796     0.0242      0.000      0.075      0.108        257 5.7651e+02 0.0000e+00
      0.076    24.5221     9.0243    108.171  36.302511     36.650      8.003   212.3672     3.0287     1.2393     0.0242     -0.000      0.075      0.108        258 5.8512e+02 0.0000e+00
      0.076    24.5160     9.0131    108.031  36.262483     36.595      8.002   211.5344     3.0570     1.2528     0.0242     -0.000      0.074      0.108        259 6.1347e+02 0.0000e+00
      0.076    24.5184     9.0052    107.932  36.247052     36.600      8.002   211.9887     3.0409     1.2393     0.0242     -0.000      0.074      0.108        260 6.1487e+02 0.0000e+00
      0.076    24.5199     9.0037    107.915  36.262400     36.604      8.001   210.3987     3.0489     1.2931     0.0242     -0.000      0.075      0.108        261 6.1527e+02 0.0000e+00
      0.077    24.5118     9.0089    107.979  36.302702     36.659      7.999   211.2694     3.0489     1.3199     0.0242     -0.000      0.075      0.109        262 6.1395e+02 0.0000e+00
      0.077    24.5053     9.0157    108.042  36.285872     36.629      7.999   212.3294     3.0489     1.2393     0.0242      0.000      0.075      0.109        263 5.9869e+02 0.0000e+00
      0.076    24.4981     9.0246    108.128  36.194369     36.551      8.000   212.8215     3.0530     1.2662     0.0242      0.000      0.075      0.108        264 5.9413e+02 0.0000e+00
      0.076    24.4882     9.0269    108.148  36.208968     36.555      8.002   212.8594     3.1136     1.2528     0.0242      0.000      0.075      0.108        265 5.7250e+02 0.0000e+00
      0.077    24.4813     9.0317    108.203  36.178730     36.561      8.001   213.4272     3.1055     1.2125     0.0242      0.000      0.075      0.109        266 5.4937e+02 0.0000e+00
      0.077    24.4774     9.0315    108.195  36.143028     36.484      8.001   212.8594     3.1136     1.3871     0.0241      0.000      0.075      0.109        267 5.3746e+02 0.0000e+00
      0.076    24.4751     9.0244    108.097  36.164428     36.573      8.002   213.0865     3.1096     1.2528     0.0242      0.000      0.075      0.109        268 5.1135e+02 0.0000e+00
      0.077    24.4729     9.0205    108.042  36.152101     36.492      8.000   210.7772     3.1096     1.2662     0.0241     -0.000      0.075      0.109        269 4.9077e+02 0.0000e+00
      0.077    24.4708     9.0195    108.031  36.158371     36.578      8.000   211.7615     3.1177     1.3065     0.0242     -0.000      0.075      0.109        270 4.8172e+02 0.0000e+00
      0.076    24.4715     9.0203    108.033  36.097310     36.439      8.000   212.0644     3.1177     1.2393     0.0241      0.000      0.075      0.109        271 4.5968e+02 0.0000e+00
      0.077    24.4711     9.0272    108.099  36.079799     36.497      8.001   213.6922     3.1258     1.2393     0.0241      0.000      0.075      0.109        272 4.5959e+02 0.0000e+00
      0.076    24.4627     9.0217    108.015  36.091188     36.440      7.994   213.6544     3.1541     1.2931     0.0241      0.000      0.075      0.108        273 4.3463e+02 0.0000e+00
      0.076    24.4527     9.0191    107.969  36.142453     36.553      7.994   208.7708     3.1015     1.3333     0.0242     -0.000      0.075      0.108        274 4.2856e+02 0.0000e+00
      0.076    24.4487     9.0074    107.817  36.134636     36.503      7.991   209.5279     3.1500     1.3871     0.0241     -0.000      0.075      0.108        275 4.2730e+02 0.0000e+00
      0.076    24.4476     9.0083    107.817  36.100920     36.510      7.989   209.3387     3.1015     1.2796     0.0241     -0.000      0.075      0.108        276 3.9270e+02 0.0000e+00
      0.076    24.4443     8.9971    107.674  36.125097     36.513      7.986   211.7237     3.1702     1.2662     0.0241     -0.000      0.075      0.108        277 3.9080e+02 0.0000e+00
      0.077    24.4379     8.9917    107.602  36.104549     36.514      7.985   211.6858     3.1783     1.2662     0.0241     -0.000      0.075      0.109        278 3.7349e+02 0.0000e+00
      0.077    24.4338     8.9933    107.615  36.067177     36.460      7.987   211.7994     3.1864     1.3602     0.0241      0.000      0.075      0.109        279 3.5796e+02 0.0000e+00
      0.077    24.4339     8.9910    107.584  36.052973     36.464      7.984   209.3387     3.1702     1.3199     0.0241      0.000      0.075      0.109        280 3.4169e+02 0.0000e+00
      0.076    24.4306     8.9971    107.656  36.062911     36.467      7.984   208.9979     3.1702     1.2528     0.0241      0.000      0.075      0.108        281 3.1010e+02 0.0000e+00
      0.076    24.4224     9.0013    107.711  35.995496     36.411      7.985   209.3765     3.1096     1.3468     0.0241      0.000      0.075      0.108        282 2.9738e+02 0.0000e+00
      0.077    24.4134     9.0069    107.784  36.018237     36.413      7.982   209.6415     3.1298     1.3333     0.0241      0.000      0.075      0.109        283 2.8763e+02 0.0000e+00
      0.077    24.4060     9.0108    107.832  36.034612     36.476      7.985   209.9822     3.0934     1.3333     0.0241      0.000      0.075      0.109        284 2.7237e+02 0.0000e+00
      0.076    24.4000     9.0112    107.838  35.975121     36.369      7.984   209.8687     3.1136     1.2796     0.0241      0.000      0.075      0.108        285 2.6397e+02 0.0000e+00
      0.076    24.3946     9.0185    107.930  36.032960     36.488      7.985   212.2915     3.1743     1.2125     0.0241     -0.000      0.074      0.108        286 2.5355e+02 0.0000e+00
      0.076    24.3903     9.0172    107.921  36.021954     36.436      7.983   210.5879     3.1864     1.2931     0.0241     -0.000      0.074      0.108        287 2.5459e+02 0.0000e+00
      0.076    24.3866     8.9994    107.711  35.988820     36.440      7.983   210.6637     3.1824     1.2528     0.0241     -0.000      0.075      0.108        288 2.5577e+02 0.0000e+00
      0.077    24.3832     8.9971    107.685  36.014879     36.443      7.980   209.9444     3.1824     1.2125     0.0241     -0.000      0.075      0.109        289 2.5286e+02 0.0000e+00
      0.077    24.3813     8.9957    107.669  36.048843     36.502      7.978   210.1715     3.1258     1.2259     0.0241      0.000      0.075      0.109        290 2.6403e+02 0.0000e+00
      0.077    24.3811     8.9957    107.677  36.065187     36.505      7.976   214.3358     3.1096     1.2931     0.0241      0.000      0.075      0.109        291 2.5836e+02 0.0000e+00
      0.077    24.3832     8.9858    107.571  36.053857     36.506      7.973   213.8815     3.1055     1.2125     0.0241      0.000      0.075      0.109        292 2.6123e+02 0.0000e+00
      0.077    24.3862     8.9864    107.586  36.003628     36.450      7.969   213.6544     3.0894     1.2662     0.0241      0.001      0.075      0.109        293 2.7083e+02 0.0000e+00
      0.077    24.3873     8.9965    107.707  36.009064     36.448      7.971   213.8815     3.2269     1.3333     0.0241      0.001      0.075      0.109        294 2.7456e+02 0.0000e+00
      0.077    24.3879     9.0216    108.003  36.047091     36.502      7.965   211.9508     3.2349     1.2931     0.0241      0.000      0.075      0.109        295 2.8213e+02 0.0000e+00
      0.077    24.3901     9.0343    108.152  36.015619     36.445      7.963   211.7615     3.2269     1.3602     0.0241      0.000      0.075      0.109        296 2.8293e+02 0.0000e+00
      0.077    24.3933     9.0286    108.082  36.048230     36.501      7.962   215.7744     3.2511     1.2796     0.0241     -0.000      0.075      0.109        297 2.9723e+02 0.0000e+00
      0.077    24.3953     9.0089    107.841  36.006507     36.443      7.964   216.0015     3.1096     1.3199     0.0241     -0.000      0.075      0.109        298 3.0022e+02 0.0000e+00
      0.077    24.3955     8.9890    107.593  35.948907     36.384      7.964   216.1151     3.1298     1.2125     0.0241     -0.000      0.075      0.109        299 3.0825e+02 0.0000e+00
      0.077    24.3960     8.9903    107.600  36.001276     36.439      7.963   214.7522     3.1177     1.2393     0.0241     -0.000      0.075      0.109        300 3.1472e+02 0.0000e+00
      0.077    24.4002     8.9947    107.647  36.000650     36.439      7.964   214.9415     3.0934     1.3333     0.0241     -0.000      0.075      0.109        301 3.1231e+02 0.0000e+00
      0.077    24.4060     9.0044    107.758  36.009003     36.439      7.964   213.7680     3.1460     1.2796     0.0241      0.000      0.075      0.109        302 3.2359e+02 0.0000e+00
      0.077    24.4098     9.0080    107.799  36.050197     36.492      7.962   215.0172     3.2592     1.3333     0.0241      0.000      0.075      0.109        303 3.2775e+02 0.0000e+00
      0.077    24.4101     9.0081    107.795  36.008700     36.431      7.962   216.0394     3.2430     1.2393     0.0241      0.000      0.075      0.109        304 3.2877e+02 0.0000e+00
      0.077    24.4081     9.0050    107.753  36.001328     36.428      7.958   215.6230     3.2471     1.3065     0.0241     -0.000      0.075      0.109        305 3.3661e+02 0.0000e+00
      0.077    24.4063     9.0055    107.754  36.000053     36.428      7.961   216.6072     3.2592     1.2528     0.0241     -0.000      0.075      0.109        306 3.5237e+02 0.0000e+00
      0.077    24.4053     9.0059    107.753  36.010285     36.430      7.958   216.7587     3.3279     1.2662     0.0241      0.000      0.075      0.109        307 3.5339e+02 0.0000e+00
      0.077    24.4025     8.9920    107.587  36.047912     36.488      7.956   212.4808     3.2875     1.4005     0.0241      0.000      0.075      0.109        308 3.6529e+02 0.0000e+00
      0.077    24.3981     8.9862    107.524  36.012546     36.432      7.953   213.5408     3.3239     1.2125     0.0241      0.000      0.075      0.109        309 3.8235e+02 0.0000e+00
      0.077    24.3939     8.9814    107.464  35.994982     36.434      7.949   213.7680     3.2835     1.2259     0.0241      0.000      0.075      0.109        310 3.8834e+02 0.0000e+00
      0.077    24.3908     8.9869    107.517  36.010454     36.437      7.947   215.9258     3.3765     1.4139     0.0241      0.000      0.075      0.109        311 4.0357e+02 0.0000e+00
      0.077    24.3886     9.0020    107.663  35.993293     36.440      7.947   215.4715     3.3967     1.2662     0.0241     -0.000      0.075      0.109        312 4.0887e+02 0.0000e+00
      0.077    24.3868     9.0181    107.826  36.016340     36.442      7.941   215.9258     3.3724     1.2796     0.0241     -0.000      0.075      0.109        313 4.1401e+02 0.0000e+00
      0.077    24.3849     9.0193    107.839  36.041089     36.501      7.940   211.6479     3.4007     1.3065     0.0241     -0.000      0.075      0.109        314 4.4105e+02 0.0000e+00
      0.077    24.3825     9.0120    107.770  36.021811     36.445      7.938   212.3294     3.3724     1.3602     0.0241     -0.000      0.075      0.109        315 4.1063e+02 0.0000e+00
      0.077    24.3798     9.0303    108.013  35.981017     36.447      7.938   212.4429     3.3684     1.3602     0.0241     -0.000      0.075      0.109        316 4.3639e+02 0.0000e+00
      0.077    24.3770     9.0504    108.264  35.973224     36.392      7.936   212.2537     3.3765     1.4139     0.0241     -0.000      0.075      0.109        317 4.1379e+02 0.0000e+00
      0.077    24.3776     9.0632    108.380  35.972194     36.451      7.935   214.0330     3.3724     1.2796     0.0241      0.000      0.076      0.110        318 4.2977e+02 0.0000e+00
      0.078    24.3802     9.0719    108.424  35.982302     36.396      7.939   214.7144     3.3724     1.2796     0.0241      0.000      0.078      0.112        319 4.6394e+02 0.0000e+00
      0.081    24.3793     9.0792    108.457  36.019963     36.509      7.947   211.7994     3.3563     1.1856     0.0241      0.001      0.083      0.121        320 7.9742e+02 0.0000e+00
      0.097    24.3720     9.0847    108.481  35.925326     36.337      7.956   211.0801     3.3563     1.3468     0.0240      0.006      0.094      0.136        321 9.9567e+02 0.0000e+00
      0.110    24.3552     9.0971    108.589  35.922125     36.395      7.871   210.5879     3.3846     1.2796     0.0241      0.013      0.104      0.151        322 8.1266e+02 0.0000e+00
      0.112    24.3407     9.1107    108.709  35.905313     36.343      7.831   210.6637     3.3724     1.2259     0.0240      0.019      0.109      0.158        323 1.0586e+03 0.0000e+00
      0.113    24.3402     9.1159    108.744  35.886936     36.356      7.823   210.5879     3.4614     1.2662     0.0240      0.022      0.111      0.160        324 1.1804e+03 0.0000e+00
      0.114    24.3489     9.1037    108.579  35.945000     36.423      7.827   213.6922     3.4290     1.2259     0.0241      0.023      0.112      0.162        325 1.1405e+03 0.0000e+00
      0.116    24.3614     9.0857    108.359  35.892374     36.367      7.835   212.2915     3.4533     1.2393     0.0240      0.022      0.115      0.166        326 1.3539e+03 0.0000e+00
      0.121    24.3657     9.0602    108.056  35.893113     36.360      7.848   211.7994     3.4371     1.3065     0.0240      0.020      0.121      0.176        327 9.9193e+02 0.0000e+00
      0.135    24.3479     9.0354    107.724  35.884762     36.351      7.852   210.3608     3.4210     1.3199     0.0240      0.020      0.132      0.191        328 7.8216e+02 0.0000e+00
      0.146    24.3181     9.0216    107.520  35.843446     36.291      7.860   207.9001     3.4129     1.2931     0.0240      0.019      0.144      0.209        329 1.4826e+03 0.0000e+00
      0.159    24.2916     9.0218    107.510  35.885212     36.361      7.875   207.4836     3.4776     1.2796     0.0240      0.023      0.157      0.228        330 1.2995e+03 0.0000e+00
      0.174    24.2708     9.0258    107.569  35.862451     36.355      7.899   212.1022     3.4290     1.3333     0.0240      0.031      0.172      0.249        331 6.3548e+02 0.0000e+00
      0.191    24.2506     9.0186    107.484  35.782812     36.289      7.933   211.2315     3.6393     1.3871     0.0240      0.040      0.187      0.271        332 8.4406e+02 0.0000e+00
      0.205    24.2304     8.9988    107.239  35.776728     36.304      7.949   211.7994     3.6555     1.3333     0.0240      0.047      0.199      0.289        333 1.2503e+03 0.0000e+00
      0.211    24.2168     8.9676    106.851  35.781058     36.319      7.959   209.9065     3.6150     1.2125     0.0240      0.051      0.207      0.300        334 1.0347e+03 0.0000e+00
      0.218    24.2071     8.9499    106.616  35.777434     36.334      7.978   210.2851     3.6312     1.2393     0.0240      0.050      0.213      0.310        335 8.7406e+02 0.0000e+00
      0.224    24.2050     8.9457    106.541  35.781248     36.344      7.994   210.7394     3.6959     1.2796     0.0240      0.046      0.220      0.320        336 1.0648e+03 0.0000e+00
      0.232    24.2039     8.9494    106.576  35.805977     36.380      8.011   211.7994     3.6919     1.2125     0.0240      0.042      0.228      0.332        337 1.1415e+03 0.0000e+00
      0.244    24.1875     8.9553    106.643  35.776321     36.353      8.025   212.6322     3.6919     1.1722     0.0240      0.038      0.238      0.345        338 9.3872e+02 0.0000e+00
      0.252    24.1675     8.9756    106.879  35.729181     36.296      8.039   212.5944     3.6919     1.2662     0.0240      0.035      0.246      0.357        339 8.8034e+02 0.0000e+00
      0.257    24.1614     8.9893    107.020  35.716355     36.309      8.040   212.7079     3.6838     1.3736     0.0240      0.032      0.251      0.364        340 1.0453e+03 0.0000e+00
      0.259    24.1660     8.9942    107.038  35.732974     36.324      8.038   212.8594     3.6757     1.3333     0.0240      0.029      0.254      0.367        341 9.6773e+02 0.0000e+00
      0.259    24.1669     9.0001    107.063  35.738165     36.357      8.042   210.8908     3.7161     1.2931     0.0240      0.026      0.255      0.370        342 9.5283e+02 0.0000e+00
      0.262    24.1620     8.9813    106.801  35.739556     36.325      8.047   212.5944     3.6757     1.3468     0.0240      0.023      0.257      0.374        343 1.0404e+03 0.0000e+00
      0.267    24.1544     8.9590    106.510  35.701583     36.324      8.054   212.7458     3.6757     1.2796     0.0240      0.020      0.262      0.380        344 1.0096e+03 0.0000e+00
      0.271    24.1422     8.9383    106.250  35.666790     36.242      8.058   211.9508     3.6474     1.3065     0.0239      0.016      0.268      0.389        345 9.3633e+02 0.0000e+00
      0.282    24.1300     8.9075    105.872  35.693884     36.334      8.074   212.5187     3.6393     1.2931     0.0240      0.015      0.278      0.403        346 9.9690e+02 0.0000e+00
      0.295    24.1250     8.8884    105.627  35.667869     36.257      8.084   212.5187     3.6191     1.1991     0.0239      0.018      0.289      0.420        347 1.0333e+03 0.0000e+00
      0.306    24.1237     8.8794    105.500  35.728828     36.380      8.096   209.1115     3.6514     1.2528     0.0240      0.024      0.303      0.440        348 9.2236e+02 0.0000e+00
      0.327    24.1203     8.8823    105.522  35.736659     36.355      8.109   209.5658     3.6797     1.2259     0.0240      0.032      0.322      0.468        349 8.4173e+02 0.0000e+00
      0.353    24.1096     8.8841    105.536  35.717444     36.356      8.113   209.9065     3.7000     1.2796     0.0240      0.044      0.345      0.501        350 7.6623e+02 0.0000e+00
      0.375    24.0895     8.8789    105.469  35.723085     36.359      8.112   210.0579     3.7202     1.2528     0.0240      0.055      0.368      0.533        351 6.6600e+02 0.0000e+00
      0.396    24.0669     8.8714    105.375  35.640666     36.281      8.107   211.9508     3.6757     1.2528     0.0239      0.065      0.388      0.562        352 7.0790e+02 0.0000e+00
      0.415    24.0479     8.8606    105.234  35.642070     36.296      8.099   212.9351     3.7525     1.3602     0.0239      0.073      0.405      0.587        353 8.3004e+02 0.0000e+00
      0.427    24.0350     8.8575    105.177  35.632373     36.313      8.069   210.3608     3.7647     1.3065     0.0239      0.076      0.417      0.604        354 9.1313e+02 0.0000e+00
      0.432    24.0276     8.8482    105.050  35.593428     36.270      8.054   210.7394     3.7687     1.3871     0.0239      0.074      0.427      0.619        355 7.6005e+02 0.0000e+00
      0.447    24.0215     8.8447    104.997  35.631231     36.337      8.054   211.4587     3.7930     1.3065     0.0239      0.070      0.441      0.640        356 6.2823e+02 0.0000e+00
      0.471    24.0125     8.8512    105.063  35.644650     36.342      8.059   212.9351     3.8011     1.3065     0.0239      0.066      0.461      0.669        357 6.1729e+02 0.0000e+00
      0.492    24.0025     8.8437    104.962  35.636048     36.347      8.058   214.1465     3.8334     1.2528     0.0239      0.063      0.479      0.695        358 7.1140e+02 0.0000e+00
      0.501    23.9959     8.8194    104.665  35.641940     36.353      8.038   214.3737     3.8374     1.2662     0.0239      0.060      0.490      0.711        359 8.2398e+02 0.0000e+00
      0.507    23.9925     8.7873    104.275  35.578005     36.304      8.031   214.3737     3.8253     1.2528     0.0239      0.057      0.501      0.726        360 6.8092e+02 0.0000e+00
      0.525    23.9898     8.7447    103.752  35.537672     36.252      8.040   215.1687     3.9466     1.2796     0.0239      0.056      0.517      0.750        361 6.4551e+02 0.0000e+00
      0.550    23.9867     8.6979    103.181  35.632823     36.368      8.041   215.0172     3.9305     1.1991     0.0239      0.060      0.540      0.784        362 6.3460e+02 0.0000e+00
      0.578    23.9802     8.6623    102.747  35.637541     36.370      8.039   215.5094     3.9628     1.2931     0.0239      0.066      0.567      0.823        363 6.1716e+02 0.0000e+00
      0.608    23.9704     8.6403    102.475  35.591118     36.315      8.037   216.1151     3.9588     1.2662     0.0239      0.072      0.594      0.862        364 6.1180e+02 0.0000e+00
      0.631    23.9619     8.6458    102.526  35.631282     36.377      8.025   219.2573     4.3348     1.2931     0.0239      0.078      0.615      0.893        365 5.5679e+02 0.0000e+00
      0.641    23.9558     8.6658    102.739  35.587561     36.328      8.013   218.3865     4.3348     1.2528     0.0239      0.081      0.630      0.914        366 5.7623e+02 0.0000e+00
      0.655    23.9504     8.6840    102.929  35.526900     36.277      8.018   218.6515     4.3348     1.3065     0.0239      0.084      0.645      0.936        367 5.5759e+02 0.0000e+00
      0.679    23.9446     8.7029    103.136  35.588146     36.338      8.025   218.1973     4.3429     1.2662     0.0239      0.086      0.666      0.967        368 5.3739e+02 0.0000e+00
      0.704    23.9398     8.7210    103.334  35.570661     36.342      8.031   218.5380     4.3348     1.2259     0.0239      0.084      0.690      1.001        369 5.1097e+02 0.0000e+00
      0.726    23.9348     8.7398    103.543  35.548663     36.290      8.036   218.9923     4.7230     1.2796     0.0239      0.082      0.711      1.032        370 4.8555e+02 0.0000e+00
      0.748    23.9265     8.7566    103.730  35.615524     36.407      8.034   221.2258     4.7149     1.2931     0.0239      0.080      0.729      1.058        371 4.6237e+02 0.0000e+00
      0.758    23.9180     8.7655    103.824  35.546772     36.297      8.022   221.1123     4.7109     1.2393     0.0239      0.076      0.742      1.076        372 4.5808e+02 0.0000e+00
      0.763    23.9121     8.7587    103.733  35.515596     36.303      8.022   220.9230     4.7068     1.1991     0.0239      0.073      0.753      1.092        373 4.3990e+02 0.0000e+00
      0.783    23.9068     8.7549    103.675  35.476380     36.252      8.027   221.2258     4.7917     1.2931     0.0239      0.072      0.772      1.120        374 4.1985e+02 0.0000e+00
      0.816    23.8987     8.7588    103.709  35.476950     36.256      8.032   221.1501     4.7594     1.2931     0.0239      0.072      0.802      1.162        375 4.0549e+02 0.0000e+00
      0.853    23.8861     8.7573    103.687  35.574205     36.375      8.030   221.9073     4.7917     1.2662     0.0239      0.076      0.835      1.210        376 3.6701e+02 0.0000e+00
      0.884    23.8731     8.7392    103.461  35.533297     36.323      8.025   222.3615     4.7554     1.3065     0.0239      0.082      0.864      1.253        377 3.5466e+02 0.0000e+00
      0.906    23.8638     8.7141    103.154  35.527864     36.333      8.020   222.8158     4.8767     1.3468     0.0239      0.090      0.887      1.287        378 3.4074e+02 0.0000e+00
      0.924    23.8558     8.6833    102.780  35.580971     36.400      8.015   222.3237     4.9171     1.2125     0.0239      0.096      0.906      1.314        379 3.2349e+02 0.0000e+00
      0.941    23.8485     8.6516    102.398  35.585843     36.407      8.008   222.7780     4.9131     1.2796     0.0239      0.100      0.922      1.337        380 3.1131e+02 0.0000e+00
      0.955    23.8422     8.6229    102.051  35.521806     36.356      8.003   222.6644     4.9009     1.2662     0.0239      0.099      0.936      1.358        381 2.9378e+02 0.0000e+00
      0.967    23.8363     8.5873    101.616  35.482721     36.304      8.001   223.0051     5.0222     1.2393     0.0239      0.090      0.949      1.378        382 2.7593e+02 0.0000e+00
      0.982    23.8310     8.5560    101.225  35.515857     36.366      8.001   222.5887     5.0384     1.3333     0.0239      0.077      0.963      1.398        383 2.6596e+02 0.0000e+00
      0.998    23.8242     8.5279    100.874  35.480574     36.313      8.002   222.7401     5.0020     1.3333     0.0239      0.067      0.979      1.421        384 2.6090e+02 0.0000e+00
      1.016    23.8184     8.5114    100.671  35.467319     36.317      7.997   222.9673     5.0182     1.2393     0.0239      0.062      0.998      1.448        385 2.5687e+02 0.0000e+00
      1.041    23.8153     8.5093    100.639  35.473041     36.322      7.989   223.1566     5.0020     1.3602     0.0239      0.062      1.022      1.483        386 2.5401e+02 0.0000e+00
      1.070    23.8102     8.5084    100.622  35.473457     36.326      7.974   223.6108     4.8888     1.2796     0.0239      0.068      1.049      1.522        387 2.5170e+02 0.0000e+00
      1.099    23.8046     8.5006    100.511  35.526118     36.385      7.963   224.8601     4.9050     1.2796     0.0239      0.076      1.077      1.562        388 2.5166e+02 0.0000e+00
      1.126    23.7999     8.4972    100.446  35.526139     36.390      7.953   225.2766     4.9131     1.2528     0.0239      0.085      1.101      1.597        389 2.5639e+02 0.0000e+00
      1.144    23.7963     8.5107    100.592  35.473434     36.336      7.942   225.2387     4.8928     1.2393     0.0239      0.091      1.121      1.626        390 2.6384e+02 0.0000e+00
      1.158    23.7928     8.5299    100.811  35.473079     36.340      7.940   224.7844     5.0788     1.2125     0.0239      0.093      1.140      1.654        391 2.6439e+02 0.0000e+00
      1.188    23.7854     8.5509    101.052  35.467268     36.343      7.939   225.5794     5.1112     1.3065     0.0239      0.095      1.168      1.694        392 2.6078e+02 0.0000e+00
      1.229    23.7744     8.5644    101.206  35.421352     36.288      7.929   225.9201     5.0748     1.2125     0.0239      0.099      1.201      1.742        393 2.5459e+02 0.0000e+00
      1.256    23.7653     8.5569    101.111  35.411592     36.293      7.918   227.1694     5.0869     1.3065     0.0239      0.101      1.227      1.780        394 2.5372e+02 0.0000e+00
      1.268    23.7605     8.5456    100.972  35.420103     36.301      7.909   227.5101     5.4347     1.1856     0.0239      0.099      1.243      1.803        395 2.5803e+02 0.0000e+00
      1.280    23.7571     8.5353    100.848  35.410764     36.309      7.908   227.6994     5.4792     1.2662     0.0239      0.094      1.257      1.823        396 2.5483e+02 0.0000e+00
      1.299    23.7530     8.5144    100.602  35.423219     36.312      7.903   227.9644     5.4792     1.2662     0.0239      0.091      1.274      1.847        397 2.5201e+02 0.0000e+00
      1.319    23.7434     8.4810    100.208  35.404608     36.315      7.899   228.3430     5.4711     1.2796     0.0239      0.088      1.293      1.874        398 2.4944e+02 0.0000e+00
      1.336    23.7306     8.4506     99.846  35.374613     36.260      7.895   227.2073     5.6571     1.2528     0.0238      0.083      1.311      1.900        399 2.4454e+02 0.0000e+00
      1.355    23.7229     8.4120     99.391  35.401234     36.325      7.891   228.7594     5.6450     1.2259     0.0239      0.075      1.327      1.925        400 2.4314e+02 0.0000e+00
      1.369    23.7188     8.3871     99.093  35.371483     36.277      7.884   228.9109     5.6652     1.2662     0.0238      0.067      1.341      1.945        401 2.4178e+02 0.0000e+00
      1.378    23.7151     8.3941     99.169  35.352328     36.283      7.881   228.7973     5.6247     1.1991     0.0238      0.064      1.353      1.963        402 2.3936e+02 0.0000e+00
      1.393    23.7122     8.3771     98.960  35.365760     36.286      7.879   229.8194     6.0857     1.2931     0.0238      0.064      1.368      1.984        403 2.3673e+02 0.0000e+00
      1.415    23.7088     8.3807     98.994  35.354770     36.288      7.877   229.9330     6.0776     1.2259     0.0238      0.064      1.387      2.012        404 2.3038e+02 0.0000e+00
      1.435    23.7058     8.3772     98.943  35.366007     36.291      7.873   227.3208     6.0978     1.2796     0.0238      0.063      1.405      2.038        405 2.2713e+02 0.0000e+00
      1.448    23.7049     8.3731     98.884  35.351778     36.293      7.864   228.0780     6.0857     1.2125     0.0238      0.063      1.418      2.056        406 2.2848e+02 0.0000e+00
      1.454    23.7055     8.3718     98.861  35.313166     36.238      7.855   227.8887     6.2960     1.3871     0.0238      0.060      1.427      2.070        407 2.2606e+02 0.0000e+00
      1.464    23.7051     8.3916     99.092  35.354745     36.296      7.853   227.7751     6.2758     1.2528     0.0238      0.057      1.437      2.085        408 2.2351e+02 0.0000e+00
      1.478    23.7044     8.4051     99.246  35.359348     36.296      7.853   229.7816     6.2677     1.2393     0.0238      0.056      1.451      2.105        409 2.2112e+02 0.0000e+00
      1.497    23.7044     8.4248     99.475  35.366752     36.296      7.853   229.8194     6.2677     1.2662     0.0238      0.056      1.470      2.132        410 2.1497e+02 0.0000e+00
      1.523    23.7025     8.4530     99.809  35.404847     36.354      7.852   226.5637     6.2717     1.1856     0.0239      0.057      1.491      2.163        411 2.0982e+02 0.0000e+00
      1.541    23.6989     8.4730    100.045  35.371256     36.296      7.846   226.7530     6.5952     1.2528     0.0238      0.058      1.510      2.190        412 2.0692e+02 0.0000e+00
      1.554    23.6944     8.4883    100.220  35.349241     36.298      7.842   226.9801     6.5790     1.2528     0.0238      0.061      1.527      2.216        413 2.0255e+02 0.0000e+00
      1.578    23.6897     8.4903    100.237  35.372930     36.301      7.838   228.4566     6.5790     1.2125     0.0238      0.067      1.552      2.251        414 1.9508e+02 0.0000e+00
      1.615    23.6846     8.4872    100.194  35.401093     36.361      7.829   229.0244     6.5912     1.2662     0.0239      0.077      1.583      2.296        415 1.8614e+02 0.0000e+00
      1.649    23.6790     8.4633     99.897  35.373512     36.307      7.816   229.1001     6.4699     1.5348     0.0238      0.088      1.612      2.337        416 1.8214e+02 0.0000e+00
      1.663    23.6754     8.4523     99.749  35.407258     36.369      7.803   228.6837     6.4739     1.4139     0.0239      0.093      1.628      2.361        417 1.8205e+02 0.0000e+00
      1.667    23.6731     8.4303     99.473  35.418414     36.373      7.795   229.0623     6.4496     1.5348     0.0239      0.090      1.638      2.375        418 1.7945e+02 0.0000e+00
      1.680    23.6705     8.4125     99.243  35.359630     36.318      7.790   228.6837     6.4779     1.5482     0.0238      0.085      1.649      2.392        419 1.7594e+02 0.0000e+00
      1.698    23.6687     8.4069     99.148  35.361786     36.320      7.789   228.5323     7.2988     1.5616     0.0238      0.080      1.664      2.414        420 1.7340e+02 0.0000e+00
      1.713    23.6689     8.3941     98.963  35.415732     36.379      7.788   228.6837     7.2907     1.5079     0.0239      0.075      1.680      2.438        421 1.6929e+02 0.0000e+00
      1.731    23.6692     8.3909     98.898  35.411125     36.380      7.786   232.7344     7.2907     1.5482     0.0239      0.067      1.700      2.466        422 1.6374e+02 0.0000e+00
      1.759    23.6661     8.3843     98.808  35.426836     36.380      7.780   231.2201     7.2826     1.5213     0.0239      0.062      1.724      2.499        423 1.5832e+02 0.0000e+00
      1.781    23.6626     8.3710     98.646  35.396181     36.380      7.774   231.4851     7.7153     1.5348     0.0239      0.064      1.747      2.533        424 1.5325e+02 0.0000e+00
      1.805    23.6589     8.3543     98.441  35.330646     36.268      7.768   232.1287     7.7234     1.4945     0.0238      0.072      1.769      2.566        425 1.4871e+02 0.0000e+00
      1.827    23.6512     8.3242     98.071  35.389764     36.385      7.764   230.7280     7.7355     1.5750     0.0239      0.080      1.789      2.595        426 1.4496e+02 0.0000e+00
      1.842    23.6417     8.2708     97.430  35.441241     36.388      7.756   230.9173     7.7072     1.5616     0.0239      0.083      1.807      2.620        427 1.4162e+02 0.0000e+00
      1.858    23.6324     8.2292     96.932  35.444533     36.451      7.754   234.5894     8.4391     1.4945     0.0239      0.083      1.822      2.641        428 1.3850e+02 0.0000e+00
      1.870    23.6215     8.2004     96.589  35.385671     36.343      7.755   233.7944     8.4512     1.3602     0.0238      0.080      1.837      2.664        429 1.3497e+02 0.0000e+00
      1.891    23.6068     8.1681     96.197  35.395867     36.408      7.753   234.4759     8.4593     1.5616     0.0239      0.076      1.857      2.693        430 1.3023e+02 0.0000e+00
      1.918    23.5887     8.1435     95.896  35.372532     36.358      7.750   234.3623     8.4270     1.4676     0.0238      0.074      1.880      2.727        431 1.2555e+02 0.0000e+00
      1.941    23.5740     8.1287     95.708  35.355400     36.369      7.744   233.5673     8.4270     1.4408     0.0238      0.074      1.903      2.761        432 1.2115e+02 0.0000e+00
      1.964    23.5671     8.1153     95.536  35.417197     36.440      7.740   233.7187     8.3057     1.6153     0.0239      0.076      1.927      2.796        433 1.1681e+02 0.0000e+00
      1.992    23.5643     8.0788     95.093  35.414267     36.452      7.731   234.2866     8.3057     1.4139     0.0239      0.081      1.957      2.838        434 1.1147e+02 0.0000e+00
      2.031    23.5595     8.0182     94.368  35.418368     36.457      7.720   235.1952     8.3259     1.5348     0.0239      0.091      1.992      2.889        435 1.0577e+02 0.0000e+00
      2.071    23.5517     7.9572     93.640  35.471415     36.516      7.709   235.3466     8.2895     1.4945     0.0239      0.104      2.025      2.937        436 1.0316e+02 0.0000e+00
      2.092    23.5445     7.9197     93.188  35.466885     36.520      7.696   235.2709     8.7990     1.6288     0.0239      0.111      2.046      2.968        437 1.0360e+02 0.0000e+00
      2.097    23.5407     7.8830     92.747  35.483322     36.526      7.689   234.8544     8.7950     1.7496     0.0239      0.109      2.059      2.986        438 1.0299e+02 0.0000e+00
      2.113    23.5383     7.8354     92.177  35.510278     36.589      7.692   234.1352     8.8233     1.7630     0.0239      0.103      2.076      3.011        439 1.0001e+02 0.0000e+00
      2.143    23.5324     7.7933     91.672  35.492658     36.534      7.692   234.4002     8.8111     1.7228     0.0239      0.100      2.100      3.046        440 9.8216e+01 0.0000e+00
      2.166    23.5255     7.7550     91.218  35.564568     36.651      7.694   234.3623     8.7950     1.5616     0.0239      0.095      2.125      3.083        441 9.5549e+01 0.0000e+00
      2.194    23.5182     7.7231     90.832  35.539421     36.598      7.691   234.7409     8.8071     1.4810     0.0239      0.090      2.154      3.125        442 9.1005e+01 0.0000e+00
      2.233    23.5101     7.6820     90.316  35.523956     36.603      7.678   235.2709     8.8152     1.5079     0.0239      0.090      2.186      3.171        443 8.8355e+01 0.0000e+00
      2.260    23.5027     7.6232     89.572  35.583817     36.666      7.673   234.8166     8.8030     1.5213     0.0239      0.093      2.214      3.211        444 8.6161e+01 0.0000e+00
      2.280    23.4963     7.5781     88.993  35.642877     36.730      7.665   236.0659     9.1387     1.6422     0.0240      0.100      2.235      3.241        445 8.3574e+01 0.0000e+00
      2.297    23.4906     7.5412     88.515  35.717383     36.822      7.663   235.9902     9.1063     1.7228     0.0240      0.105      2.253      3.267        446 8.2167e+01 0.0000e+00
      2.314    23.4845     7.5004     88.009  35.728363     36.827      7.659   236.1037     9.0901     1.6690     0.0240      0.102      2.270      3.292        447 8.1002e+01 0.0000e+00
      2.332    23.4790     7.4297     87.141  35.718190     36.831      7.653   235.4980     9.0861     1.5750     0.0240      0.095      2.287      3.316        448 7.9166e+01 0.0000e+00
      2.347    23.4733     7.3095     85.679  35.730045     36.836      7.650   235.5737     8.9163     1.7228     0.0240      0.087      2.302      3.338        449 7.7840e+01 0.0000e+00
      2.362    23.4684     7.1367     83.597  35.832244     36.955      7.645   235.6116     8.9082     1.6825     0.0240      0.078      2.319      3.363        450 7.6194e+01 0.0000e+00
      2.385    23.4658     6.9421     81.267  35.798616     36.931      7.639   236.8987     8.9527     1.6556     0.0240      0.071      2.342      3.396        451 7.3353e+01 0.0000e+00
      2.417    23.4597     6.7277     78.692  35.653265     36.762      7.630   237.4287     8.9203     1.6556     0.0240      0.072      2.368      3.436        452 7.0733e+01 0.0000e+00
      2.442    23.4397     6.4990     75.961  35.775869     36.907      7.622   238.1102     8.9203     1.6556     0.0240      0.077      2.393      3.471        453 6.9331e+01 0.0000e+00
      2.461    23.4096     6.2749     73.311  35.942623     37.085      7.615   238.2237     9.1306     1.7630     0.0241      0.081      2.412      3.499        454 6.8143e+01 0.0000e+00
      2.477    23.3795     6.0410     70.573  36.068571     37.216      7.609   238.0723     9.1387     1.6959     0.0241      0.084      2.429      3.523        455 6.6619e+01 0.0000e+00
      2.494    23.3541     5.7489     67.151  36.212308     37.413      7.603   236.5202     9.1144     1.7362     0.0242      0.084      2.446      3.547        456 6.5277e+01 0.0000e+00
      2.510    23.3359     5.4072     63.166  36.267956     37.464      7.601   237.1259     9.1225     1.6422     0.0242      0.083      2.461      3.570        457 6.4230e+01 0.0000e+00
      2.526    23.3134     5.0185     58.637  36.355239     37.600      7.593   237.6559     9.0982     1.6556     0.0243      0.080      2.479      3.596        458 6.2553e+01 0.0000e+00
      2.549    23.2805     4.6070     53.840  36.429947     37.671      7.587   237.7694     9.1023     1.7899     0.0243      0.075      2.502      3.628        459 6.0063e+01 0.0000e+00
      2.578    23.2462     4.2165     49.289  36.471584     37.747      7.579   239.4730     9.1346     1.7630     0.0243      0.074      2.529      3.668        460 5.8001e+01 0.0000e+00
      2.609    23.2114     3.8426     44.922  36.540709     37.830      7.565   239.8516     9.1144     1.6959     0.0244      0.078      2.558      3.711        461 5.5750e+01 0.0000e+00
      2.642    23.1692     3.5920     41.984  36.818487     38.148      7.550   235.4223     9.6158     1.8839     0.0245      0.087      2.588      3.754        462 5.3627e+01 0.0000e+00
      2.668    23.1294     3.4527     40.345  37.252980     38.638      7.535   236.5202     9.6279     1.9376     0.0247      0.095      2.612      3.787        463 5.2898e+01 0.0000e+00
      2.678    23.1087     3.4370     40.134  37.423690     38.847      7.523   236.3309     9.6279     1.8973     0.0247      0.098      2.624      3.805        464 5.2975e+01 0.0000e+00
      2.681    23.1031     3.5238     41.117  37.377229     38.820      7.508   238.4509     9.6077     1.9510     0.0247      0.094      2.629      3.813        465 5.2734e+01 0.0000e+00
      2.684    23.0973     3.6750     42.836  37.310818     38.780      7.501   238.7537     9.6765     1.8570     0.0247      0.084      2.632      3.818        466 5.2383e+01 0.0000e+00
      2.689    23.1008     3.8196     44.407  37.387705     38.841      7.494   238.9430     9.6967     1.9645     0.0247      0.069      2.637      3.824        467 5.2221e+01 0.0000e+00
      2.692    23.1127     3.9096     45.346  37.400190     38.905      7.488   236.4066     9.6522     1.9913     0.0247      0.052      2.642      3.832        468 5.1766e+01 0.0000e+00
      2.701    23.1232     3.9032     45.167  37.235961     38.669      7.483   236.6716     9.7048     1.9107     0.0247      0.037      2.653      3.848        469 5.0498e+01 0.0000e+00
      2.724    23.1363     3.7844     43.627  37.176838     38.660      7.475   237.2016     9.2195     1.6959     0.0247      0.030      2.672      3.876        470 4.8638e+01 0.0000e+00
      2.748    23.1400     3.5275     40.474  37.088179     38.506      7.467   237.9209     9.2519     1.7093     0.0246      0.033      2.693      3.907        471 4.7282e+01 0.0000e+00
      2.766    23.1305     3.1363     35.793  37.138668     38.583      7.457   238.2995     9.2398     1.8570     0.0246      0.042      2.713      3.934        472 4.6005e+01 0.0000e+00
      2.784    23.1144     2.6943     30.633  37.202980     38.637      7.450   239.9652     9.2438     1.7630     0.0246      0.053      2.730      3.959        473 4.4585e+01 0.0000e+00
      2.801    23.0793     2.2180     25.127  37.215764     38.646      7.438   239.8895     9.2317     1.7093     0.0246      0.062      2.746      3.984        474 4.3553e+01 0.0000e+00
      2.815    23.0419     1.7657     19.917  37.419367     38.890      7.425   240.3437     9.3489     1.9510     0.0247      0.068      2.764      4.009        475 4.2078e+01 0.0000e+00
      2.840    22.9804     1.3569     15.244  37.483498     38.977      7.411   240.3059     9.3489     1.8839     0.0248      0.073      2.787      4.042        476 4.0042e+01 0.0000e+00
      2.870    22.8504     0.9985     11.182  37.551219     39.067      7.394   240.8359     9.3570     1.9510     0.0248      0.078      2.812      4.079        477 3.8544e+01 0.0000e+00
      2.892    22.7261     0.7445      8.314  37.898670     39.492      7.373   241.7823     9.3772     2.0316     0.0250      0.079      2.834      4.111        478 3.7684e+01 0.0000e+00
      2.908    22.6000     0.5734      6.382  38.178265     39.895      7.354   243.1452     9.6765     1.9913     0.0251      0.080      2.856      4.142        479 3.6617e+01 0.0000e+00
      2.937    22.4081     0.4818      5.344  38.449110     40.262      7.342   243.3723     9.7007     1.8167     0.0252      0.084      2.885      4.184        480 3.4800e+01 0.0000e+00
      2.981    22.1554     0.4343      4.807  38.837142     40.806      7.314   244.2430     9.6846     2.0047     0.0254      0.094      2.921      4.239        481 3.2791e+01 0.0000e+00
      3.021    21.8868     0.4100      4.531  39.297220     41.417      7.288   244.8109     9.6926     1.8839     0.0256      0.105      2.956      4.289        482 3.1739e+01 0.0000e+00
      3.042    21.6840     0.4197      4.630  39.656440     42.079      7.264   244.9245     6.8338     1.6690     0.0258      0.112      2.982      4.325        483 3.1201e+01 0.0000e+00
      3.062    21.5003     0.4403      4.845  39.843746     42.447      7.245   245.0002     6.8338     1.7228     0.0259      0.113      3.005      4.359        484 3.0207e+01 0.0000e+00
      3.092    21.2796     0.4703      5.177  40.132165     43.015      7.225   245.1138     6.8500     1.6959     0.0261      0.114      3.029      4.394        485 2.9450e+01 0.0000e+00
      3.112    21.0733     0.4979      5.487  40.365548     43.367      7.207   245.5680     6.8257     1.6825     0.0262      0.114      3.049      4.421        486 2.9461e+01 0.0000e+00
      3.120    20.9076     0.5260      5.798  40.502690     43.784      7.188   245.9088     4.5410     1.7496     0.0263      0.107      3.061      4.440        487 2.9421e+01 0.0000e+00
      3.133    20.7632     0.5354      5.895  40.554914     43.983      7.171   246.2873     4.5572     1.7765     0.0263      0.094      3.076      4.462        488 2.8761e+01 0.0000e+00
      3.159    20.5951     0.5535      6.072  40.537990     44.169      7.155   246.7038     4.5370     1.7496     0.0263      0.082      3.098      4.494        489 2.7834e+01 0.0000e+00
      3.188    20.4251     0.5776      6.316  40.731506     44.464      7.133   246.6280     4.5410     1.6288     0.0264      0.078      3.120      4.525        490 2.7540e+01 0.0000e+00
      3.196    20.3156     0.5970      6.507  40.966819     44.961      7.112   246.7038     4.1529     1.1588     0.0266      0.075      3.133      4.543        491 2.7854e+01 0.0000e+00
      3.199    20.2377     0.6132      6.661  40.927552     45.014      7.096   246.1359     4.1650     1.2662     0.0265      0.069      3.140      4.554        492 2.7578e+01 0.0000e+00
      3.213    20.1350     0.6222      6.718  41.047453     45.300      7.080   246.4388     4.1731     1.2931     0.0266      0.062      3.150      4.569        493 2.7229e+01 0.0000e+00
      3.224    20.0229     0.6180      6.619  41.381331     45.723      7.066   249.2781     4.1326     1.2259     0.0268      0.059      3.160      4.584        494 2.7387e+01 0.0000e+00
      3.229    20.0308     0.6066      6.452  41.402092     45.883      7.052   248.5966     4.1569     1.2662     0.0268      0.054      3.170      4.597        495 2.7110e+01 0.0000e+00
      3.244    20.0922     0.5793      6.138  41.348005     45.882      7.039   248.9373     4.4480     1.5616     0.0268      0.049      3.183      4.617        496 2.6503e+01 0.0000e+00
      3.265    20.1025     0.5460      5.769  41.508022     46.119      7.028   247.1959     4.4480     1.4676     0.0269      0.045      3.201      4.642        497 2.6015e+01 0.0000e+00
      3.281    20.0415     0.4934      5.198  41.499625     45.988      7.018   247.7638     4.5006     1.4273     0.0269      0.045      3.217      4.665        498 2.5691e+01 0.0000e+00
      3.293    19.8716     0.4361      4.577  41.803438     46.328      7.008   247.7638     4.4763     1.4408     0.0270      0.050      3.229      4.682        499 2.5609e+01 0.0000e+00
      3.300    19.6947     0.3782      3.956  42.138617     46.810      6.997   250.7545     4.7756     1.5213     0.0272      0.052      3.239      4.697        500 2.5411e+01 0.0000e+00
      3.313    19.5405     0.3271      3.413  42.328576     47.098      6.986   251.0195     4.7756     1.4408     0.0273      0.052      3.255      4.720        501 2.4664e+01 0.0000e+00
      3.343    19.3647     0.2916      3.039  42.724179     47.865      6.971   250.3759     4.8120     1.4945     0.0275      0.057      3.281      4.758        502 2.3657e+01 0.0000e+00
      3.379    19.0694     0.2563      2.671  42.981478     48.168      6.952   251.2466     4.8079     1.4676     0.0276      0.066      3.312      4.804        503 2.2776e+01 0.0000e+00
      3.410    18.6710     0.2475      2.575  43.313901     48.882      6.931   253.1016     4.9858     1.7093     0.0279      0.075      3.342      4.847        504 2.2080e+01 0.0000e+00
      3.434    18.3357     0.2315      2.403  43.408369     49.186      6.909   251.4738     5.0222     1.6825     0.0279      0.083      3.364      4.880        505 2.1708e+01 0.0000e+00
      3.447    18.1359     0.2273      2.355  43.338799     49.666      6.887   253.0259     5.0263     1.6690     0.0280      0.090      3.378      4.900        506 2.1507e+01 0.0000e+00
      3.453    18.0072     0.2186      2.260  43.252346     49.862      6.872   253.2531     5.0465     1.7228     0.0280      0.091      3.389      4.916        507 2.1171e+01 0.0000e+00
      3.469    17.8553     0.2115      2.180  43.249121     50.153      6.862   254.5024     4.8039     1.6959     0.0280      0.089      3.403      4.937        508 2.0747e+01 0.0000e+00
      3.489    17.6800     0.2089      2.146  43.283601     50.303      6.854   254.2752     4.7958     1.6422     0.0281      0.083      3.421      4.962        509 2.0382e+01 0.0000e+00
      3.505    17.5182     0.2072      2.125  43.090849     50.284      6.842   250.4516     4.7837     1.7362     0.0280      0.073      3.436      4.983        510 2.0010e+01 0.0000e+00
      3.515    17.4009     0.2039      2.085  42.984707     50.329      6.832   251.6631     4.7796     1.5885     0.0280      0.063      3.447      4.999        511 1.9739e+01 0.0000e+00
      3.524    17.3468     0.2027      2.066  43.000419     50.585      6.824   251.5873     5.0869     2.4210     0.0280      0.056      3.456      5.012        512 1.9556e+01 0.0000e+00
      3.532    17.3261     0.2007      2.041  42.982379     50.662      6.816   252.9502     5.0869     2.4613     0.0280      0.051      3.465      5.025        513 1.9235e+01 0.0000e+00
      3.545    17.2580     0.1993      2.023  43.007225     50.790      6.810   252.6473     5.0869     2.5016     0.0281      0.050      3.478      5.045        514 1.8767e+01 0.0000e+00
      3.565    17.1466     0.2060      2.088  43.058543     50.848      6.802   251.2845     5.0991     2.4479     0.0281      0.051      3.498      5.074        515 1.8242e+01 0.0000e+00
      3.591    17.0596     0.2070      2.094  43.007547     50.894      6.794   251.5495     5.1031     2.4613     0.0281      0.053      3.523      5.109        516 1.7677e+01 0.0000e+00
      3.621    16.9539     0.2032      2.050  42.922382     50.903      6.781   251.8145     5.4104     2.6896     0.0280      0.059      3.549      5.148        517 1.7046e+01 0.0000e+00
      3.646    16.8046     0.2083      2.095  42.778886     50.869      6.769   252.5338     5.4185     2.7433     0.0280      0.068      3.573      5.182        518 1.6677e+01 0.0000e+00
      3.663    16.6664     0.2099      2.106  42.622468     50.766      6.754   253.0259     5.4023     2.6224     0.0279      0.077      3.593      5.212        519 1.6375e+01 0.0000e+00
      3.683    16.5568     0.2056      2.059  42.523725     50.881      6.744   253.7074     5.4185     2.6224     0.0279      0.084      3.617      5.246        520 1.5661e+01 0.0000e+00
      3.719    16.4373     0.2085      2.084  42.575493     51.051      6.730   254.5024     7.9417     3.1058     0.0279      0.093      3.648      5.292        521 1.4781e+01 0.0000e+00
      3.758    16.2918     0.1991      1.989  42.765807     51.487      6.716   255.4866     7.9620     3.1193     0.0281      0.101      3.682      5.341        522 1.4184e+01 0.0000e+00
      3.787    16.1674     0.1981      1.977  42.761657     51.567      6.705   255.3352     7.9256     3.1998     0.0281      0.106      3.709      5.380        523 1.3787e+01 0.0000e+00
      3.803    16.0947     0.2000      1.991  42.640071     51.650      6.695   255.2216     7.9094     3.0790     0.0281      0.106      3.729      5.409        524 1.3459e+01 0.0000e+00
      3.820    16.0301     0.1932      1.920  42.679847     51.805      6.688   253.7831     7.3433     3.4147     0.0281      0.104      3.748      5.436        525 1.3055e+01 0.0000e+00
      3.843    15.9196     0.1938      1.924  42.623217     51.897      6.684   254.4645     7.3352     3.5355     0.0281      0.102      3.768      5.464        526 1.2517e+01 0.0000e+00
      3.864    15.7822     0.1895      1.880  42.354568     51.566      6.674   254.7674     7.3878     3.4684     0.0279      0.100      3.785      5.489        527 1.2308e+01 0.0000e+00
      3.870    15.6547     0.1857      1.839  42.302173     51.709      6.667   255.4109     7.3797     3.5221     0.0280      0.090      3.795      5.504        528 1.2250e+01 0.0000e+00
      3.877    15.5440     0.1857      1.834  42.332461     51.882      6.661   255.1838     5.4589     3.2804     0.0280      0.076      3.804      5.517        529 1.2010e+01 0.0000e+00
      3.891    15.4493     0.1853      1.826  42.168608     51.875      6.654   251.0195     5.4549     3.2938     0.0279      0.064      3.817      5.535        530 1.1687e+01 0.0000e+00
      3.907    15.3725     0.1840      1.812  41.912793     51.669      6.650   250.4138     5.4630     3.2938     0.0278      0.058      3.833      5.560        531 1.1336e+01 0.0000e+00
      3.929    15.3319     0.1782      1.753  41.790505     51.655      6.642   249.8081     5.4630     3.3475     0.0278      0.057      3.855      5.591        532 1.0864e+01 0.0000e+00
      3.958    15.2832     0.1812      1.779  41.697819     51.646      6.634   251.3223     3.7768     3.3744     0.0277      0.060      3.879      5.625        533 1.0450e+01 0.0000e+00
      3.978    15.1752     0.1824      1.785  41.494165     51.425      6.629   251.2466     3.7687     3.2938     0.0276      0.063      3.898      5.653        534 1.0305e+01 0.0000e+00
      3.988    15.0739     0.1802      1.759  41.302293     51.271      6.621   248.8995     3.7404     3.2938     0.0275      0.067      3.911      5.672        535 1.0187e+01 0.0000e+00
      3.998    15.0275     0.1778      1.731  41.016952     51.035      6.616   247.7638     3.7444     3.2670     0.0274      0.070      3.924      5.691        536 9.9593e+00 0.0000e+00
      4.016    15.0067     0.1803      1.752  40.959312     51.089      6.608   247.3473     3.5180     3.3744     0.0274      0.071      3.942      5.717        537 9.5754e+00 0.0000e+00
      4.044    14.9337     0.1770      1.719  40.929073     51.153      6.603   246.8552     3.5180     3.4012     0.0274      0.073      3.965      5.751        538 9.1131e+00 0.0000e+00
      4.069    14.7999     0.1779      1.725  40.728282     50.859      6.594   246.4009     3.5140     3.3207     0.0273      0.074      3.986      5.782        539 8.8409e+00 0.0000e+00
      4.081    14.7026     0.1701      1.647  40.704887     50.989      6.582   249.3916     3.5059     3.2804     0.0273      0.072      4.000      5.803        540 8.7778e+00 0.0000e+00
      4.087    14.6640     0.1717      1.661  40.602234     50.986      6.578   248.2559     3.5018     3.2938     0.0272      0.068      4.011      5.818        541 8.6349e+00 0.0000e+00
      4.104    14.6171     0.1680      1.622  40.529767     51.043      6.572   247.6880     3.1379     3.3207     0.0272      0.067      4.027      5.841        542 8.2092e+00 0.0000e+00
      4.130    14.5203     0.1666      1.605  40.320469     50.842      6.568   245.9466     3.0934     3.2938     0.0271      0.070      4.048      5.872        543 7.8261e+00 0.0000e+00
      4.151    14.3861     0.1676      1.611  39.883767     50.304      6.562   245.4545     3.1096     3.2535     0.0269      0.071      4.068      5.900        544 7.7044e+00 0.0000e+00
      4.163    14.2608     0.1642      1.576  39.738322     50.284      6.555   248.7481     3.1015     3.2267     0.0268      0.069      4.082      5.920        545 7.5707e+00 0.0000e+00
      4.173    14.1589     0.1655      1.587  39.641235     50.317      6.550   247.8395     3.1298     3.2401     0.0268      0.064      4.094      5.938        546 7.4139e+00 0.0000e+00
      4.189    14.0800     0.1639      1.571  39.767339     50.619      6.549   247.3473     3.1217     3.3207     0.0269      0.062      4.112      5.964        547 7.1704e+00 0.0000e+00
      4.218    14.0260     0.1598      1.531  39.967100     51.071      6.545   245.9845     3.1379     3.3744     0.0270      0.067      4.138      6.001        548 6.8096e+00 0.0000e+00
      4.252    13.9638     0.1563      1.495  39.719008     50.783      6.539   246.0602     3.1055     3.3072     0.0269      0.075      4.167      6.044        549 6.5459e+00 0.0000e+00
      4.277    13.8946     0.1570      1.500  39.571824     50.707      6.534   245.3030     2.5556     3.6429     0.0268      0.080      4.194      6.082        550 6.3003e+00 0.0000e+00
      4.301    13.8343     0.1601      1.527  39.645998     50.861      6.527   245.8330     2.5111     3.5221     0.0269      0.084      4.220      6.119        551 6.0127e+00 0.0000e+00
      4.331    13.7597     0.1578      1.504  39.626735     50.952      6.522   245.3788     2.5556     3.4952     0.0269      0.092      4.245      6.157        552 5.8204e+00 0.0000e+00
      4.355    13.6644     0.1578      1.504  39.388180     50.706      6.518   244.6973     2.5394     3.5221     0.0268      0.100      4.269      6.192        553 5.6863e+00 0.0000e+00
      4.375    13.5717     0.1557      1.483  39.171633     50.515      6.513   244.0159     1.6498     4.9992     0.0266      0.103      4.288      6.220        554 5.5832e+00 0.0000e+00
      4.390    13.5017     0.1532      1.460  39.985265     51.653      6.509   243.8645     1.6984     5.0395     0.0271      0.100      4.303      6.240        555 5.5651e+00 0.0000e+00
      4.397    13.4620     0.1449      1.380  40.956562     53.190      6.503   243.5616     1.6781     4.9857     0.0277      0.090      4.313      6.255        556 5.5292e+00 0.0000e+00
      4.407    13.4375     0.1449      1.378  40.810817     52.925      6.501   243.2966     1.7145     5.0932     0.0276      0.079      4.324      6.271        557 5.4509e+00 0.0000e+00
      4.423    13.4001     0.1432      1.361  40.730323     52.978      6.498   242.9559     1.3506     6.9059     0.0276      0.070      4.340      6.294        558 5.3955e+00 0.0000e+00
      4.443    13.3412     0.1363      1.294  41.027093     53.339      6.495   242.2366     1.3668     6.9462     0.0278      0.064      4.360      6.324        559 5.2808e+00 0.0000e+00
      4.473    13.2789     0.1384      1.313  40.975510     53.390      6.492   242.1609     1.3668     6.8522     0.0278      0.062      4.387      6.364        560 5.0957e+00 0.0000e+00
      4.508    13.2276     0.1373      1.301  41.269208     53.729      6.485   244.0159     1.3587     6.9059     0.0279      0.068      4.415      6.404        561 5.0363e+00 0.0000e+00
      4.524    13.1974     0.1360      1.288  41.996660     54.948      6.473   244.2430     1.3425     6.8925     0.0284      0.075      4.434      6.431        562 5.0637e+00 0.0000e+00
      4.531    13.1865     0.1387      1.311  42.057976     54.949      6.467   244.5838     1.1525     8.2353     0.0284      0.078      4.445      6.447        563 5.0300e+00 0.0000e+00
      4.544    13.1749     0.1318      1.246  41.815948     54.773      6.463   242.7287     1.1929     8.1950     0.0283      0.080      4.456      6.463        564 4.9968e+00 0.0000e+00
      4.557    13.1636     0.1506      1.422  41.674849     54.531      6.458   242.8045     1.1686     8.2353     0.0282      0.078      4.470      6.482        565 4.9833e+00 0.0000e+00
      4.572    13.1383     0.1625      1.534  41.669889     54.585      6.457   244.6216     1.1686     8.1547     0.0282      0.072      4.485      6.504        566 4.9147e+00 0.0000e+00
      4.591    13.0864     0.1863      1.756  41.525448     54.419      6.456   244.9623     1.2576     7.9802     0.0281      0.066      4.501      6.528        567 4.8713e+00 0.0000e+00
      4.605    13.0358     0.2040      1.922  40.964591     53.682      6.453   245.2652     1.2212     7.9667     0.0278      0.059      4.516      6.551        568 4.8391e+00 0.0000e+00
      4.621    12.9949     0.2295      2.161  40.587855     53.282      6.445   244.8109     1.2293     8.0070     0.0276      0.055      4.534      6.576        569 4.7096e+00 0.0000e+00
      4.644    12.9600     0.2601      2.450  40.332980     53.020      6.439   244.7352     1.2697     8.0205     0.0275      0.059      4.558      6.610        570 4.5807e+00 0.0000e+00
      4.678    12.9279     0.2922      2.751  40.006165     52.637      6.434   245.6816     1.2374     8.1547     0.0273      0.069      4.590      6.658        571 4.4170e+00 0.0000e+00
      4.721    12.8832     0.3144      2.958  39.748637     52.353      6.423   244.3945     1.2616     8.2756     0.0271      0.081      4.630      6.716        572 4.1759e+00 0.0000e+00
      4.767    12.8307     0.3366      3.164  39.585540     52.177      6.413   245.0759     1.2253     8.1144     0.0270      0.098      4.669      6.772        573 3.9966e+00 0.0000e+00
      4.794    12.7879     0.3614      3.394  39.645524     52.311      6.409   245.5680     1.2253     8.1010     0.0271      0.111      4.694      6.808        574 4.0008e+00 0.0000e+00
      4.799    12.7597     0.3749      3.518  39.674013     52.460      6.404   244.9245     1.2536     9.4170     0.0271      0.116      4.708      6.827        575 3.9535e+00 0.0000e+00
      4.810    12.7370     0.3730      3.498  39.609441     52.369      6.403   244.3945     1.2374     9.5110     0.0271      0.114      4.720      6.845        576 3.8163e+00 0.0000e+00
      4.831    12.7040     0.3702      3.470  39.607245     52.485      6.404   239.1702     1.2495     9.5647     0.0271      0.108      4.737      6.870        577 3.7174e+00 0.0000e+00
      4.849    12.6741     0.3494      3.274  39.617431     52.439      6.403   240.3059     1.2293     9.4975     0.0271      0.097      4.754      6.895        578 3.6272e+00 0.0000e+00
      4.864    12.6604     0.3205      3.002  39.656110     52.636      6.403   240.1545     1.2374    10.3435     0.0272      0.083      4.770      6.918        579 3.6214e+00 0.0000e+00
      4.878    12.6510     0.2807      2.628  39.855778     52.825      6.402   239.8895     1.2374    10.3032     0.0272      0.069      4.789      6.946        580 3.4750e+00 0.0000e+00
      4.909    12.6339     0.2475      2.317  39.873268     53.030      6.400   241.1766     1.2455    10.2898     0.0273      0.065      4.818      6.988        581 3.2533e+00 0.0000e+00
      4.950    12.6045     0.2055      1.924  40.524315     53.636      6.393   239.0566     1.2293    10.3435     0.0276      0.074      4.853      7.039        582 3.1120e+00 0.0000e+00
      4.986    12.5633     0.1790      1.676  40.350860     53.921      6.389   238.9052     1.2455    10.2092     0.0277      0.089      4.888      7.089        583 2.9834e+00 0.0000e+00
      5.016    12.5223     0.1542      1.443  41.750454     54.929      6.382   239.2459     1.4274    12.5457     0.0281      0.100      4.918      7.133        584 2.8782e+00 0.0000e+00
      5.044    12.4884     0.1324      1.239  46.081413     61.950      6.375   239.8895     1.4274    12.7739     0.0312      0.109      4.946      7.173        585 2.7207e+00 0.0000e+00
      5.071    12.4590     0.1207      1.129  45.375419     60.192      6.371   240.2302     1.4274    12.6531     0.0304      0.116      4.969      7.207        586 2.6242e+00 0.0000e+00
      5.085    12.4404     0.1157      1.083  43.756262     58.344      6.361   240.7980     1.4557    12.6934     0.0296      0.118      4.984      7.228        587 2.6732e+00 0.0000e+00
      5.087    12.4266     0.1098      1.028  43.675220     58.466      6.360   240.9495     1.8237    14.0362     0.0296      0.109      4.996      7.246        588 2.6295e+00 0.0000e+00
      5.112    12.4109     0.1047      0.980  44.526775     59.054      6.357   241.5930     1.8358    14.0362     0.0299      0.096      5.020      7.281        589 2.4493e+00 0.0000e+00
      5.160    12.3974     0.1031      0.966  46.613381     62.811      6.346   242.8423     1.8197    14.0630     0.0315      0.092      5.060      7.340        590 2.2394e+00 0.0000e+00
      5.209    12.3877     0.1050      0.984  47.250567     62.576      6.336   243.3723     1.8358    14.1167     0.0314      0.097      5.102      7.400        591 2.0775e+00 0.0000e+00
      5.240    12.3794     0.0973      0.912  49.342521     66.450      6.321   241.9716     1.5124    14.1167     0.0331      0.104      5.130      7.441        592 2.0635e+00 0.0000e+00
      5.245    12.3746     0.0912      0.855  50.034561     66.616      6.322   242.8802     1.5002    14.0630     0.0332      0.107      5.142      7.458        593 2.0618e+00 0.0000e+00
      5.247    12.3715     0.0968      0.906  48.852551     65.584      6.321   242.5773     1.5164    14.1033     0.0327      0.104      5.147      7.466        594 2.0315e+00 0.0000e+00
      5.255    12.3671     0.0988      0.925  49.388911     65.742      6.321   242.2366     1.4962    14.0899     0.0328      0.099      5.155      7.477        595 2.0367e+00 0.0000e+00
      5.267    12.3686     0.1024      0.959  49.723229     66.944      6.321   242.4637     1.4355    15.1507     0.0333      0.089      5.166      7.492        596 1.9953e+00 0.0000e+00
      5.281    12.3749     0.1067      1.000  47.783655     63.586      6.318   237.6559     1.4436    15.1373     0.0318      0.072      5.179      7.512        597 1.9276e+00 0.0000e+00
      5.297    12.3837     0.1067      0.999  47.321294     63.470      6.319   237.3909     1.4153    15.1104     0.0318      0.054      5.193      7.532        598 1.9133e+00 0.0000e+00
      5.307    12.3932     0.1169      1.094  47.686933     63.759      6.320   237.4287     1.4477    15.0970     0.0319      0.043      5.203      7.547        599 1.8960e+00 0.0000e+00
      5.314    12.4050     0.1156      1.081  47.328621     63.258      6.320   236.8987     1.3223    16.2249     0.0317      0.040      5.212      7.559        600 1.8707e+00 0.0000e+00
      5.322    12.4220     0.1196      1.118  46.965942     62.904      6.321   236.0280     1.3021    16.0638     0.0315      0.042      5.222      7.573        601 1.8326e+00 0.0000e+00
      5.337    12.4324     0.1196      1.118  45.971967     61.316      6.319   234.0973     1.3223    16.1175     0.0308      0.045      5.237      7.595        602 1.7705e+00 0.0000e+00
      5.362    12.4222     0.1184      1.106  45.865168     61.361      6.313   233.9080     1.2859    16.1175     0.0309      0.048      5.256      7.623        603 1.7301e+00 0.0000e+00
      5.379    12.4027     0.1194      1.114  47.187867     62.876      6.313   233.3780     1.2900    16.0369     0.0315      0.051      5.272      7.647        604 1.6807e+00 0.0000e+00
      5.388    12.4021     0.1154      1.077  48.658565     65.208      6.306   232.8480     1.1686    17.8094     0.0326      0.053      5.284      7.664        605 1.6429e+00 0.0000e+00
      5.398    12.4047     0.1095      1.022  47.685095     63.676      6.303   235.5737     1.1767    17.7960     0.0319      0.053      5.295      7.680        606 1.5931e+00 0.0000e+00
      5.412    12.3966     0.1048      0.978  47.479321     63.338      6.300   234.1352     1.2050    17.7557     0.0317      0.055      5.309      7.700        607 1.5519e+00 0.0000e+00
      5.432    12.3851     0.1014      0.947  49.389534     66.174      6.295   233.9080     1.1484    17.7154     0.0330      0.058      5.327      7.725        608 1.5050e+00 0.0000e+00
      5.451    12.3621     0.0971      0.906  51.629476     68.808      6.288   232.0151     1.2980    17.8094     0.0342      0.060      5.346      7.753        609 1.3941e+00 0.0000e+00
      5.471    12.3350     0.0955      0.892  54.961641     73.691      6.285   236.9744     1.2940    17.8094     0.0363      0.061      5.365      7.781        610 1.3573e+00 0.0000e+00
      5.491    12.3124     0.0976      0.911  56.493217     75.572      6.281   235.8387     1.2980    17.8229     0.0372      0.062      5.384      7.809        611 1.3191e+00 0.0000e+00
      5.509    12.2923     0.0973      0.908  55.927907     74.914      6.276   235.5737     1.3061    17.8094     0.0368      0.066      5.403      7.837        612 1.2569e+00 0.0000e+00
      5.530    12.2718     0.1001      0.934  55.487025     74.323      6.273   233.3402     1.1606    16.9366     0.0366      0.072      5.423      7.865        613 1.2265e+00 0.0000e+00
      5.549    12.2516     0.0968      0.902  53.835614     72.300      6.272   232.5073     1.1727    16.9366     0.0357      0.075      5.442      7.892        614 1.1589e+00 0.0000e+00
      5.566    12.2409     0.0990      0.923  51.392819     68.775      6.274   234.2487     1.1767    16.8695     0.0341      0.076      5.458      7.916        615 1.0895e+00 0.0000e+00
      5.582    12.2423     0.1022      0.952  50.957496     68.437      6.270   233.6052     1.1525    16.9769     0.0339      0.075      5.472      7.936        616 1.0710e+00 0.0000e+00
      5.590    12.2482     0.0956      0.891  52.180746     69.997      6.272   232.4316     1.3830    15.8892     0.0346      0.071      5.482      7.951        617 1.0746e+00 0.0000e+00
      5.598    12.2552     0.0992      0.925  52.690383     70.857      6.276   231.7123     1.3466    15.8355     0.0350      0.065      5.494      7.967        618 1.0171e+00 0.0000e+00
      5.619    12.2542     0.0969      0.903  52.608855     70.471      6.276   230.3116     1.3708    15.9027     0.0348      0.061      5.510      7.992        619 9.8288e-01 0.0000e+00
      5.639    12.2510     0.0948      0.884  51.807262     69.744      6.275   230.5387     1.3506    15.9564     0.0345      0.059      5.529      8.019        620 9.2750e-01 0.0000e+00
      5.655    12.2496     0.0936      0.873  51.105530     68.281      6.278   230.2737     1.2010    16.1175     0.0339      0.058      5.546      8.044        621 8.6369e-01 0.0000e+00
      5.674    12.2411     0.0945      0.881  51.671506     69.641      6.280   229.1001     1.1727    16.2249     0.0345      0.059      5.563      8.069        622 8.6951e-01 0.0000e+00
      5.689    12.2303     0.0919      0.857  51.191957     68.513      6.280   226.9801     1.1727    16.0906     0.0340      0.061      5.578      8.091        623 8.5429e-01 0.0000e+00
      5.702    12.2112     0.0923      0.860  50.188553     67.519      6.280   226.1473     1.1848    16.1444     0.0335      0.063      5.593      8.112        624 8.3723e-01 0.0000e+00
      5.719    12.1887     0.1035      0.963  49.536581     66.408      6.282   224.8980     1.3870    15.6072     0.0330      0.066      5.608      8.134        625 8.2048e-01 0.0000e+00
      5.736    12.1786     0.0916      0.852  49.035318     65.956      6.283   223.6487     1.3668    15.7415     0.0328      0.066      5.622      8.154        626 8.0494e-01 0.0000e+00
      5.742    12.1810     0.0987      0.919  49.090967     65.920      6.284   222.5887     1.3708    15.7281     0.0328      0.062      5.629      8.164        627 8.0539e-01 0.0000e+00
      5.743    12.1859     0.1064      0.990  49.556379     66.692      6.286   222.9294     1.3708    15.5804     0.0331      0.054      5.632      8.169        628 8.1898e-01 0.0000e+00
      5.746    12.1914     0.0915      0.851  50.058814     67.287      6.289   222.2858     1.3627    15.7415     0.0334      0.046      5.634      8.172        629 8.0108e-01 0.0000e+00
      5.747    12.1989     0.0898      0.835  50.216796     67.543      6.289   221.3394     1.3142    14.8687     0.0335      0.037      5.637      8.176        630 8.0608e-01 0.0000e+00
      5.751    12.2048     0.0919      0.855  50.309533     67.607      6.294   219.8630     1.2900    14.8956     0.0335      0.029      5.640      8.181        631 8.1242e-01 0.0000e+00
      5.756    12.2051     0.0921      0.857  50.210524     67.519      6.296   219.9008     1.2980    14.9358     0.0335      0.022      5.645      8.187        632 8.1037e-01 0.0000e+00
      5.760    12.1905     0.0973      0.905  50.013524     67.169      6.296   219.5980     1.3142    14.9761     0.0333      0.016      5.652      8.197        633 8.1401e-01 0.0000e+00
      5.774    12.1640     0.0931      0.866  49.397173     66.455      6.301   218.7273     1.1161    14.4793     0.0330      0.016      5.663      8.214        634 7.6682e-01 0.0000e+00
      5.788    12.1431     0.0920      0.855  48.454825     65.051      6.300   217.8187     1.1080    14.3987     0.0324      0.021      5.677      8.234        635 7.3221e-01 0.0000e+00
      5.803    12.1320     0.0908      0.845  48.426137     65.175      6.304   217.2508     1.1161    14.5196     0.0324      0.028      5.694      8.259        636 6.9799e-01 0.0000e+00
      5.829    12.1243     0.0981      0.912  48.364460     65.135      6.302   214.1844     1.1080    14.4659     0.0324      0.039      5.717      8.291        637 6.7800e-01 0.0000e+00
      5.856    12.1177     0.0915      0.851  47.641278     64.101      6.304   215.1687     1.2091    13.7945     0.0320      0.052      5.741      8.325        638 6.6771e-01 0.0000e+00
      5.875    12.1136     0.0907      0.843  47.545500     64.038      6.304   216.2665     1.1767    13.9287     0.0319      0.063      5.761      8.354        639 6.4617e-01 0.0000e+00
      5.891    12.1090     0.0897      0.834  47.771405     64.352      6.307   215.4337     1.1484    13.7810     0.0321      0.071      5.777      8.378        640 6.4398e-01 0.0000e+00
      5.904    12.1037     0.0856      0.796  47.775622     64.358      6.308   214.6387     1.1727    13.8213     0.0321      0.075      5.791      8.398        641 6.3112e-01 0.0000e+00
      5.918    12.1019     0.0921      0.857  47.866699     64.479      6.309   209.5279     1.0716    12.6128     0.0321      0.075      5.805      8.419        642 6.0829e-01 0.0000e+00
      5.936    12.1025     0.0877      0.816  48.014188     64.715      6.307   210.6637     1.0999    12.5994     0.0322      0.073      5.819      8.440        643 6.1588e-01 0.0000e+00
      5.947    12.0994     0.0897      0.834  48.037233     64.718      6.307   210.2094     1.1242    12.6799     0.0322      0.068      5.831      8.457        644 6.0436e-01 0.0000e+00
      5.956    12.0964     0.0902      0.839  48.016084     64.716      6.311   211.5344     1.1323    12.6128     0.0322      0.061      5.842      8.473        645 5.8576e-01 0.0000e+00
      5.971    12.0973     0.0872      0.811  48.040510     64.722      6.308   207.2565     1.0231    12.5591     0.0322      0.055      5.855      8.492        646 5.5921e-01 0.0000e+00
      5.985    12.0949     0.0862      0.802  48.244258     65.029      6.312   207.2565     1.0473    12.4785     0.0324      0.053      5.870      8.514        647 5.3244e-01 0.0000e+00
      6.003    12.0887     0.0933      0.868  48.445108     65.291      6.310   206.5372     1.0716    12.6262     0.0325      0.053      5.888      8.539        648 5.1835e-01 0.0000e+00
      6.024    12.0871     0.0858      0.797  48.621531     65.522      6.310   207.7486     1.0635    12.5322     0.0326      0.056      5.907      8.566        649 5.0110e-01 0.0000e+00
      6.040    12.0895     0.0876      0.814  48.796332     65.797      6.309   207.7108     1.0473    12.5188     0.0327      0.059      5.923      8.590        650 4.9671e-01 0.0000e+00
      6.054    12.0885     0.0883      0.820  48.910174     65.913      6.308   207.0294     1.0999    12.7202     0.0327      0.060      5.937      8.611        651 5.0673e-01 0.0000e+00
      6.070    12.0846     0.0890      0.827  49.281183     66.435      6.307   206.4236     1.0999    12.8277     0.0330      0.063      5.952      8.632        652 5.0068e-01 0.0000e+00
      6.085    12.0799     0.0926      0.861  49.699852     67.004      6.309   206.5372     1.1282    12.8545     0.0332      0.065      5.966      8.653        653 4.7710e-01 0.0000e+00
      6.096    12.0756     0.0871      0.809  49.754392     67.086      6.307   206.4236     1.1080    12.8277     0.0333      0.063      5.981      8.674        654 4.6876e-01 0.0000e+00
      6.116    12.0713     0.0865      0.803  49.955301     67.321      6.306   207.7108     1.1080    13.0559     0.0334      0.062      6.001      8.703        655 4.3135e-01 0.0000e+00
      6.147    12.0677     0.0885      0.822  49.984069     67.479      6.302   207.6351     1.0837    13.1365     0.0334      0.065      6.026      8.740        656 4.0097e-01 0.0000e+00
      6.171    12.0652     0.0856      0.795  49.956035     67.261      6.299   207.1051     1.0797    13.0291     0.0333      0.069      6.050      8.775        657 4.0298e-01 0.0000e+00
      6.190    12.0596     0.0862      0.800  50.197954     67.834      6.296   207.3322     1.0999    13.0291     0.0336      0.074      6.071      8.805        658 3.8046e-01 0.0000e+00
      6.211    12.0532     0.0858      0.796  49.831412     67.121      6.295   207.0672     1.1686    13.2574     0.0333      0.079      6.090      8.834        659 3.6358e-01 0.0000e+00
      6.230    12.0500     0.0869      0.806  49.670191     67.056      6.295   206.5372     1.1767    13.2439     0.0332      0.083      6.108      8.859        660 3.7517e-01 0.0000e+00
      6.245    12.0466     0.0835      0.775  49.775311     67.143      6.292   206.8401     1.1767    13.2036     0.0333      0.083      6.125      8.884        661 3.6257e-01 0.0000e+00
      6.264    12.0408     0.0912      0.846  49.492838     66.809      6.293   206.4615     1.1606    13.1768     0.0331      0.083      6.144      8.911        662 3.5048e-01 0.0000e+00
      6.285    12.0350     0.0889      0.825  48.864237     65.947      6.290   207.8244     1.1767    13.6870     0.0327      0.080      6.162      8.937        663 3.5058e-01 0.0000e+00
      6.299    12.0295     0.0894      0.829  48.806535     65.806      6.289   206.9536     1.1970    13.7005     0.0327      0.074      6.177      8.959        664 3.7712e-01 0.0000e+00
      6.311    12.0251     0.0869      0.806  48.971071     66.232      6.289   205.7801     1.1767    13.6602     0.0329      0.070      6.190      8.978        665 3.4934e-01 0.0000e+00
      6.325    12.0265     0.0836      0.776  48.333025     65.146      6.291   204.8715     1.1686    13.6065     0.0324      0.067      6.204      8.997        666 3.2134e-01 0.0000e+00
      6.340    12.0260     0.0822      0.763  48.294738     65.267      6.286   204.6065     1.0271    13.2574     0.0324      0.063      6.220      9.021        667 3.3567e-01 0.0000e+00
      6.363    12.0164     0.0803      0.746  47.742573     64.510      6.288   205.2879     1.0514    13.2439     0.0321      0.063      6.239      9.048        668 2.9971e-01 0.0000e+00
      6.382    12.0082     0.0849      0.788  46.675733     62.924      6.288   205.2879     1.0433    13.2574     0.0314      0.064      6.256      9.073        669 2.9549e-01 0.0000e+00
      6.391    12.0027     0.0819      0.761  46.536071     62.942      6.287   204.4551     1.0433    13.2842     0.0314      0.062      6.269      9.092        670 3.0384e-01 0.0000e+00
      6.404    11.9957     0.0775      0.720  46.343565     62.539      6.288   203.8115     0.9867    13.2171     0.0312      0.061      6.282      9.110        671 2.8696e-01 0.0000e+00
      6.421    11.9901     0.0851      0.791  45.817341     61.982      6.286   203.0922     0.9745    13.2305     0.0310      0.061      6.298      9.133        672 2.7225e-01 0.0000e+00
      6.440    11.9868     0.0823      0.765  45.618208     61.540      6.286   202.8272     0.9867    13.2976     0.0308      0.063      6.317      9.162        673 2.6668e-01 0.0000e+00
      6.466    11.9902     0.0860      0.799  45.434099     61.549      6.286   206.4994     0.9422    13.2171     0.0308      0.065      6.340      9.195        674 2.8292e-01 0.0000e+00
      6.487    12.0059     0.0828      0.769  47.559899     63.936      6.285   205.4015     0.9907    13.2976     0.0318      0.068      6.361      9.226        675 2.8344e-01 0.0000e+00
      6.507    12.0246     0.0865      0.803  52.350948     71.114      6.290   205.2879     0.9179    12.9217     0.0350      0.070      6.380      9.253        676 2.4254e-01 0.0000e+00
      6.522    12.0364     0.0840      0.780  54.964849     74.069      6.289   203.2815     0.8977    12.9754     0.0363      0.073      6.395      9.275        677 2.6584e-01 0.0000e+00
      6.532    12.0424     0.0847      0.785  56.031838     75.807      6.291   208.1272     0.9179    13.0291     0.0371      0.074      6.409      9.295        678 2.6827e-01 0.0000e+00
      6.551    12.0454     0.0844      0.783  56.455840     76.161      6.292   207.3322     0.8856    13.0291     0.0373      0.074      6.429      9.324        679 2.3193e-01 0.0000e+00
      6.584    12.0450     0.0824      0.764  56.426311     76.148      6.286   205.3636     0.8815    13.0828     0.0373      0.075      6.456      9.364        680 2.2506e-01 0.0000e+00
      6.617    12.0421     0.0872      0.808  56.068582     75.765      6.280   205.2122     0.8775    13.0022     0.0371      0.079      6.484      9.405        681 2.2196e-01 0.0000e+00
      6.636    12.0429     0.0884      0.819  55.357205     74.557      6.271   204.9472     0.8290    12.9619     0.0366      0.082      6.504      9.433        682 2.1167e-01 0.0000e+00
      6.642    12.0445     0.0899      0.833  56.242816     75.999      6.267   206.1208     0.8452    13.0156     0.0372      0.082      6.515      9.449        683 2.0722e-01 0.0000e+00
      6.652    12.0438     0.0865      0.802  56.718108     76.563      6.262   205.2879     0.7521    13.1499     0.0375      0.080      6.528      9.467        684 2.1730e-01 0.0000e+00
      6.676    12.0379     0.0859      0.796  56.398607     76.069      6.262   204.0008     0.8128    13.0291     0.0372      0.079      6.548      9.497        685 1.9941e-01 0.0000e+00
      6.703    12.0228     0.0851      0.788  55.987256     75.655      6.256   204.0765     0.7885    13.0291     0.0371      0.080      6.572      9.531        686 2.0319e-01 0.0000e+00
      6.724    12.0036     0.0841      0.779  53.400305     72.116      6.254   204.2279     0.7805    13.0694     0.0355      0.077      6.593      9.561        687 1.8977e-01 0.0000e+00
      6.739    11.9882     0.0851      0.789  50.712269     68.331      6.250   204.0386     0.7198    13.6199     0.0338      0.073      6.611      9.587        688 1.8584e-01 0.0000e+00
      6.758    11.9778     0.0844      0.782  50.723984     68.593      6.253   204.5308     0.7198    13.8079     0.0339      0.071      6.632      9.618        689 1.9711e-01 0.0000e+00
      6.789    11.9681     0.0829      0.768  50.120617     67.828      6.254   204.4172     0.7481    13.7139     0.0336      0.077      6.659      9.658        690 1.8873e-01 0.0000e+00
      6.823    11.9580     0.0813      0.753  48.613896     65.578      6.253   203.9251     0.7036    13.5528     0.0325      0.087      6.688      9.700        691 1.8269e-01 0.0000e+00
      6.847    11.9502     0.0839      0.777  48.473632     65.671      6.252   203.8494     0.7238    13.7542     0.0326      0.093      6.711      9.733        692 1.3965e-01 0.0000e+00
      6.860    11.9460     0.0857      0.794  48.633141     65.689      6.251   204.1901     0.7158    13.6065     0.0326      0.093      6.727      9.757        693 1.4599e-01 0.0000e+00
      6.873    11.9423     0.0860      0.796  48.860572     66.195      6.252   203.8115     0.7441    13.6333     0.0328      0.089      6.744      9.781        694 1.7127e-01 0.0000e+00
      6.899    11.9367     0.0844      0.782  48.398354     65.483      6.258   203.6601     0.7077    13.7408     0.0325      0.089      6.765      9.812        695 1.3606e-01 0.0000e+00
      6.924    11.9315     0.0807      0.748  47.961897     64.846      6.261   204.4172     0.8371    12.0354     0.0322      0.089      6.787      9.843        696 1.4584e-01 0.0000e+00
      6.940    11.9268     0.0842      0.780  48.127593     65.235      6.263   203.8494     0.8735    11.9951     0.0324      0.085      6.804      9.868        697 1.6698e-01 0.0000e+00
      6.951    11.9225     0.0787      0.729  47.836022     64.676      6.266   202.6758     0.8532    12.0220     0.0321      0.078      6.818      9.889        698 1.3300e-01 0.0000e+00
      6.967    11.9195     0.0812      0.752  47.820241     64.797      6.271   201.9565     0.8573    11.9414     0.0322      0.072      6.835      9.915        699 1.3800e-01 0.0000e+00
      6.994    11.9176     0.0777      0.719  48.117557     65.108      6.271   203.3572     0.8371    11.9011     0.0323      0.072      6.860      9.951        700 1.6456e-01 0.0000e+00
      7.027    11.9163     0.0755      0.699  48.296985     65.454      6.274   203.5086     0.8532    10.9880     0.0325      0.078      6.889      9.992        701 1.3551e-01 0.0000e+00
      7.054    11.9144     0.0821      0.760  48.605986     65.761      6.272   203.0922     0.8452    10.9209     0.0326      0.083      6.915     10.030        702 1.1772e-01 0.0000e+00
      7.073    11.9130     0.0839      0.777  48.979491     66.407      6.276   201.8808     0.8290    10.8940     0.0329      0.085      6.937     10.061        703 1.3965e-01 0.0000e+00
      7.095    11.9123     0.0871      0.807  49.464481     66.903      6.278   201.9565     0.8330    10.9075     0.0331      0.088      6.960     10.095        704 1.5891e-01 0.0000e+00
      7.125    11.9110     0.0841      0.779  50.406456     68.345      6.274   200.6693     0.8047    12.2637     0.0338      0.094      6.985     10.130        705 1.3212e-01 0.0000e+00
      7.145    11.9100     0.0819      0.759  51.012680     69.066      6.275   201.7672     0.7845    12.1428     0.0341      0.098      7.005     10.160        706 1.2189e-01 0.0000e+00
      7.159    11.9097     0.0842      0.779  51.114187     69.258      6.276   201.3886     0.7845    12.2234     0.0342      0.095      7.022     10.185        707 1.3150e-01 0.0000e+00
      7.180    11.9092     0.0836      0.774  51.378350     69.563      6.274   201.2372     0.7805    12.1294     0.0343      0.090      7.042     10.213        708 1.2486e-01 0.0000e+00
      7.203    11.9087     0.0789      0.730  51.782176     70.170      6.276   198.0572     0.7036    12.7874     0.0346      0.085      7.062     10.242        709 1.2795e-01 0.0000e+00
      7.219    11.9077     0.0816      0.756  52.036394     70.474      6.276   198.8522     0.6875    12.8679     0.0347      0.082      7.080     10.268        710 1.2551e-01 0.0000e+00
      7.236    11.9061     0.0780      0.722  52.189929     70.702      6.275   199.0036     0.7319    12.8411     0.0348      0.079      7.096     10.292        711 1.2553e-01 0.0000e+00
      7.253    11.9045     0.0796      0.737  52.451921     71.045      6.274   200.3286     0.7198    12.8948     0.0349      0.076      7.112     10.315        712 1.2539e-01 0.0000e+00
      7.266    11.9030     0.0724      0.670  52.660226     71.352      6.274   200.5936     0.6672    13.0559     0.0351      0.071      7.127     10.336        713 1.2581e-01 0.0000e+00
      7.281    11.9014     0.0815      0.754  52.732163     71.430      6.273   195.7100     0.6713    13.0156     0.0351      0.068      7.144     10.360        714 1.2534e-01 0.0000e+00
      7.306    11.8993     0.0802      0.743  52.926397     71.698      6.272   196.7322     0.6632    13.0828     0.0352      0.069      7.164     10.390        715 1.2609e-01 0.0000e+00
      7.328    11.8979     0.0806      0.746  53.249672     72.156      6.271   198.4358     0.6632    13.0022     0.0354      0.069      7.183     10.419        716 1.2501e-01 0.0000e+00
      7.340    11.8979     0.0837      0.775  53.457874     72.426      6.269   198.6251     0.7158    12.5725     0.0356      0.068      7.199     10.443        717 1.2667e-01 0.0000e+00
      7.358    11.8978     0.0783      0.725  53.646901     72.694      6.267   195.6343     0.7319    12.6531     0.0357      0.069      7.219     10.471        718 1.3202e-01 0.0000e+00
      7.388    11.8967     0.0823      0.761  54.112798     73.300      6.268   195.8615     0.7319    12.5994     0.0360      0.073      7.246     10.509        719 1.2744e-01 0.0000e+00
      7.419    11.8959     0.0818      0.757  54.867050     74.362      6.264   196.8079     0.7319    12.4785     0.0364      0.080      7.274     10.550        720 1.2493e-01 0.0000e+00
      7.444    11.8956     0.0822      0.761  55.409750     75.084      6.260   196.9215     0.7198    12.6397     0.0367      0.086      7.299     10.586        721 1.2604e-01 0.0000e+00
      7.466    11.8948     0.0771      0.714  55.604601     75.352      6.261   197.3000     0.7036    12.4114     0.0369      0.090      7.323     10.621        722 1.2534e-01 0.0000e+00
      7.492    11.8939     0.0807      0.747  55.782397     75.580      6.261   196.5429     0.7117    12.3980     0.0370      0.093      7.350     10.661        723 1.2575e-01 0.0000e+00
      7.530    11.8914     0.0778      0.720  56.435418     76.453      6.257   196.7700     0.7158    12.3577     0.0374      0.100      7.383     10.710        724 1.2553e-01 0.0000e+00
      7.567    11.8890     0.0784      0.726  57.671836     78.161      6.252   197.2622     0.7238    12.3980     0.0381      0.109      7.415     10.755        725 1.2561e-01 0.0000e+00
      7.588    11.8891     0.0804      0.745  58.400383     79.191      6.250   197.7543     0.7158    12.1697     0.0386      0.113      7.438     10.788        726 1.2541e-01 0.0000e+00
      7.600    11.8892     0.0782      0.724  58.290045     78.969      6.250   197.7165     0.7077    12.2100     0.0385      0.109      7.455     10.813        727 1.2549e-01 0.0000e+00
      7.621    11.8877     0.0837      0.776  58.640530     79.461      6.249   197.7165     0.7319    12.2100     0.0387      0.104      7.475     10.842        728 1.2556e-01 0.0000e+00
      7.647    11.8864     0.0760      0.704  60.072454     81.395      6.248   197.4893     0.7360    12.2503     0.0396      0.102      7.492     10.867        729 1.2541e-01 0.0000e+00
      7.651    11.8860     0.0792      0.734  60.665211     82.347      6.245   198.3222     0.7319    11.7266     0.0400      0.093      7.498     10.876        730 1.2534e-01 0.0000e+00
      7.640    11.8863     0.0778      0.720  59.417271     80.453      6.244   198.0572     0.6996    11.8340     0.0391      0.075      7.496     10.873        731 1.2539e-01 0.0000e+00
      7.643    11.8866     0.0762      0.706  58.952982     79.885      6.245   197.1108     0.7158    11.7668     0.0389      0.055      7.497     10.874        732 1.2552e-01 0.0000e+00
      7.652    11.8870     0.0750      0.695  59.550413     80.757      6.245   197.5650     0.7158    11.7266     0.0393      0.040      7.502     10.882        733 1.2545e-01 0.0000e+00
      7.655    11.8893     0.0767      0.711  59.386430     80.491      6.248   195.9750     0.7198    11.9951     0.0392      0.030      7.507     10.888        734 1.2540e-01 0.0000e+00
      7.657    11.8949     0.0807      0.747  59.067969     80.035      6.250   195.7858     0.7441    12.0757     0.0390      0.022      7.510     10.893        735 1.2564e-01 0.0000e+00
      7.664    11.9031     0.0784      0.726  59.412242     80.522      6.251   194.5743     0.6915    11.9683     0.0392      0.015      7.515     10.900        736 1.2558e-01 0.0000e+00
      7.668    11.9092     0.0828      0.767  59.254923     80.359      6.253   195.4072     0.7117    11.9951     0.0391      0.011      7.519     10.906        737 1.2557e-01 0.0000e+00
      7.670    11.9104     0.0834      0.772  58.818343     79.582      6.255   195.1422     0.6996    11.5789     0.0388      0.014      7.523     10.911        738 1.2567e-01 0.0000e+00
      7.676    11.9117     0.0752      0.696  59.242907     80.327      6.259   194.1958     0.7117    11.4849     0.0391      0.017      7.528     10.918        739 1.2556e-01 0.0000e+00
      7.682    11.9146     0.0783      0.725  59.379812     80.400      6.263   193.1736     0.7521    11.5117     0.0391      0.018      7.533     10.925        740 1.2558e-01 0.0000e+00
      7.685    11.9190     0.0795      0.736  59.212141     80.209      6.266   193.3629     0.7036    11.4983     0.0390      0.017      7.536     10.929        741 1.2570e-01 0.0000e+00
      7.685    11.9270     0.0789      0.730  59.451569     80.505      6.264   196.3158     0.7238    11.1894     0.0392      0.016      7.537     10.931        742 1.2554e-01 0.0000e+00
      7.686    11.9339     0.0752      0.696  59.319396     80.383      6.269   193.9308     0.7117    11.0955     0.0391      0.015      7.541     10.936        743 1.2542e-01 0.0000e+00
      7.696    11.9339     0.0772      0.714  59.109381     79.947      6.269   194.1200     0.7077    11.1223     0.0389      0.014      7.553     10.954        744 1.2562e-01 0.0000e+00
      7.725    11.9218     0.0711      0.658  59.594153     80.728      6.271   192.4543     0.7238    11.1223     0.0393      0.021      7.577     10.989        745 1.2565e-01 0.0000e+00
      7.758    11.9038     0.0786      0.728  62.101388     83.872      6.270   197.2622     0.6955    11.1223     0.0407      0.035      7.604     11.029        746 1.2556e-01 0.0000e+00
      7.777    11.8905     0.0762      0.707  65.225128     88.600      6.268   196.0508     0.8735    10.3838     0.0428      0.047      7.625     11.059        747 1.2564e-01 0.0000e+00
      7.790    11.8823     0.0757      0.702  65.745092     88.909      6.269   195.4829     0.8532    10.4643     0.0430      0.058      7.640     11.081        748 1.2559e-01 0.0000e+00
      7.806    11.8794     0.0757      0.702  67.454080     91.369      6.272   193.3629     0.8613    10.4912     0.0441      0.068      7.656     11.104        749 1.2551e-01 0.0000e+00
      7.823    11.8779     0.0707      0.656  70.287178     95.450      6.272   197.4515     0.8371    10.4375     0.0459      0.075      7.673     11.129        750 1.2550e-01 0.0000e+00
      7.844    11.8733     0.0738      0.685  70.775054     95.837      6.266   196.8458     0.8532     9.4572     0.0461      0.079      7.693     11.158        751 1.2543e-01 0.0000e+00
      7.869    11.8678     0.0725      0.673  72.194611     97.852      6.262   195.2179     0.8532     9.5647     0.0470      0.079      7.717     11.192        752 1.2541e-01 0.0000e+00
      7.894    11.8648     0.0777      0.722  74.641423    101.282      6.257   195.4072     0.8452     9.4841     0.0485      0.077      7.742     11.229        753 1.2557e-01 0.0000e+00
      7.922    11.8630     0.0752      0.698  76.614767    103.803      6.257   195.2936     0.8452     9.4438     0.0497      0.078      7.768     11.267        754 1.2555e-01 0.0000e+00
      7.948    11.8707     0.0700      0.650  77.613852    105.446      6.252   195.4829     0.8452     9.8869     0.0504      0.085      7.794     11.304        755 1.2546e-01 0.0000e+00
      7.972    11.9018     0.0680      0.631  84.157687    113.428      6.252   192.4165     0.8654     9.9406     0.0541      0.092      7.818     11.338        756 1.2547e-01 0.0000e+00
      7.994    11.9384     0.0713      0.662  95.288889    130.092      6.250   193.4765     0.8613     9.9809     0.0617      0.096      7.839     11.369        757 1.2549e-01 0.0000e+00
      8.012    11.9586     0.0725      0.673  98.940243    133.587      6.254   193.5900     0.8452     9.7929     0.0633      0.096      7.857     11.395        758 1.2546e-01 0.0000e+00
      8.030    11.9709     0.0739      0.685  98.083248    133.150      6.252   190.6750     0.9220     9.3364     0.0632      0.093      7.877     11.424        759 1.2553e-01 0.0000e+00
      8.055    11.9908     0.0781      0.724 100.698968    135.619      6.251   190.6750     0.9341     9.2424     0.0643      0.090      7.901     11.460        760 1.2563e-01 0.0000e+00
      8.087    12.0132     0.0761      0.706 107.528415    145.892      6.244   190.5993     0.8896     9.2424     0.0691      0.090      7.930     11.502        761 1.2554e-01 0.0000e+00
      8.117    12.0234     0.0754      0.700 111.309034    150.324      6.235   188.2143     0.9099     9.2827     0.0711      0.091      7.958     11.542        762 1.2547e-01 0.0000e+00
      8.140    12.0218     0.0801      0.743 111.143520    150.194      6.233   188.2522     1.0999     6.9194     0.0711      0.094      7.981     11.576        763 1.2542e-01 0.0000e+00
      8.160    12.0177     0.0783      0.726 110.770620    149.584      6.229   187.1922     1.1161     6.8254     0.0708      0.095      8.001     11.604        764 1.2547e-01 0.0000e+00
      8.176    12.0145     0.0766      0.711 111.028844    149.820      6.228   186.2079     1.0878     6.9462     0.0709      0.095      8.017     11.629        765 1.2561e-01 0.0000e+00
      8.190    12.0091     0.0749      0.695 111.179401    150.404      6.232   185.7157     1.1161     6.9328     0.0712      0.093      8.035     11.654        766 1.2558e-01 0.0000e+00
      8.216    11.9972     0.0754      0.700 110.583274    149.054      6.236   182.8386     1.1808     5.9391     0.0705      0.090      8.061     11.692        767 1.2548e-01 0.0000e+00
      8.256    11.9803     0.0728      0.675 110.192945    149.225      6.236   180.3779     1.1848     5.8720     0.0706      0.090      8.095     11.740        768 1.2557e-01 0.0000e+00
      8.291    11.9643     0.0767      0.712 108.837198    146.735      6.241   177.8414     1.2010     5.9123     0.0695      0.092      8.124     11.783        769 1.2561e-01 0.0000e+00
      8.306    11.9581     0.0790      0.733 108.311428    146.688      6.247   176.1378     1.2091     5.8317     0.0694      0.094      8.142     11.809        770 1.2541e-01 0.0000e+00
      8.313    11.9615     0.0788      0.731 108.465900    146.487      6.256   172.8064     1.4396     4.3546     0.0693      0.093      8.153     11.824        771 1.2550e-01 0.0000e+00
      8.322    11.9631     0.0759      0.704 108.406853    146.853      6.262   170.8000     1.4234     4.3412     0.0695      0.089      8.164     11.840        772 1.2558e-01 0.0000e+00
      8.339    11.9634     0.0770      0.714 108.771878    146.914      6.271   169.5507     1.4436     4.3949     0.0695      0.084      8.179     11.862        773 1.2549e-01 0.0000e+00
      8.359    11.9672     0.0802      0.744 110.184635    149.184      6.279   166.4085     1.4194     4.3681     0.0706      0.078      8.197     11.889        774 1.2561e-01 0.0000e+00
      8.378    11.9685     0.0761      0.705 111.113859    150.247      6.290   164.6671     1.4113     4.3546     0.0711      0.070      8.216     11.917        775 1.2560e-01 0.0000e+00
      8.398    11.9712     0.0717      0.665 111.961706    151.368      6.298   163.9478     1.4274     3.5892     0.0716      0.063      8.236     11.946        776 1.2550e-01 0.0000e+00
      8.420    11.9770     0.0747      0.692 114.041754    154.285      6.311   160.7299     1.4274     3.5758     0.0729      0.063      8.259     11.979        777 1.2547e-01 0.0000e+00
      8.446    11.9807     0.0756      0.700 114.717957    155.185      6.320   161.0328     1.4517     3.5758     0.0734      0.070      8.285     12.017        778 1.2564e-01 0.0000e+00
      8.478    11.9836     0.0740      0.685 115.020506    155.387      6.329   156.8685     1.4396     3.5758     0.0735      0.081      8.317     12.063        779 1.2557e-01 0.0000e+00
      8.519    11.9816     0.0745      0.690 116.523728    157.650      6.339   153.3099     1.9612     2.1524     0.0745      0.093      8.356     12.119        780 1.2556e-01 0.0000e+00
      8.565    11.9734     0.0733      0.678 116.450180    157.445      6.346   155.4299     1.9288     2.1390     0.0744      0.107      8.395     12.176        781 1.2558e-01 0.0000e+00
      8.596    11.9646     0.0786      0.727 115.647990    156.241      6.354   151.5306     1.9369     2.0853     0.0739      0.118      8.426     12.222        782 1.2558e-01 0.0000e+00
      8.617    11.9563     0.0731      0.676 115.943854    156.883      6.365   151.3792     1.9572     2.0450     0.0741      0.125      8.450     12.257        783 1.2562e-01 0.0000e+00
      8.640    11.9480     0.0791      0.731 115.426901    156.086      6.373   148.8428     2.2079     1.6825     0.0738      0.127      8.473     12.291        784 1.2544e-01 0.0000e+00
      8.666    11.9397     0.0796      0.736 114.772762    155.247      6.384   144.1863     2.2119     1.6288     0.0734      0.125      8.496     12.323        785 1.2551e-01 0.0000e+00
      8.684    11.9311     0.0808      0.747 114.584292    155.093      6.395   144.9056     2.2200     1.7093     0.0733      0.118      8.516     12.352        786 1.2550e-01 0.0000e+00
      8.702    11.9199     0.0772      0.714 114.797972    155.279      6.403   142.1042     2.2240     1.7093     0.0734      0.107      8.536     12.381        787 1.2551e-01 0.0000e+00
      8.728    11.9068     0.0739      0.683 114.387757    155.049      6.415   137.5992     2.3292     1.5885     0.0733      0.096      8.558     12.413        788 1.2557e-01 0.0000e+00
      8.751    11.8953     0.0744      0.687 113.040420    152.854      6.422   137.7506     2.3413     1.4945     0.0723      0.089      8.579     12.443        789 1.2555e-01 0.0000e+00
      8.765    11.8861     0.0726      0.671 112.782785    152.947      6.429   130.6713     2.3656     1.4408     0.0723      0.084      8.595     12.466        790 1.2559e-01 0.0000e+00
      8.777    11.8761     0.0729      0.673 112.266999    152.044      6.440   131.8070     2.3170     1.5348     0.0719      0.080      8.611     12.489        791 1.2554e-01 0.0000e+00
      8.801    11.8629     0.0739      0.683 111.508996    151.170      6.446   127.8320     2.4020     1.4676     0.0715      0.078      8.634     12.522        792 1.2552e-01 0.0000e+00
      8.834    11.8465     0.0763      0.705 111.314655    150.905      6.456   126.2420     2.3979     1.4139     0.0713      0.079      8.662     12.563        793 1.2550e-01 0.0000e+00
      8.863    11.8326     0.0796      0.734 110.811957    150.314      6.464   125.2577     2.4060     1.4945     0.0711      0.084      8.688     12.601        794 1.2539e-01 0.0000e+00
      8.881    11.8255     0.0821      0.758 110.527053    149.922      6.473   123.3270     2.4020     1.5482     0.0709      0.086      8.708     12.630        795 1.2543e-01 0.0000e+00
      8.897    11.8219     0.0767      0.707 110.627305    150.210      6.478   121.5098     2.4181     1.3333     0.0710      0.086      8.726     12.656        796 1.2549e-01 0.0000e+00
      8.917    11.8183     0.0827      0.763 111.103985    150.769      6.487   123.7813     2.3898     1.3736     0.0712      0.087      8.744     12.682        797 1.2548e-01 0.0000e+00
      8.935    11.8095     0.0796      0.735 112.255915    152.464      6.493   119.7305     2.4181     1.2931     0.0720      0.088      8.763     12.709        798 1.2557e-01 0.0000e+00
      8.955    11.7966     0.0737      0.680 113.629659    154.266      6.503   121.0555     2.3939     1.2125     0.0729      0.086      8.782     12.738        799 1.2556e-01 0.0000e+00
      8.978    11.7840     0.0749      0.691 114.693893    155.829      6.507   118.4055     2.3939     1.2393     0.0736      0.082      8.802     12.765        800 1.2554e-01 0.0000e+00
      8.992    11.7755     0.0741      0.683 115.308273    156.645      6.514   116.4748     2.3898     1.1856     0.0740      0.076      8.817     12.788        801 1.2559e-01 0.0000e+00
      9.002    11.7638     0.0719      0.664 115.515075    157.044      6.520   116.2098     2.4383     1.1991     0.0741      0.071      8.832     12.810        802 1.2560e-01 0.0000e+00
      9.025    11.7450     0.0748      0.690 116.818675    158.681      6.527   114.6198     2.4060     1.3065     0.0749      0.071      8.854     12.842        803 1.2559e-01 0.0000e+00
      9.059    11.7313     0.0717      0.661 120.237400    163.578      6.532   113.0298     2.3858     1.2393     0.0772      0.075      8.882     12.882        804 1.2554e-01 0.0000e+00
      9.086    11.7267     0.0762      0.703 124.662604    169.546      6.537   111.8184     2.4181     1.3199     0.0799      0.079      8.906     12.916        805 1.2548e-01 0.0000e+00
      9.097    11.7272     0.0721      0.665 125.966065    171.786      6.545   110.4555     2.4060     1.2931     0.0810      0.081      8.921     12.939        806 1.2549e-01 0.0000e+00
      9.108    11.7275     0.0764      0.704 125.615442    170.547      6.547   108.1841     2.3979     1.2125     0.0804      0.079      8.937     12.962        807 1.2547e-01 0.0000e+00
      9.137    11.7256     0.0731      0.674 129.806412    176.926      6.549   108.2976     2.4020     1.4676     0.0834      0.081      8.963     13.000        808 1.2545e-01 0.0000e+00
      9.175    11.7247     0.0771      0.710 132.668726    180.710      6.554   107.5405     2.4060     1.4542     0.0851      0.088      8.997     13.048        809 1.2566e-01 0.0000e+00
      9.209    11.7267     0.0721      0.664 135.104873    183.511      6.556   106.7455     2.4181     1.4945     0.0865      0.095      9.030     13.097        810 1.2565e-01 0.0000e+00
      9.239    11.7296     0.0713      0.657 140.991826    192.389      6.560   105.9126     2.4060     1.4139     0.0906      0.099      9.063     13.145        811 1.2553e-01 0.0000e+00
      9.278    11.7284     0.0752      0.693 143.466561    195.092      6.564   103.7548     2.3817     1.4139     0.0919      0.106      9.102     13.202        812 1.2549e-01 0.0000e+00
      9.330    11.7194     0.0792      0.730 143.532480    195.537      6.565   104.8905     2.3777     1.2125     0.0921      0.121      9.147     13.266        813 1.2552e-01 0.0000e+00
      9.372    11.7099     0.0736      0.678 142.967068    194.547      6.571   101.5591     2.4222     1.1991     0.0916      0.138      9.183     13.319        814 1.2561e-01 0.0000e+00
      9.388    11.7062     0.0754      0.695 142.291772    193.716      6.580   102.0891     2.4100     1.1588     0.0912      0.144      9.205     13.350        815 1.2564e-01 0.0000e+00
      9.399    11.7010     0.0756      0.697 142.613719    194.265      6.589    95.9183     2.4100     1.2662     0.0915      0.138      9.223     13.377        816 1.2560e-01 0.0000e+00
      9.430    11.6915     0.0708      0.653 142.476975    194.053      6.598    97.3948     2.5475     1.5079     0.0914      0.130      9.248     13.413        817 1.2551e-01 0.0000e+00
      9.461    11.6828     0.0702      0.648 142.223433    193.736      6.609    93.3062     2.5233     1.4945     0.0912      0.123      9.274     13.450        818 1.2557e-01 0.0000e+00
      9.478    11.6766     0.0699      0.645 142.094422    193.635      6.624    92.7005     2.5475     1.4542     0.0912      0.113      9.294     13.480        819 1.2556e-01 0.0000e+00
      9.494    11.6750     0.0610      0.563 141.832531    193.296      6.633    92.2840     2.5435     1.5213     0.0910      0.100      9.312     13.506        820 1.2542e-01 0.0000e+00
      9.516    11.6745     0.0742      0.685 141.982882    193.523      6.644    89.8990     2.5516     1.4542     0.0911      0.088      9.332     13.535        821 1.2545e-01 0.0000e+00
      9.539    11.6693     0.0698      0.644 141.996770    193.644      6.654    92.9655     2.5435     1.5348     0.0912      0.084      9.356     13.569        822 1.2556e-01 0.0000e+00
      9.566    11.6705     0.0700      0.646 141.606553    192.957      6.664    90.5426     2.5516     1.4945     0.0909      0.088      9.379     13.603        823 1.2555e-01 0.0000e+00
      9.585    11.6820     0.0728      0.672 144.227717    196.509      6.675    93.5712     2.5273     1.4676     0.0925      0.088      9.396     13.629        824 1.2548e-01 0.0000e+00
      9.593    11.6948     0.0773      0.713 145.592766    198.959      6.683    92.4355     2.6607     2.0047     0.0937      0.081      9.408     13.645        825 1.2544e-01 0.0000e+00
      9.601    11.7076     0.0787      0.726 146.169560    198.506      6.691    90.8833     2.6688     1.9376     0.0935      0.074      9.419     13.661        826 1.2551e-01 0.0000e+00
      9.621    11.7141     0.0763      0.704 150.786827    206.103      6.699    85.3562     2.6567     2.0047     0.0970      0.071      9.433     13.682        827 1.2552e-01 0.0000e+00
      9.635    11.7162     0.0752      0.693 152.253793    207.020      6.711    87.8169     2.6769     1.9510     0.0975      0.067      9.446     13.700        828 1.2549e-01 0.0000e+00
      9.639    11.7169     0.0733      0.676 151.323014    206.299      6.714    80.6619     2.6405     1.6690     0.0971      0.059      9.452     13.710        829 1.2551e-01 0.0000e+00
      9.642    11.7162     0.0761      0.702 151.020452    205.480      6.721    83.5769     2.6122     1.6556     0.0968      0.049      9.457     13.716        830 1.2552e-01 0.0000e+00
      9.648    11.7141     0.0768      0.709 150.065078    204.484      6.726    78.1633     2.5920     1.6422     0.0963      0.041      9.463     13.724        831 1.2557e-01 0.0000e+00
      9.656    11.7107     0.0720      0.664 149.141479    202.955      6.733    78.0497     2.5718     1.6288     0.0956      0.036      9.470     13.735        832 1.2562e-01 0.0000e+00
      9.664    11.7078     0.0669      0.618 148.620519    202.470      6.737    76.3840     2.5152     1.4542     0.0953      0.034      9.478     13.746        833 1.2551e-01 0.0000e+00
      9.672    11.7047     0.0730      0.674 148.476488    202.144      6.745    74.6047     2.5354     1.5482     0.0952      0.030      9.485     13.756        834 1.2547e-01 0.0000e+00
      9.678    11.7044     0.0763      0.704 148.903181    202.810      6.752    73.8854     2.5152     1.4139     0.0955      0.026      9.490     13.765        835 1.2548e-01 0.0000e+00
      9.683    11.7086     0.0723      0.668 150.415926    204.858      6.754    77.3304     2.5314     1.4676     0.0965      0.025      9.495     13.771        836 1.2544e-01 0.0000e+00
      9.686    11.7163     0.0752      0.694 151.187183    206.045      6.761    72.5225     2.6001     1.6959     0.0970      0.025      9.498     13.776        837 1.2554e-01 0.0000e+00
      9.688    11.7216     0.0705      0.650 150.896242    205.410      6.764    73.9990     2.5799     1.6959     0.0967      0.024      9.500     13.779        838 1.2551e-01 0.0000e+00
      9.690    11.7226     0.0743      0.686 150.599012    205.175      6.772    72.0683     2.6082     1.7228     0.0966      0.021      9.503     13.782        839 1.2552e-01 0.0000e+00
      9.692    11.7251 -9.990e-29 -9.990e-29 149.439326    203.422      6.774    71.5761     2.5920     1.7496     0.0958      0.017      9.505     13.786        840 1.2550e-01 0.0000e+00
      9.696    11.7268 -9.990e-29 -9.990e-29 147.954993    201.428      6.782    71.2354     2.6082     1.9242     0.0949      0.014      9.508     13.791        841 1.2549e-01 0.0000e+00
      9.700    11.7287 -9.990e-29 -9.990e-29 147.912773    201.300      6.785    68.6232     2.6244     1.9376     0.0948      0.012      9.512     13.795        842 1.2560e-01 0.0000e+00
      9.702    11.7375 -9.990e-29 -9.990e-29 147.732208    201.251      6.786    69.3047     2.6082     1.8705     0.0948      0.011      9.514     13.799        843 1.2557e-01 0.0000e+00
      9.703    11.7475 -9.990e-29 -9.990e-29 147.225358    200.211      6.793    64.5347     2.6082     1.9107     0.0943      0.010      9.516     13.801        844 1.2564e-01 0.0000e+00
      9.704    11.7498 -9.990e-29 -9.990e-29 148.155845    201.766      6.795    65.2161     2.7376     1.8436     0.0950      0.010      9.517     13.803        845 1.2551e-01 0.0000e+00
      9.705    11.7485 -9.990e-29 -9.990e-29 150.481264    204.542      6.801    61.1275     2.7254     1.8436     0.0963      0.009      9.518     13.804        846 1.2547e-01 0.0000e+00
      9.706    11.7526 -9.990e-29 -9.990e-29 151.101827    205.943      6.802    63.1339     2.7214     1.9242     0.0970      0.008      9.518     13.805        847 1.2558e-01 0.0000e+00
      9.706    11.7562 -9.990e-29 -9.990e-29 150.157416    203.849      6.808    59.6511     2.7416     1.9107     0.0960      0.007      9.518     13.805        848 1.2545e-01 0.0000e+00
      9.706    11.7559 -9.990e-29 -9.990e-29 149.956389    204.437      6.811    62.2254     2.7295     1.6959     0.0963      0.005      9.518     13.805        849 1.2550e-01 0.0000e+00
      9.706 -9.990e-29 -9.990e-29 -9.990e-29 149.234275    202.581      6.815    57.9475     2.7376     1.6422     0.0954      0.003      9.519     13.806        850 1.2549e-01 0.0000e+00
      9.708 -9.990e-29 -9.990e-29 -9.990e-29 148.640156    202.546      6.819    61.8089     2.7254     1.6153     0.0954      0.002      9.519     13.806        851 1.2543e-01 0.0000e+00
