* Sea-Bird SBE19plus  Data File:
* FileName = C:\DATA\SBE19plus_01907809_2019_09_02_0003.hex
* Software version 2.8.0.119 SB_Terminal.dll
* Temperature SN = 7809
* Conductivity SN = 7809
* System UpLoad Time = Sep 02 2019 11:49:47
* <ApplicationData>
* <Seaterm232>
* <SoftwareVersion>2.8.0.119</SoftwareVersion>
* <BuildDate>07-Nov-2018</BuildDate>
* </Seaterm232>
* </ApplicationData>
* cast   3 02 Sep 2019 11:24:38 samples 903 to 1330, avg = 1, stop = mag switch
# nquan = 15
# nvalues = 356                         
# units = specified
# name 0 = depFM: Depth [fresh water, m]
# name 1 = dz/dtM: Descent Rate [m/s]
# name 2 = sbeox0ML/L: Oxygen, SBE 43 [ml/l]
# name 3 = sbeox0PS: Oxygen, SBE 43 [% saturation]
# name 4 = specc: Specific Conductance [uS/cm]
# name 5 = c0uS/cm: Conductivity [uS/cm]
# name 6 = flECO-AFL: Fluorescence, WET Labs ECO-AFL/FL [mg/m^3]
# name 7 = ph: pH
# name 8 = orp: Oxidation Reduction Potential [mV]
# name 9 = par/sat/log: PAR/Logarithmic, Satlantic
# name 10 = turbWETntu0: Turbidity, WET Labs ECO [NTU]
# name 11 = prdM: Pressure, Strain Gauge [db]
# name 12 = prdE: Pressure, Strain Gauge [psi]
# name 13 = tv290C: Temperature [ITS-90, deg C]
# name 14 = flag:  0.000e+00
# span 0 =     -0.550,      5.095       
# span 1 =     -0.284,      0.263       
# span 2 =    -0.3332,     6.7989       
# span 3 =     -5.109,    113.638       
# span 4 =     27.866,     95.046       
# span 5 =  27.548904,  76.411082       
# span 6 =    -0.1831,     7.8763       
# span 7 =      6.256,      7.611       
# span 8 =   174.2644,   349.3088       
# span 9 = 1.7265e-01, 1.5128e+03       
# span 10 =    -5.3761,    56.9198      
# span 11 =     -0.539,      4.997      
# span 12 =     -0.783,      7.248      
# span 13 =    12.4207,    25.0753      
# span 14 = 0.0000e+00, 0.0000e+00      
# interval = seconds: 0.25
# start_time = Sep 02 2019 11:24:38 [Instrument's time stamp, header]
# bad_flag = -9.990e-29
# <Sensors count="9" >
#   <sensor Channel="1" >
#     <!-- Count, Temperature -->
#     <TemperatureSensor SensorID="58" >
#       <SerialNumber>7809</SerialNumber>
#       <CalibrationDate>24-Mar-19</CalibrationDate>
#       <A0>1.21792325e-003</A0>
#       <A1>2.81669265e-004</A1>
#       <A2>-1.60333336e-006</A2>
#       <A3>1.98414625e-007</A3>
#       <Slope>1.00000000</Slope>
#       <Offset>0.0000</Offset>
#     </TemperatureSensor>
#   </sensor>
#   <sensor Channel="2" >
#     <!-- Frequency 0, Conductivity -->
#     <ConductivitySensor SensorID="3" >
#       <SerialNumber>7809</SerialNumber>
#       <CalibrationDate>24-Mar-19</CalibrationDate>
#       <UseG_J>1</UseG_J>
#       <!-- Cell const and series R are applicable only for wide range sensors. -->
#       <SeriesR>0.0000</SeriesR>
#       <CellConst>2000.0000</CellConst>
#       <ConductivityType>0</ConductivityType>
#       <Coefficients equation="0" >
#         <A>0.00000000e+000</A>
#         <B>0.00000000e+000</B>
#         <C>0.00000000e+000</C>
#         <D>0.00000000e+000</D>
#         <M>0.0</M>
#         <CPcor>-9.57000000e-008</CPcor>
#       </Coefficients>
#       <Coefficients equation="1" >
#         <G>-1.00589325e+000</G>
#         <H>1.26816302e-001</H>
#         <I>-1.51560448e-004</I>
#         <J>2.67137274e-005</J>
#         <CPcor>-9.57000000e-008</CPcor>
#         <CTcor>3.2500e-006</CTcor>
#         <!-- WBOTC not applicable unless ConductivityType = 1. -->
#         <WBOTC>0.00000000e+000</WBOTC>
#       </Coefficients>
#       <Slope>1.00000000</Slope>
#       <Offset>0.00000</Offset>
#     </ConductivitySensor>
#   </sensor>
#   <sensor Channel="3" >
#     <!-- Count, Pressure, Strain Gauge -->
#     <PressureSensor SensorID="46" >
#       <SerialNumber>7809</SerialNumber>
#       <CalibrationDate>11-Mar-19</CalibrationDate>
#       <PA0>4.56561833e-002</PA0>
#       <PA1>4.85095118e-004</PA1>
#       <PA2>-2.88327090e-012</PA2>
#       <PTEMPA0>-5.48784562e+001</PTEMPA0>
#       <PTEMPA1>5.53756816e+001</PTEMPA1>
#       <PTEMPA2>-5.86727098e-001</PTEMPA2>
#       <PTCA0>5.25246745e+005</PTCA0>
#       <PTCA1>1.22304214e+001</PTCA1>
#       <PTCA2>-3.56745036e-001</PTCA2>
#       <PTCB0>2.51668750e+001</PTCB0>
#       <PTCB1>3.75000000e-004</PTCB1>
#       <PTCB2>0.00000000e+000</PTCB2>
#       <Offset>0.000000</Offset>
#     </PressureSensor>
#   </sensor>
#   <sensor Channel="4" >
#     <!-- A/D voltage 0, Oxygen, SBE 43 -->
#     <OxygenSensor SensorID="38" >
#       <SerialNumber>0434</SerialNumber>
#       <CalibrationDate>13-Apr-19</CalibrationDate>
#       <Use2007Equation>1</Use2007Equation>
#       <CalibrationCoefficients equation="0" >
#         <!-- Coefficients for Owens-Millard equation. -->
#         <Boc>0.0000</Boc>
#         <Soc>0.0000e+000</Soc>
#         <offset>0.0000</offset>
#         <Pcor>0.00e+000</Pcor>
#         <Tcor>0.0000</Tcor>
#         <Tau>0.0</Tau>
#       </CalibrationCoefficients>
#       <CalibrationCoefficients equation="1" >
#         <!-- Coefficients for Sea-Bird equation - SBE calibration in 2007 and later. -->
#         <Soc>4.2007e-001</Soc>
#         <offset>-0.6109</offset>
#         <A>-4.3656e-003</A>
#         <B> 1.7017e-004</B>
#         <C>-2.5341e-006</C>
#         <D0> 2.5826e+000</D0>
#         <D1> 1.92634e-004</D1>
#         <D2>-4.64803e-002</D2>
#         <E> 3.6000e-002</E>
#         <Tau20> 1.1800</Tau20>
#         <H1>-3.3000e-002</H1>
#         <H2> 5.0000e+003</H2>
#         <H3> 1.4500e+003</H3>
#       </CalibrationCoefficients>
#     </OxygenSensor>
#   </sensor>
#   <sensor Channel="5" >
#     <!-- A/D voltage 1, PAR/Logarithmic, Satlantic -->
#     <PARLog_SatlanticSensor SensorID="76" >
#       <SerialNumber>1122</SerialNumber>
#       <CalibrationDate>08-May-2019</CalibrationDate>
#       <a0>9.7456e-001</a0>
#       <a1>8.1640e-001</a1>
#       <Im>1.3589e+000</Im>
#       <Multiplier>1.0000e+000</Multiplier>
#     </PARLog_SatlanticSensor>
#   </sensor>
#   <sensor Channel="6" >
#     <!-- A/D voltage 2, pH -->
#     <pH_Sensor SensorID="43" >
#       <SerialNumber>0363</SerialNumber>
#       <CalibrationDate>15-Apr-19</CalibrationDate>
#       <Slope>4.5952</Slope>
#       <Offset>2.5370</Offset>
#     </pH_Sensor>
#   </sensor>
#   <sensor Channel="7" >
#     <!-- A/D voltage 3, Oxidation Reduction Potential -->
#     <OxidationReductionPotentialSensor SensorID="41" >
#       <SerialNumber>0363</SerialNumber>
#       <CalibrationDate>15-Apr-19</CalibrationDate>
#       <B>2.499480</B>
#       <M>-0.496195</M>
#       <Offset>0.0</Offset>
#     </OxidationReductionPotentialSensor>
#   </sensor>
#   <sensor Channel="8" >
#     <!-- A/D voltage 4, Fluorometer, WET Labs ECO-AFL/FL -->
#     <FluoroWetlabECO_AFL_FL_Sensor SensorID="20" >
#       <SerialNumber>FLNTURT-2496</SerialNumber>
#       <CalibrationDate>08-May-2019</CalibrationDate>
#       <ScaleFactor>5.00000000e+001</ScaleFactor>
#       <!-- Dark output -->
#       <Vblank>0.0550</Vblank>
#     </FluoroWetlabECO_AFL_FL_Sensor>
#   </sensor>
#   <sensor Channel="9" >
#     <!-- A/D voltage 5, Turbidity Meter, WET Labs, ECO-NTU -->
#     <TurbidityMeter SensorID="67" >
#       <SerialNumber>FLNTURT-2496</SerialNumber>
#       <CalibrationDate>08-May-2019</CalibrationDate>
#       <ScaleFactor>189.000000</ScaleFactor>
#       <!-- Dark output -->
#       <DarkVoltage>0.071000</DarkVoltage>
#     </TurbidityMeter>
#   </sensor>
# </Sensors>
# datcnv_date = Sep 18 2019 09:14:15, 7.26.7.129 [datcnv_vars = 14]
# datcnv_in = C:\DATA\090219_fcr30.hex C:\DATA\SBE19plusV2_7809.xmlcon
# datcnv_skipover = 0
# datcnv_ox_hysteresis_correction = yes
# datcnv_ox_tau_correction = yes
# filter_date = Sep 18 2019 09:14:32, 7.26.7.129
# filter_in = C:\DATA\090219_fcr30.cnv
# filter_low_pass_tc_A = 0.030
# filter_low_pass_tc_B = 0.150
# filter_low_pass_A_vars = sbeox0ML/L prdM prdE tv290C
# filter_low_pass_B_vars = depFM dz/dtM sbeox0PS specc c0uS/cm flECO-AFL ph orp par/sat/log turbWETntu0
# alignctd_date = Sep 18 2019 09:15:31, 7.26.7.129
# alignctd_in = C:\DATA\090219_fcr30.cnv
# alignctd_adv = dz/dtM 1.000, sbeox0PS 1.000, specc 1.000, c0uS/cm 1.000, flECO-AFL 1.000, ph 1.000, orp 1.000, turbWETntu0 1.000                                                                                                   
# file_type = ascii
*END*
     -0.549     -0.001     5.7257     94.870     37.378  36.047919    -0.1752      6.348   349.3088 1.5128e+03    -0.0847     -0.538     -0.781    23.1475 0.0000e+00
     -0.550     -0.001     5.7146     94.593     37.794  36.502577    -0.1831      6.348   342.1161 1.2097e+03    -0.0598     -0.539     -0.782    23.1513 0.0000e+00
     -0.550      0.000     5.7018     94.344     37.715  36.541673    -0.1434      6.338   336.9260 5.5248e+02     0.0243     -0.539     -0.782    23.1618 0.0000e+00
     -0.550      0.000     5.6906     94.145     37.513  36.520796    -0.0501      6.322   330.6938 1.7881e+02     0.1129     -0.539     -0.782    23.1774 0.0000e+00
     -0.550      0.000     5.6727     93.995     37.118  36.313886     0.0002      6.299   286.3804 1.4971e+02     0.1265     -0.539     -0.782    23.2049 0.0000e+00
     -0.550      0.004     5.6487     93.897     33.628  33.024641     0.0047      6.256   211.0264 1.4936e+02     0.1231     -0.539     -0.782    23.2533 0.0000e+00
     -0.549      0.015     5.6183     93.830     28.636  28.221961     0.0218      6.291   195.9279 1.5246e+02     0.0388     -0.538     -0.781    23.4002 0.0000e+00
     -0.549      0.036     5.5780     93.795     27.866  27.548904     0.1377      6.525   235.5517 1.5914e+02    -1.3842     -0.539     -0.781    23.6747 0.0000e+00
     -0.548      0.068     5.5409     93.795     30.763  30.476100     0.3303      6.862   256.4764 1.6699e+02    -4.0384     -0.539     -0.783    23.9352 0.0000e+00
     -0.538      0.105     5.5168     93.815     34.883  34.617326     0.4262      7.146   258.2634 1.7234e+02    -5.3761     -0.536     -0.778    24.1282 0.0000e+00
     -0.506      0.142     5.4951     93.859     37.412  37.195994     0.4395      7.339   257.8466 1.7511e+02    -4.3848     -0.505     -0.732    24.2968 0.0000e+00
     -0.451      0.177     5.4791     93.994     37.667  37.539814     0.5080      7.456   254.6202 1.7650e+02     7.5873     -0.446     -0.645    24.4321 0.0000e+00
     -0.387      0.210     5.4700     94.278     37.611  37.568546     0.6218      7.526   250.8303 1.7658e+02    29.5246     -0.378     -0.548    24.5285 0.0000e+00
     -0.327      0.239     5.4637     94.666     37.531  37.543525     0.6797      7.573   249.4502 1.7565e+02    41.4144     -0.318     -0.461    24.6009 0.0000e+00
     -0.272      0.258     5.4558     95.093     37.451  37.491265     0.6867      7.601   249.2909 1.6906e+02    41.7235     -0.268     -0.389    24.6916 0.0000e+00
     -0.213      0.263     5.4469     95.348     37.391  37.444510     0.7594      7.611   248.7329 1.4523e+02    33.2616     -0.216     -0.314    24.8292 0.0000e+00
     -0.137      0.255     5.4538     95.144     37.365  37.422555     0.8995      7.608   248.0374 1.0770e+02    17.5586     -0.141     -0.204    24.9553 0.0000e+00
     -0.049      0.235     5.4683     94.456     37.360  37.416232     0.9767      7.596   247.0767 7.7471e+01     9.0030     -0.041     -0.061    25.0260 0.0000e+00
      0.025      0.205     5.4943     93.451     37.324  37.368057     0.9820      7.578   245.5487 6.1264e+01     8.2074      0.036      0.052    25.0552 0.0000e+00
      0.072      0.167     5.5171     92.204     37.269  37.284386     0.9890      7.558   243.7589 5.1958e+01     7.9399      0.076      0.109    25.0672 0.0000e+00
      0.098      0.125     5.5036     90.747     37.255  37.229695     1.0090      7.539   242.0414 4.8490e+01     7.6029      0.102      0.147    25.0753 0.0000e+00
      0.112      0.085     5.4589     89.253     37.277  37.214518     1.0252      7.522   240.7865 5.0073e+01     7.4105      0.112      0.162    25.0728 0.0000e+00
      0.122      0.055     5.4007     87.908     37.313  37.227783     1.0290      7.506   240.2008 5.3271e+01     7.3840      0.117      0.168    25.0613 0.0000e+00
      0.135      0.035     5.3340     86.765     37.358  37.263101     1.0286      7.492   240.1222 5.7065e+01     7.4459      0.134      0.193    25.0241 0.0000e+00
      0.145      0.022     5.2511     85.833     37.362  37.260678     1.0288      7.481   240.2661 6.0928e+01     7.5679      0.147      0.213    24.9573 0.0000e+00
      0.148      0.012     5.1653     85.118     37.307  37.198482     1.0308      7.472   240.1344 6.4316e+01     7.6471      0.146      0.212    24.9016 0.0000e+00
      0.146      0.006     5.0897     84.588     37.262  37.145824     1.0360      7.463   239.7344 6.5019e+01     7.6493      0.143      0.207    24.8752 0.0000e+00
      0.143      0.001     5.0248     84.241     37.255  37.131777     1.0315      7.452   239.5601 6.2787e+01     7.5947      0.141      0.204    24.8650 0.0000e+00
      0.140      0.000     4.9701     84.067     37.285  37.155576     1.0105      7.440   239.6619 6.1290e+01     7.4792      0.138      0.200    24.8588 0.0000e+00
      0.139      0.002     4.9312     83.929     37.315  37.179676     0.9909      7.427   239.6748 6.1271e+01     7.3341      0.136      0.197    24.8493 0.0000e+00
      0.141      0.004     4.9017     83.699     37.311  37.169258     0.9847      7.416   239.3715 6.1235e+01     7.2499      0.138      0.200    24.8382 0.0000e+00
      0.146      0.007     4.8806     83.348     37.306  37.156554     0.9792      7.406   239.0060 6.0746e+01     7.2140      0.144      0.208    24.8289 0.0000e+00
      0.149      0.009     4.8759     82.840     37.311  37.153007     0.9673      7.397   238.4385 5.9858e+01     7.2619      0.148      0.214    24.8208 0.0000e+00
      0.150      0.009     4.8717     82.146     37.294  37.126362     0.9620      7.388   237.5000 5.9291e+01     7.4025      0.147      0.213    24.8127 0.0000e+00
      0.151      0.007     4.8585     81.302     37.266  37.088270     0.9670      7.381   236.6932 5.8894e+01     7.4710      0.147      0.214    24.8047 0.0000e+00
      0.155      0.004     4.8401     80.400     37.261  37.073257     0.9760      7.375   236.2554 5.8573e+01     7.4683      0.152      0.220    24.7956 0.0000e+00
      0.158      0.002     4.8126     79.520     37.267  37.071780     0.9759      7.369   235.9916 5.9034e+01     7.4356      0.156      0.227    24.7834 0.0000e+00
      0.158      0.001     4.7726     78.688     37.273  37.070399     0.9663      7.363   234.6221 5.9708e+01     7.4036      0.157      0.227    24.7695 0.0000e+00
      0.155      0.001     4.7228     77.948     37.267  37.056549     0.9635      7.357   231.6570 6.0209e+01     7.4415      0.151      0.219    24.7550 0.0000e+00
      0.153      0.002     4.6694     77.372     37.249  37.031264     0.9680      7.351   229.9964 6.0933e+01     7.5007      0.148      0.214    24.7420 0.0000e+00
      0.153      0.005     4.6194     77.001     37.242  37.018558     0.9855      7.346   230.6321 6.1649e+01     7.4971      0.150      0.218    24.7317 0.0000e+00
      0.156      0.010     4.5712     76.871     37.260  37.029867     1.0108      7.341   231.5136 6.1912e+01     7.4298      0.153      0.221    24.7212 0.0000e+00
      0.159      0.014     4.5270     77.003     37.278  37.041043     1.0137      7.336   228.5236 6.2072e+01     7.3754      0.155      0.225    24.7101 0.0000e+00
      0.164      0.014     4.4937     77.311     37.271  37.026725     1.0122      7.331   220.0336 6.2544e+01     7.3634      0.160      0.232    24.7010 0.0000e+00
      0.170      0.012     4.4723     77.673     37.234  36.983685     1.0268      7.326   213.3535 6.3593e+01     7.3174      0.167      0.242    24.6946 0.0000e+00
      0.176      0.008     4.4638     78.034     37.223  36.964955     1.0347      7.320   214.6935 6.5104e+01     7.2137      0.174      0.252    24.6868 0.0000e+00
      0.178      0.003     4.4747     78.368     37.257  36.990676     1.0292      7.314   220.5752 6.6432e+01     7.1574      0.176      0.255    24.6767 0.0000e+00
      0.176     -0.002     4.4969     78.688     37.252  36.977291     1.0212      7.308   224.4994 6.7570e+01     7.1613      0.173      0.250    24.6672 0.0000e+00
      0.172     -0.006     4.5186     78.987     37.212  36.930056     1.0160      7.303   226.7785 6.8560e+01     7.1616      0.168      0.244    24.6578 0.0000e+00
      0.168     -0.008     4.5420     79.181     37.215  36.927335     1.0176      7.297   229.0315 6.9174e+01     7.2596      0.164      0.238    24.6476 0.0000e+00
      0.165     -0.006     4.5614     79.262     37.238  36.944385     1.0243      7.289   225.3259 6.9724e+01     7.4617      0.161      0.234    24.6365 0.0000e+00
      0.164     -0.003     4.5802     79.304     37.244  36.945779     1.0275      7.283   215.4437 7.0399e+01     7.5727      0.160      0.233    24.6247 0.0000e+00
      0.164      0.001     4.6021     79.365     37.246  36.944179     1.0308      7.278   208.9216 7.0688e+01     7.5859      0.160      0.232    24.6148 0.0000e+00
      0.165      0.005     4.6137     79.449     37.230  36.925041     1.0467      7.275   207.1259 7.0369e+01     7.5560      0.161      0.235    24.6068 0.0000e+00
      0.167      0.007     4.6169     79.515     37.213  36.904794     1.0721      7.272   205.9493 6.9716e+01     7.4735      0.164      0.238    24.5995 0.0000e+00
      0.170      0.007     4.6187     79.519     37.203  36.889787     1.0859      7.268   205.1064 6.9350e+01     7.4078      0.166      0.241    24.5939 0.0000e+00
      0.173      0.006     4.6224     79.409     37.188  36.870537     1.0838      7.266   204.5060 7.0235e+01     7.3848      0.170      0.247    24.5897 0.0000e+00
      0.174      0.004     4.6291     79.189     37.184  36.862445     1.0902      7.264   203.7669 7.2140e+01     7.3253      0.173      0.250    24.5851 0.0000e+00
      0.174      0.003     4.6339     78.891     37.181  36.855414     1.1201      7.261   203.2254 7.3878e+01     7.2462      0.171      0.249    24.5796 0.0000e+00
      0.173      0.002     4.6363     78.497     37.178  36.848999     1.1505      7.256   203.0347 7.5098e+01     7.2152      0.170      0.247    24.5732 0.0000e+00
      0.173      0.002     4.6305     77.985     37.181  36.848356     1.1538      7.250   202.8378 7.6011e+01     7.1802      0.169      0.246    24.5670 0.0000e+00
      0.174      0.003     4.6163     77.388     37.182  36.847626     1.1593      7.245   202.6516 7.6806e+01     7.2155      0.171      0.247    24.5612 0.0000e+00
      0.176      0.005     4.6005     76.773     37.177  36.840173     1.1915      7.240   202.5035 7.7562e+01     7.3468      0.173      0.250    24.5560 0.0000e+00
      0.177      0.006     4.5788     76.219     37.161  36.821709     1.2145      7.235   202.2519 7.7673e+01     7.4244      0.174      0.252    24.5510 0.0000e+00
      0.179      0.006     4.5483     75.798     37.156  36.814789     1.2117      7.227   201.9333 7.6903e+01     7.4331      0.176      0.255    24.5469 0.0000e+00
      0.182      0.005     4.5125     75.528     37.164  36.819982     1.2015      7.220   201.6626 7.5910e+01     7.4194      0.178      0.258    24.5438 0.0000e+00
      0.184      0.002     4.4751     75.372     37.168  36.821020     1.2033      7.215   201.4732 7.5385e+01     7.4221      0.181      0.263    24.5411 0.0000e+00
      0.185     -0.001     4.4414     75.265     37.176  36.827338     1.2158      7.210   201.3647 7.5816e+01     7.4324      0.183      0.265    24.5382 0.0000e+00
      0.184     -0.003     4.4163     75.153     37.185  36.832893     1.2224      7.206   201.3830 7.6521e+01     7.4139      0.181      0.263    24.5349 0.0000e+00
      0.181     -0.003     4.4026     75.063     37.180  36.824712     1.2228      7.203   201.4368 7.6667e+01     7.3942      0.177      0.257    24.5315 0.0000e+00
      0.178     -0.003     4.3941     74.943     37.149  36.791890     1.2203      7.199   201.4119 7.6699e+01     7.3911      0.173      0.251    24.5279 0.0000e+00
      0.178     -0.002     4.3910     74.647     37.114  36.753400     1.2182      7.195   201.3405 7.6827e+01     7.4096      0.173      0.250    24.5243 0.0000e+00
      0.180      0.000     4.3825     74.186     37.104  36.740166     1.2237      7.192   201.1762 7.7126e+01     7.4209      0.177      0.255    24.5208 0.0000e+00
      0.182      0.002     4.3775     73.616     37.126  36.758826     1.2265      7.188   201.0595 7.7511e+01     7.4294      0.179      0.259    24.5167 0.0000e+00
      0.182      0.005     4.3778     72.950     37.158  36.788594     1.2259      7.184   201.1340 7.7168e+01     7.4464      0.178      0.259    24.5125 0.0000e+00
      0.182      0.006     4.3580     72.237     37.154  36.782715     1.2430      7.179   201.2172 7.6524e+01     7.4302      0.177      0.257    24.5080 0.0000e+00
      0.182      0.006     4.3302     71.523     37.124  36.751205     1.2676      7.172   201.2045 7.6329e+01     7.4305      0.178      0.258    24.5035 0.0000e+00
      0.184      0.006     4.2982     70.839     37.099  36.724985     1.2803      7.163   201.0669 7.5979e+01     7.4492      0.180      0.261    24.4997 0.0000e+00
      0.189      0.005     4.2575     70.181     37.095  36.719573     1.2842      7.155   200.8436 7.5438e+01     7.4269      0.186      0.269    24.4964 0.0000e+00
      0.191      0.005     4.2156     69.557     37.127  36.749241     1.2797      7.147   200.7418 7.5040e+01     7.3910      0.189      0.275    24.4941 0.0000e+00
      0.191      0.005     4.1730     69.017     37.147  36.766321     1.2696      7.140   200.7825 7.4770e+01     7.3758      0.188      0.273    24.4921 0.0000e+00
      0.189      0.006     4.1337     68.580     37.118  36.735671     1.2671      7.131   200.8199 7.4927e+01     7.3740      0.186      0.270    24.4897 0.0000e+00
      0.188      0.008     4.0960     68.231     37.081  36.696018     1.2926      7.121   200.8489 7.4854e+01     7.4024      0.183      0.265    24.4873 0.0000e+00
      0.190      0.010     4.0575     67.956     37.055  36.667706     1.3341      7.111   200.9610 7.4170e+01     7.4897      0.184      0.266    24.4848 0.0000e+00
      0.198      0.010     4.0263     67.696     37.035  36.647246     1.3443      7.103   201.1431 7.3580e+01     7.5770      0.194      0.282    24.4829 0.0000e+00
      0.205      0.008     4.0015     67.391     37.026  36.639054     1.3292      7.097   201.1576 7.3168e+01     7.6057      0.202      0.295    24.4797 0.0000e+00
      0.207      0.005     3.9813     67.042     37.018  36.632129     1.3253      7.092   200.9644 7.3164e+01     7.5750      0.204      0.297    24.4742 0.0000e+00
      0.207      0.000     3.9669     66.663     37.013  36.626982     1.3318      7.088   200.8716 7.3520e+01     7.5008      0.204      0.296    24.4714 0.0000e+00
      0.204     -0.002     3.9537     66.260     37.028  36.640299     1.3384      7.085   200.8964 7.3816e+01     7.4291      0.200      0.290    24.4714 0.0000e+00
      0.199     -0.001     3.9352     65.857     37.056  36.666196     1.3449      7.082   200.9199 7.4334e+01     7.3970      0.194      0.282    24.4722 0.0000e+00
      0.197      0.004     3.9143     65.486     37.079  36.686211     1.3489      7.077   200.9844 7.4804e+01     7.5056      0.191      0.278    24.4727 0.0000e+00
      0.197      0.013     3.8927     65.190     37.087  36.691877     1.3438      7.071   201.0733 7.4448e+01     7.7257      0.192      0.279    24.4722 0.0000e+00
      0.202      0.022     3.8682     64.999     37.069  36.671223     1.3355      7.064   201.2203 7.3685e+01     7.8301      0.197      0.286    24.4708 0.0000e+00
      0.211      0.027     3.8447     64.890     37.027  36.626908     1.3348      7.056   201.3859 7.3090e+01     7.8177      0.206      0.299    24.4679 0.0000e+00
      0.223      0.027     3.8221     64.805     37.001  36.600366     1.3363      7.050   201.4407 7.2071e+01     7.8048      0.218      0.315    24.4644 0.0000e+00
      0.235      0.022     3.8041     64.668     37.006  36.604196     1.3358      7.046   201.3670 7.1165e+01     7.7074      0.232      0.336    24.4610 0.0000e+00
      0.243      0.015     3.7940     64.455     37.013  36.609742     1.3373      7.042   201.1827 7.1498e+01     7.5247      0.241      0.350    24.4576 0.0000e+00
      0.243      0.007     3.7889     64.197     37.009  36.603943     1.3366      7.040   201.1054 7.2714e+01     7.4312      0.239      0.347    24.4539 0.0000e+00
      0.238      0.001     3.7864     63.929     37.005  36.597546     1.3272      7.039   201.2924 7.4179e+01     7.4282      0.233      0.337    24.4511 0.0000e+00
      0.233     -0.001     3.7787     63.630     37.006  36.595872     1.3199      7.036   201.5509 7.5593e+01     7.4241      0.228      0.331    24.4506 0.0000e+00
      0.232      0.001     3.7655     63.280     36.996  36.583699     1.3256      7.033   201.7361 7.6605e+01     7.4138      0.226      0.329    24.4499 0.0000e+00
      0.233      0.004     3.7491     62.917     36.992  36.577294     1.3352      7.029   201.8108 7.6976e+01     7.4343      0.229      0.331    24.4476 0.0000e+00
      0.236      0.006     3.7347     62.576     37.000  36.581910     1.3414      7.025   201.7654 7.7144e+01     7.4429      0.232      0.336    24.4442 0.0000e+00
      0.241      0.006     3.7186     62.262     36.996  36.576036     1.3573      7.021   201.7034 7.7359e+01     7.4198      0.237      0.343    24.4403 0.0000e+00
      0.246      0.005     3.6966     61.980     36.992  36.569732     1.3880      7.018   201.7504 7.7382e+01     7.4163      0.242      0.352    24.4364 0.0000e+00
      0.247      0.003     3.6754     61.752     36.993  36.569159     1.4097      7.016   201.8168 7.7277e+01     7.4009      0.243      0.353    24.4331 0.0000e+00
      0.245      0.001     3.6552     61.567     36.995  36.569106     1.4107      7.014   201.8173 7.7218e+01     7.3983      0.240      0.348    24.4300 0.0000e+00
      0.241      0.000     3.6378     61.404     36.997  36.569091     1.4008      7.011   201.9289 7.7465e+01     7.4175      0.236      0.342    24.4271 0.0000e+00
      0.240      0.000     3.6200     61.254     36.998  36.568977     1.3941      7.008   202.1338 7.7935e+01     7.4038      0.234      0.339    24.4243 0.0000e+00
      0.242      0.000     3.6076     61.091     36.998  36.567728     1.3994      7.003   202.3158 7.8273e+01     7.3963      0.238      0.345    24.4214 0.0000e+00
      0.245      0.001     3.5978     60.920     36.986  36.553984     1.4048      6.998   202.4088 7.8579e+01     7.3923      0.241      0.350    24.4188 0.0000e+00
      0.246      0.001     3.5877     60.755     36.963  36.529741     1.3981      6.993   202.3981 7.9095e+01     7.3882      0.242      0.350    24.4165 0.0000e+00
      0.245      0.000     3.5808     60.595     36.964  36.528496     1.3795      6.988   202.5301 7.9845e+01     7.3132      0.241      0.350    24.4141 0.0000e+00
      0.244     -0.002     3.5705     60.444     36.976  36.538926     1.3523      6.983   202.6289 8.0454e+01     7.1082      0.239      0.347    24.4119 0.0000e+00
      0.242     -0.002     3.5605     60.310     36.967  36.528906     1.3296      6.979   202.4743 8.0717e+01     6.9742      0.237      0.344    24.4100 0.0000e+00
      0.242     -0.001     3.5508     60.189     36.974  36.534291     1.3213      6.977   202.3812 8.0932e+01     6.9388      0.236      0.343    24.4084 0.0000e+00
      0.242      0.000     3.5420     60.074     37.046  36.604030     1.3398      6.976   202.4502 8.1114e+01     7.0740      0.237      0.344    24.4061 0.0000e+00
      0.243      0.001     3.5325     60.114     37.182  36.737385     1.3798      6.974   202.5334 8.1264e+01     7.4290      0.238      0.345    24.4038 0.0000e+00
      0.245      0.002     3.5256     61.289     37.320  36.877224     1.4057      6.972   202.6130 8.1664e+01     7.6585      0.240      0.347    24.4018 0.0000e+00
      0.245      0.002     3.5184     65.355     37.398  36.961889     1.4102      6.968   202.7242 8.2191e+01     7.6852      0.240      0.348    24.3995 0.0000e+00
      0.244      0.003     3.5119     72.763     37.426  36.999390     1.3905      6.965   202.8449 8.2766e+01     7.5559      0.239      0.347    24.3978 0.0000e+00
      0.244      0.004     3.5017     81.998     37.432  37.013297     1.3502      6.961   202.9544 8.3476e+01     7.3070      0.239      0.346    24.3952 0.0000e+00
      0.245      0.005     3.5145     91.313     37.415  37.003105     1.3306      6.958   203.0153 8.4032e+01     7.1671      0.241      0.349    24.3982 0.0000e+00
      0.247      0.006     3.7380     99.646     37.410  37.003108     1.3347      6.955   203.0651 8.4337e+01     7.1425      0.242      0.351    24.4115 0.0000e+00
      0.249      0.008     4.2171    106.320     37.416  37.013348     1.3222      6.952   203.1263 8.4574e+01     7.2066      0.245      0.354    24.4252 0.0000e+00
      0.251      0.008     4.7930    110.815     37.399  36.999972     1.2922      6.949   203.1533 8.4498e+01     7.3851      0.247      0.358    24.4355 0.0000e+00
      0.254      0.007     5.3552    112.943     37.364  36.968331     1.2748      6.947   203.2198 8.4362e+01     7.4974      0.250      0.361    24.4441 0.0000e+00
      0.256      0.005     5.8527    112.950     37.343  36.948158     1.2772      6.944   203.3280 8.4517e+01     7.4835      0.252      0.364    24.4507 0.0000e+00
      0.258      0.002     6.2553    111.555     37.342  36.946480     1.2943      6.941   203.4293 8.4843e+01     7.4463      0.253      0.368    24.4562 0.0000e+00
      0.258      0.000     6.5201    109.712     37.345  36.948045     1.3172      6.938   203.4979 8.5476e+01     7.4084      0.254      0.369    24.4614 0.0000e+00
      0.257     -0.001     6.6400    108.055     37.366  36.967072     1.3286      6.935   203.5546 8.6136e+01     7.3853      0.253      0.365    24.4654 0.0000e+00
      0.255     -0.001     6.6247    106.736     37.387  36.986113     1.3286      6.933   203.6851 8.6761e+01     7.3967      0.250      0.362    24.4668 0.0000e+00
      0.254      0.000     6.5202    105.707     37.390  36.987845     1.3167      6.930   203.7856 8.7412e+01     7.3813      0.249      0.360    24.4657 0.0000e+00
      0.254      0.003     6.3992    104.897     37.391  36.988012     1.2968      6.927   203.7369 8.7929e+01     7.2979      0.249      0.361    24.4626 0.0000e+00
      0.255      0.005     6.3026    104.216     37.391  36.988131     1.2878      6.923   203.6986 8.8211e+01     7.2077      0.250      0.363    24.4592 0.0000e+00
      0.258      0.006     6.2273    103.637     37.393  36.989277     1.2774      6.919   203.7531 8.8542e+01     7.1761      0.254      0.366    24.4573 0.0000e+00
      0.261      0.005     6.1680    103.179     37.406  37.001866     1.2661      6.917   203.8793 8.8924e+01     7.2098      0.256      0.371    24.4566 0.0000e+00
      0.263      0.004     6.1239    102.802     37.416  37.013406     1.2995      6.916   204.0198 8.9134e+01     7.4189      0.259      0.375    24.4558 0.0000e+00
      0.264      0.002     6.0842    102.452     37.402  37.001851     1.3601      6.916   204.0754 8.9344e+01     7.7384      0.261      0.378    24.4556 0.0000e+00
      0.264     -0.000     6.0493    102.159     37.388  36.989115     1.3827      6.916   204.1211 8.9540e+01     7.8606      0.260      0.377    24.4545 0.0000e+00
      0.262     -0.002     6.0239    102.006     37.384  36.986358     1.3823      6.915   204.1420 9.0150e+01     7.8477      0.257      0.372    24.4533 0.0000e+00
      0.260     -0.003     6.0038    102.038     37.367  36.968514     1.3897      6.912   204.1553 9.0962e+01     7.9109      0.255      0.370    24.4556 0.0000e+00
      0.260     -0.002     5.9815    102.204     37.364  36.963784     1.3945      6.908   204.1962 9.1944e+01     8.0349      0.255      0.370    24.4598 0.0000e+00
      0.259     -0.001     5.9624    102.405     37.394  36.992644     1.3973      6.906   204.2067 9.3245e+01     8.1004      0.254      0.369    24.4619 0.0000e+00
      0.259      0.001     5.9518    102.558     37.403  37.000092     1.3978      6.906   204.2826 9.4333e+01     8.0810      0.254      0.368    24.4612 0.0000e+00
      0.260      0.003     5.9555    102.597     37.393  36.990365     1.3922      6.907   204.5113 9.5275e+01     8.0621      0.254      0.368    24.4603 0.0000e+00
      0.261      0.004     5.9678    102.549     37.404  37.001975     1.3898      6.908   204.8210 9.6098e+01     8.0687      0.256      0.371    24.4592 0.0000e+00
      0.263      0.004     5.9807    102.468     37.414  37.013530     1.3946      6.909   205.1023 9.7099e+01     8.0954      0.258      0.375    24.4575 0.0000e+00
      0.265      0.004     5.9923    102.340     37.401  37.003125     1.3981      6.909   205.2449 9.8083e+01     8.0901      0.260      0.377    24.4562 0.0000e+00
      0.266      0.003     5.9935    102.177     37.398  37.003122     1.3980      6.908   205.1689 9.8563e+01     7.9396      0.261      0.378    24.4555 0.0000e+00
      0.266      0.001     5.9883    102.027     37.406  37.013502     1.4013      6.908   205.0433 9.8983e+01     7.7172      0.261      0.378    24.4564 0.0000e+00
      0.266      0.001     5.9852    101.905     37.392  37.001687     1.4121      6.908   205.0167 9.9488e+01     7.6293      0.260      0.377    24.4582 0.0000e+00
      0.265      0.003     5.9767    101.809     37.378  36.987216     1.4157      6.908   205.0196 1.0020e+02     7.6636      0.261      0.378    24.4613 0.0000e+00
      0.264      0.007     5.9652    101.725     37.358  36.965480     1.4021      6.908   204.9920 1.0142e+02     7.7396      0.259      0.375    24.4662 0.0000e+00
      0.264      0.012     5.9558    101.666     37.325  36.929285     1.3947      6.907   205.0269 1.0392e+02     7.8263      0.257      0.373    24.4710 0.0000e+00
      0.268      0.017     5.9484    101.679     37.330  36.930420     1.4038      6.904   205.2702 1.0790e+02     7.8601      0.262      0.380    24.4737 0.0000e+00
      0.276      0.022     5.9433    101.764     37.382  36.979205     1.4083      6.899   205.4378 1.1170e+02     7.8526      0.271      0.393    24.4729 0.0000e+00
      0.285      0.024     5.9388    101.860     37.417  37.011347     1.3970      6.894   205.4189 1.1505e+02     7.8346      0.279      0.405    24.4699 0.0000e+00
      0.292      0.023     5.9344    101.944     37.407  37.001680     1.3892      6.891   205.5580 1.1739e+02     7.7736      0.287      0.416    24.4646 0.0000e+00
      0.300      0.019     5.9355    102.041     37.392  36.989270     1.4003      6.891   205.8294 1.1754e+02     7.6718      0.294      0.426    24.4587 0.0000e+00
      0.305      0.013     5.9432    102.125     37.387  36.988244     1.4108      6.891   206.0339 1.1652e+02     7.5864      0.302      0.437    24.4551 0.0000e+00
      0.306      0.007     5.9496    102.143     37.384  36.989284     1.4116      6.891   206.0508 1.1556e+02     7.5609      0.301      0.437    24.4525 0.0000e+00
      0.304      0.002     5.9531    102.139     37.394  37.001848     1.4010      6.893   205.9477 1.1671e+02     7.4944      0.297      0.431    24.4513 0.0000e+00
      0.304     -0.001     5.9588    102.166     37.404  37.013218     1.3865      6.896   205.9057 1.1986e+02     7.3069      0.298      0.432    24.4542 0.0000e+00
      0.303     -0.002     5.9659    102.194     37.391  36.999804     1.3929      6.896   205.9734 1.2398e+02     7.1950      0.298      0.433    24.4608 0.0000e+00
      0.301     -0.001     5.9641    102.205     37.362  36.966614     1.4005      6.896   206.1635 1.2950e+02     7.2227      0.294      0.428    24.4657 0.0000e+00
      0.299      0.002     5.9618    102.194     37.331  36.929275     1.3913      6.895   206.3120 1.3526e+02     7.2817      0.291      0.423    24.4681 0.0000e+00
      0.301      0.004     5.9649    102.157     37.336  36.929172     1.3862      6.892   206.3916 1.3938e+02     7.3512      0.296      0.429    24.4723 0.0000e+00
      0.305      0.007     5.9662    102.124     37.375  36.965357     1.3899      6.888   206.5237 1.4108e+02     7.3745      0.299      0.434    24.4733 0.0000e+00
      0.307      0.009     5.9677    102.112     37.398  36.985944     1.3924      6.887   206.6190 1.4292e+02     7.3665      0.301      0.436    24.4653 0.0000e+00
      0.309      0.009     5.9691    102.105     37.400  36.987669     1.3826      6.886   206.6835 1.4524e+02     7.3200      0.303      0.440    24.4542 0.0000e+00
      0.312      0.009     5.9663    102.096     37.398  36.986212     1.3579      6.885   206.7878 1.4479e+02     7.2060      0.305      0.443    24.4480 0.0000e+00
      0.314      0.009     5.9643    102.100     37.379  36.968332     1.3365      6.885   206.9328 1.4341e+02     7.1345      0.308      0.446    24.4458 0.0000e+00
      0.316      0.010     5.9645    102.109     37.372  36.961895     1.3313      6.887   207.1459 1.4567e+02     7.1114      0.310      0.449    24.4439 0.0000e+00
      0.318      0.010     5.9643    102.093     37.382  36.971862     1.3308      6.890   207.3852 1.5101e+02     7.0902      0.312      0.452    24.4431 0.0000e+00
      0.321      0.009     5.9632    102.092     37.372  36.961895     1.3303      6.892   207.5034 1.5628e+02     7.1085      0.314      0.456    24.4439 0.0000e+00
      0.325      0.007     5.9630    102.115     37.380  36.968333     1.3344      6.894   207.5429 1.6029e+02     7.1350      0.318      0.462    24.4450 0.0000e+00
      0.327      0.004     5.9657    102.083     37.399  36.986230     1.3373      6.897   207.6911 1.6376e+02     7.1491      0.321      0.466    24.4459 0.0000e+00
      0.327      0.002     5.9625    101.994     37.400  36.987855     1.3387      6.899   207.9189 1.6637e+02     7.1805      0.321      0.466    24.4463 0.0000e+00
      0.326     -0.001     5.9616    101.888     37.399  36.987988     1.3430      6.899   208.0589 1.7061e+02     7.2529      0.320      0.465    24.4454 0.0000e+00
      0.325     -0.004     5.9669    101.773     37.398  36.987846     1.3457      6.900   208.0075 1.7540e+02     7.3681      0.319      0.462    24.4432 0.0000e+00
      0.324     -0.006     5.9643    101.686     37.395  36.986131     1.3366      6.901   207.9008 1.7510e+02     7.4266      0.317      0.460    24.4417 0.0000e+00
      0.323     -0.006     5.9575    101.647     37.375  36.967255     1.3273      6.903   207.8864 1.7644e+02     7.4040      0.316      0.459    24.4418 0.0000e+00
      0.321     -0.005     5.9523    101.639     37.356  36.950033     1.3293      6.904   207.9189 1.7966e+02     7.3898      0.314      0.456    24.4440 0.0000e+00
      0.319     -0.004     5.9435    101.670     37.372  36.968332     1.3353      6.907   207.9504 1.7951e+02     7.4178      0.312      0.452    24.4464 0.0000e+00
      0.318     -0.001     5.9380    101.772     37.399  36.998090     1.3387      6.908   208.0094 1.8449e+02     7.4478      0.311      0.451    24.4472 0.0000e+00
      0.318      0.004     5.9364    101.962     37.393  36.992474     1.3358      6.907   208.2014 1.9207e+02     7.4243      0.312      0.452    24.4486 0.0000e+00
      0.318      0.013     5.9353    102.197     37.367  36.963903     1.3525      6.902   208.5513 2.0441e+02     7.3961      0.312      0.452    24.4507 0.0000e+00
      0.319      0.023     5.9361    102.388     37.379  36.970002     1.3925      6.896   208.7982 2.9586e+02     7.4023      0.311      0.452    24.4541 0.0000e+00
      0.324      0.025     5.9407    102.461     37.416  37.002737     1.4200      6.891   209.3801 4.0329e+02     7.4012      0.314      0.456    24.4590 0.0000e+00
      0.337      0.014     5.9528    102.406     37.455  37.042319     1.4257      6.893   217.2223 3.7635e+02     7.3829      0.327      0.475    24.4608 0.0000e+00
      0.354     -0.011     5.9688    102.261     37.474  37.067752     1.4014      6.896   231.6021 2.9862e+02     7.3110      0.349      0.506    24.4556 0.0000e+00
      0.365     -0.047     5.9833    102.113     37.451  37.056359     1.3682      6.896   234.6559 2.8007e+02     7.2206      0.367      0.532    24.4463 0.0000e+00
      0.353     -0.091     5.9880    102.045     37.413  37.031525     1.3540      6.897   226.2686 4.4391e+02     7.2076      0.360      0.521    24.4395 0.0000e+00
      0.313     -0.139     5.9842    102.070     37.392  37.021401     1.3415      6.898   227.0728 8.7751e+02     7.2188      0.312      0.452    24.4396 0.0000e+00
      0.257     -0.185     5.9729    102.191     37.422  37.060924     1.2789      6.898   231.5593 1.1682e+03     7.1928      0.250      0.363    24.4490 0.0000e+00
      0.199     -0.222     5.9593    102.395     37.478  37.128563     1.1599      6.898   224.6749 1.0276e+03     7.1546      0.195      0.283    24.4676 0.0000e+00
      0.139     -0.249     5.9545    102.647     37.534  37.204498     1.0913      6.901   225.3125 8.1440e+02     7.1511      0.139      0.202    24.4852 0.0000e+00
      0.074     -0.269     5.9537    102.920     37.639  37.344345     1.0904      6.905   238.7528 6.8738e+02     7.2808      0.076      0.110    24.5001 0.0000e+00
      0.003     -0.281     5.9600    103.200     37.718  37.486525     1.0709      6.903   243.9243 5.4049e+02     8.4286      0.004      0.005    24.5101 0.0000e+00
     -0.072     -0.284     5.9713    103.459     37.675  37.527251     0.8381      6.898   241.8105 4.1951e+02    20.8646     -0.067     -0.096    24.5245 0.0000e+00
     -0.154     -0.269     5.9832    103.552     37.593  37.519515     0.4261      6.892   242.1044 3.5675e+02    43.6948     -0.149     -0.216    24.5499 0.0000e+00
     -0.238     -0.232     5.9961    103.347     37.547  37.520043     0.2162      6.885   244.5529 3.2169e+02    56.1418     -0.240     -0.347    24.5862 0.0000e+00
     -0.308     -0.177     6.0015    102.842     37.538  37.533708     0.2077      6.877   247.0656 2.9695e+02    56.9198     -0.310     -0.450    24.6747 0.0000e+00
     -0.354     -0.108     6.0062    102.027     37.551  37.557820     0.1410      6.873   248.5658 2.9926e+02    53.1342     -0.358     -0.519    24.8048 0.0000e+00
     -0.369     -0.036     6.0039    100.937     37.537  37.557686     0.0088      6.873   249.0121 3.2997e+02    46.0597     -0.372     -0.540    24.9110 0.0000e+00
     -0.355      0.032     5.9834     99.848     37.495  37.532109    -0.0560      6.875   247.3848 3.2845e+02    42.1377     -0.356     -0.515    24.9692 0.0000e+00
     -0.323      0.089     5.9524     99.073     37.458  37.502499    -0.0270      6.875   238.6128 2.8735e+02    40.9771     -0.319     -0.462    24.9928 0.0000e+00
     -0.286      0.134     5.9058     98.704     37.418  37.453580     0.2462      6.879   224.8603 2.7884e+02    32.4203     -0.279     -0.404    25.0022 0.0000e+00
     -0.249      0.165     5.8338     98.677     37.374  37.384940     0.7329      6.885   216.9596 2.8397e+02    16.8722     -0.245     -0.355    25.0183 0.0000e+00
     -0.207      0.186     5.7592     98.816     37.331  37.307286     0.9941      6.889   215.1009 2.5612e+02     8.4255     -0.208     -0.303    25.0471 0.0000e+00
     -0.155      0.204     5.7128     98.942     37.281  37.212839     1.0294      6.893   214.0892 2.3168e+02     7.7000     -0.154     -0.223    25.0630 0.0000e+00
     -0.096      0.219     5.6935     99.016     37.254  37.131566     1.0638      6.898   213.2446 2.3449e+02     7.6733     -0.093     -0.134    25.0495 0.0000e+00
     -0.038      0.233     5.7000     99.078     37.268  37.086225     1.0890      6.902   212.5461 2.5179e+02     7.6775     -0.038     -0.056    25.0122 0.0000e+00
      0.024      0.240     5.7179     99.144     37.283  37.045371     1.1005      6.906   212.0977 3.6179e+02     7.6190      0.022      0.032    24.9653 0.0000e+00
      0.089      0.240     5.7310     99.233     37.304  37.018360     1.1075      6.908   212.0392 5.8434e+02     7.5560      0.087      0.126    24.9102 0.0000e+00
      0.154      0.237     5.7420     99.401     37.338  37.013461     1.1385      6.909   212.3540 7.2792e+02     7.5710      0.152      0.221    24.8324 0.0000e+00
      0.217      0.232     5.7546     99.652     37.339  36.986073     1.1989      6.911   212.8067 8.3004e+02     7.6041      0.216      0.313    24.7476 0.0000e+00
      0.274      0.225     5.7669     99.943     37.314  36.941064     1.2209      6.913   213.1257 8.9495e+02     7.5963      0.271      0.392    24.6711 0.0000e+00
      0.326      0.215     5.7768    100.252     37.305  36.913550     1.2149      6.914   213.2849 7.0395e+02     7.5745      0.319      0.462    24.6048 0.0000e+00
      0.379      0.204     5.7923    100.560     37.316  36.907267     1.2648      6.914   213.4409 4.1286e+02     7.5380      0.371      0.537    24.5539 0.0000e+00
      0.433      0.194     5.8122    100.768     37.351  36.928548     1.3562      6.913   213.7211 2.3054e+02     7.4819      0.427      0.619    24.5184 0.0000e+00
      0.483      0.184     5.8323    100.762     37.415  36.980413     1.4007      6.912   214.1774 1.5049e+02     7.4210      0.477      0.692    24.4932 0.0000e+00
      0.528      0.174     5.8523    100.552     37.470  37.026557     1.4041      6.908   214.8287 1.2642e+02     7.3589      0.518      0.751    24.4694 0.0000e+00
      0.570      0.165     5.8754    100.220     37.495  37.042142     1.4142      6.902   215.5733 1.1302e+02     7.3535      0.559      0.811    24.4457 0.0000e+00
      0.609      0.158     5.8932     99.781     37.503  37.041897     1.4279      6.897   216.0386 1.0598e+02     7.4539      0.599      0.868    24.4267 0.0000e+00
      0.645      0.153     5.8935     99.221     37.493  37.023587     1.4486      6.894   216.0669 1.0218e+02     7.5898      0.632      0.916    24.4134 0.0000e+00
      0.683      0.149     5.8796     98.533     37.425  36.947691     1.4646      6.892   216.2599 9.9298e+01     7.6532      0.667      0.967    24.4019 0.0000e+00
      0.723      0.145     5.8619     97.704     37.310  36.822432     1.4666      6.891   216.9091 9.6068e+01     7.6298      0.711      1.031    24.3903 0.0000e+00
      0.763      0.141     5.8381     96.781     37.225  36.715060     1.4976      6.893   217.4627 9.3683e+01     7.6023      0.751      1.089    24.3795 0.0000e+00
      0.798      0.138     5.8056     95.825     37.211  36.665001     1.5625      6.898   217.6192 9.2922e+01     7.6151      0.784      1.137    24.3686 0.0000e+00
      0.829      0.137     5.7682     94.915     37.251  36.661422     1.6009      6.904   217.4255 9.2718e+01     7.6201      0.814      1.181    24.3582 0.0000e+00
      0.860      0.140     5.7192     94.372     37.242  36.608250     1.5972      6.911   217.0129 9.2523e+01     7.6303      0.843      1.223    24.3467 0.0000e+00
      0.893      0.146     5.6665     94.708     37.148  36.466338     1.5693      6.920   216.5880 9.2316e+01     7.7068      0.876      1.270    24.3176 0.0000e+00
      0.929      0.155     5.6167     96.224     37.089  36.341889     1.5418      6.930   215.9020 9.0753e+01     7.8239      0.908      1.318    24.2648 0.0000e+00
      0.971      0.164     5.5630     98.766     37.077  36.245944     1.5340      6.943   214.7414 8.7427e+01     7.8984      0.950      1.378    24.2030 0.0000e+00
      1.019      0.171     5.5238    101.911     37.052  36.131281     1.5437      6.955   213.4825 8.3560e+01     7.9201      0.999      1.450    24.1465 0.0000e+00
      1.067      0.173     5.5420    105.242     37.037  36.034386     1.6336      6.965   212.5539 7.9567e+01     7.9548      1.046      1.519    24.0861 0.0000e+00
      1.114      0.170     5.6454    108.391     37.034  35.962860     1.7886      6.971   212.0314 7.5404e+01     8.0237      1.093      1.584    23.9966 0.0000e+00
      1.159      0.162     5.8188    111.029     37.029  35.901069     1.8736      6.976   211.4674 7.1789e+01     8.0968      1.138      1.651    23.8752 0.0000e+00
      1.199      0.150     6.0269    112.858     37.034  35.858427     1.8908      6.981   210.9831 6.8669e+01     8.1173      1.177      1.707    23.7474 0.0000e+00
      1.235      0.136     6.2449    113.638     37.044  35.828035     1.9264      6.983   211.2515 6.5751e+01     8.0752      1.212      1.757    23.6342 0.0000e+00
      1.269      0.125     6.4499    113.369     37.037  35.787434     1.9834      6.982   211.9591 6.3627e+01     8.0470      1.248      1.810    23.5410 0.0000e+00
      1.298      0.118     6.6212    112.329     37.026  35.748294     2.0168      6.980   212.5702 6.1964e+01     8.0712      1.275      1.849    23.4683 0.0000e+00
      1.322      0.115     6.7444    110.775     37.038  35.735573     2.0273      6.976   213.1340 6.0334e+01     8.1053      1.296      1.880    23.4058 0.0000e+00
      1.347      0.114     6.7989    108.868     37.088  35.760525     2.0318      6.972   213.5269 5.8896e+01     8.0994      1.320      1.914    23.3502 0.0000e+00
      1.375      0.116     6.7800    106.800     37.147  35.796073     2.0538      6.967   213.7931 5.7421e+01     7.9666      1.346      1.954    23.3047 0.0000e+00
      1.408      0.121     6.7170    104.744     37.156  35.784526     2.1024      6.962   214.4610 5.5886e+01     7.7459      1.380      2.002    23.2676 0.0000e+00
      1.442      0.126     6.6269    102.733     37.139  35.747821     2.1337      6.958   215.5788 5.4449e+01     7.6267      1.416      2.053    23.2350 0.0000e+00
      1.475      0.131     6.5116    100.678     37.149  35.733062     2.1464      6.953   216.6388 5.2930e+01     7.6382      1.447      2.099    23.2042 0.0000e+00
      1.508      0.134     6.3875     98.471     37.177  35.732985     2.1952      6.948   217.6421 5.1259e+01     7.8194      1.477      2.143    23.1744 0.0000e+00
      1.542      0.139     6.2669     96.061     37.222  35.746852     2.2726      6.942   218.9327 4.9547e+01     8.1471      1.511      2.192    23.1472 0.0000e+00
      1.578      0.150     6.1523     93.583     37.280  35.773745     2.3111      6.935   220.2841 4.7772e+01     8.3236      1.547      2.244    23.1228 0.0000e+00
      1.613      0.166     6.0350     91.243     37.340  35.804223     2.3567      6.927   221.4193 4.6035e+01     8.2820      1.582      2.295    23.0921 0.0000e+00
      1.651      0.185     5.9090     89.007     37.430  35.861435     2.8067      6.920   222.4205 4.4183e+01     7.8409      1.616      2.344    23.0533 0.0000e+00
      1.698      0.203     5.7667     86.776     37.562  35.957689     3.6086      6.915   223.3552 4.1638e+01     7.0207      1.658      2.406    23.0134 0.0000e+00
      1.759      0.218     5.6134     84.534     37.656  36.015926     4.0322      6.909   224.1171 3.8461e+01     6.5249      1.722      2.497    22.9745 0.0000e+00
      1.827      0.229     5.4802     82.132     37.666  35.994295     4.0873      6.904   224.6631 3.5374e+01     6.4019      1.793      2.601    22.9379 0.0000e+00
      1.891      0.232     5.3533     79.382     37.721  36.013450     4.3528      6.899   225.1382 3.2779e+01     5.7959      1.857      2.694    22.9011 0.0000e+00
      1.949      0.227     5.2203     76.224     37.873  36.120541     4.8244      6.896   225.7321 3.0495e+01     4.6709      1.912      2.774    22.8594 0.0000e+00
      2.006      0.216     5.0940     72.672     38.075  36.273530     5.0719      6.893   226.5095 2.8296e+01     4.0402      1.966      2.852    22.8170 0.0000e+00
      2.062      0.204     4.9591     68.894     38.321  36.466795     5.0829      6.888   227.1385 2.6389e+01     3.9707      2.024      2.937    22.7773 0.0000e+00
      2.113      0.194     4.7957     65.022     38.587  36.680027     5.0614      6.882   227.5730 2.4970e+01     3.8965      2.076      3.010    22.7336 0.0000e+00
      2.156      0.185     4.6125     61.019     38.910  36.947457     5.0280      6.877   228.1480 2.3806e+01     3.7980      2.114      3.067    22.6824 0.0000e+00
      2.199      0.178     4.3969     56.899     39.312  37.288223     5.0178      6.873   228.9288 2.2683e+01     3.7957      2.154      3.124    22.6289 0.0000e+00
      2.244      0.172     4.1679     52.635     39.718  37.626428     5.0254      6.869   229.6144 2.1654e+01     3.8360      2.201      3.192    22.5750 0.0000e+00
      2.290      0.166     3.9424     48.063     40.094  37.926314     4.9728      6.865   229.8992 2.0791e+01     3.7935      2.248      3.261    22.5241 0.0000e+00
      2.333      0.158     3.7007     43.013     40.431  38.184554     4.4246      6.861   230.0489 2.0038e+01     3.5768      2.289      3.319    22.4734 0.0000e+00
      2.374      0.148     3.4543     37.248     40.655  38.336564     3.4512      6.856   230.3056 1.9351e+01     3.2804      2.328      3.376    22.4233 0.0000e+00
      2.412      0.139     3.2044     30.645     40.945  38.558098     2.9308      6.851   230.5938 1.8792e+01     3.1264      2.368      3.435    22.3689 0.0000e+00
      2.445      0.134     2.9331     23.551     41.628  39.149087     2.8581      6.843   231.0393 1.8407e+01     3.0592      2.401      3.483    22.2936 0.0000e+00
      2.470      0.134     2.6342     16.444     42.835  40.213228     2.5556      6.833   231.5616 1.8111e+01     2.8933      2.423      3.515    22.2148 0.0000e+00
      2.496      0.137     2.2956      9.788     44.335  41.521058     2.0213      6.825   231.9191 1.7691e+01     2.6612      2.443      3.543    22.1401 0.0000e+00
      2.532      0.142     1.8810      4.064     45.534  42.518504     1.7383      6.818   232.1781 1.7066e+01     2.5463      2.479      3.595    22.0762 0.0000e+00
      2.577      0.147     1.4401     -0.343     46.198  43.003721     1.7270      6.811   232.2831 1.6408e+01     2.5200      2.528      3.666    22.0271 0.0000e+00
      2.622      0.149     0.9984     -3.208     46.477  43.133650     1.8842      6.804   232.2427 1.5855e+01     2.4091      2.573      3.732    21.9508 0.0000e+00
      2.662      0.147     0.5791     -4.685     46.544  43.073398     2.1995      6.796   232.2925 1.5397e+01     2.2861      2.612      3.788    21.8340 0.0000e+00
      2.697      0.141     0.2232     -5.109     46.634  43.036964     2.3830      6.789   232.6269 1.4978e+01     2.2789      2.646      3.837    21.6878 0.0000e+00
      2.730      0.134    -0.0582     -4.815     46.732  43.010429     2.4297      6.782   233.7041 1.4558e+01     2.2893      2.677      3.882    21.5338 0.0000e+00
      2.763      0.129    -0.2281     -4.085     46.782  42.942884     2.8079      6.773   235.2502 1.4164e+01     2.3792      2.709      3.929    21.3965 0.0000e+00
      2.794      0.130    -0.3133     -3.130     46.882  42.918549     3.4971      6.763   236.2638 1.3822e+01     2.6117      2.741      3.975    21.2662 0.0000e+00
      2.823      0.135    -0.3332     -2.149     47.149  43.033514     3.8777      6.754   237.0981 1.3485e+01     2.7741      2.768      4.015    21.1362 0.0000e+00
      2.854      0.141    -0.3085     -1.245     47.761  43.443819     4.0117      6.746   238.3680 1.3083e+01     2.8680      2.796      4.054    21.0111 0.0000e+00
      2.892      0.148    -0.2612     -0.455     48.826  44.260154     5.0124      6.739   239.5728 1.2628e+01     3.5175      2.835      4.110    20.8922 0.0000e+00
      2.935      0.154    -0.1952      0.238     49.901  45.093427     6.8222      6.732   240.3085 1.2185e+01     4.6957      2.879      4.175    20.7736 0.0000e+00
      2.978      0.158    -0.1335      0.869     50.661  45.644885     7.7998      6.726   240.7241 1.1764e+01     5.3150      2.920      4.235    20.6408 0.0000e+00
      3.020      0.157    -0.0755      1.406     51.613  46.355602     7.8763      6.720   241.0696 1.1360e+01     5.3691      2.961      4.294    20.4786 0.0000e+00
      3.061      0.150    -0.0263      1.821     53.092  47.526658     7.8344      6.715   241.3030 1.0978e+01     5.5140      3.002      4.354    20.3124 0.0000e+00
      3.101      0.142     0.0155      2.132     56.818  50.722531     7.3017      6.708   241.3086 1.0625e+01     6.8703      3.043      4.414    20.1783 0.0000e+00
      3.136      0.136     0.0576      2.359     61.988  55.205174     6.3253      6.698   241.3091 1.0352e+01     9.3466      3.080      4.467    20.0478 0.0000e+00
      3.164      0.133     0.0925      2.512     64.006  56.814260     5.7912      6.686   241.4820 1.0089e+01    10.7113      3.103      4.500    19.9133 0.0000e+00
      3.191      0.133     0.1185      2.605     63.631  56.266743     5.7254      6.672   241.8504 9.7396e+00    10.9832      3.127      4.534    19.7452 0.0000e+00
      3.225      0.135     0.1383      2.645     64.235  56.590529     5.5809      6.657   242.8377 9.3496e+00    12.6673      3.162      4.586    19.6184 0.0000e+00
      3.263      0.138     0.1533      2.653     65.464  57.425017     5.3364      6.642   244.0411 8.9443e+00    15.7685      3.200      4.641    19.5631 0.0000e+00
      3.301      0.140     0.1629      2.672     66.158  57.778652     5.2136      6.629   244.4411 8.5013e+00    17.5104      3.237      4.695    19.3806 0.0000e+00
      3.341      0.140     0.1697      2.700     66.243  57.625503     5.2060      6.617   244.5769 8.0507e+00    17.7352      3.277      4.753    19.1896 0.0000e+00
      3.377      0.137     0.1727      2.709     66.213  57.352118     5.1585      6.606   244.8225 7.6584e+00    18.0940      3.314      4.807    19.0754 0.0000e+00
      3.410      0.135     0.1718      2.715     66.180  57.077973     5.0718      6.596   244.5712 7.3090e+00    18.7019      3.345      4.851    18.8577 0.0000e+00
      3.440      0.133     0.1742      2.734     65.989  56.724954     5.0243      6.587   243.8617 6.9314e+00    19.0222      3.374      4.893    18.6429 0.0000e+00
      3.471      0.131     0.1781      2.753     66.010  56.578115     5.0272      6.580   243.0408 6.5080e+00    18.9184      3.403      4.936    18.5066 0.0000e+00
      3.506      0.130     0.1781      2.753     66.420  56.700198     5.0634      6.572   242.3889 6.0795e+00    17.2176      3.438      4.986    18.3086 0.0000e+00
      3.543      0.132     0.1790      2.737     67.055  56.930033     5.1151      6.563   241.9174 5.6985e+00    14.0582      3.477      5.042    18.0929 0.0000e+00
      3.577      0.134     0.1811      2.724     67.751  57.196356     5.1411      6.556   241.4689 5.3462e+00    12.3107      3.509      5.089    17.9661 0.0000e+00
      3.608      0.134     0.1833      2.705     68.289  57.378348     5.1433      6.551   241.0107 4.9652e+00    12.0161      3.538      5.132    17.8740 0.0000e+00
      3.641      0.132     0.1841      2.669     68.821  57.605213     5.1168      6.545   240.4208 4.5180e+00    10.4633      3.569      5.176    17.7094 0.0000e+00
      3.679      0.131     0.1830      2.635     69.497  57.969357     5.0630      6.539   239.4128 4.0413e+00     7.5959      3.606      5.230    17.4495 0.0000e+00
      3.716      0.131     0.1834      2.610     70.280  58.413296     5.0303      6.533   238.0291 3.6675e+00     5.9897      3.648      5.290    17.1879 0.0000e+00
      3.746      0.134     0.1838      2.571     71.297  59.032974     5.0075      6.527   236.6827 3.4005e+00     5.7237      3.676      5.331    16.9918 0.0000e+00
      3.774      0.136     0.1809      2.522     72.527  59.806157     4.8310      6.519   235.4371 3.0834e+00     5.0036      3.697      5.364    16.8459 0.0000e+00
      3.807      0.137     0.1787      2.487     74.475  61.152757     4.5168      6.511   234.1534 2.6729e+00     3.8036      3.731      5.412    16.7059 0.0000e+00
      3.846      0.139     0.1788      2.470     77.021  62.985272     4.3468      6.504   232.7774 2.2645e+00     3.1769      3.772      5.471    16.5582 0.0000e+00
      3.886      0.141     0.1765      2.462     79.631  64.866679     4.3275      6.498   231.1043 1.9317e+00     3.1283      3.812      5.529    16.4018 0.0000e+00
      3.923      0.141     0.1724      2.443     84.124  68.264713     4.3092      6.491   228.5506 1.6691e+00     3.0853      3.848      5.581    16.2307 0.0000e+00
      3.958      0.138     0.1713      2.406     90.099  72.855783     4.1871      6.484   225.2180 1.4486e+00     2.9194      3.882      5.630    16.0540 0.0000e+00
      3.992      0.133     0.1705      2.376     94.038  75.806774     3.9700      6.476   222.1270 1.2640e+00     2.6957      3.915      5.679    15.8844 0.0000e+00
      4.027      0.130     0.1711      2.361     95.046  76.411082     3.8510      6.467   219.6574 1.1095e+00     2.6083      3.949      5.728    15.7285 0.0000e+00
      4.059      0.129     0.1713      2.346     94.109  75.456057     3.8321      6.456   217.7277 9.8670e-01     2.6172      3.982      5.775    15.5759 0.0000e+00
      4.088      0.129     0.1676      2.305     92.225  73.735278     3.7587      6.444   216.2607 8.8895e-01     2.5402      4.009      5.814    15.4265 0.0000e+00
      4.119      0.128     0.1661      2.238     90.261  71.948584     3.6315      6.433   214.8267 7.9309e-01     2.3666      4.037      5.855    15.2974 0.0000e+00
      4.154      0.128     0.1657      2.176     88.413  70.258858     3.5590      6.423   213.0367 7.0265e-01     2.2551      4.073      5.908    15.1930 0.0000e+00
      4.190      0.127     0.1660      2.136     87.266  69.136758     3.5420      6.415   211.2240 6.3264e-01     2.2399      4.110      5.962    15.0883 0.0000e+00
      4.223      0.123     0.1636      2.105     87.151  68.871741     3.5039      6.410   209.8593 5.8274e-01     2.2484      4.142      6.007    14.9719 0.0000e+00
      4.254      0.118     0.1581      2.065     87.581  69.088881     3.4453      6.406   208.7539 5.4754e-01     2.2590      4.172      6.051    14.8515 0.0000e+00
      4.284      0.111     0.1534      2.023     88.536  69.727583     3.4225      6.404   207.2367 5.2445e-01     2.2702      4.202      6.094    14.7291 0.0000e+00
      4.311      0.105     0.1517      1.978     89.446  70.299868     3.4275      6.402   204.9375 5.0820e-01     2.2862      4.229      6.134    14.6021 0.0000e+00
      4.335      0.103     0.1508      1.939     89.389  70.095340     3.3848      6.399   202.3785 4.8668e-01     2.2875      4.252      6.168    14.4942 0.0000e+00
      4.357      0.104     0.1472      1.905     88.400  69.161841     3.2968      6.395   199.9570 4.5012e-01     2.2535      4.272      6.196    14.4394 0.0000e+00
      4.382      0.106     0.1450      1.856     87.000  67.913680     3.2469      6.393   197.7700 4.1293e-01     2.2360      4.295      6.230    14.3854 0.0000e+00
      4.410      0.109     0.1415      1.808     85.475  66.574388     3.2329      6.391   195.8115 3.9684e-01     2.2719      4.325      6.272    14.2956 0.0000e+00
      4.440      0.114     0.1387      1.782     83.460  64.856140     3.1530      6.388   193.8286 3.8264e-01     2.2948      4.353      6.315    14.2034 0.0000e+00
      4.471      0.118     0.1378      1.762     81.391  63.093075     3.0179      6.385   191.8632 3.5499e-01     2.2831      4.385      6.361    14.1137 0.0000e+00
      4.502      0.120     0.1338      1.747     80.567  62.291534     2.9519      6.384   190.1162 3.4164e-01     2.2619      4.416      6.405    14.0259 0.0000e+00
      4.533      0.120     0.1295      1.740     80.433  62.028987     2.9368      6.384   188.7097 3.5013e-01     2.2357      4.444      6.446    13.9399 0.0000e+00
      4.564      0.119     0.1291      1.710     79.788  61.380162     2.8867      6.385   187.4184 3.4903e-01     2.1626      4.475      6.491    13.8516 0.0000e+00
      4.596      0.116     0.1277      1.686     78.982  60.611131     2.8312      6.386   186.0333 3.2710e-01     2.0654      4.508      6.538    13.7570 0.0000e+00
      4.626      0.114     0.1258      1.697     77.932  59.657705     2.8124      6.386   184.6097 3.1437e-01     2.0442      4.538      6.580    13.6545 0.0000e+00
      4.653      0.112     0.1283      1.699     76.352  58.303996     2.8067      6.387   183.1116 3.1806e-01     2.0371      4.563      6.619    13.5537 0.0000e+00
      4.680      0.112     0.1247      1.677     74.769  56.952350     2.7887      6.389   181.6862 3.0830e-01     2.0129      4.590      6.659    13.4602 0.0000e+00
      4.707      0.113     0.1211      1.646     73.399  55.768971     2.7067      6.391   180.6250 2.8967e-01     2.0138      4.616      6.695    13.3666 0.0000e+00
      4.735      0.118     0.1253      1.625     72.292  54.796966     2.5693      6.393   179.9171 2.8023e-01     2.0155      4.642      6.732    13.2707 0.0000e+00
      4.765      0.125     0.1254      1.624     71.264  53.903918     2.4987      6.395   179.1506 2.7181e-01     2.0339      4.673      6.778    13.1769 0.0000e+00
      4.798      0.133     0.1236      1.628     70.168  52.975878     2.4943      6.400   178.0681 2.5916e-01     2.0389      4.705      6.824    13.0820 0.0000e+00
      4.832      0.140     0.1213      1.614     69.280  52.215773     2.4121      6.407   176.9806 2.5059e-01     1.9114      4.736      6.870    12.9842 0.0000e+00
      4.870      0.146     0.1191      1.575     68.957  51.891812     2.2503      6.410   176.2414 2.3760e-01     1.7059      4.773      6.923    12.8912 0.0000e+00
      4.910      0.148     0.1204      1.548     68.664  51.599752     2.1594      6.409   175.8410 2.2065e-01     1.6181      4.815      6.983    12.8126 0.0000e+00
      4.952      0.143     0.1210      1.554     67.917  50.971090     2.1362      6.407   175.5814 2.1379e-01     1.6045      4.857      7.044    12.7438 0.0000e+00
      4.992      0.131     0.1210      1.562     67.817  50.833275     2.0557      6.408   175.2537 1.9581e-01     1.5075      4.896      7.100    12.6786 0.0000e+00
      5.027      0.112     0.1168      1.543     68.458  51.267420     1.9232      6.412   174.9753 1.7265e-01     1.3634      4.931      7.153    12.6209 0.0000e+00
      5.057      0.089     0.1135      1.500     68.904  51.583295     1.8440      6.414   174.8829 1.7505e-01     1.2713      4.963      7.200    12.5698 0.0000e+00
      5.075      0.065     0.1161      1.466     69.095  51.730514     1.8178      6.414   174.7389 1.8988e-01     1.2786      4.982      7.225    12.5197 0.0000e+00
      5.084      0.045     0.1170      1.447     69.236  51.840510     1.7632      6.414   174.4387 1.8879e-01     1.3539      4.987      7.233    12.4718 0.0000e+00
      5.088      0.036     0.1166      1.435     69.311  51.896891     1.7207      6.414   174.2644 1.7694e-01     1.3954      4.989      7.236    12.4334 0.0000e+00
      5.090 -9.990e-29     0.1112 -9.990e-29 -9.990e-29 -9.990e-29 -9.990e-29 -9.990e-29 -9.990e-29 1.7583e-01 -9.990e-29      4.992      7.240    12.4207 0.0000e+00
      5.092 -9.990e-29     0.1088 -9.990e-29 -9.990e-29 -9.990e-29 -9.990e-29 -9.990e-29 -9.990e-29 1.8155e-01 -9.990e-29      4.994      7.243    12.4331 0.0000e+00
      5.094 -9.990e-29     0.1088 -9.990e-29 -9.990e-29 -9.990e-29 -9.990e-29 -9.990e-29 -9.990e-29 1.8742e-01 -9.990e-29      4.996      7.246    12.4372 0.0000e+00
      5.095 -9.990e-29     0.1053 -9.990e-29 -9.990e-29 -9.990e-29 -9.990e-29 -9.990e-29 -9.990e-29 1.9130e-01 -9.990e-29      4.997      7.248    12.4324 0.0000e+00
