* Sea-Bird SBE19plus  Data File:
* FileName = C:\DATA\SBE19plus_01907809_2019_09_02_0002.hex
* Software version 2.8.0.119 SB_Terminal.dll
* Temperature SN = 7809
* Conductivity SN = 7809
* System UpLoad Time = Sep 02 2019 11:49:34
* <ApplicationData>
* <Seaterm232>
* <SoftwareVersion>2.8.0.119</SoftwareVersion>
* <BuildDate>07-Nov-2018</BuildDate>
* </Seaterm232>
* </ApplicationData>
* cast   2 02 Sep 2019 11:19:13 samples 463 to 902, avg = 1, stop = mag switch
# nquan = 15
# nvalues = 396                         
# units = specified
# name 0 = depFM: Depth [fresh water, m]
# name 1 = dz/dtM: Descent Rate [m/s]
# name 2 = sbeox0ML/L: Oxygen, SBE 43 [ml/l]
# name 3 = sbeox0PS: Oxygen, SBE 43 [% saturation]
# name 4 = specc: Specific Conductance [uS/cm]
# name 5 = c0uS/cm: Conductivity [uS/cm]
# name 6 = flECO-AFL: Fluorescence, WET Labs ECO-AFL/FL [mg/m^3]
# name 7 = ph: pH
# name 8 = orp: Oxidation Reduction Potential [mV]
# name 9 = par/sat/log: PAR/Logarithmic, Satlantic
# name 10 = turbWETntu0: Turbidity, WET Labs ECO [NTU]
# name 11 = prdM: Pressure, Strain Gauge [db]
# name 12 = prdE: Pressure, Strain Gauge [psi]
# name 13 = tv290C: Temperature [ITS-90, deg C]
# name 14 = flag:  0.000e+00
# span 0 =     -0.553,      3.222       
# span 1 =     -0.185,      0.313       
# span 2 =    -0.3260,     6.7084       
# span 3 =     -5.005,    114.388       
# span 4 =      1.224,    109.051       
# span 5 =   1.211530,  94.713801       
# span 6 =    -2.0747,     3.6598       
# span 7 =      6.129,      8.305       
# span 8 =   157.6525,  1240.2295       
# span 9 = 7.9290e+00, 2.2657e+03       
# span 10 =    -2.0663,    54.3178      
# span 11 =     -0.543,      3.162      
# span 12 =     -0.788,      4.586      
# span 13 =    18.1911,    25.2073      
# span 14 = 0.0000e+00, 0.0000e+00      
# interval = seconds: 0.25
# start_time = Sep 02 2019 11:19:13 [Instrument's time stamp, header]
# bad_flag = -9.990e-29
# <Sensors count="9" >
#   <sensor Channel="1" >
#     <!-- Count, Temperature -->
#     <TemperatureSensor SensorID="58" >
#       <SerialNumber>7809</SerialNumber>
#       <CalibrationDate>24-Mar-19</CalibrationDate>
#       <A0>1.21792325e-003</A0>
#       <A1>2.81669265e-004</A1>
#       <A2>-1.60333336e-006</A2>
#       <A3>1.98414625e-007</A3>
#       <Slope>1.00000000</Slope>
#       <Offset>0.0000</Offset>
#     </TemperatureSensor>
#   </sensor>
#   <sensor Channel="2" >
#     <!-- Frequency 0, Conductivity -->
#     <ConductivitySensor SensorID="3" >
#       <SerialNumber>7809</SerialNumber>
#       <CalibrationDate>24-Mar-19</CalibrationDate>
#       <UseG_J>1</UseG_J>
#       <!-- Cell const and series R are applicable only for wide range sensors. -->
#       <SeriesR>0.0000</SeriesR>
#       <CellConst>2000.0000</CellConst>
#       <ConductivityType>0</ConductivityType>
#       <Coefficients equation="0" >
#         <A>0.00000000e+000</A>
#         <B>0.00000000e+000</B>
#         <C>0.00000000e+000</C>
#         <D>0.00000000e+000</D>
#         <M>0.0</M>
#         <CPcor>-9.57000000e-008</CPcor>
#       </Coefficients>
#       <Coefficients equation="1" >
#         <G>-1.00589325e+000</G>
#         <H>1.26816302e-001</H>
#         <I>-1.51560448e-004</I>
#         <J>2.67137274e-005</J>
#         <CPcor>-9.57000000e-008</CPcor>
#         <CTcor>3.2500e-006</CTcor>
#         <!-- WBOTC not applicable unless ConductivityType = 1. -->
#         <WBOTC>0.00000000e+000</WBOTC>
#       </Coefficients>
#       <Slope>1.00000000</Slope>
#       <Offset>0.00000</Offset>
#     </ConductivitySensor>
#   </sensor>
#   <sensor Channel="3" >
#     <!-- Count, Pressure, Strain Gauge -->
#     <PressureSensor SensorID="46" >
#       <SerialNumber>7809</SerialNumber>
#       <CalibrationDate>11-Mar-19</CalibrationDate>
#       <PA0>4.56561833e-002</PA0>
#       <PA1>4.85095118e-004</PA1>
#       <PA2>-2.88327090e-012</PA2>
#       <PTEMPA0>-5.48784562e+001</PTEMPA0>
#       <PTEMPA1>5.53756816e+001</PTEMPA1>
#       <PTEMPA2>-5.86727098e-001</PTEMPA2>
#       <PTCA0>5.25246745e+005</PTCA0>
#       <PTCA1>1.22304214e+001</PTCA1>
#       <PTCA2>-3.56745036e-001</PTCA2>
#       <PTCB0>2.51668750e+001</PTCB0>
#       <PTCB1>3.75000000e-004</PTCB1>
#       <PTCB2>0.00000000e+000</PTCB2>
#       <Offset>0.000000</Offset>
#     </PressureSensor>
#   </sensor>
#   <sensor Channel="4" >
#     <!-- A/D voltage 0, Oxygen, SBE 43 -->
#     <OxygenSensor SensorID="38" >
#       <SerialNumber>0434</SerialNumber>
#       <CalibrationDate>13-Apr-19</CalibrationDate>
#       <Use2007Equation>1</Use2007Equation>
#       <CalibrationCoefficients equation="0" >
#         <!-- Coefficients for Owens-Millard equation. -->
#         <Boc>0.0000</Boc>
#         <Soc>0.0000e+000</Soc>
#         <offset>0.0000</offset>
#         <Pcor>0.00e+000</Pcor>
#         <Tcor>0.0000</Tcor>
#         <Tau>0.0</Tau>
#       </CalibrationCoefficients>
#       <CalibrationCoefficients equation="1" >
#         <!-- Coefficients for Sea-Bird equation - SBE calibration in 2007 and later. -->
#         <Soc>4.2007e-001</Soc>
#         <offset>-0.6109</offset>
#         <A>-4.3656e-003</A>
#         <B> 1.7017e-004</B>
#         <C>-2.5341e-006</C>
#         <D0> 2.5826e+000</D0>
#         <D1> 1.92634e-004</D1>
#         <D2>-4.64803e-002</D2>
#         <E> 3.6000e-002</E>
#         <Tau20> 1.1800</Tau20>
#         <H1>-3.3000e-002</H1>
#         <H2> 5.0000e+003</H2>
#         <H3> 1.4500e+003</H3>
#       </CalibrationCoefficients>
#     </OxygenSensor>
#   </sensor>
#   <sensor Channel="5" >
#     <!-- A/D voltage 1, PAR/Logarithmic, Satlantic -->
#     <PARLog_SatlanticSensor SensorID="76" >
#       <SerialNumber>1122</SerialNumber>
#       <CalibrationDate>08-May-2019</CalibrationDate>
#       <a0>9.7456e-001</a0>
#       <a1>8.1640e-001</a1>
#       <Im>1.3589e+000</Im>
#       <Multiplier>1.0000e+000</Multiplier>
#     </PARLog_SatlanticSensor>
#   </sensor>
#   <sensor Channel="6" >
#     <!-- A/D voltage 2, pH -->
#     <pH_Sensor SensorID="43" >
#       <SerialNumber>0363</SerialNumber>
#       <CalibrationDate>15-Apr-19</CalibrationDate>
#       <Slope>4.5952</Slope>
#       <Offset>2.5370</Offset>
#     </pH_Sensor>
#   </sensor>
#   <sensor Channel="7" >
#     <!-- A/D voltage 3, Oxidation Reduction Potential -->
#     <OxidationReductionPotentialSensor SensorID="41" >
#       <SerialNumber>0363</SerialNumber>
#       <CalibrationDate>15-Apr-19</CalibrationDate>
#       <B>2.499480</B>
#       <M>-0.496195</M>
#       <Offset>0.0</Offset>
#     </OxidationReductionPotentialSensor>
#   </sensor>
#   <sensor Channel="8" >
#     <!-- A/D voltage 4, Fluorometer, WET Labs ECO-AFL/FL -->
#     <FluoroWetlabECO_AFL_FL_Sensor SensorID="20" >
#       <SerialNumber>FLNTURT-2496</SerialNumber>
#       <CalibrationDate>08-May-2019</CalibrationDate>
#       <ScaleFactor>5.00000000e+001</ScaleFactor>
#       <!-- Dark output -->
#       <Vblank>0.0550</Vblank>
#     </FluoroWetlabECO_AFL_FL_Sensor>
#   </sensor>
#   <sensor Channel="9" >
#     <!-- A/D voltage 5, Turbidity Meter, WET Labs, ECO-NTU -->
#     <TurbidityMeter SensorID="67" >
#       <SerialNumber>FLNTURT-2496</SerialNumber>
#       <CalibrationDate>08-May-2019</CalibrationDate>
#       <ScaleFactor>189.000000</ScaleFactor>
#       <!-- Dark output -->
#       <DarkVoltage>0.071000</DarkVoltage>
#     </TurbidityMeter>
#   </sensor>
# </Sensors>
# datcnv_date = Sep 18 2019 09:14:15, 7.26.7.129 [datcnv_vars = 14]
# datcnv_in = C:\DATA\090219_fcr20.hex C:\DATA\SBE19plusV2_7809.xmlcon
# datcnv_skipover = 0
# datcnv_ox_hysteresis_correction = yes
# datcnv_ox_tau_correction = yes
# filter_date = Sep 18 2019 09:14:32, 7.26.7.129
# filter_in = C:\DATA\090219_fcr20.cnv
# filter_low_pass_tc_A = 0.030
# filter_low_pass_tc_B = 0.150
# filter_low_pass_A_vars = sbeox0ML/L prdM prdE tv290C
# filter_low_pass_B_vars = depFM dz/dtM sbeox0PS specc c0uS/cm flECO-AFL ph orp par/sat/log turbWETntu0
# alignctd_date = Sep 18 2019 09:15:31, 7.26.7.129
# alignctd_in = C:\DATA\090219_fcr20.cnv
# alignctd_adv = dz/dtM 1.000, sbeox0PS 1.000, specc 1.000, c0uS/cm 1.000, flECO-AFL 1.000, ph 1.000, orp 1.000, turbWETntu0 1.000                                                                                                   
# file_type = ascii
*END*
     -0.553 8.3192e-16     5.7099     97.804      1.224   1.211530    -0.1116      6.232  1240.2295 7.8372e+02    -0.4621     -0.542     -0.786    24.4963 0.0000e+00
     -0.553 9.1511e-15     5.7086     97.800      1.261   1.248601    -0.1089      6.139  1240.2295 1.7012e+03    -0.4286     -0.543     -0.787    24.4964 0.0000e+00
     -0.553 1.0066e-13     5.7081     97.800      1.280   1.267551    -0.1207      6.129  1240.2295 2.1482e+03    -0.4443     -0.543     -0.787    24.4967 0.0000e+00
     -0.552 1.1073e-12     5.7079     97.814      1.263   1.250579    -0.1247      6.157  1240.2295 1.7708e+03    -0.4558     -0.542     -0.786    24.4965 0.0000e+00
     -0.552 1.2180e-11     5.7076     97.826      1.246   1.233469    -0.1050      6.182  1240.2295 9.8352e+02    -0.4691     -0.542     -0.786    24.4966 0.0000e+00
     -0.553 1.3398e-10     5.7075     97.826      1.263   1.250766    -0.0982      6.196  1240.2295 6.1016e+02    -0.5066     -0.542     -0.786    24.4964 0.0000e+00
     -0.553 1.4738e-09     5.7068     97.829      1.282   1.269631    -0.1117      6.202  1240.2295 1.0215e+03    -0.5486     -0.542     -0.786    24.4964 0.0000e+00
     -0.553 1.6212e-08     5.7083     97.837      1.284   1.271479    -0.1304      6.205  1240.2293 1.6673e+03    -0.5510     -0.542     -0.787    24.4963 0.0000e+00
     -0.553 1.7833e-07     5.7096     97.831      1.286   1.273105    -0.1598      6.208  1240.2278 2.0060e+03    -0.5025     -0.542     -0.786    24.4958 0.0000e+00
     -0.553      0.000     5.7088     97.814      1.302   1.289293    -0.1720      6.211  1240.2103 2.0832e+03    -0.4869     -0.542     -0.787    24.4956 0.0000e+00
     -0.553      0.000     5.7089     97.811      1.354   1.340487    -0.1566      6.216  1240.0181 2.1052e+03    -0.4937     -0.542     -0.787    24.4952 0.0000e+00
     -0.553      0.000     5.7103     97.825      1.655   1.638638    -0.1382      6.227  1237.9043 2.1099e+03    -0.4537     -0.542     -0.787    24.4950 0.0000e+00
     -0.553      0.003     5.7101     97.845      4.814   4.767493    -0.1230      6.298  1214.6523 2.1301e+03    -0.4285     -0.542     -0.786    24.4941 0.0000e+00
     -0.553      0.014     5.7079     97.865     15.219  15.087656    -0.1201      6.519   958.8807 2.1800e+03    -0.4514     -0.542     -0.787    24.4939 0.0000e+00
     -0.553      0.041     5.7081     97.876     28.664  28.460062    -0.1642      6.904   486.8641 2.2346e+03    -0.5011     -0.543     -0.787    24.4924 0.0000e+00
     -0.552      0.085     5.7092     97.878     35.791  35.613273    -0.6643      7.347   223.9531 2.2654e+03    -0.9320     -0.542     -0.786    24.4932 0.0000e+00
     -0.543      0.142     5.7106     97.884     37.154  37.060219    -1.5810      7.727   194.8247 2.2657e+03    -1.6957     -0.543     -0.788    24.4904 0.0000e+00
     -0.508      0.203     5.7111     97.947     37.344  37.323267    -2.0747      7.991   189.8265 2.2119e+03    -2.0663     -0.514     -0.745    24.4982 0.0000e+00
     -0.435      0.258     5.7017     98.157     37.316  37.333967    -2.0559      8.160   183.1365 1.8032e+03    -1.8079     -0.434     -0.629    24.5902 0.0000e+00
     -0.340      0.298     5.6857     98.583     37.240  37.253130    -1.3195      8.257   171.1528 1.3862e+03     1.6582     -0.335     -0.486    24.7425 0.0000e+00
     -0.240      0.313     5.6712     99.183     37.195  37.171022     0.0403      8.297   170.7223 1.6337e+03     8.0866     -0.233     -0.339    24.8738 0.0000e+00
     -0.145      0.301     5.6616     99.849     37.170  37.102833     0.7746      8.305   184.2123 1.9276e+03    11.6171     -0.136     -0.198    24.9819 0.0000e+00
     -0.065      0.266     5.6651    100.524     37.166  37.063341     0.8308      8.301   191.7788 1.4946e+03    11.9345     -0.058     -0.083    25.0430 0.0000e+00
     -0.003      0.220     5.6927    101.170     37.202  37.074311     0.8410      8.287   191.9998 6.5244e+02    11.8252      0.003      0.004    25.0256 0.0000e+00
      0.042      0.172     5.7374    101.746     37.254  37.108486     0.9064      8.262   192.2187 1.8424e+02    10.6227      0.046      0.066    24.9633 0.0000e+00
      0.072      0.127     5.7830    102.197     37.254  37.095677     1.0233      8.239   192.6191 1.2442e+02     8.4730      0.073      0.106    24.8993 0.0000e+00
      0.096      0.088     5.8282    102.457     37.215  37.046367     1.0930      8.225   192.8821 1.1125e+02     7.2994      0.095      0.137    24.8508 0.0000e+00
      0.116      0.056     5.8698    102.508     37.199  37.020063     1.0985      8.214   192.9898 1.0545e+02     7.1811      0.116      0.170    24.8199 0.0000e+00
      0.126      0.031     5.9065    102.399     37.222  37.031522     1.1075      8.199   193.4052 1.0043e+02     7.2074      0.127      0.185    24.7975 0.0000e+00
      0.126      0.013     5.9368    102.219     37.263  37.057954     1.1326      8.183   193.8611 9.8501e+01     7.2899      0.127      0.182    24.7789 0.0000e+00
      0.121     -0.001     5.9533    101.990     37.304  37.085729     1.1511      8.171   193.7692 9.9796e+01     7.3259      0.120      0.173    24.7661 0.0000e+00
      0.115     -0.009     5.9568    101.589     37.344  37.113432     1.1656      8.163   193.3277 1.0086e+02     7.2829      0.111      0.162    24.7552 0.0000e+00
      0.112     -0.010     5.9495    100.746     37.379  37.139007     1.1688      8.157   192.9969 1.0060e+02     7.2606      0.109      0.158    24.7400 0.0000e+00
      0.110     -0.008     5.9405     99.246     37.391  37.141042     1.1553      8.152   192.9524 1.0038e+02     7.3190      0.109      0.159    24.7190 0.0000e+00
      0.108     -0.006     5.9319     97.180     37.397  37.138016     1.1499      8.143   193.2194 1.0254e+02     7.3990      0.106      0.153    24.6991 0.0000e+00
      0.106     -0.009     5.9158     94.768     37.494  37.229355     1.1551      8.133   193.4724 1.0461e+02     7.4409      0.101      0.148    24.6853 0.0000e+00
      0.109     -0.014     5.8757     92.234     37.686  37.420240     1.1403      8.125   193.6888 1.0309e+02     7.4003      0.107      0.156    24.6733 0.0000e+00
      0.111     -0.018     5.7856     89.962     37.802  37.541759     1.1106      8.117   194.0288 1.0198e+02     7.3009      0.114      0.165    24.6599 0.0000e+00
      0.102     -0.018     5.6612     88.364     37.745  37.492616     1.0987      8.105   194.2273 1.0593e+02     7.2216      0.104      0.151    24.6475 0.0000e+00
      0.087     -0.016     5.5198     87.613     37.644  37.397351     1.1002      8.088   194.3678 1.1122e+02     7.1953      0.084      0.122    24.6383 0.0000e+00
      0.077     -0.012     5.3627     87.493     37.650  37.405513     1.0852      8.063   194.5240 1.1078e+02     7.2453      0.069      0.100    24.6380 0.0000e+00
      0.077     -0.006     5.2202     87.638     37.709  37.464361     1.0474      8.037   194.4809 1.0717e+02     7.3358      0.074      0.107    24.6490 0.0000e+00
      0.084      0.000     5.1210     87.798     37.719  37.474136     1.0246      8.020   194.2766 1.0543e+02     7.4038      0.083      0.121    24.6614 0.0000e+00
      0.089      0.005     5.0828     87.798     37.706  37.460229     1.0266      8.011   193.8603 1.0458e+02     7.4457      0.088      0.128    24.6675 0.0000e+00
      0.092      0.007     5.0855     87.491     37.671  37.423153     1.0286      8.006   190.3086 1.0432e+02     7.4480      0.090      0.131    24.6693 0.0000e+00
      0.092      0.009     5.0972     86.769     37.595  37.343223     1.0399      7.997   181.0168 1.0433e+02     7.3660      0.091      0.132    24.6699 0.0000e+00
      0.090      0.019     5.1104     85.631     37.513  37.255497     1.0684      7.978   171.3389 1.0419e+02     7.2410      0.089      0.129    24.6701 0.0000e+00
      0.088      0.036     5.1133     84.389     37.450  37.187619     1.0867      7.959   166.8188 1.0384e+02     7.1824      0.086      0.124    24.6692 0.0000e+00
      0.091      0.055     5.0978     83.629     37.422  37.157243     1.0962      7.945   165.2542 1.0244e+02     7.2136      0.083      0.121    24.6661 0.0000e+00
      0.107      0.069     5.0581     83.748     37.409  37.142108     1.1322      7.935   163.9499 9.7762e+01     7.3567      0.096      0.139    24.6603 0.0000e+00
      0.142      0.073     4.9867     84.573     37.399  37.131574     1.1837      7.928   163.0085 9.0577e+01     7.5688      0.140      0.202    24.6513 0.0000e+00
      0.180      0.067     4.9006     85.636     37.425  37.156827     1.2065      7.924   162.4760 8.6127e+01     7.6809      0.182      0.263    24.6429 0.0000e+00
      0.205      0.054     4.8454     86.634     37.462  37.193545     1.2089      7.920   162.1570 8.4823e+01     7.6637      0.207      0.299    24.6393 0.0000e+00
      0.212      0.035     4.8584     87.428     37.464  37.194690     1.2127      7.910   161.9913 8.4976e+01     7.5900      0.214      0.311    24.6383 0.0000e+00
      0.202      0.014     4.9193     87.892     37.441  37.170662     1.2087      7.895   161.8497 8.6107e+01     7.4779      0.197      0.286    24.6372 0.0000e+00
      0.192     -0.001     4.9865     87.934     37.430  37.156927     1.2050      7.882   161.6497 8.7046e+01     7.3902      0.182      0.263    24.6360 0.0000e+00
      0.194     -0.006     5.0461     87.616     37.430  37.155566     1.2104      7.872   161.2936 8.7890e+01     7.3814      0.190      0.275    24.6358 0.0000e+00
      0.199      0.000     5.0954     87.186     37.430  37.154194     1.1958      7.859   160.8131 8.9522e+01     7.4044      0.200      0.290    24.6354 0.0000e+00
      0.194      0.013     5.1252     86.862     37.420  37.140334     1.1586      7.839   160.2282 9.1005e+01     7.4393      0.189      0.274    24.6325 0.0000e+00
      0.189      0.022     5.1271     86.571     37.400  37.114933     1.1421      7.815   159.4703 9.0940e+01     7.4743      0.179      0.260    24.6292 0.0000e+00
      0.197      0.026     5.1028     86.129     37.391  37.100961     1.1527      7.799   158.8766 8.9936e+01     7.4683      0.190      0.275    24.6273 0.0000e+00
      0.216      0.029     5.0709     85.571     37.393  37.098340     1.1909      7.792   158.5560 8.8851e+01     7.4977      0.212      0.309    24.6256 0.0000e+00
      0.234      0.034     5.0557     85.101     37.382  37.083232     1.2488      7.780   158.3471 8.7967e+01     7.6001      0.234      0.340    24.6208 0.0000e+00
      0.239      0.036     5.0457     84.860     37.350  37.045233     1.2808      7.755   158.3298 8.7055e+01     7.6575      0.238      0.345    24.6130 0.0000e+00
      0.238      0.031     5.0190     84.804     37.331  37.019730     1.2829      7.731   158.4331 8.5722e+01     7.6335      0.230      0.334    24.6058 0.0000e+00
      0.242      0.023     4.9817     84.829     37.346  37.028761     1.2741      7.717   158.3056 8.4272e+01     7.5074      0.231      0.336    24.6003 0.0000e+00
      0.257      0.017     4.9510     84.957     37.351  37.027478     1.2695      7.709   157.9066 8.3415e+01     7.3128      0.253      0.368    24.5948 0.0000e+00
      0.268      0.013     4.9395     85.282     37.334  37.004213     1.2800      7.701   157.6525 8.3205e+01     7.2148      0.270      0.392    24.5870 0.0000e+00
      0.266      0.008     4.9405     85.729     37.338  37.001340     1.2880      7.694   157.7282 8.3035e+01     7.2068      0.262      0.380    24.5773 0.0000e+00
      0.260     -0.002     4.9421     85.999     37.336  36.992734     1.2802      7.689   158.1346 8.2333e+01     7.2157      0.252      0.365    24.5694 0.0000e+00
      0.261     -0.015     4.9466     85.849     37.312  36.963612     1.2719      7.686   158.6085 8.1170e+01     7.3225      0.255      0.370    24.5622 0.0000e+00
      0.262     -0.022     4.9670     85.342     37.321  36.966591     1.2827      7.680   158.8978 8.0777e+01     7.5160      0.260      0.379    24.5533 0.0000e+00
      0.255     -0.022     5.0024     84.758     37.325  36.965274     1.2973      7.671   159.2233 8.2357e+01     7.6214      0.254      0.369    24.5434 0.0000e+00
      0.239     -0.020     5.0251     84.288     37.313  36.947678     1.3023      7.661   159.6183 8.4762e+01     7.6125      0.233      0.337    24.5340 0.0000e+00
      0.227     -0.017     5.0154     83.858     37.315  36.944249     1.2997      7.650   159.9740 8.6255e+01     7.5397      0.218      0.316    24.5266 0.0000e+00
      0.227     -0.013     4.9789     83.322     37.299  36.923806     1.2913      7.638   160.3406 8.6780e+01     7.4623      0.222      0.322    24.5194 0.0000e+00
      0.231     -0.008     4.9405     82.730     37.270  36.890917     1.2869      7.626   160.6948 8.6710e+01     7.4634      0.228      0.330    24.5120 0.0000e+00
      0.233     -0.003     4.9165     82.270     37.246  36.863962     1.2816      7.615   160.9879 8.6128e+01     7.4546      0.228      0.331    24.5044 0.0000e+00
      0.232     -0.002     4.8972     82.062     37.237  36.851778     1.2711      7.606   161.3030 8.5378e+01     7.3885      0.227      0.329    24.4964 0.0000e+00
      0.231     -0.003     4.8648     82.097     37.260  36.870534     1.2634      7.600   161.4071 8.4951e+01     7.3525      0.227      0.329    24.4905 0.0000e+00
      0.229     -0.004     4.8251     82.223     37.292  36.900319     1.2670      7.590   161.0417 8.4826e+01     7.3804      0.224      0.325    24.4864 0.0000e+00
      0.225     -0.003     4.7968     82.241     37.288  36.894543     1.2797      7.580   160.7574 8.4806e+01     7.4312      0.220      0.319    24.4815 0.0000e+00
      0.223     -0.002     4.7846     82.044     37.258  36.864169     1.2958      7.570   160.8079 8.4463e+01     7.4423      0.218      0.316    24.4763 0.0000e+00
      0.225     -0.002     4.7907     81.627     37.245  36.850435     1.3146      7.560   160.7924 8.4138e+01     7.4159      0.221      0.320    24.4715 0.0000e+00
      0.228     -0.002     4.8036     81.025     37.251  36.855430     1.3245      7.550   160.7426 8.4428e+01     7.4071      0.224      0.325    24.4678 0.0000e+00
      0.228     -0.002     4.8067     80.283     37.257  36.861082     1.3288      7.541   160.8943 8.4842e+01     7.4337      0.224      0.325    24.4659 0.0000e+00
      0.226     -0.003     4.7950     79.522     37.252  36.855302     1.3404      7.533   161.1639 8.5054e+01     7.4422      0.222      0.322    24.4650 0.0000e+00
      0.223     -0.003     4.7696     78.884     37.246  36.849010     1.3438      7.523   161.3352 8.5249e+01     7.4117      0.219      0.317    24.4637 0.0000e+00
      0.221     -0.002     4.7346     78.446     37.246  36.848490     1.3347      7.513   161.5021 8.5361e+01     7.3935      0.216      0.313    24.4625 0.0000e+00
      0.221      0.000     4.6884     78.199     37.247  36.849010     1.3342      7.505   161.8919 8.5025e+01     7.4185      0.216      0.313    24.4614 0.0000e+00
      0.222      0.004     4.6405     78.083     37.253  36.855300     1.3379      7.497   162.2621 8.4523e+01     7.4525      0.218      0.316    24.4606 0.0000e+00
      0.223      0.006     4.6019     78.013     37.259  36.861061     1.3365      7.484   162.4509 8.4114e+01     7.4102      0.219      0.317    24.4603 0.0000e+00
      0.226      0.007     4.5765     77.898     37.253  36.855189     1.3347      7.467   162.7115 8.3945e+01     7.3012      0.220      0.320    24.4600 0.0000e+00
      0.229      0.007     4.5637     77.673     37.245  36.847783     1.3332      7.452   162.9188 8.3836e+01     7.2152      0.225      0.326    24.4599 0.0000e+00
      0.232      0.006     4.5584     77.323     37.232  36.834984     1.3352      7.439   162.9782 8.3349e+01     7.1897      0.229      0.331    24.4604 0.0000e+00
      0.234      0.003     4.5565     76.831     37.224  36.827387     1.3508      7.429   163.1714 8.3088e+01     7.1899      0.230      0.333    24.4606 0.0000e+00
      0.234     -0.001     4.5513     76.223     37.216  36.819399     1.3832      7.422   163.5343 8.2990e+01     7.1855      0.229      0.332    24.4605 0.0000e+00
      0.233     -0.004     4.5377     75.563     37.199  36.801879     1.4063      7.415   164.0102 8.2687e+01     7.2012      0.228      0.331    24.4606 0.0000e+00
      0.231     -0.005     4.5183     74.887     37.203  36.805966     1.4044      7.408   164.4512 8.2705e+01     7.2163      0.227      0.329    24.4605 0.0000e+00
      0.228     -0.005     4.4890     74.232     37.203  36.805340     1.3864      7.401   164.6506 8.3211e+01     7.2697      0.223      0.324    24.4607 0.0000e+00
      0.224     -0.004     4.4515     73.626     37.192  36.794320     1.3622      7.394   164.7857 8.3644e+01     7.3872      0.220      0.319    24.4605 0.0000e+00
      0.223     -0.002     4.4129     73.031     37.197  36.799664     1.3455      7.386   165.0523 8.3539e+01     7.4252      0.218      0.316    24.4600 0.0000e+00
      0.224     -0.001     4.3725     72.416     37.205  36.806483     1.3323      7.379   165.3790 8.3289e+01     7.4012      0.220      0.319    24.4596 0.0000e+00
      0.226      0.001     4.3333     71.818     37.212  36.813294     1.3238      7.373   165.5521 8.3277e+01     7.3593      0.223      0.323    24.4598 0.0000e+00
      0.227      0.002     4.2987     71.254     37.217  36.818543     1.3295      7.368   165.6831 8.3272e+01     7.2467      0.223      0.323    24.4602 0.0000e+00
      0.226      0.002     4.2659     70.703     37.204  36.806473     1.3410      7.363   166.0170 8.2706e+01     7.1867      0.222      0.322    24.4599 0.0000e+00
      0.226      0.001     4.2279     70.156     37.192  36.794299     1.3500      7.357   166.4049 8.1898e+01     7.2235      0.221      0.321    24.4593 0.0000e+00
      0.226      0.000     4.1928     69.613     37.196  36.798301     1.3427      7.349   166.7591 8.1560e+01     7.2995      0.222      0.322    24.4590 0.0000e+00
      0.226 3.6886e-07     4.1609     69.087     37.189  36.791388     1.3310      7.340   167.1167 8.1439e+01     7.4165      0.222      0.322    24.4591 0.0000e+00
      0.226      0.000     4.1285     68.597     37.171  36.774186     1.3375      7.331   167.3740 8.1556e+01     7.4914      0.223      0.323    24.4591 0.0000e+00
      0.226      0.000     4.0966     68.127     37.178  36.780732     1.3434      7.322   167.4603 8.1863e+01     7.4835      0.222      0.323    24.4593 0.0000e+00
      0.225      0.000     4.0649     67.676     37.204  36.807056     1.3417      7.314   167.4708 8.2080e+01     7.4530      0.221      0.320    24.4597 0.0000e+00
      0.225      0.000     4.0329     67.260     37.235  36.838572     1.3437      7.307   167.5019 8.1979e+01     7.3839      0.220      0.319    24.4601 0.0000e+00
      0.226     -0.001     4.0053     66.847     37.240  36.844433     1.3417      7.300   167.5789 8.1392e+01     7.3355      0.221      0.321    24.4605 0.0000e+00
      0.228     -0.002     3.9783     66.441     37.209  36.814451     1.3343      7.294   167.7128 8.1010e+01     7.3925      0.223      0.324    24.4611 0.0000e+00
      0.228     -0.002     3.9500     66.054     37.187  36.793428     1.3319      7.287   168.0028 8.0944e+01     7.4513      0.225      0.326    24.4617 0.0000e+00
      0.226     -0.002     3.9282     65.699     37.173  36.780668     1.3308      7.280   168.3314 8.0504e+01     7.4571      0.222      0.322    24.4622 0.0000e+00
      0.222     -0.002     3.9026     65.539     37.179  36.787113     1.3297      7.272   168.5885 8.0033e+01     7.4620      0.218      0.316    24.4628 0.0000e+00
      0.221     -0.001     3.8794     66.463     37.265  36.871353     1.3440      7.263   168.8741 7.9775e+01     7.4775      0.215      0.312    24.4635 0.0000e+00
      0.222      0.002     3.8560     70.020     37.370  36.974062     1.3567      7.254   169.2037 7.9576e+01     7.4809      0.217      0.314    24.4646 0.0000e+00
      0.224      0.004     3.8350     76.716     37.409  37.013385     1.3444      7.246   169.4765 7.9383e+01     7.4704      0.220      0.319    24.4657 0.0000e+00
      0.226      0.005     3.8127     85.254     37.424  37.029436     1.3339      7.237   169.5915 7.8947e+01     7.4815      0.221      0.321    24.4669 0.0000e+00
      0.228      0.003     3.8198     93.869     37.433  37.041187     1.3426      7.229   169.6469 7.8599e+01     7.4845      0.224      0.324    24.4671 0.0000e+00
      0.230      0.000     4.0127    101.519     37.416  37.028521     1.3546      7.224   169.8019 7.8502e+01     7.4405      0.227      0.328    24.4642 0.0000e+00
      0.230     -0.002     4.4409    107.685     37.387  37.003249     1.3567      7.218   170.1756 7.8121e+01     7.4078      0.227      0.329    24.4631 0.0000e+00
      0.228     -0.003     4.9819    111.929     37.374  36.989525     1.3511      7.213   170.5507 7.7524e+01     7.3834      0.224      0.325    24.4659 0.0000e+00
      0.224     -0.003     5.5027    114.098     37.380  36.989537     1.3394      7.208   170.7243 7.7450e+01     7.3764      0.218      0.317    24.4702 0.0000e+00
      0.222     -0.003     5.9543    114.388     37.403  37.003377     1.3278      7.202   170.8985 7.7665e+01     7.4214      0.216      0.313    24.4754 0.0000e+00
      0.223     -0.001     6.3273    113.351     37.438  37.029912     1.3234      7.193   171.1936 7.7703e+01     7.4358      0.219      0.318    24.4818 0.0000e+00
      0.224      0.002     6.5760    111.743     37.470  37.056455     1.3211      7.182   171.6258 7.7987e+01     7.4195      0.220      0.320    24.4834 0.0000e+00
      0.224      0.004     6.7006    110.078     37.484  37.070410     1.3257      7.169   172.0804 7.8225e+01     7.4200      0.220      0.319    24.4740 0.0000e+00
      0.225      0.004     6.7084    108.539     37.483  37.071687     1.3353      7.158   172.3881 7.8018e+01     7.4420      0.219      0.318    24.4593 0.0000e+00
      0.227      0.003     6.6299    107.216     37.478  37.071905     1.3334      7.150   172.4206 7.7626e+01     7.4564      0.220      0.321    24.4463 0.0000e+00
      0.230      0.001     6.5267    106.171     37.472  37.073058     1.3122      7.144   172.3874 7.6871e+01     7.4305      0.226      0.328    24.4399 0.0000e+00
      0.232      0.000     6.4275    105.371     37.476  37.085629     1.2860      7.139   172.7611 7.6342e+01     7.4235      0.229      0.332    24.4407 0.0000e+00
      0.230     -0.001     6.3359    104.767     37.481  37.096960     1.2762      7.135   173.2399 7.6283e+01     7.4382      0.225      0.326    24.4438 0.0000e+00
      0.226     -0.003     6.2550    104.349     37.463  37.083120     1.2807      7.131   173.4437 7.6036e+01     7.4447      0.219      0.320    24.4497 0.0000e+00
      0.224     -0.003     6.1949    104.107     37.425  37.045245     1.2884      7.127   173.6766 7.5713e+01     7.4690      0.218      0.317    24.4609 0.0000e+00
      0.224     -0.003     6.1476    104.007     37.404  37.019865     1.2837      7.123   174.0773 7.5683e+01     7.4690      0.220      0.319    24.4732 0.0000e+00
      0.224     -0.002     6.1114    104.008     37.419  37.030150     1.2665      7.118   174.4163 7.6101e+01     7.4125      0.221      0.321    24.4831 0.0000e+00
      0.224     -0.001     6.0861    104.056     37.435  37.042636     1.2630      7.113   174.5920 7.6497e+01     7.3753      0.221      0.320    24.4892 0.0000e+00
      0.223     -0.001     6.0734    104.114     37.438  37.043885     1.2763      7.107   174.7389 7.6577e+01     7.3796      0.219      0.317    24.4883 0.0000e+00
      0.223     -0.001     6.0686    104.175     37.440  37.045246     1.2882      7.101   174.9882 7.6468e+01     7.3986      0.219      0.318    24.4815 0.0000e+00
      0.223     -0.000     6.0708    104.184     37.454  37.059094     1.2769      7.095   175.2827 7.6411e+01     7.4095      0.218      0.317    24.4736 0.0000e+00
      0.223     -0.000     6.0758    104.099     37.477  37.084369     1.2606      7.088   175.5472 7.6263e+01     7.4128      0.217      0.315    24.4689 0.0000e+00
      0.223     -0.000     6.0776    103.930     37.485  37.096958     1.2644      7.081   175.8627 7.5638e+01     7.4376      0.218      0.317    24.4671 0.0000e+00
      0.224     -0.001     6.0841    103.734     37.469  37.084359     1.2709      7.075   176.1714 7.5116e+01     7.4478      0.220      0.319    24.4660 0.0000e+00
      0.224     -0.001     6.0849    103.545     37.441  37.058990     1.2793      7.070   176.3549 7.5251e+01     7.4380      0.221      0.320    24.4662 0.0000e+00
      0.223     -0.001     6.0797    103.386     37.426  37.044120     1.2880      7.065   176.4465 7.5534e+01     7.4501      0.220      0.319    24.4696 0.0000e+00
      0.221      0.000     6.0673    103.304     37.419  37.031522     1.2980      7.060   176.5905 7.5695e+01     7.5280      0.217      0.315    24.4756 0.0000e+00
      0.220      0.003     6.0545    103.300     37.428  37.033603     1.3213      7.056   176.8924 7.6128e+01     7.6259      0.215      0.312    24.4813 0.0000e+00
      0.220      0.008     6.0438    103.369     37.469  37.069275     1.3358      7.051   177.1710 7.6380e+01     7.6512      0.215      0.312    24.4858 0.0000e+00
      0.223      0.010     6.0318    103.489     37.484  37.081979     1.3348      7.044   177.2915 7.5958e+01     7.6373      0.217      0.315    24.4861 0.0000e+00
      0.229      0.010     6.0291    103.598     37.463  37.060252     1.3352      7.037   177.1455 7.5450e+01     7.6219      0.223      0.325    24.4772 0.0000e+00
      0.236      0.007     6.0299    103.644     37.463  37.060469     1.3233      7.032   176.6957 7.5057e+01     7.5954      0.232      0.336    24.4651 0.0000e+00
      0.240      0.002     6.0347    103.619     37.483  37.084608     1.3038      7.029   176.3265 7.4447e+01     7.5792      0.238      0.345    24.4586 0.0000e+00
      0.239     -0.002     6.0441    103.580     37.490  37.098218     1.2987      7.027   176.3817 7.4021e+01     7.5568      0.236      0.344    24.4559 0.0000e+00
      0.233     -0.004     6.0511    103.599     37.481  37.098103     1.2959      7.024   176.7607 7.3916e+01     7.4892      0.228      0.331    24.4544 0.0000e+00
      0.226     -0.005     6.0547    103.676     37.459  37.083222     1.3133      7.020   177.1233 7.3866e+01     7.4170      0.220      0.319    24.4563 0.0000e+00
      0.224     -0.003     6.0507    103.759     37.420  37.045252     1.3622      7.016   177.4108 7.4150e+01     7.4051      0.218      0.317    24.4622 0.0000e+00
      0.226      0.002     6.0454    103.773     37.401  37.019856     1.3922      7.011   177.7420 7.4470e+01     7.4435      0.222      0.322    24.4708 0.0000e+00
      0.230      0.005     6.0457    103.725     37.424  37.030037     1.3907      7.005   178.1165 7.4537e+01     7.4551      0.225      0.327    24.4837 0.0000e+00
      0.234      0.005     6.0494    103.742     37.448  37.041379     1.3703      7.000   178.4964 7.4675e+01     7.4147      0.229      0.333    24.4961 0.0000e+00
      0.237      0.002     6.0563    103.907     37.443  37.030028     1.3444      6.997   178.7219 7.4572e+01     7.3817      0.233      0.340    24.4985 0.0000e+00
      0.237     -0.002     6.0591    104.216     37.433  37.019735     1.3374      6.996   178.7779 7.4057e+01     7.4159      0.235      0.341    24.4868 0.0000e+00
      0.235     -0.005     6.0543    104.605     37.453  37.043875     1.3379      6.995   178.9158 7.3854e+01     7.4672      0.231      0.335    24.4664 0.0000e+00
      0.230     -0.006     6.0556    104.938     37.471  37.068015     1.3162      6.993   179.1846 7.4080e+01     7.4125      0.225      0.326    24.4479 0.0000e+00
      0.225     -0.006     6.0670    105.080     37.455  37.057722     1.2831      6.990   179.4472 7.3966e+01     7.2789      0.220      0.319    24.4383 0.0000e+00
      0.223     -0.006     6.0856    105.017     37.439  37.046379     1.2755      6.985   179.5947 7.3698e+01     7.1955      0.218      0.316    24.4393 0.0000e+00
      0.225     -0.006     6.1107    104.819     37.448  37.057824     1.2850      6.979   179.6774 7.3950e+01     7.1900      0.220      0.320    24.4473 0.0000e+00
      0.227     -0.007     6.1327    104.550     37.459  37.069157     1.2679      6.972   179.8444 7.4528e+01     7.2126      0.223      0.325    24.4569 0.0000e+00
      0.227     -0.010     6.1401    104.281     37.448  37.056452     1.2245      6.966   180.0654 7.5202e+01     7.2068      0.224      0.326    24.4651 0.0000e+00
      0.223     -0.014     6.1335    104.097     37.424  37.031158     1.2021      6.963   180.2845 7.5978e+01     7.1863      0.220      0.320    24.4707 0.0000e+00
      0.216     -0.015     6.1208    104.058     37.410  37.017224     1.2052      6.960   180.5153 7.6406e+01     7.1941      0.212      0.307    24.4738 0.0000e+00
      0.208     -0.013     6.1036    104.170     37.409  37.014926     1.2110      6.958   180.7918 7.6215e+01     7.2681      0.203      0.295    24.4740 0.0000e+00
      0.203     -0.009     6.0862    104.388     37.399  37.003366     1.2111      6.955   181.0462 7.6018e+01     7.3917      0.198      0.287    24.4712 0.0000e+00
      0.202     -0.004     6.0743    104.594     37.403  37.004406     1.2069      6.951   181.1812 7.6184e+01     7.4439      0.196      0.285    24.4684 0.0000e+00
      0.204      0.001     6.0722    104.676     37.431  37.027496     1.2122      6.945   181.3058 7.6466e+01     7.4403      0.200      0.290    24.4682 0.0000e+00
      0.209      0.004     6.0791    104.631     37.436  37.028642     1.2230      6.940   181.5208 7.6334e+01     7.4473      0.205      0.298    24.4684 0.0000e+00
      0.213      0.004     6.0951    104.562     37.429  37.018248     1.2414      6.935   181.8009 7.5692e+01     7.3973      0.210      0.304    24.4659 0.0000e+00
      0.213      0.003     6.1107    104.554     37.443  37.028768     1.2701      6.932   182.1115 7.5536e+01     7.2938      0.209      0.303    24.4612 0.0000e+00
      0.211      0.000     6.1160    104.604     37.443  37.028892     1.2840      6.930   182.4372 7.5714e+01     7.2116      0.206      0.299    24.4552 0.0000e+00
      0.209     -0.002     6.1115    104.688     37.432  37.019746     1.2791      6.928   182.7268 7.5460e+01     7.1910      0.205      0.297    24.4489 0.0000e+00
      0.209     -0.003     6.1055    104.810     37.453  37.045134     1.2716      6.927   182.9463 7.5359e+01     7.2738      0.205      0.298    24.4440 0.0000e+00
      0.209     -0.003     6.1064    104.968     37.485  37.081967     1.2718      6.926   183.1121 7.6066e+01     7.3934      0.206      0.298    24.4403 0.0000e+00
      0.208     -0.002     6.1100    105.102     37.483  37.084256     1.2818      6.925   183.2695 7.7306e+01     7.4244      0.204      0.295    24.4394 0.0000e+00
      0.206     -0.001     6.1143    105.134     37.468  37.072819     1.2886      6.923   183.4720 7.7623e+01     7.3869      0.202      0.293    24.4430 0.0000e+00
      0.206      0.000     6.1202    105.045     37.464  37.070634     1.3018      6.921   183.5829 7.6892e+01     7.3657      0.202      0.293    24.4492 0.0000e+00
      0.207      0.000     6.1303    104.875     37.452  37.057846     1.3288      6.920   183.5771 7.6443e+01     7.3969      0.203      0.294    24.4561 0.0000e+00
      0.208      0.001     6.1393    104.671     37.442  37.045144     1.3374      6.919   183.7462 7.6507e+01     7.4370      0.204      0.296    24.4630 0.0000e+00
      0.208      0.002     6.1409    104.436     37.444  37.044000     1.3288      6.916   183.9930 7.6689e+01     7.4238      0.205      0.297    24.4681 0.0000e+00
      0.208      0.002     6.1346    104.197     37.448  37.044000     1.3287      6.911   184.1517 7.6609e+01     7.4017      0.204      0.296    24.4699 0.0000e+00
      0.209      0.003     6.1232    104.038     37.452  37.045145     1.3353      6.908   184.3749 7.6253e+01     7.4316      0.205      0.297    24.4687 0.0000e+00
      0.210      0.004     6.1123    103.989     37.467  37.057839     1.3386      6.906   184.6259 7.5820e+01     7.4584      0.206      0.298    24.4646 0.0000e+00
      0.211      0.006     6.0992    104.011     37.481  37.070534     1.3343      6.902   184.7780 7.5681e+01     7.4304      0.207      0.300    24.4586 0.0000e+00
      0.212      0.006     6.0829    104.067     37.483  37.071688     1.3183      6.897   184.9227 7.6017e+01     7.3551      0.207      0.301    24.4544 0.0000e+00
      0.214      0.005     6.0734    104.103     37.485  37.071783     1.2920      6.893   185.1713 7.6317e+01     7.2689      0.210      0.305    24.4502 0.0000e+00
      0.219      0.003     6.0728    104.084     37.485  37.071689     1.2773      6.891   185.3748 7.6387e+01     7.2399      0.215      0.312    24.4475 0.0000e+00
      0.221      0.001     6.0739    104.067     37.483  37.070545     1.2792      6.889   185.5753 7.6416e+01     7.2341      0.218      0.316    24.4473 0.0000e+00
      0.219     -0.001     6.0788    104.104     37.468  37.057953     1.2796      6.887   185.8758 7.6485e+01     7.1982      0.215      0.312    24.4449 0.0000e+00
      0.215     -0.003     6.0829    104.184     37.454  37.046393     1.2649      6.886   186.1685 7.6431e+01     7.2318      0.211      0.306    24.4425 0.0000e+00
      0.213     -0.005     6.0794    104.269     37.463  37.057724     1.2316      6.884   186.3614 7.6277e+01     7.3462      0.209      0.303    24.4430 0.0000e+00
      0.213     -0.005     6.0770    104.327     37.470  37.068014     1.2067      6.881   186.4018 7.6159e+01     7.4014      0.209      0.303    24.4445 0.0000e+00
      0.213     -0.005     6.0799    104.365     37.445  37.043874     1.2071      6.878   186.3980 7.6231e+01     7.4085      0.210      0.304    24.4460 0.0000e+00
      0.212     -0.004     6.0847    104.387     37.420  37.019743     1.2274      6.876   186.4877 7.6721e+01     7.3995      0.209      0.303    24.4484 0.0000e+00
      0.211     -0.003     6.0902    104.372     37.431  37.030140     1.2615      6.875   186.7124 7.7148e+01     7.3900      0.207      0.301    24.4533 0.0000e+00
      0.209     -0.001     6.0928    104.365     37.444  37.042625     1.2814      6.874   186.9640 7.7618e+01     7.4248      0.204      0.298    24.4586 0.0000e+00
      0.208      0.002     6.0938    104.386     37.447  37.043750     1.2767      6.873   187.1215 7.8280e+01     7.4596      0.202      0.294    24.4601 0.0000e+00
      0.208      0.005     6.0974    104.385     37.451  37.043750     1.2565      6.872   187.3250 7.8181e+01     7.4178      0.203      0.293    24.4591 0.0000e+00
      0.210      0.007     6.0943    104.368     37.454  37.042615     1.2277      6.869   187.6184 7.7416e+01     7.2800      0.206      0.299    24.4590 0.0000e+00
      0.215      0.008     6.0928    104.357     37.444  37.030026     1.2150      6.865   187.7429 7.7104e+01     7.1701      0.211      0.306    24.4592 0.0000e+00
      0.219      0.008     6.0973    104.343     37.434  37.018486     1.2244      6.862   187.7124 7.7333e+01     7.1702      0.215      0.311    24.4564 0.0000e+00
      0.221      0.007     6.0966    104.315     37.447  37.030027     1.2290      6.857   187.7650 7.7195e+01     7.1824      0.217      0.314    24.4510 0.0000e+00
      0.221      0.004     6.0955    104.237     37.458  37.042618     1.2186      6.851   187.9490 7.6797e+01     7.1538      0.218      0.316    24.4454 0.0000e+00
      0.221      0.002     6.0962    104.083     37.457  37.043772     1.2107      6.845   188.2164 7.6848e+01     7.1525      0.217      0.314    24.4411 0.0000e+00
      0.221      0.000     6.0953    103.913     37.454  37.043979     1.2120      6.840   188.5023 7.6843e+01     7.1670      0.216      0.313    24.4384 0.0000e+00
      0.221     -0.001     6.0948    103.811     37.453  37.045133     1.2170      6.836   188.7395 7.6614e+01     7.2301      0.216      0.314    24.4376 0.0000e+00
      0.221     -0.001     6.0913    103.781     37.464  37.057723     1.2187      6.833   188.8473 7.6750e+01     7.3586      0.217      0.314    24.4383 0.0000e+00
      0.221     -0.001     6.0804    103.769     37.475  37.069264     1.2154      6.830   188.8593 7.6959e+01     7.4099      0.217      0.315    24.4414 0.0000e+00
      0.220     -0.002     6.0673    103.733     37.463  37.057724     1.2124      6.830   188.9704 7.7149e+01     7.3918      0.216      0.314    24.4463 0.0000e+00
      0.220     -0.003     6.0612    103.657     37.452  37.045144     1.2077      6.827   189.1579 7.7571e+01     7.4011      0.216      0.313    24.4503 0.0000e+00
      0.220     -0.003     6.0607    103.555     37.453  37.044104     1.2111      6.822   189.3199 7.8206e+01     7.4241      0.216      0.314    24.4531 0.0000e+00
      0.219     -0.002     6.0605    103.434     37.455  37.045145     1.2184      6.819   189.5523 7.8276e+01     7.4071      0.215      0.312    24.4543 0.0000e+00
      0.217     -0.001     6.0593    103.340     37.469  37.057726     1.2090      6.814   189.7305 7.7572e+01     7.3611      0.213      0.309    24.4531 0.0000e+00
      0.216     -0.001     6.0539    103.327     37.481  37.069275     1.2016      6.808   189.7545 7.7126e+01     7.3593      0.211      0.306    24.4513 0.0000e+00
      0.216     -0.002     6.0491    103.411     37.470  37.057838     1.2074      6.807   189.7565 7.6846e+01     7.3518      0.210      0.305    24.4490 0.0000e+00
      0.218     -0.003     6.0407    103.556     37.456  37.046392     1.2091      6.810   189.7543 7.6695e+01     7.2703      0.213      0.310    24.4467 0.0000e+00
      0.220     -0.003     6.0342    103.711     37.464  37.057837     1.2047      6.814   189.8135 7.7317e+01     7.1928      0.217      0.316    24.4456 0.0000e+00
      0.217     -0.003     6.0334    103.855     37.472  37.069273     1.2063      6.817   190.0415 7.7789e+01     7.1697      0.213      0.310    24.4441 0.0000e+00
      0.212     -0.002     6.0385    103.913     37.458  37.057723     1.2116      6.821   190.3609 7.7433e+01     7.1875      0.206      0.299    24.4436 0.0000e+00
      0.210     -0.000     6.0494    103.831     37.445  37.045132     1.2083      6.823   190.5781 7.7791e+01     7.2112      0.204      0.296    24.4463 0.0000e+00
      0.210      0.001     6.0562    103.638     37.445  37.043988     1.2090      6.823   190.6887 7.8701e+01     7.1947      0.205      0.298    24.4513 0.0000e+00
      0.214      0.003     6.0669    103.388     37.448  37.043884     1.2124      6.823   190.8382 7.8669e+01     7.1510      0.210      0.305    24.4568 0.0000e+00
      0.218      0.005     6.0713    103.143     37.451  37.043865     1.2225      6.824   191.0082 7.8376e+01     7.2065      0.215      0.313    24.4609 0.0000e+00
      0.219      0.007     6.0649    102.977     37.455  37.043761     1.2537      6.825   191.1095 7.8820e+01     7.3422      0.216      0.313    24.4611 0.0000e+00
      0.217      0.009     6.0534    102.914     37.457  37.042616     1.2773      6.823   191.2023 7.9250e+01     7.3817      0.212      0.308    24.4585 0.0000e+00
      0.217      0.010     6.0377    102.898     37.446  37.030018     1.2825      6.821   191.3563 7.8715e+01     7.3894      0.211      0.306    24.4553 0.0000e+00
      0.221      0.011     6.0222    102.901     37.437  37.018383     1.3074      6.821   191.5086 7.7698e+01     7.5990      0.216      0.313    24.4503 0.0000e+00
      0.227      0.012     6.0119    102.976     37.450  37.028883     1.3614      6.821   191.6670 7.7205e+01     7.9503      0.223      0.324    24.4446 0.0000e+00
      0.232      0.012     6.0110    103.146     37.451  37.030018     1.3981      6.820   191.8087 7.6938e+01     8.1307      0.229      0.332    24.4409 0.0000e+00
      0.235      0.010     6.0111    103.357     37.451  37.032108     1.4044      6.817   191.9317 7.6493e+01     8.1416      0.231      0.335    24.4390 0.0000e+00
      0.237      0.006     6.0100    103.535     37.471  37.054148     1.4037      6.814   192.1222 7.6543e+01     8.1144      0.232      0.337    24.4352 0.0000e+00
      0.237      0.001     6.0136    103.654     37.458  37.042615     1.3978      6.811   192.3057 7.6527e+01     8.0637      0.233      0.338    24.4311 0.0000e+00
      0.237     -0.002     6.0257    103.756     37.435  37.019619     1.3930      6.810   192.4288 7.6208e+01     8.0540      0.232      0.337    24.4303 0.0000e+00
      0.236     -0.003     6.0392    103.900     37.446  37.030006     1.4062      6.810   192.5774 7.6549e+01     8.0948      0.232      0.337    24.4331 0.0000e+00
      0.234     -0.002     6.0499    104.089     37.457  37.041252     1.4197      6.808   192.7267 7.6955e+01     8.1313      0.231      0.335    24.4383 0.0000e+00
      0.231      0.002     6.0555    104.270     37.444  37.028645     1.4000      6.805   192.6848 7.7154e+01     8.1339      0.227      0.329    24.4407 0.0000e+00
      0.229      0.009     6.0595    104.369     37.422  37.004515     1.3581      6.801   192.5869 7.7292e+01     8.1268      0.223      0.324    24.4396 0.0000e+00
      0.232      0.017     6.0685    104.384     37.424  37.003390     1.3384      6.795   192.7481 7.7221e+01     8.1112      0.225      0.327    24.4393 0.0000e+00
      0.239      0.022     6.0799    104.355     37.439  37.015036     1.3439      6.785   192.9987 7.7042e+01     8.0762      0.234      0.339    24.4404 0.0000e+00
      0.248      0.021     6.0932    104.261     37.445  37.018374     1.3388      6.778   193.0357 7.6546e+01     8.0638      0.242      0.351    24.4398 0.0000e+00
      0.261      0.011     6.0994    104.124     37.470  37.043753     1.3286      6.779   192.9378 7.6114e+01     8.0601      0.255      0.370    24.4365 0.0000e+00
      0.271     -0.001     6.0983    104.055     37.486  37.067995     1.3250      6.784   193.0193 7.5694e+01     8.0642      0.270      0.391    24.4319 0.0000e+00
      0.270     -0.009     6.0991    104.125     37.462  37.057607     1.3205      6.782   193.3333 7.5421e+01     8.0810      0.271      0.392    24.4278 0.0000e+00
      0.254     -0.009     6.0941    104.265     37.440  37.045121     1.3255      6.771   194.1528 7.5550e+01     7.9684      0.252      0.365    24.4230 0.0000e+00
      0.234     -0.005     6.0827    104.339     37.436  37.043987     1.3345      6.759   201.4648 7.5438e+01     7.7509      0.222      0.324    24.4219 0.0000e+00
      0.226     -0.004     6.0755    104.294     37.439  37.043896     1.3330      6.754   210.0718 7.5001e+01     7.6473      0.212      0.308    24.4341 0.0000e+00
      0.240     -0.009     6.0788    104.159     37.444  37.044012     1.3255      6.759   213.0407 7.4644e+01     7.6330      0.232      0.336    24.4556 0.0000e+00
      0.262     -0.023     6.0892    103.957     37.447  37.045387     1.3130      6.769   213.5285 7.5320e+01     7.5118      0.263      0.380    24.4707 0.0000e+00
      0.269     -0.046     6.0942    103.742     37.457  37.060513     1.2943      6.775   206.4194 7.8957e+01     7.2964      0.274      0.397    24.4726 0.0000e+00
      0.249     -0.078     6.0907    103.594     37.484  37.099970     1.2821      6.779   198.8419 8.6017e+01     7.1916      0.253      0.367    24.4666 0.0000e+00
      0.209     -0.116     6.0839    103.480     37.512  37.141632     1.2864      6.783   198.3118 9.7182e+01     7.1952      0.207      0.300    24.4585 0.0000e+00
      0.164     -0.151     6.0720    103.318     37.538  37.183432     1.2768      6.784   205.4304 1.4186e+02     7.1442      0.157      0.229    24.4535 0.0000e+00
      0.122     -0.175     6.0552    103.136     37.561  37.224550     1.2440      6.783   212.9834 4.9077e+02     7.0330      0.120      0.175    24.4606 0.0000e+00
      0.077     -0.185     6.0458    103.022     37.575  37.257970     1.2281      6.783   216.3299 1.1413e+03     6.9648      0.079      0.114    24.4811 0.0000e+00
      0.026     -0.185     6.0396    102.945     37.634  37.333641     1.2237      6.787   227.3071 1.5161e+03     6.9425      0.027      0.039    24.5021 0.0000e+00
     -0.027     -0.180     6.0275    102.855     37.712  37.441282     1.2167      6.790   237.2125 1.5231e+03     6.9268     -0.028     -0.040    24.5192 0.0000e+00
     -0.077     -0.170     6.0106    102.848     37.758  37.543894     1.1954      6.786   238.7855 1.2322e+03     6.9713     -0.078     -0.114    24.5458 0.0000e+00
     -0.122     -0.155     6.0013    102.949     37.764  37.622277     1.1481      6.778   238.5825 6.7947e+02     7.0219     -0.121     -0.176    24.5774 0.0000e+00
     -0.159     -0.139     5.9994    103.044     37.702  37.627410     1.1039      6.771   237.7690 6.5322e+02     7.0805     -0.160     -0.232    24.5890 0.0000e+00
     -0.188     -0.123     5.9858    103.054     37.628  37.606065     1.0772      6.765   237.4670 1.2385e+03     8.1388     -0.188     -0.272    24.6178 0.0000e+00
     -0.212     -0.103     5.9751    102.904     37.605  37.618165     0.9902      6.759   237.5992 1.5803e+03    20.2110     -0.206     -0.298    24.7056 0.0000e+00
     -0.237     -0.079     5.9737    102.522     37.612  37.646819     0.8317      6.749   237.9044 1.5909e+03    42.3393     -0.231     -0.335    24.8098 0.0000e+00
     -0.265     -0.052     5.9695    101.945     37.647  37.698646     0.7481      6.734   237.8874 1.5823e+03    54.3134     -0.263     -0.380    24.9015 0.0000e+00
     -0.284     -0.025     5.9636    101.288     37.662  37.737028     0.7512      6.719   233.6088 1.5860e+03    54.3178     -0.285     -0.414    24.9752 0.0000e+00
     -0.286      0.004     5.9527    100.667     37.628  37.730074     0.8337      6.710   221.6201 1.4930e+03    42.4251     -0.287     -0.417    25.0192 0.0000e+00
     -0.270      0.036     5.9270    100.175     37.614  37.741554     1.0009      6.706   208.2256 1.3892e+03    20.4375     -0.267     -0.387    25.0401 0.0000e+00
     -0.249      0.070     5.8889     99.823     37.603  37.748911     1.0993      6.711   201.5770 1.4742e+03     8.4352     -0.242     -0.351    25.0585 0.0000e+00
     -0.231      0.102     5.8454     99.561     37.538  37.692111     1.1045      6.724   199.8247 1.5705e+03     7.3551     -0.228     -0.331    25.0904 0.0000e+00
     -0.210      0.129     5.8027     99.398     37.417  37.562606     1.1164      6.735   198.9975 1.5644e+03     7.2801     -0.212     -0.307    25.1316 0.0000e+00
     -0.175      0.154     5.7703     99.364     37.275  37.389086     1.1385      6.739   198.3730 1.5516e+03     7.3320     -0.176     -0.256    25.1663 0.0000e+00
     -0.127      0.181     5.7493     99.408     37.191  37.244398     1.1468      6.739   197.7799 1.5446e+03     7.4255     -0.125     -0.183    25.1941 0.0000e+00
     -0.072      0.206     5.7323     99.428     37.180  37.146064     1.1557      6.741   197.2472 1.5326e+03     7.4923     -0.070     -0.102    25.2073 0.0000e+00
     -0.016      0.226     5.7224     99.331     37.216  37.088644     1.1597      6.746   196.7508 1.5066e+03     7.4839     -0.017     -0.025    25.1957 0.0000e+00
      0.044      0.238     5.7258     99.126     37.272  37.057783     1.1680      6.751   196.5956 1.1753e+03     7.4558      0.040      0.058    25.1634 0.0000e+00
      0.111      0.248     5.7389     98.942     37.316  37.026694     1.1959      6.753   196.6616 5.2437e+02     7.4469      0.108      0.157    25.0800 0.0000e+00
      0.179      0.257     5.7566     98.932     37.316  36.966531     1.2107      6.756   196.3446 1.4588e+02     7.4091      0.179      0.261    24.9510 0.0000e+00
      0.241      0.261     5.7646     99.134     37.298  36.901522     1.2169      6.760   195.9457 9.5085e+01     7.3596      0.236      0.344    24.8201 0.0000e+00
      0.305      0.258     5.7622     99.523     37.313  36.875336     1.2536      6.763   195.8823 7.9358e+01     7.3391      0.292      0.424    24.7015 0.0000e+00
      0.379      0.248     5.7583    100.103     37.314  36.840281     1.3078      6.766   196.0078 6.8481e+01     7.3584      0.372      0.540    24.5995 0.0000e+00
      0.452      0.231     5.7658    100.840     37.301  36.794983     1.3345      6.769   196.1730 6.1229e+01     7.4299      0.452      0.655    24.5194 0.0000e+00
      0.512      0.209     5.7859    101.609     37.305  36.771910     1.3423      6.773   196.5032 5.6283e+01     7.4817      0.505      0.734    24.4585 0.0000e+00
      0.561      0.182     5.8129    102.244     37.305  36.751676     1.3591      6.776   197.0744 5.2383e+01     7.3949      0.552      0.800    24.4066 0.0000e+00
      0.601      0.154     5.8528    102.683     37.306  36.740732     1.3809      6.779   197.6590 4.9530e+01     7.2334      0.593      0.860    24.3581 0.0000e+00
      0.634      0.133     5.9036    103.041     37.341  36.766516     1.3981      6.778   197.9799 4.7520e+01     7.1675      0.624      0.906    24.3124 0.0000e+00
      0.658      0.122     5.9569    103.431     37.391  36.809518     1.4025      6.775   197.9423 4.6039e+01     7.1879      0.647      0.938    24.2747 0.0000e+00
      0.679      0.113     5.9993    103.791     37.405  36.816348     1.3997      6.773   197.8067 4.5211e+01     7.2502      0.663      0.962    24.2492 0.0000e+00
      0.708      0.105     6.0230    104.019     37.379  36.785621     1.3991      6.775   197.8033 4.4867e+01     7.3308      0.690      1.001    24.2338 0.0000e+00
      0.744      0.095     6.0413    104.114     37.351  36.755353     1.3944      6.778   197.9013 4.4795e+01     7.3765      0.731      1.060    24.2243 0.0000e+00
      0.776      0.086     6.0677    104.139     37.362  36.767734     1.3957      6.782   198.0452 4.4934e+01     7.4092      0.766      1.109    24.2160 0.0000e+00
      0.796      0.077     6.0929    104.140     37.401  36.808380     1.4228      6.786   198.1666 4.5051e+01     7.4314      0.783      1.136    24.2061 0.0000e+00
      0.806      0.067     6.1066    104.110     37.393  36.802490     1.4620      6.788   198.2492 4.5058e+01     7.4482      0.791      1.146    24.1983 0.0000e+00
      0.813      0.057     6.1109    104.010     37.350  36.759991     1.4805      6.789   198.3562 4.5037e+01     7.4492      0.796      1.153    24.1959 0.0000e+00
      0.825      0.051     6.1107    103.835     37.332  36.738843     1.4720      6.792   198.5998 4.4993e+01     7.4432      0.807      1.170    24.1982 0.0000e+00
      0.843      0.051     6.1108    103.633     37.336  36.737210     1.4550      6.792   199.0434 4.4923e+01     7.5067      0.827      1.199    24.2018 0.0000e+00
      0.860      0.057     6.1098    103.485     37.346  36.740239     1.4306      6.790   199.5049 4.4807e+01     7.5936      0.846      1.228    24.2070 0.0000e+00
      0.870      0.067     6.1037    103.462     37.396  36.775445     1.4119      6.786   199.8771 4.4537e+01     7.6091      0.856      1.241    24.2080 0.0000e+00
      0.879      0.077     6.0936    103.531     37.493  36.845500     1.4107      6.783   200.1890 4.4112e+01     7.5964      0.858      1.244    24.1999 0.0000e+00
      0.898      0.085     6.0807    103.605     37.569  36.889033     1.4069      6.783   200.4368 4.3872e+01     7.6033      0.874      1.267    24.1920 0.0000e+00
      0.928      0.093     6.0702    103.606     37.567  36.857437     1.4436      6.782   200.7215 4.4123e+01     7.6601      0.910      1.319    24.1880 0.0000e+00
      0.961      0.103     6.0717    103.409     37.515  36.780790     1.5338      6.779   201.0496 4.4565e+01     7.7587      0.946      1.372    24.1722 0.0000e+00
      0.990      0.113     6.0827    102.834     37.478  36.723936     1.5883      6.775   201.3071 4.4686e+01     7.8124      0.973      1.411    24.1342 0.0000e+00
      1.013      0.122     6.0928    101.759     37.452  36.677776     1.5988      6.770   201.4253 4.4710e+01     7.8507      0.994      1.441    24.0888 0.0000e+00
      1.038      0.129     6.1005    100.309     37.465  36.666952     1.6442      6.768   201.4467 4.5088e+01     7.9925      1.015      1.472    24.0469 0.0000e+00
      1.071      0.136     6.0965     98.878     37.615  36.783453     1.7296      6.769   201.4798 4.5588e+01     8.2165      1.046      1.517    24.0138 0.0000e+00
      1.113      0.141     6.0694     97.880     37.816  36.943813     1.7811      6.770   201.5674 4.5807e+01     8.3295      1.090      1.581    23.9878 0.0000e+00
      1.159      0.144     6.0070     97.556     37.929  37.018974     1.7814      6.771   201.8175 4.5854e+01     8.3108      1.139      1.652    23.9625 0.0000e+00
      1.199      0.143     5.9144     97.863     38.060  37.120911     1.7853      6.773   202.2670 4.5990e+01     8.1864      1.178      1.709    23.9336 0.0000e+00
      1.233      0.138     5.8255     98.436     38.191  37.224176     1.8194      6.773   202.7863 4.6196e+01     7.9724      1.211      1.756    23.8925 0.0000e+00
      1.263      0.132     5.7669     98.859     38.057  37.061496     1.8468      6.769   203.2773 4.6363e+01     7.8874      1.240      1.797    23.8408 0.0000e+00
      1.293      0.127     5.7533     98.906     37.702  36.677277     1.8485      6.764   203.7306 4.6452e+01     7.9122      1.268      1.837    23.7886 0.0000e+00
      1.325      0.124     5.7843     98.485     37.443  36.386949     1.8831      6.759   204.3088 4.6523e+01     7.8783      1.300      1.885    23.7576 0.0000e+00
      1.358      0.124     5.8310     97.594     37.368  36.280434     1.9623      6.754   204.7613 4.6541e+01     7.8700      1.332      1.932    23.7360 0.0000e+00
      1.391      0.124     5.8642     96.348     37.327  36.214496     2.0079      6.749   204.8141 4.6365e+01     7.9106      1.364      1.979    23.6899 0.0000e+00
      1.423      0.123     5.8755     95.102     37.295  36.160896     2.0184      6.746   204.9473 4.6099e+01     7.9097      1.397      2.026    23.6337 0.0000e+00
      1.453      0.122     5.8558     94.328     37.363  36.203568     2.0638      6.745   205.3401 4.5747e+01     7.9579      1.425      2.066    23.5815 0.0000e+00
      1.485      0.120     5.8071     94.232     37.474  36.286105     2.1397      6.746   205.6914 4.5243e+01     8.0680      1.455      2.110    23.5353 0.0000e+00
      1.516      0.119     5.7292     94.706     37.549  36.333679     2.1827      6.746   205.9244 4.4740e+01     8.1260      1.488      2.158    23.5031 0.0000e+00
      1.544      0.117     5.6445     95.538     37.640  36.397915     2.1930      6.747   206.1785 4.4158e+01     8.1354      1.514      2.195    23.4756 0.0000e+00
      1.574      0.114     5.5982     96.440     37.760  36.491497     2.2030      6.748   206.4408 4.3423e+01     8.1164      1.542      2.236    23.4430 0.0000e+00
      1.605      0.109     5.6000     97.046     37.868  36.576535     2.2437      6.748   206.6871 4.2711e+01     8.0931      1.576      2.286    23.4087 0.0000e+00
      1.635      0.102     5.6361     97.102     37.913  36.600934     2.3208      6.748   207.0046 4.2069e+01     8.0828      1.604      2.327    23.3762 0.0000e+00
      1.661      0.094     5.6938     96.532     37.859  36.532589     2.3720      6.747   207.2693 4.1474e+01     8.0900      1.629      2.362    23.3441 0.0000e+00
      1.684      0.087     5.7610     95.383     37.785  36.448359     2.3861      6.746   207.4787 4.0958e+01     8.1138      1.653      2.397    23.3136 0.0000e+00
      1.703      0.083     5.8050     93.825     37.820  36.471106     2.3784      6.744   207.8148 4.0612e+01     8.1085      1.672      2.424    23.2877 0.0000e+00
      1.718      0.085     5.8117     92.093     37.988  36.617186     2.3481      6.741   208.3219 4.0348e+01     8.0927      1.683      2.442    23.2627 0.0000e+00
      1.735      0.093     5.7803     90.396     38.154  36.754706     2.3318      6.736   209.1362 3.9850e+01     8.0862      1.700      2.465    23.2394 0.0000e+00
      1.757      0.104     5.7084     88.864     38.165  36.737414     2.3466      6.731   210.1747 3.9056e+01     8.0619      1.722      2.497    23.2255 0.0000e+00
      1.786      0.117     5.6119     87.543     38.053  36.598490     2.4926      6.724   210.8119 3.8066e+01     8.0615      1.749      2.537    23.2145 0.0000e+00
      1.821      0.129     5.5050     86.258     38.023  36.534816     2.7701      6.717   210.9900 3.6901e+01     8.0816      1.785      2.589    23.1940 0.0000e+00
      1.859      0.135     5.4055     84.759     38.132  36.602207     2.9279      6.713   211.2100 3.5681e+01     8.0752      1.822      2.645    23.1625 0.0000e+00
      1.898      0.135     5.3144     83.052     38.218  36.651592     2.9431      6.712   211.5787 3.4457e+01     8.0496      1.861      2.700    23.1252 0.0000e+00
      1.936      0.128     5.2435     81.277     38.215  36.624093     3.0317      6.711   211.9201 3.3272e+01     7.9035      1.900      2.755    23.0859 0.0000e+00
      1.970      0.118     5.1802     79.474     38.192  36.587050     3.2019      6.711   212.0690 3.2327e+01     7.6190      1.935      2.806    23.0389 0.0000e+00
      1.998      0.107     5.0926     77.584     38.196  36.584524     3.2848      6.711   212.0881 3.1592e+01     7.4289      1.962      2.845    22.9873 0.0000e+00
      2.021      0.098     4.9906     75.598     38.204  36.593532     3.2801      6.710   212.2368 3.0945e+01     7.3754      1.982      2.875    22.9416 0.0000e+00
      2.041      0.093     4.8863     73.715     38.174  36.569031     3.2573      6.708   212.5761 3.0398e+01     7.2663      2.001      2.903    22.9077 0.0000e+00
      2.060      0.093     4.7817     72.276     38.147  36.542178     3.2090      6.705   212.8356 2.9829e+01     7.0924      2.019      2.929    22.8886 0.0000e+00
      2.082      0.096     4.6700     71.457     38.137  36.522742     3.1722      6.704   213.0512 2.9071e+01     6.9770      2.039      2.958    22.8820 0.0000e+00
      2.109      0.101     4.5462     71.169     38.165  36.524437     3.1685      6.703   213.3754 2.8093e+01     6.9204      2.066      2.998    22.8859 0.0000e+00
      2.139      0.106     4.4220     71.165     38.314  36.626109     3.1811      6.702   213.7440 2.7039e+01     6.8670      2.097      3.043    22.8949 0.0000e+00
      2.168      0.111     4.3321     71.198     38.544  36.799898     3.2731      6.699   214.2386 2.6133e+01     6.5600      2.128      3.086    22.8957 0.0000e+00
      2.195      0.116     4.2860     71.004     38.777  36.975342     3.4393      6.696   214.7959 2.5304e+01     5.9940      2.154      3.123    22.8849 0.0000e+00
      2.223      0.122     4.2774     70.201     38.952  37.097012     3.5348      6.693   215.4059 2.4348e+01     5.6611      2.178      3.158    22.8538 0.0000e+00
      2.253      0.128     4.2874     68.510     39.098  37.191882     3.5517      6.689   215.9356 2.3310e+01     5.6155      2.208      3.202    22.7953 0.0000e+00
      2.287      0.134     4.2981     65.911     39.326  37.360646     3.5828      6.685   216.1242 2.2267e+01     5.5414      2.242      3.252    22.7309 0.0000e+00
      2.323      0.136     4.3014     62.463     39.582  37.550586     3.6340      6.683   216.0507 2.1161e+01     5.4205      2.278      3.302    22.6705 0.0000e+00
      2.363      0.133     4.2653     58.390     39.807  37.711051     3.6598      6.681   215.9084 2.0042e+01     5.3990      2.318      3.361    22.6137 0.0000e+00
      2.403      0.128     4.1647     54.270     40.062  37.904264     3.6509      6.680   215.9527 1.9110e+01     5.4123      2.359      3.421    22.5593 0.0000e+00
      2.437      0.120     4.0119     50.848     40.320  38.109304     3.5701      6.677   216.1556 1.8473e+01     5.3179      2.393      3.471    22.4984 0.0000e+00
      2.462      0.111     3.8058     48.678     40.474  38.222322     3.4281      6.675   216.3818 1.8043e+01     5.1763      2.416      3.504    22.4304 0.0000e+00
      2.483      0.105     3.5485     47.612     40.537  38.255070     3.3556      6.672   216.6231 1.7582e+01     5.1091      2.433      3.529    22.3602 0.0000e+00
      2.507      0.102     3.2863     46.656     40.695  38.378265     3.3362      6.668   216.8363 1.7025e+01     5.0959      2.458      3.564    22.2982 0.0000e+00
      2.533      0.103     3.0652     44.709     41.200  38.823120     3.0628      6.664   217.0666 1.6504e+01     5.0490      2.485      3.603    22.2503 0.0000e+00
      2.559      0.108     2.9368     41.273     42.375  39.888442     2.5553      6.660   217.3428 1.6004e+01     4.9680      2.509      3.639    22.2115 0.0000e+00
      2.588      0.112     2.8994     36.379     44.199  41.546086     2.2813      6.656   217.5090 1.5481e+01     4.9360      2.538      3.679    22.1786 0.0000e+00
      2.618      0.113     2.8721     30.335     45.753  42.930393     2.2463      6.653   217.5272 1.4949e+01     4.9241      2.567      3.723    22.1491 0.0000e+00
      2.650      0.110     2.7620     23.460     46.297  43.356616     2.0808      6.650   217.6491 1.4423e+01     4.6933      2.598      3.768    22.1156 0.0000e+00
      2.681      0.105     2.5542     16.207     46.428  43.397874     1.7713      6.646   217.8636 1.3956e+01     4.2761      2.631      3.816    22.0696 0.0000e+00
      2.709      0.100     2.2492      9.422     47.080  43.937071     1.5988      6.641   218.0564 1.3595e+01     4.0411      2.659      3.856    22.0027 0.0000e+00
      2.730      0.094     1.8755      3.812     48.275  44.986682     1.5813      6.634   218.5182 1.3296e+01     4.0141      2.678      3.884    21.9151 0.0000e+00
      2.749      0.089     1.4533     -0.347     49.370  45.928896     1.5782      6.628   219.3171 1.2975e+01     4.0164      2.694      3.908    21.8185 0.0000e+00
      2.771      0.085     0.9840     -3.093     50.433  46.820221     1.5611      6.622   219.9720 1.2649e+01     4.0686      2.717      3.941    21.7254 0.0000e+00
      2.793      0.087     0.5532     -4.582     52.455  48.587520     1.5308      6.614   220.1548 1.2374e+01     4.1537      2.741      3.974    21.6531 0.0000e+00
      2.814      0.092     0.2022     -5.005     56.065  51.800613     1.5157      6.604   220.0650 1.2124e+01     4.1941      2.760      4.003    21.5945 0.0000e+00
      2.834      0.097    -0.0521     -4.694     60.010  55.244061     1.5251      6.595   220.0060 1.1858e+01     4.2287      2.778      4.030    21.5194 0.0000e+00
      2.859      0.101    -0.2174     -3.983     63.137  57.824113     1.6097      6.586   220.1287 1.1527e+01     4.3092      2.800      4.062    21.4164 0.0000e+00
      2.890      0.105    -0.3088     -3.074     67.081  61.076294     1.7586      6.576   220.4299 1.1159e+01     4.4152      2.834      4.110    21.3109 0.0000e+00
      2.922      0.106    -0.3260     -2.057     72.926  66.032269     1.8342      6.565   220.8949 1.0850e+01     4.4604      2.867      4.158    21.2203 0.0000e+00
      2.949      0.106    -0.3006     -1.035     79.116  71.283657     1.8307      6.553   221.7926 1.0594e+01     4.4301      2.892      4.195    21.0635 0.0000e+00
      2.975      0.102    -0.2525     -0.128     83.956  75.300982     1.8019      6.539   222.7657 1.0341e+01     4.4093      2.917      4.231    20.8047 0.0000e+00
      3.000      0.097    -0.1963      0.609     87.948  78.551881     1.7554      6.525   222.9386 1.0086e+01     4.4384      2.943      4.269    20.5254 0.0000e+00
      3.025      0.094    -0.1304      1.182     92.987  82.732610     1.7274      6.508   222.3347 9.8587e+00     4.4873      2.967      4.304    20.2746 0.0000e+00
      3.046      0.092    -0.0624      1.631     99.001  87.744155     1.7237      6.487   221.7452 9.6469e+00     4.5092      2.987      4.332    20.0523 0.0000e+00
      3.067      0.090    -0.0044      1.989    103.357  91.234865     1.8234      6.468   222.0051 9.4074e+00     4.6037      3.005      4.359    19.8397 0.0000e+00
      3.090      0.085     0.0432      2.262    105.416  92.674953     2.0227      6.452   222.8098 9.1345e+00     4.8106      3.029      4.394    19.6504 0.0000e+00
      3.116      0.080     0.0785      2.449    107.038  93.763202     2.1308      6.437   222.9570 8.8701e+00     4.9471      3.058      4.434    19.4909 0.0000e+00
      3.140      0.075     0.1070      2.588    108.321  94.589924     2.1409      6.422   222.4941 8.6804e+00     4.9426      3.082      4.472    19.3238 0.0000e+00
      3.155      0.068     0.1302      2.707    108.805  94.713801     2.2413      6.408   222.2031 8.5298e+00     5.0191      3.096      4.489    19.1352 0.0000e+00
      3.168      0.059     0.1495      2.791    108.890  94.496750     2.4436      6.396   222.3644 8.3543e+00     5.2487      3.104      4.501    18.9434 0.0000e+00
      3.183      0.051     0.1605      2.841    108.960  94.320456     2.5667      6.386   222.9819 8.2019e+00     5.3921      3.122      4.528    18.7858 0.0000e+00
      3.198      0.047     0.1689      2.859    109.051  94.300621     2.5848      6.381   223.3888 8.1098e+00     5.4094      3.138      4.552    18.6628 0.0000e+00
      3.207 -9.990e-29     0.1786 -9.990e-29 -9.990e-29 -9.990e-29 -9.990e-29 -9.990e-29 -9.990e-29 8.0331e+00 -9.990e-29      3.146      4.562    18.5189 0.0000e+00
      3.214 -9.990e-29     0.1841 -9.990e-29 -9.990e-29 -9.990e-29 -9.990e-29 -9.990e-29 -9.990e-29 7.9641e+00 -9.990e-29      3.151      4.570    18.3793 0.0000e+00
      3.220 -9.990e-29     0.1880 -9.990e-29 -9.990e-29 -9.990e-29 -9.990e-29 -9.990e-29 -9.990e-29 7.9332e+00 -9.990e-29      3.158      4.581    18.2582 0.0000e+00
      3.222 -9.990e-29     0.1895 -9.990e-29 -9.990e-29 -9.990e-29 -9.990e-29 -9.990e-29 -9.990e-29 7.9290e+00 -9.990e-29      3.162      4.586    18.1911 0.0000e+00
