* Sea-Bird SBE19plus  Data File:
* FileName = C:\DATA\091018_fcr_0004.hex
* Software version 2.6.3.104
* Temperature SN = 7809
* Conductivity SN = 7809
* System UpLoad Time = Sep 10 2018 16:57:32
* <ApplicationData>
* <Seaterm232>
* <SoftwareVersion>2.6.3.104</SoftwareVersion>
* <BuildDate>30-Jun-2017</BuildDate>
* </Seaterm232>
* </ApplicationData>
* <InstrumentState>
* <HardwareData DeviceType='SBE19plus' SerialNumber='01907809'>
*
*    <Manufacturer>Sea-Bird Electronics, Inc.</Manufacturer>
*
*    <FirmwareVersion>3.1.8</FirmwareVersion>
*
*    <FirmwareDate>Mar  9 2016 16:22:29</FirmwareDate>
*
*    <CommandSetVersion>1.4</CommandSetVersion>
*
*    <PCBAssembly PCBSerialNum='120721' AssemblyNum='41054J'/>
*
*    <PCBAssembly PCBSerialNum='120715' AssemblyNum='41967A'/>
*
*    <PCBAssembly PCBSerialNum='116699' AssemblyNum='41606'/>
*
*    <PCBAssembly PCBSerialNum='120719' AssemblyNum='41059D'/>
*
*    <MfgDate>28-Apr-2017</MfgDate>
*
*    <InternalSensors>
*
*       <Sensor id='Main Temperature'>
*
*          <type>temperature0</type>
*
*          <SerialNumber>01907809</SerialNumber>
*
*       </Sensor>
*
*       <Sensor id='Main Conductivity'>
*
*          <type>conductivity-0</type>
*
*          <SerialNumber>01907809</SerialNumber>
*
*       </Sensor>
*
*       <Sensor id='Main Pressure'>
*
*          <type>strain-0</type>
*
*          <SerialNumber>10586018</SerialNumber>
*
*       </Sensor>
*
*    </InternalSensors>
*
*    <ExternalSensors>
*
*       <Sensor id='volt 0'>
*
*          <type>pH</type>
*
*          <SerialNumber>27-0363</SerialNumber>
*
*       </Sensor>
*
*       <Sensor id='volt 1'>
*
*          <type>ORP</type>
*
*          <SerialNumber>27-0363</SerialNumber>
*
*       </Sensor>
*
*       <Sensor id='volt 2'>
*
*          <type>OXY</type>
*
*          <SerialNumber>43-0434</SerialNumber>
*
*       </Sensor>
*
*       <Sensor id='volt 3'>
*
*          <type>PAR</type>
*
*          <SerialNumber>1122</SerialNumber>
*
*       </Sensor>
*
*       <Sensor id='volt 4'>
*
*          <type>ECO AFL/FL</type>
*
*          <SerialNumber>FLNTURT-2496</SerialNumber>
*
*       </Sensor>
*
*       <Sensor id='volt 5'>
*
*          <type>ECO-NTU</type>
*
*          <SerialNumber>FLNTURT-2496</SerialNumber>
*
*       </Sensor>
*
*       <Sensor id='serial'>
*
*          <type>not assigned</type>
*
*          <SerialNumber>not assigned</SerialNumber>
*
*       </Sensor>
*
*    </ExternalSensors>
*
* </HardwareData>
* <StatusData DeviceType='SBE19plus' SerialNumber='01907809'>
*
*    <DateTime>2018-09-10T20:55:58</DateTime>
*
*    <LoggingState>not logging</LoggingState>
*
*    <EventSummary numEvents='0'/>
*
*    <Power>
*
*       <vMain>12.8</vMain>
*
*       <vLith>8.6</vLith>
*
*       <iMain>63.3</iMain>
*
*       <iPump>42.9</iPump>
*
*       <iExt01>13.9</iExt01>
*
*       <iExt2345>42.5</iExt2345>
*
*    </Power>
*
*    <MemorySummary>
*
*       <Bytes>119577</Bytes>
*
*       <Samples>5199</Samples>
*
*       <SamplesFree>2855589</SamplesFree>
*
*       <SampleLength>23</SampleLength>
*
*       <Profiles>5</Profiles>
*
*    </MemorySummary>
*
* </StatusData>
* <ConfigurationData DeviceType='SBE19plus' SerialNumber='01907809'>
*
*    <ProfileMode>
*
*       <ScansToAverage>1</ScansToAverage>
*
*       <MinimumCondFreq>5</MinimumCondFreq>
*
*       <PumpDelay>45</PumpDelay>
*
*       <AutoRun>no</AutoRun>
*
*       <IgnoreSwitch>no</IgnoreSwitch>
*
*    </ProfileMode>
*
*    <Battery>
*
*       <Type>alkaline</Type>
*
*       <CutOff>7.5</CutOff>
*
*    </Battery>
*
*    <DataChannels>
*
*       <ExtVolt0>yes</ExtVolt0>
*
*       <ExtVolt1>yes</ExtVolt1>
*
*       <ExtVolt2>yes</ExtVolt2>
*
*       <ExtVolt3>yes</ExtVolt3>
*
*       <ExtVolt4>yes</ExtVolt4>
*
*       <ExtVolt5>yes</ExtVolt5>
*
*       <SBE38>no</SBE38>
*
*       <WETLABS>no</WETLABS>
*
*       <OPTODE>no</OPTODE>
*
*       <SBE63>no</SBE63>
*
*       <SeaFET>no</SeaFET>
*
*       <GTD>no</GTD>
*
*    </DataChannels>
*
*    <EchoCharacters>yes</EchoCharacters>
*
*    <OutputExecutedTag>yes</OutputExecutedTag>
*
*    <OutputFormat>raw HEX</OutputFormat>
*
* </ConfigurationData>
* <CalibrationCoefficients DeviceType='SBE19plus' SerialNumber='01907809'>
*
*    <Calibration format='TEMP1' id='Main Temperature'>
*
*       <SerialNum>01907809</SerialNum>
*
*       <CalDate>09-Mar-18</CalDate>
*
*       <TA0>1.210932e-03</TA0>
*
*       <TA1>2.843566e-04</TA1>
*
*       <TA2>-1.945074e-06</TA2>
*
*       <TA3>2.128067e-07</TA3>
*
*       <TOFFSET>0.000000e+00</TOFFSET>
*
*    </Calibration>
*
*    <Calibration format='WBCOND0' id='Main Conductivity'>
*
*       <SerialNum>01907809</SerialNum>
*
*       <CalDate>09-Mar-18</CalDate>
*
*       <G>-1.006721e+00</G>
*
*       <H>1.269065e-01</H>
*
*       <I>-1.405844e-04</I>
*
*       <J>2.478371e-05</J>
*
*       <CPCOR>-9.570000e-08</CPCOR>
*
*       <CTCOR>3.250000e-06</CTCOR>
*
*       <CSLOPE>1.000000e+00</CSLOPE>
*
*    </Calibration>
*
*    <Calibration format='STRAIN0' id='Main Pressure'>
*
*       <SerialNum>10586018</SerialNum>
*
*       <CalDate>07-Mar-18</CalDate>
*
*       <PA0>-4.081764e-02</PA0>
*
*       <PA1>4.851884e-04</PA1>
*
*       <PA2>-3.511682e-12</PA2>
*
*       <PTCA0>5.252134e+05</PTCA0>
*
*       <PTCA1>1.795324e+00</PTCA1>
*
*       <PTCA2>-2.843535e-01</PTCA2>
*
*       <PTCB0>2.516687e+01</PTCB0>
*
*       <PTCB1>3.750000e-04</PTCB1>
*
*       <PTCB2>0.000000e+00</PTCB2>
*
*       <PTEMPA0>-5.378069e+01</PTEMPA0>
*
*       <PTEMPA1>5.366207e+01</PTEMPA1>
*
*       <PTEMPA2>4.872143e-02</PTEMPA2>
*
*       <POFFSET>5.000000e-01</POFFSET>
*
*       <PRANGE>1.600000e+02</PRANGE>
*
*    </Calibration>
*
*    <Calibration format='VOLT0' id='Volt 0'>
*
*       <OFFSET>-4.920000e-02</OFFSET>
*
*       <SLOPE>1.248122e+00</SLOPE>
*
*    </Calibration>
*
*    <Calibration format='VOLT0' id='Volt 1'>
*
*       <OFFSET>-4.784000e-02</OFFSET>
*
*       <SLOPE>1.248871e+00</SLOPE>
*
*    </Calibration>
*
*    <Calibration format='VOLT0' id='Volt 2'>
*
*       <OFFSET>-4.864632e-02</OFFSET>
*
*       <SLOPE>1.248714e+00</SLOPE>
*
*    </Calibration>
*
*    <Calibration format='VOLT0' id='Volt 3'>
*
*       <OFFSET>-4.743790e-02</OFFSET>
*
*       <SLOPE>1.248571e+00</SLOPE>
*
*    </Calibration>
*
*    <Calibration format='VOLT0' id='Volt 4'>
*
*       <OFFSET>-4.671263e-02</OFFSET>
*
*       <SLOPE>1.248951e+00</SLOPE>
*
*    </Calibration>
*
*    <Calibration format='VOLT0' id='Volt 5'>
*
*       <OFFSET>-4.871053e-02</OFFSET>
*
*       <SLOPE>1.249136e+00</SLOPE>
*
*    </Calibration>
*
*    <Calibration format='FREQ0' id='external frequency channel'>
*
*       <EXTFREQSF>1.000014e+00</EXTFREQSF>
*
*    </Calibration>
*
* </CalibrationCoefficients>
* <EventCounters DeviceType='SBE19plus' SerialNumber='01907809'>
*
*    <EventSummary numEvents='0'/>
*
* </EventCounters></InstrumentState>
* <Headers>
*
* cast   4 10 Sep 2018 15:44:58 samples 2216 to 3130, avg = 1, stop = mag switch
*
# nquan = 17
# nvalues = 830                         
# units = specified
# name 0 = depFM: Depth [fresh water, m]
# name 1 = tv290C: Temperature [ITS-90, deg C]
# name 2 = sbeox0Mg/L: Oxygen, SBE 43 [mg/l]
# name 3 = sbeox0PS: Oxygen, SBE 43 [% saturation]
# name 4 = c0uS/cm: Conductivity [uS/cm]
# name 5 = specc: Specific Conductance [uS/cm]
# name 6 = ph: pH
# name 7 = orp: Oxidation Reduction Potential [mV]
# name 8 = flECO-AFL: Fluorescence, WET Labs ECO-AFL/FL [mg/m^3]
# name 9 = turbWETntu0: Turbidity, WET Labs ECO [NTU]
# name 10 = sal00: Salinity, Practical [PSU]
# name 11 = dz/dtM: Descent Rate [m/s]
# name 12 = prdM: Pressure, Strain Gauge [db]
# name 13 = prdE: Pressure, Strain Gauge [psi]
# name 14 = scan: Scan Count
# name 15 = par/sat/log: PAR/Logarithmic, Satlantic
# name 16 = flag:  0.000e+00
# span 0 =     -0.568,      7.269       
# span 1 =    12.2481,    24.0138       
# span 2 =    -0.0818,     8.9722       
# span 3 =     -0.928,    101.867       
# span 4 =   0.389821,  69.086866       
# span 5 =      0.444,     90.116       
# span 6 =      5.858,      7.445       
# span 7 =   162.2442,   260.5595       
# span 8 =    -0.2305,    22.1066       
# span 9 =    -0.3452,    18.7359       
# span 10 =     0.0099,     0.0441      
# span 11 =     -0.155,      0.129      
# span 12 =     -0.557,      7.128      
# span 13 =     -0.807,     10.338      
# span 14 =          1,        830      
# span 15 = 1.2462e-01, 5.0618e+02      
# span 16 = 0.0000e+00, 0.0000e+00      
# interval = seconds: 0.25
# start_time = Sep 10 2018 15:44:58 [Instrument's time stamp, header]
# bad_flag = -9.990e-29
# <Sensors count="9" >
#   <sensor Channel="1" >
#     <!-- Count, Temperature -->
#     <TemperatureSensor SensorID="58" >
#       <SerialNumber>7809</SerialNumber>
#       <CalibrationDate>09-Mar-18</CalibrationDate>
#       <A0>1.21093245e-003</A0>
#       <A1>2.84356597e-004</A1>
#       <A2>-1.94507398e-006</A2>
#       <A3>2.12806664e-007</A3>
#       <Slope>1.00000000</Slope>
#       <Offset>0.0000</Offset>
#     </TemperatureSensor>
#   </sensor>
#   <sensor Channel="2" >
#     <!-- Frequency 0, Conductivity -->
#     <ConductivitySensor SensorID="3" >
#       <SerialNumber>7809</SerialNumber>
#       <CalibrationDate>09-Mar-18</CalibrationDate>
#       <UseG_J>1</UseG_J>
#       <!-- Cell const and series R are applicable only for wide range sensors. -->
#       <SeriesR>0.0000</SeriesR>
#       <CellConst>2000.0000</CellConst>
#       <ConductivityType>0</ConductivityType>
#       <Coefficients equation="0" >
#         <A>0.00000000e+000</A>
#         <B>0.00000000e+000</B>
#         <C>0.00000000e+000</C>
#         <D>0.00000000e+000</D>
#         <M>0.0</M>
#         <CPcor>-9.57000000e-008</CPcor>
#       </Coefficients>
#       <Coefficients equation="1" >
#         <G>-1.00672082e+000</G>
#         <H>1.26906489e-001</H>
#         <I>-1.40584351e-004</I>
#         <J>2.47837121e-005</J>
#         <CPcor>-9.57000000e-008</CPcor>
#         <CTcor>3.2500e-006</CTcor>
#         <!-- WBOTC not applicable unless ConductivityType = 1. -->
#         <WBOTC>0.00000000e+000</WBOTC>
#       </Coefficients>
#       <Slope>1.00000000</Slope>
#       <Offset>0.00000</Offset>
#     </ConductivitySensor>
#   </sensor>
#   <sensor Channel="3" >
#     <!-- Count, Pressure, Strain Gauge -->
#     <PressureSensor SensorID="46" >
#       <SerialNumber>7809</SerialNumber>
#       <CalibrationDate>07-Mar-18</CalibrationDate>
#       <PA0>-4.08176359e-002</PA0>
#       <PA1>4.85188419e-004</PA1>
#       <PA2>-3.51168169e-012</PA2>
#       <PTEMPA0>-5.37806900e+001</PTEMPA0>
#       <PTEMPA1>5.36620721e+001</PTEMPA1>
#       <PTEMPA2>4.87214332e-002</PTEMPA2>
#       <PTCA0>5.25213435e+005</PTCA0>
#       <PTCA1>1.79532409e+000</PTCA1>
#       <PTCA2>-2.84353509e-001</PTCA2>
#       <PTCB0>2.51668750e+001</PTCB0>
#       <PTCB1>3.75000000e-004</PTCB1>
#       <PTCB2>0.00000000e+000</PTCB2>
#       <Offset>0.000000</Offset>
#     </PressureSensor>
#   </sensor>
#   <sensor Channel="4" >
#     <!-- A/D voltage 0, pH -->
#     <pH_Sensor SensorID="43" >
#       <SerialNumber>0363</SerialNumber>
#       <CalibrationDate>16-Mar-18</CalibrationDate>
#       <Slope>4.6194</Slope>
#       <Offset>2.5947</Offset>
#     </pH_Sensor>
#   </sensor>
#   <sensor Channel="5" >
#     <!-- A/D voltage 1, Oxidation Reduction Potential -->
#     <OxidationReductionPotentialSensor SensorID="41" >
#       <SerialNumber>0363</SerialNumber>
#       <CalibrationDate>16-Mar-18</CalibrationDate>
#       <B>2.499480</B>
#       <M>-0.496195</M>
#       <Offset>0.0</Offset>
#     </OxidationReductionPotentialSensor>
#   </sensor>
#   <sensor Channel="6" >
#     <!-- A/D voltage 2, Oxygen, SBE 43 -->
#     <OxygenSensor SensorID="38" >
#       <SerialNumber>0434</SerialNumber>
#       <CalibrationDate>13-Mar-18</CalibrationDate>
#       <Use2007Equation>1</Use2007Equation>
#       <CalibrationCoefficients equation="0" >
#         <!-- Coefficients for Owens-Millard equation. -->
#         <Boc>0.0000</Boc>
#         <Soc>0.0000e+000</Soc>
#         <offset>0.0000</offset>
#         <Pcor>0.00e+000</Pcor>
#         <Tcor>0.0000</Tcor>
#         <Tau>0.0</Tau>
#       </CalibrationCoefficients>
#       <CalibrationCoefficients equation="1" >
#         <!-- Coefficients for Sea-Bird equation - SBE calibration in 2007 and later. -->
#         <Soc>4.5718e-001</Soc>
#         <offset>-0.6113</offset>
#         <A>-4.0649e-003</A>
#         <B> 2.0945e-004</B>
#         <C>-3.3182e-006</C>
#         <D0> 2.5826e+000</D0>
#         <D1> 1.92634e-004</D1>
#         <D2>-4.64803e-002</D2>
#         <E> 3.6000e-002</E>
#         <Tau20> 1.2200</Tau20>
#         <H1>-3.3000e-002</H1>
#         <H2> 5.0000e+003</H2>
#         <H3> 1.4500e+003</H3>
#       </CalibrationCoefficients>
#     </OxygenSensor>
#   </sensor>
#   <sensor Channel="7" >
#     <!-- A/D voltage 3, PAR/Logarithmic, Satlantic -->
#     <PARLog_SatlanticSensor SensorID="76" >
#       <SerialNumber>1122</SerialNumber>
#       <CalibrationDate>22-Jun-2017</CalibrationDate>
#       <a0>9.6090e-001</a0>
#       <a1>8.0780e-001</a1>
#       <Im>1.3589e+000</Im>
#       <Multiplier>1.0000e+000</Multiplier>
#     </PARLog_SatlanticSensor>
#   </sensor>
#   <sensor Channel="8" >
#     <!-- A/D voltage 4, Fluorometer, WET Labs ECO-AFL/FL -->
#     <FluoroWetlabECO_AFL_FL_Sensor SensorID="20" >
#       <SerialNumber>FLNTURT-2496</SerialNumber>
#       <CalibrationDate>25-Jan-2017</CalibrationDate>
#       <ScaleFactor>5.30000000e+001</ScaleFactor>
#       <!-- Dark output -->
#       <Vblank>0.0560</Vblank>
#     </FluoroWetlabECO_AFL_FL_Sensor>
#   </sensor>
#   <sensor Channel="9" >
#     <!-- A/D voltage 5, Turbidity Meter, WET Labs, ECO-NTU -->
#     <TurbidityMeter SensorID="67" >
#       <SerialNumber>FLNTURT-2496</SerialNumber>
#       <CalibrationDate>25-Jan-2017</CalibrationDate>
#       <ScaleFactor>176.000000</ScaleFactor>
#       <!-- Dark output -->
#       <DarkVoltage>0.072000</DarkVoltage>
#     </TurbidityMeter>
#   </sensor>
# </Sensors>
# datcnv_date = Sep 10 2018 17:00:17, 7.26.7.114 [datcnv_vars = 16]
# datcnv_in = C:\DATA\091018_fcr45.hex C:\DATA\SBE19plusV2_7809.xmlcon
# datcnv_skipover = 0
# datcnv_ox_hysteresis_correction = yes
# datcnv_ox_tau_correction = yes
# filter_date = Sep 10 2018 17:00:40, 7.26.7.114
# filter_in = C:\DATA\091018_fcr45.cnv
# filter_low_pass_tc_A = 0.030
# filter_low_pass_tc_B = 0.150
# filter_low_pass_A_vars = tv290C c0uS/cm par/sat/log
# filter_low_pass_B_vars = prdM prdE
# alignctd_date = Sep 10 2018 17:00:55, 7.26.7.114
# alignctd_in = C:\DATA\091018_fcr45.cnv
# alignctd_adv = tv290C 0.500, sbeox0Mg/L 3.000, sbeox0PS 3.000                                                                                                                                                                      
# file_type = ascii
*END*
     -0.567    19.8456     8.9636     98.288   0.510327      0.568      5.865   209.0358    -0.1617    -0.2377     0.0099      0.000     -0.556     -0.807          1 4.8908e+02 0.0000e+00
     -0.568    19.8457     8.9624     98.275   0.448969      0.506      5.865   208.9222    -0.1900    -0.1840     0.0099     -0.000     -0.556     -0.807          2 4.9391e+02 0.0000e+00
     -0.567    19.8457     8.9645     98.298   0.407731      0.444      5.871   208.7708    -0.1900    -0.2377     0.0099     -0.000     -0.556     -0.807          3 4.5296e+02 0.0000e+00
     -0.567    19.8457     8.9589     98.238   0.502434      0.568      5.865   210.8151    -0.2021    -0.2377     0.0099     -0.000     -0.556     -0.807          4 4.1373e+02 0.0000e+00
     -0.567    19.8459     8.9594     98.243   0.508753      0.568      5.861   210.7772    -0.1698    -0.1706     0.0099     -0.000     -0.556     -0.806          5 4.7373e+02 0.0000e+00
     -0.566    19.8459     8.9611     98.261   0.399867      0.444      5.860   210.7015    -0.1738    -0.2243     0.0099      0.000     -0.556     -0.806          6 5.0618e+02 0.0000e+00
     -0.566    19.8461     8.9629     98.281   0.401088      0.444      5.858   209.1872    -0.1860    -0.2243     0.0099      0.000     -0.556     -0.806          7 4.9820e+02 0.0000e+00
     -0.567    19.8462     8.9670     98.327   0.448019      0.506      5.866   211.2315    -0.1738     0.1114     0.0099      0.000     -0.556     -0.806          8 4.9888e+02 0.0000e+00
     -0.567    19.8461     8.9633     98.286   0.459887      0.506      5.862   209.7551    -0.1617     0.0308     0.0099      0.000     -0.557     -0.807          9 5.0005e+02 0.0000e+00
     -0.567    19.8462     8.9633     98.286   0.445531      0.506      5.864   211.0422    -0.2305    -0.0229     0.0099      0.000     -0.557     -0.807         10 4.9298e+02 0.0000e+00
     -0.567    19.8461     8.9679     98.337   0.406673      0.444      5.867   209.4144    -0.1779    -0.0497     0.0099     -0.000     -0.556     -0.806         11 4.5772e+02 0.0000e+00
     -0.567    19.8463     8.9603     98.254   0.389821      0.444      5.865   209.3387    -0.1779     0.0845     0.0099     -0.000     -0.556     -0.806         12 4.4290e+02 0.0000e+00
     -0.567    19.8463     8.9617     98.268   0.407290      0.444      5.868   209.6037    -0.1860     0.0308     0.0099     -0.000     -0.556     -0.806         13 4.3139e+02 0.0000e+00
     -0.566    19.8465     8.9626     98.279   0.444145      0.506      5.871   209.9444    -0.2062    -0.1169     0.0099     -0.000     -0.556     -0.806         14 4.2422e+02 0.0000e+00
     -0.567    19.8465     8.9662     98.319   0.462382      0.506      5.867   205.2122    -0.1738     0.0040     0.0099     -0.000     -0.556     -0.807         15 4.1970e+02 0.0000e+00
     -0.567    19.8464     8.9613     98.265   0.443807      0.506      5.870   206.9915    -0.1779     0.0845     0.0099      0.000     -0.556     -0.807         16 3.1670e+02 0.0000e+00
     -0.567    19.8465     8.9646     98.302   0.408047      0.444      5.872   209.3765    -0.1617    -0.0229     0.0099      0.000     -0.556     -0.807         17 2.6298e+02 0.0000e+00
     -0.567    19.8467     8.9601     98.253   0.447671      0.506      5.874   210.9665    -0.1779    -0.0229     0.0099      0.000     -0.556     -0.807         18 2.5941e+02 0.0000e+00
     -0.567    19.8468     8.9633     98.288   0.453709      0.506      5.881   212.1779    -0.1900     0.0040     0.0099     -0.000     -0.556     -0.807         19 2.5994e+02 0.0000e+00
     -0.567    19.8467     8.9610     98.264   0.400534      0.444      5.881   212.3672    -0.1819     0.0308     0.0099     -0.000     -0.556     -0.807         20 3.3625e+02 0.0000e+00
     -0.567    19.8468     8.9642     98.299   0.395420      0.444      5.875   212.2158    -0.2021     0.0174     0.0099     -0.000     -0.556     -0.807         21 3.2811e+02 0.0000e+00
     -0.567    19.8469     8.9695     98.359   0.400860      0.444      5.876   211.9508    -0.1981     0.0040     0.0099     -0.000     -0.556     -0.807         22 3.1264e+02 0.0000e+00
     -0.567    19.8468     8.9722     98.388   0.393765      0.444      5.877   210.8908    -0.1900     0.0308     0.0099     -0.000     -0.557     -0.807         23 3.2870e+02 0.0000e+00
     -0.568    19.8471     8.9700     98.365   0.404251      0.444      5.880   211.2694    -0.1779     0.1114     0.0099     -0.000     -0.557     -0.807         24 3.3066e+02 0.0000e+00
     -0.567    19.8472     8.9653     98.314   0.447024      0.506      5.904   198.3222    -0.1779     0.2054     0.0099     -0.000     -0.557     -0.807         25 3.3838e+02 0.0000e+00
     -0.567    19.8474     8.9609     98.265   0.458959      0.506      6.009   213.3515    -0.1860     0.2322     0.0099     -0.000     -0.557     -0.807         26 2.9738e+02 0.0000e+00
     -0.567    19.8474     8.9667     98.330   0.448610      0.506      5.918   222.0208    -0.1658     0.1920     0.0099     -0.000     -0.557     -0.807         27 2.5300e+02 0.0000e+00
     -0.567    19.8479     8.9617     98.333   0.459904      0.506      5.859   215.9258    -0.1738     0.2591     0.0099     -0.000     -0.557     -0.807         28 2.3160e+02 0.0000e+00
     -0.568    19.8478     8.8437     98.370   0.504117      0.568      5.863   214.5630    -0.1698     0.2322     0.0099     -0.000     -0.557     -0.807         29 2.2302e+02 0.0000e+00
     -0.567    19.8489     8.6720     98.336   0.689655      0.755      5.868   213.8058    -0.1496     0.0174     0.0099     -0.000     -0.556     -0.807         30 2.2157e+02 0.0000e+00
     -0.567    19.8478     8.5648     98.349   0.909963      1.035      5.880   210.9665    -0.1698    -0.0095     0.0099      0.000     -0.556     -0.807         31 2.1621e+02 0.0000e+00
     -0.568    19.8499     8.4967     98.404   0.881300      0.972      5.888   216.0015    -0.1860     0.0308     0.0099      0.000     -0.556     -0.807         32 2.0283e+02 0.0000e+00
     -0.567    19.8474     8.4423     98.354   1.110219      1.221      5.877   218.6894    -0.2021    -0.0229     0.0099     -0.000     -0.556     -0.807         33 1.9932e+02 0.0000e+00
     -0.568    19.8521     8.4102     98.420   0.861936      1.035      5.879   217.2130    -0.1779     0.2457     0.0099     -0.000     -0.556     -0.807         34 2.2189e+02 0.0000e+00
     -0.567    19.8447     8.3784     98.409   1.249497      1.221      5.883   216.9101    -0.1981     0.2591     0.0099     -0.000     -0.556     -0.807         35 2.4894e+02 0.0000e+00
     -0.568    19.8573     8.3609     98.443   1.042411      1.470      5.890   214.1465    -0.1779     0.2188     0.0099     -0.000     -0.556     -0.807         36 2.6486e+02 0.0000e+00
     -0.567    19.8374     8.3456     98.454   1.593371      1.283      5.892   211.2315    -0.1819     0.1651     0.0099     -0.000     -0.556     -0.807         37 2.8787e+02 0.0000e+00
     -0.568    19.9007     8.3401     98.536   0.563837      1.408      5.897   211.4208    -0.1698    -0.1706     0.0099     -0.000     -0.556     -0.806         38 3.2868e+02 0.0000e+00
     -0.567    20.5692     8.3434     98.666   2.382864      1.408      5.903   213.0865    -0.1658    -0.2377     0.0099      0.000     -0.552     -0.801         39 3.5804e+02 0.0000e+00
     -0.558    21.5391     8.3506     98.801   9.813270     12.289      5.917   248.1802    -0.1779    -0.2109     0.0132      0.003     -0.532     -0.772         40 3.7446e+02 0.0000e+00
     -0.499    22.2026     8.3646     98.984  18.772491     19.057      6.029   260.5595    -0.1941    -0.2512     0.0160      0.020     -0.490     -0.711         41 3.8719e+02 0.0000e+00
     -0.446    22.6435     8.3752     99.127  31.500571     35.305      6.336   252.9124    -0.1779    -0.2377     0.0228      0.047     -0.442     -0.641         42 3.9700e+02 0.0000e+00
     -0.407    22.9587     8.3925     99.358  34.906614     36.120      6.694   226.7530    -0.1698    -0.3452     0.0233      0.076     -0.405     -0.587         43 4.0732e+02 0.0000e+00
     -0.385    23.1949     8.4209     99.675  33.891342     36.075      6.941   216.6830    -0.1860    -0.2109     0.0235      0.100     -0.380     -0.551         44 4.2125e+02 0.0000e+00
     -0.369    23.3878     8.4430     99.911  34.810059     35.987      7.094   211.6479    -0.1819    -0.2377     0.0235      0.116     -0.360     -0.522         45 4.3179e+02 0.0000e+00
     -0.345    23.5193     8.4752    100.312  34.296942     35.752      7.214   218.1215    -0.1698     0.0711     0.0235      0.126     -0.338     -0.490         46 4.3431e+02 0.0000e+00
     -0.321    23.6215     8.4906    100.508  34.796698     35.840      7.281   199.4201    -0.1738     0.0980     0.0236      0.127     -0.313     -0.454         47 4.4285e+02 0.0000e+00
     -0.291    23.7012     8.5062    100.685  34.751505     35.888      7.352   188.1764    -0.1779     0.0443     0.0236      0.120     -0.288     -0.417         48 4.5044e+02 0.0000e+00
     -0.269    23.7509     8.5379    101.037  34.827622     35.754      7.389   194.0822    -0.1941     0.0174     0.0236      0.104     -0.267     -0.386         49 4.5213e+02 0.0000e+00
     -0.255    23.7778     8.5685    101.374  34.850206     35.811      7.419   194.4986    -0.1819     0.0040     0.0236      0.092     -0.249     -0.360         50 4.5579e+02 0.0000e+00
     -0.235    23.7873     8.6089    101.841  34.901304     35.774      7.444   198.7008     3.4048     9.9138     0.0236      0.087     -0.231     -0.334         51 4.5857e+02 0.0000e+00
     -0.216    23.7974     8.6151    101.867  34.764008     35.640      7.437   197.5650     3.4210     9.8601     0.0236      0.086     -0.212     -0.308         52 4.5992e+02 0.0000e+00
     -0.199    23.8098     8.5209    100.712  34.694832     35.547      7.445   196.9215     3.4452     9.8467     0.0236      0.083     -0.194     -0.282         53 4.5918e+02 0.0000e+00
     -0.178    23.8002     8.3417     98.589  34.690818     35.540      7.445   190.1829     3.3967     9.9406     0.0236      0.080     -0.175     -0.254         54 4.4986e+02 0.0000e+00
     -0.158    23.7876     8.0775     95.492  34.680028     35.530      7.383   188.5550     5.2689     2.3404     0.0236      0.077     -0.157     -0.228         55 4.4477e+02 0.0000e+00
     -0.144    23.7969     7.7442     91.566  34.559975     35.395      7.301   183.5957     5.2446     2.3404     0.0235      0.073     -0.143     -0.208         56 4.4738e+02 0.0000e+00
     -0.136    23.8048     7.4283     87.829  34.395380     35.261      7.278   183.9364     5.2608     2.3002     0.0234      0.069     -0.134     -0.196         57 4.4668e+02 0.0000e+00
     -0.133    23.8008     7.1458     84.508  34.321399     35.139      7.254   178.9771     5.2810     2.2599     0.0234      0.063     -0.129     -0.187         58 4.4357e+02 0.0000e+00
     -0.126    23.7879     6.8973     81.603  34.444449     35.305      7.253   182.3086     5.1840     2.2062     0.0235      0.055     -0.121     -0.176         59 4.3876e+02 0.0000e+00
     -0.113    23.7762     6.7411     79.798  34.479494     35.309      7.265   162.2442     5.2244     2.2733     0.0235      0.049     -0.111     -0.161         60 4.3828e+02 0.0000e+00
     -0.102    23.7685     6.6621     78.887  34.455724     35.317      7.298   164.7050     5.2204     2.1659     0.0235      0.043     -0.099     -0.143         61 4.3665e+02 0.0000e+00
     -0.087    23.7455     6.6204     78.416  34.444378     35.298      7.348   164.5914     5.1718     2.1524     0.0234      0.040     -0.085     -0.123         62 4.2477e+02 0.0000e+00
     -0.070    23.7228     6.6297     78.552  34.463962     35.331      7.376   183.8986     5.4549     2.1927     0.0235      0.040     -0.071     -0.102         63 4.2015e+02 0.0000e+00
     -0.059    23.7208     6.6713     79.060  34.520327     35.406      7.393   184.8829     5.4387     2.1524     0.0235      0.043     -0.059     -0.085         64 4.1777e+02 0.0000e+00
     -0.050    23.7343     6.7059     79.452  34.463210     35.365      7.390   165.5757     5.4347     2.1390     0.0235      0.046     -0.051     -0.074         65 4.1735e+02 0.0000e+00
     -0.047    23.7420     6.7337     79.780  34.535051     35.424      7.365   164.4021     5.4630     2.1659     0.0235      0.047     -0.047     -0.068         66 4.1269e+02 0.0000e+00
     -0.046    23.7426     6.7422     79.902  34.757145     35.672      7.346   163.4935     5.4509     2.1122     0.0236      0.042     -0.043     -0.063         67 4.1288e+02 0.0000e+00
     -0.039    23.7535     6.7326     79.804  34.839256     35.723      7.350   165.3485     5.5722     2.2196     0.0236      0.037     -0.036     -0.053         68 3.9864e+02 0.0000e+00
     -0.027    23.7767     6.7225     79.686  34.877712     35.781      7.362   168.4150     5.5843     2.1122     0.0236      0.033     -0.024     -0.036         69 4.0310e+02 0.0000e+00
     -0.010    23.8035     6.7006     79.422  34.887227     35.772      7.369   166.1814     5.5843     2.1927     0.0236      0.031     -0.009     -0.013         70 3.7834e+02 0.0000e+00
      0.010    23.8215     6.6719     79.079  34.886722     35.756      7.374   165.2350     5.5560     2.1927     0.0236      0.034      0.007      0.011         71 2.7776e+02 0.0000e+00
      0.024    23.8360     6.6256     78.529  34.759704     35.621      7.357   164.8942     5.5681     2.1390     0.0236      0.039      0.019      0.029         72 2.7228e+02 0.0000e+00
      0.027    23.8542     6.5656     77.818  34.600439     35.408      7.337   163.9857     5.5843     2.1659     0.0235      0.043      0.024      0.036         73 3.0942e+02 0.0000e+00
      0.024    23.8631     6.5107     77.171  34.699379     35.540      7.324   163.7964     5.5479     2.1659     0.0236      0.043      0.025      0.036         74 3.1194e+02 0.0000e+00
      0.025    23.8530     6.4755     76.757  34.844161     35.642      7.336   180.5293     5.5803     2.1524     0.0236      0.040      0.030      0.045         75 2.9533e+02 0.0000e+00
      0.047    23.8510     6.4750     76.755  34.805787     35.634      7.329   188.6307     5.5075     2.2464     0.0236      0.038      0.045      0.066         76 2.6652e+02 0.0000e+00
      0.065    23.8651     6.5063     77.129  34.598850     35.386      7.311   189.1607     5.4994     2.1256     0.0235      0.037      0.062      0.090         77 2.5441e+02 0.0000e+00
      0.077    23.8753     6.5676     77.858  34.627189     35.444      7.325   190.0315     5.4994     2.1390     0.0235      0.037      0.076      0.110         78 2.2974e+02 0.0000e+00
      0.091    23.8768     6.6465     78.788  34.829833     35.634      7.330   189.8043     5.5156     2.0853     0.0236      0.038      0.089      0.129         79 2.2317e+02 0.0000e+00
      0.103    23.8741     6.7154     79.595  34.880476     35.683      7.332   190.1450     5.5803     2.3404     0.0236      0.043      0.099      0.144         80 2.2131e+02 0.0000e+00
      0.107    23.8720     6.7777     80.333  34.890384     35.682      7.335   190.2207     5.6005     2.2867     0.0236      0.047      0.104      0.151         81 2.1881e+02 0.0000e+00
      0.109    23.8709     6.8242     80.886  34.936131     35.741      7.339   189.3879     5.5722     2.3270     0.0237      0.047      0.105      0.153         82 2.1903e+02 0.0000e+00
      0.109    23.8716     6.8422     81.099  34.942174     35.743      7.346   189.0472     5.6005     2.2733     0.0237      0.041      0.105      0.152         83 2.1291e+02 0.0000e+00
      0.104    23.8735     6.8277     80.922  34.942178     35.744      7.348   190.3722     6.0817     2.3673     0.0237      0.029      0.101      0.147         84 2.2997e+02 0.0000e+00
      0.096    23.8763     6.7816     80.365  34.995438     35.801      7.341   193.2872     6.0655     2.3404     0.0237      0.016      0.094      0.137         85 2.3234e+02 0.0000e+00
      0.089    23.8793     6.7228     79.659  34.994519     35.799      7.330   192.6436     6.0898     2.2196     0.0237      0.004      0.088      0.127         86 2.2428e+02 0.0000e+00
      0.085    23.8816     6.6691     79.021  34.943321     35.740      7.329   193.2872     6.0776     2.2733     0.0237     -0.006      0.084      0.121         87 2.3565e+02 0.0000e+00
      0.082    23.8829     6.6356     78.625  34.940524     35.738      7.323   194.4229     5.7946     2.1927     0.0237     -0.013      0.082      0.119         88 2.4283e+02 0.0000e+00
      0.085    23.8790     6.6029     78.234  34.938685     35.736      7.315   194.9908     5.4468     2.1927     0.0237     -0.015      0.083      0.121         89 2.2831e+02 0.0000e+00
      0.088    23.8731     6.5803     77.964  34.945609     35.735      7.313   194.6879     5.4670     2.0719     0.0237     -0.014      0.084      0.122         90 2.3238e+02 0.0000e+00
      0.083    23.8723     6.5593     77.691  34.931908     35.738      7.307   186.0564     5.4428     2.2464     0.0237     -0.012      0.081      0.119         91 2.4033e+02 0.0000e+00
      0.079    23.8733     6.5331     77.347  34.896424     35.685      7.295   194.4986     5.4387     2.1390     0.0236     -0.009      0.079      0.115         92 2.3661e+02 0.0000e+00
      0.081    23.8728     6.5054     77.018  34.930455     35.743      7.288   194.8393     5.6369     2.1793     0.0237     -0.006      0.081      0.117         93 2.3805e+02 0.0000e+00
      0.086    23.8698     6.4804     76.738  34.948871     35.742      7.294   195.0665     5.6692     2.1927     0.0237     -0.002      0.086      0.124         94 2.3320e+02 0.0000e+00
      0.094    23.8630     6.4369     76.240  34.932820     35.742      7.298   195.2936     5.6490     2.0853     0.0237      0.002      0.091      0.132         95 2.2788e+02 0.0000e+00
      0.099    23.8565     6.4178     76.026  34.950431     35.745      7.301   194.8015     5.6207     2.0987     0.0237      0.006      0.095      0.138         96 2.2808e+02 0.0000e+00
      0.097    23.8557     6.4059     75.891  34.926957     35.750      7.297   194.9150     5.6975     2.0987     0.0237      0.007      0.096      0.138         97 2.3767e+02 0.0000e+00
      0.096    23.8555     6.3911     75.715  34.902722     35.697      7.294   194.4608     5.6773     2.2599     0.0236      0.008      0.096      0.139         98 2.2707e+02 0.0000e+00
      0.101    23.8535     6.3681     75.433  34.980592     35.812      7.294   183.8986     5.6935     2.2196     0.0237      0.011      0.100      0.146         99 2.1900e+02 0.0000e+00
      0.112    23.8516     6.3404     75.099  35.007993     35.812      7.295   179.3936     5.7137     2.1659     0.0237      0.014      0.109      0.159        100 2.1532e+02 0.0000e+00
      0.123    23.8352     6.3097     74.736  35.046566     35.871      7.298   179.3936     5.8876     2.1390     0.0237      0.017      0.120      0.174        101 2.0540e+02 0.0000e+00
      0.134    23.8135     6.2864     74.467  35.110531     35.929      7.290   178.3336     5.8835     2.1390     0.0237      0.020      0.129      0.187        102 2.0897e+02 0.0000e+00
      0.137    23.8118     6.2818     74.420  35.047019     35.884      7.285   177.0843     5.8957     2.2062     0.0237      0.023      0.133      0.193        103 2.0628e+02 0.0000e+00
      0.136    23.8227     6.2899     74.518  35.006983     35.844      7.290   190.7129     5.8714     2.1122     0.0237      0.024      0.132      0.192        104 2.0726e+02 0.0000e+00
      0.132    23.8344     6.3038     74.683  35.041733     35.901      7.287   189.9557     5.6854     2.1390     0.0237      0.023      0.128      0.187        105 2.1528e+02 0.0000e+00
      0.126    23.8435     6.3101     74.756  35.122402     35.951      7.276   191.2429     5.7056     2.0450     0.0237      0.018      0.124      0.180        106 2.1465e+02 0.0000e+00
      0.122    23.8478     6.3106     74.756  35.232818     36.085      7.269   189.1229     5.6975     2.1390     0.0238      0.010      0.120      0.175        107 2.1428e+02 0.0000e+00
      0.120    23.8464     6.2934     74.543  35.200890     36.021      7.264   178.9014     5.6894     2.2330     0.0238      0.001      0.119      0.173        108 2.1792e+02 0.0000e+00
      0.121    23.8402     6.2669     74.209  35.102817     35.932      7.264   178.9014     5.6409     2.2330     0.0237     -0.006      0.119      0.173        109 2.1744e+02 0.0000e+00
      0.123    23.8357     6.2285     73.725  35.117608     35.933      7.263   177.9171     5.6247     2.1390     0.0237     -0.009      0.120      0.175        110 2.1431e+02 0.0000e+00
      0.125    23.8368     6.1930     73.274  35.152827     35.995      7.268   191.9243     5.6086     2.1122     0.0238     -0.008      0.122      0.177        111 2.1274e+02 0.0000e+00
      0.126    23.8417     6.1555     72.806  35.118305     35.941      7.275   193.8550     5.6450     2.1122     0.0237     -0.005      0.124      0.180        112 2.1247e+02 0.0000e+00
      0.128    23.8465     6.1198     72.366  35.101256     35.940      7.277   182.0057     5.6652     2.1390     0.0237     -0.000      0.126      0.182        113 2.1082e+02 0.0000e+00
      0.130    23.8488     6.1000     72.120  35.144387     35.965      7.273   184.5800     5.7663     2.3002     0.0237      0.003      0.127      0.184        114 2.1390e+02 0.0000e+00
      0.129    23.8488     6.0879     71.969  35.242572     36.076      7.272   192.9465     5.7501     2.3270     0.0238      0.005      0.127      0.184        115 2.1219e+02 0.0000e+00
      0.129    23.8470     6.0750     71.813  35.245980     36.075      7.278   193.7415     5.7582     2.2867     0.0238      0.005      0.127      0.184        116 2.0912e+02 0.0000e+00
      0.130    23.8434     6.0618     71.654  35.169802     35.989      7.276   180.5293     5.7622     2.3673     0.0238      0.004      0.127      0.185        117 2.1102e+02 0.0000e+00
      0.131    23.8362     6.0503     71.516  35.159432     35.990      7.277   180.2643     5.8390     2.1659     0.0238      0.004      0.128      0.187        118 2.1236e+02 0.0000e+00
      0.134    23.8220     6.0305     71.275  35.169913     35.993      7.277   181.0971     5.7986     2.1390     0.0238      0.003      0.130      0.189        119 2.0712e+02 0.0000e+00
      0.134    23.8008     6.0057     70.972  35.186415     36.027      7.282   196.1265     5.8107     2.0987     0.0238      0.003      0.131      0.190        120 2.0840e+02 0.0000e+00
      0.133    23.7787     5.9831     70.690  35.109242     35.951      7.283   193.7415     5.8188     2.1524     0.0237      0.003      0.130      0.189        121 2.1124e+02 0.0000e+00
      0.131    23.7611     5.9401     70.166  35.058360     35.910      7.282   187.3057     5.9037     2.2599     0.0237      0.002      0.129      0.188        122 2.0866e+02 0.0000e+00
      0.131    23.7476     5.9036     69.720  35.042146     35.926      7.283   197.7922     5.9037     2.2330     0.0237      0.002      0.128      0.186        123 2.1492e+02 0.0000e+00
      0.129    23.7382     5.8639     69.238  35.010802     35.882      7.282   199.0415     5.8795     2.1256     0.0237      0.000      0.127      0.184        124 2.1201e+02 0.0000e+00
      0.129    23.7327     5.8211     68.720  35.038062     35.949      7.279   198.7008     5.8795     2.1390     0.0237     -0.001      0.127      0.184        125 2.0953e+02 0.0000e+00
      0.130    23.7300     5.7833     68.263  35.008229     35.899      7.278   189.3879     5.9523     2.1122     0.0237     -0.002      0.128      0.185        126 2.1058e+02 0.0000e+00
      0.132    23.7284     5.7435     67.782  34.988620     35.903      7.268   187.9114     5.9887     2.1793     0.0237     -0.002      0.129      0.188        127 2.1281e+02 0.0000e+00
      0.133    23.7262     5.7149     67.433  35.003153     35.905      7.263   185.3372     5.9563     2.2196     0.0237     -0.001      0.131      0.190        128 2.0602e+02 0.0000e+00
      0.135    23.7215     5.6756     66.958  34.990142     35.906      7.261   185.0343     5.9523     2.1659     0.0237      0.001      0.133      0.192        129 2.0735e+02 0.0000e+00
      0.136    23.7132     5.6498     66.643  34.945498     35.850      7.262   184.2772     5.9523     2.1390     0.0237      0.003      0.133      0.194        130 2.0970e+02 0.0000e+00
      0.136    23.7024     5.6175     66.251  34.880773     35.796      7.260   183.7850     5.8795     2.0584     0.0236      0.004      0.133      0.194        131 2.0470e+02 0.0000e+00
      0.135    23.6906     5.5881     65.893  34.833440     35.745      7.261   183.2929     5.8997     2.1256     0.0236      0.004      0.132      0.192        132 2.1188e+02 0.0000e+00
      0.133    23.6789     5.5602     65.554  34.767153     35.695      7.263   183.5579     5.8593     2.2464     0.0236      0.003      0.131      0.190        133 2.1117e+02 0.0000e+00
      0.133    23.6687     5.5311     65.201  34.785330     35.704      7.260   199.1551     5.8795     2.0316     0.0236      0.001      0.130      0.189        134 2.0831e+02 0.0000e+00
      0.133    23.6595     5.5053     64.887  34.810824     35.770      7.257   201.8429     5.8795     2.1659     0.0236     -0.000      0.130      0.189        135 2.1082e+02 0.0000e+00
      0.133    23.6507     5.4865     64.654  34.794746     35.720      7.257   201.0858     5.8957     2.1390     0.0236     -0.001      0.130      0.189        136 2.1054e+02 0.0000e+00
      0.133    23.6423     5.4629     64.366  34.805346     35.784      7.258   203.5086     5.9078     2.1927     0.0236     -0.002      0.130      0.189        137 2.0864e+02 0.0000e+00
      0.132    23.6336     5.4488     64.191  34.708668     35.647      7.258   203.6979     5.8593     2.1793     0.0236     -0.002      0.130      0.188        138 2.1210e+02 0.0000e+00
      0.132    23.6247     5.4348     64.018  34.677809     35.653      7.259   203.9251     5.7703     2.1122     0.0236     -0.002      0.130      0.188        139 2.0913e+02 0.0000e+00
      0.132    23.6159     5.4228     63.868  34.695469     35.660      7.255   201.3886     5.7460     2.1256     0.0236     -0.001      0.130      0.188        140 2.0802e+02 0.0000e+00
      0.133    23.6068     5.4057     63.659  34.686695     35.666      7.253   204.7201     5.7622     2.1927     0.0236     -0.000      0.130      0.188        141 2.1293e+02 0.0000e+00
      0.131    23.5978     5.3925     63.495  34.688732     35.673      7.251   204.7958     5.7986     2.2330     0.0236     -0.001      0.129      0.187        142 2.1068e+02 0.0000e+00
      0.131    23.5896     5.3732     63.261  34.663280     35.651      7.252   204.5686     6.0291     2.1390     0.0235     -0.001      0.128      0.186        143 2.0801e+02 0.0000e+00
      0.130    23.5812     5.3589     63.086  34.629405     35.629      7.251   204.8715     5.9887     2.0987     0.0235     -0.002      0.127      0.184        144 2.1291e+02 0.0000e+00
      0.129    23.5728     5.3447     62.911  34.582612     35.577      7.252   205.7044     6.0129     2.1122     0.0235     -0.002      0.127      0.184        145 2.1160e+02 0.0000e+00
      0.129    23.5646     5.3296     62.724  34.573234     35.583      7.251   205.9315     6.0210     2.1659     0.0235     -0.002      0.127      0.184        146 2.0963e+02 0.0000e+00
      0.130    23.5560     5.3172     62.573  34.581767     35.589      7.248   206.3858     6.0857     2.2062     0.0235     -0.002      0.128      0.185        147 2.1273e+02 0.0000e+00
      0.132    23.5482     5.3016     62.382  34.631310     35.653      7.247   206.4615     6.0898     2.0987     0.0235     -0.001      0.129      0.187        148 2.0581e+02 0.0000e+00
      0.132    23.5413     5.2899     62.240  34.600552     35.630      7.249   206.6129     6.0655     2.0316     0.0235     -0.000      0.129      0.188        149 2.1128e+02 0.0000e+00
      0.132    23.5346     5.2771     62.081  34.531080     35.550      7.249   206.7644     6.0938     2.1524     0.0235      0.001      0.129      0.187        150 2.1321e+02 0.0000e+00
      0.131    23.5280     5.2700     61.988  34.569490     35.612      7.251   206.6886     6.3890     2.2062     0.0235      0.001      0.128      0.186        151 2.0914e+02 0.0000e+00
      0.131    23.5214     5.2623     61.888  34.523098     35.560      7.251   206.9158     6.3930     2.0853     0.0235      0.001      0.128      0.185        152 2.1175e+02 0.0000e+00
      0.129    23.5154     5.2585     61.834  34.470191     35.507      7.251   207.4836     6.3485     2.1659     0.0235      0.001      0.127      0.184        153 2.1151e+02 0.0000e+00
      0.128    23.5097     5.2526     61.756  34.487055     35.541      7.250   208.0515     6.3728     2.0719     0.0235     -0.001      0.127      0.183        154 2.1290e+02 0.0000e+00
      0.129    23.5032     5.2416     61.621  34.413146     35.459      7.248   208.0515     6.3890     2.1927     0.0234     -0.002      0.127      0.184        155 2.0948e+02 0.0000e+00
      0.130    23.4962     5.2382     61.576  34.413890     35.463      7.238   207.4079     6.0129     2.1390     0.0234     -0.002      0.128      0.185        156 2.1272e+02 0.0000e+00
      0.132    23.4903     5.2319     61.503  34.456476     35.525      7.236   206.8401     6.0372     2.1793     0.0235     -0.001      0.129      0.187        157 2.0806e+02 0.0000e+00
      0.131    23.4855     5.2157     61.314  34.419464     35.473      7.233   207.3322     5.9927     2.0987     0.0234     -0.000      0.129      0.187        158 2.0967e+02 0.0000e+00
      0.131    23.4806     5.2034     61.168  34.400640     35.477      7.230   204.4929     6.0089     2.1122     0.0234      0.000      0.128      0.186        159 2.1325e+02 0.0000e+00
      0.130    23.4738     5.1960     61.077  34.390937     35.452      7.220   195.5586     5.9725     2.0987     0.0234      0.001      0.128      0.186        160 2.0886e+02 0.0000e+00
      0.132    23.4654     5.1792     60.872  34.401887     35.484      7.213   195.0665     5.9482     2.1122     0.0234      0.001      0.129      0.188        161 2.0833e+02 0.0000e+00
      0.134    23.4576     5.1654     60.702  34.416671     35.489      7.207   194.1958     5.9321     2.0987     0.0234      0.002      0.132      0.191        162 2.0705e+02 0.0000e+00
      0.137    23.4498     5.1524     60.540  34.402198     35.495      7.196   194.0065     5.9361     2.0450     0.0234      0.003      0.134      0.195        163 2.0748e+02 0.0000e+00
      0.140    23.4428     5.1427     60.419  34.360590     35.443      7.191   193.5143     6.0938     2.1524     0.0234      0.004      0.136      0.198        164 2.0183e+02 0.0000e+00
      0.141    23.4375     5.1323     60.290  34.349830     35.449      7.192   194.5743     6.0898     2.1793     0.0234      0.005      0.138      0.200        165 2.0727e+02 0.0000e+00
      0.142    23.4341     5.1239     60.184  34.326624     35.425      7.185   193.3629     6.0938     2.1524     0.0234      0.006      0.138      0.201        166 2.0298e+02 0.0000e+00
      0.141    23.4338     5.1167     60.090  34.300506     35.400      7.173   192.8329     6.0898     2.1256     0.0234      0.006      0.137      0.200        167 2.0358e+02 0.0000e+00
      0.139    23.4348     5.1140     60.051  34.352681     35.461      7.167   192.1515     6.0695     2.2196     0.0234      0.005      0.136      0.197        168 2.0989e+02 0.0000e+00
      0.137    23.4339     5.1096     59.996  34.291350     35.403      7.164   192.3786     6.1140     2.1524     0.0234      0.003      0.134      0.195        169 2.0595e+02 0.0000e+00
      0.135    23.4299     5.1105     60.000  34.228551     35.316      7.162   192.4165     6.1019     2.1659     0.0234      0.000      0.133      0.194        170 2.0724e+02 0.0000e+00
      0.135    23.4236     5.1138     60.096  34.282554     35.403      7.152   193.0222     6.0614     2.1390     0.0234     -0.002      0.133      0.194        171 2.0846e+02 0.0000e+00
      0.137    23.4165     5.3006     62.523  34.313113     35.406      7.143   192.4543     6.1908     2.1524     0.0234     -0.003      0.134      0.195        172 2.0656e+02 0.0000e+00
      0.138    23.4096     5.7196     67.652  34.279490     35.411      7.144   192.3407     6.1828     2.2464     0.0234     -0.003      0.135      0.197        173 2.0355e+02 0.0000e+00
      0.140    23.4031     6.2626     74.180  34.176119     35.271      7.145   192.1136     6.1908     2.3539     0.0233     -0.001      0.137      0.198        174 2.0780e+02 0.0000e+00
      0.140    23.3973     6.8276     80.932  34.204511     35.334      7.149   192.3029     6.2151     2.2196     0.0234      0.000      0.137      0.199        175 2.0265e+02 0.0000e+00
      0.141    23.3897     7.3401     87.041  34.214505     35.339      7.151   192.5300     6.2111     2.3404     0.0234      0.002      0.138      0.201        176 2.0511e+02 0.0000e+00
      0.144    23.3832     7.7862     92.339  34.222997     35.343      7.154   192.9465     6.1908     2.2196     0.0234      0.004      0.141      0.204        177 2.0191e+02 0.0000e+00
      0.147    23.3754     8.0962     96.011  34.223600     35.377      7.161   192.9465     6.2232     2.2196     0.0234      0.005      0.144      0.209        178 1.9758e+02 0.0000e+00
      0.149    23.3735     8.2824     98.209  34.243413     35.354      7.170   192.6057     6.2353     2.1122     0.0234      0.006      0.146      0.212        179 2.0176e+02 0.0000e+00
      0.150    23.3649     8.3250     98.702  34.168689     35.359      7.174   192.3786     6.1989     2.2196     0.0234      0.007      0.147      0.213        180 2.0006e+02 0.0000e+00
      0.149    23.4247     8.2693     98.038  34.286941     35.362      7.180   192.1893     6.1302     2.5016     0.0234      0.007      0.146      0.212        181 2.0112e+02 0.0000e+00
      0.147    23.6091     8.1680     96.829  35.994312     37.214      7.186   192.7193     6.1261     2.5016     0.0241      0.005      0.144      0.210        182 2.0020e+02 0.0000e+00
      0.146    23.7629     8.0571     95.506  37.560271     38.849      7.196   192.7572     6.1464     2.5016     0.0248      0.004      0.143      0.208        183 2.0396e+02 0.0000e+00
      0.144    23.8353     7.9575     94.327  37.617356     38.635      7.200   192.6057     6.1464     2.4747     0.0248      0.001      0.141      0.205        184 2.0077e+02 0.0000e+00
      0.143    23.8776     7.8613     93.192  37.584135     38.575      7.203   192.9086     6.2596     2.3002     0.0248     -0.001      0.141      0.204        185 2.0276e+02 0.0000e+00
      0.143    23.8971     7.7863     92.307  37.512558     38.372      7.207   193.3629     6.2839     2.2464     0.0247     -0.003      0.140      0.203        186 2.0695e+02 0.0000e+00
      0.142    23.9027     7.7267     91.605  37.409781     38.284      7.209   193.4386     6.2798     2.3807     0.0247     -0.004      0.139      0.202        187 2.0086e+02 0.0000e+00
      0.142    23.8998     7.6732     90.979  37.385749     38.210      7.208   193.9308     6.2798     2.3404     0.0247     -0.004      0.139      0.201        188 2.0214e+02 0.0000e+00
      0.142    23.8944     7.6355     90.543  37.364491     38.207      7.213   193.8550     6.1666     2.1659     0.0247     -0.003      0.139      0.202        189 2.0514e+02 0.0000e+00
      0.143    23.8883     7.6093     90.248  37.376912     38.209      7.216   193.7793     6.1464     2.1122     0.0247     -0.002      0.140      0.203        190 2.0206e+02 0.0000e+00
      0.143    23.8859     7.5967     90.110  37.310971     38.156      7.218   194.2336     6.1545     2.1122     0.0247     -0.001      0.140      0.203        191 2.0313e+02 0.0000e+00
      0.143    23.8813     7.6046     90.205  37.209274     38.046      7.224   194.4229     6.1261     2.1659     0.0246     -0.000      0.140      0.203        192 2.0205e+02 0.0000e+00
      0.143    23.8771     7.6149     90.326  37.147552     37.991      7.226   194.8393     6.3485     1.9913     0.0246      0.000      0.140      0.203        193 2.0364e+02 0.0000e+00
      0.142    23.8778     7.6253     90.450  37.150503     37.995      7.227   194.9529     6.3324     2.1256     0.0246      0.000      0.139      0.202        194 2.0391e+02 0.0000e+00
      0.141    23.8805     7.6321     90.536  37.205606     38.055      7.226   194.9150     6.3445     2.1927     0.0246      0.000      0.139      0.201        195 2.0138e+02 0.0000e+00
      0.141    23.8832     7.6319     90.540  37.256940     38.112      7.221   195.4829     6.3364     2.0987     0.0246     -0.000      0.138      0.200        196 2.0598e+02 0.0000e+00
      0.141    23.8859     7.6358     90.593  37.264578     38.110      7.220   195.8236     6.3283     2.0719     0.0246     -0.001      0.138      0.200        197 2.0285e+02 0.0000e+00
      0.140    23.8904     7.6405     90.653  37.196099     38.050      7.219   195.9372     6.2232     2.0987     0.0246     -0.002      0.138      0.200        198 2.0134e+02 0.0000e+00
      0.142    23.8974     7.6420     90.681  37.075218     37.905      7.221   196.0508     6.1868     2.0584     0.0246     -0.001      0.139      0.201        199 2.0445e+02 0.0000e+00
      0.143    23.9064     7.6372     90.633  37.088749     37.930      7.221   196.2400     6.2111     2.1927     0.0246     -0.001      0.139      0.202        200 2.0301e+02 0.0000e+00
      0.143    23.9133     7.6329     90.585  37.149598     37.982      7.216   196.3915     6.1908     2.1524     0.0246      0.000      0.139      0.202        201 2.0214e+02 0.0000e+00
      0.141    23.9145     7.6292     90.541  37.147790     37.975      7.198   196.4293     6.0695     2.1122     0.0246      0.001      0.138      0.201        202 2.0507e+02 0.0000e+00
      0.140    23.9135     7.6234     90.466  37.061335     37.884      7.174   196.5050     6.0898     2.2733     0.0245      0.000      0.137      0.199        203 2.0458e+02 0.0000e+00
      0.138    23.9140     7.6213     90.438  37.019906     37.826      7.160   197.1108     6.0857     2.1256     0.0245     -0.001      0.135      0.197        204 2.0332e+02 0.0000e+00
      0.138    23.9169     7.6164     90.374  37.140027     37.969      7.156   197.1865     6.0776     2.0450     0.0246     -0.002      0.135      0.196        205 2.0686e+02 0.0000e+00
      0.137    23.9209     7.6277     90.482  37.208447     38.026      7.159   196.9972     6.3324     2.0450     0.0246     -0.002      0.135      0.196        206 2.0655e+02 0.0000e+00
      0.138    23.9245     7.6326     90.509  37.142377     37.967      7.157   196.8079     6.3324     2.1927     0.0246     -0.003      0.135      0.197        207 2.0161e+02 0.0000e+00
      0.139    23.9277     7.6307     90.483  36.955308     37.764      7.152   197.3379     6.3566     2.2062     0.0245     -0.003      0.136      0.198        208 2.0427e+02 0.0000e+00
      0.140    23.9334     7.6257     90.436  36.729412     37.532      7.151   197.5650     6.3445     2.0316     0.0244     -0.001      0.137      0.200        209 2.0286e+02 0.0000e+00
      0.143    23.9386     7.6143     90.323  36.593027     37.387      7.158   197.3758     6.1383     2.1390     0.0243      0.001      0.140      0.203        210 2.0054e+02 0.0000e+00
      0.145    23.9403     7.6027     90.204  36.561504     37.354      7.171   198.3979     6.1383     2.0450     0.0243      0.003      0.142      0.206        211 2.0222e+02 0.0000e+00
      0.145    23.9395     7.6010     90.187  36.531365     37.322      7.181   198.4358     6.1383     2.1659     0.0243      0.004      0.143      0.206        212 1.9924e+02 0.0000e+00
      0.144    23.9364     7.6022     90.201  36.541554     37.321      7.183   197.7543     6.1464     2.1659     0.0243      0.004      0.142      0.204        213 2.0356e+02 0.0000e+00
      0.142    23.9345     7.6128     90.326  36.667459     37.464      7.188   197.7543     6.3809     2.3941     0.0244      0.003      0.139      0.201        214 2.0358e+02 0.0000e+00
      0.138    23.9312     7.6182     90.386  36.730592     37.523      7.193   197.2243     6.4173     2.2733     0.0244      0.001      0.135      0.196        215 2.0449e+02 0.0000e+00
      0.135    23.9156     7.6212     90.416  36.789242     37.582      7.208   197.6786     6.3849     2.3002     0.0244     -0.002      0.132      0.192        216 2.0746e+02 0.0000e+00
      0.133    23.8981     7.6226     90.412  36.861407     37.670      7.230   197.9058     6.4092     2.3539     0.0245     -0.005      0.131      0.190        217 2.0764e+02 0.0000e+00
      0.133    23.8953     7.6254     90.417  36.848404     37.653      7.240   198.8522     6.4092     2.2464     0.0245     -0.007      0.131      0.190        218 2.0670e+02 0.0000e+00
      0.134    23.9028     7.6202     90.354  36.775772     37.610      7.248   198.5872     6.1383     2.0987     0.0244     -0.007      0.132      0.191        219 2.0520e+02 0.0000e+00
      0.135    23.9154     7.6161     90.323  36.595890     37.412      7.258   197.9815     6.1302     2.0450     0.0243     -0.006      0.133      0.194        220 2.0484e+02 0.0000e+00
      0.139    23.9261     7.6155     90.327  36.479078     37.292      7.267   198.3979     6.1585     2.2330     0.0243     -0.003      0.136      0.198        221 2.0284e+02 0.0000e+00
      0.143    23.9290     7.6195     90.378  36.446589     37.254      7.278   200.0636     6.1423     2.1793     0.0243      0.001      0.140      0.203        222 1.9968e+02 0.0000e+00
      0.146    23.9285     7.6285     90.492  36.428701     37.217      7.288   199.1172     6.1423     2.1390     0.0243      0.005      0.142      0.206        223 2.0080e+02 0.0000e+00
      0.146    23.9275     7.6385     90.617  36.412358     37.215      7.287   199.0036     6.1302     2.1122     0.0243      0.007      0.143      0.207        224 2.0102e+02 0.0000e+00
      0.145    23.9262     7.6536     90.801  36.437268     37.215      7.268   198.5493     6.1302     2.1659     0.0243      0.008      0.142      0.206        225 1.9900e+02 0.0000e+00
      0.143    23.9226     7.6567     90.833  36.516338     37.330      7.263   198.5115     6.1545     2.1256     0.0243      0.006      0.139      0.202        226 2.0458e+02 0.0000e+00
      0.139    23.9096     7.6458     90.700  36.551229     37.331      7.268   198.8143     6.1625     2.0450     0.0243      0.004      0.136      0.198        227 2.0529e+02 0.0000e+00
      0.136    23.8943     7.6311     90.525  36.720098     37.534      7.273   198.9279     6.1140     2.2062     0.0244      0.000      0.134      0.194        228 2.0487e+02 0.0000e+00
      0.134    23.8930     7.6226     90.408  36.721416     37.544      7.281   199.1929     6.1464     2.1122     0.0244     -0.004      0.132      0.192        229 2.0723e+02 0.0000e+00
      0.134    23.9030     7.6131     90.284  36.549594     37.356      7.282   199.4958     6.1383     2.1659     0.0243     -0.006      0.131      0.191        230 2.0720e+02 0.0000e+00
      0.135    23.9101     7.6164     90.331  36.518703     37.357      7.287   199.5336     6.2758     2.2464     0.0243     -0.007      0.132      0.193        231 2.0153e+02 0.0000e+00
      0.138    23.9123     7.6139     90.311  36.433610     37.235      7.292   199.6093     6.2758     2.2196     0.0243     -0.006      0.135      0.196        232 2.0507e+02 0.0000e+00
      0.142    23.9160     7.6106     90.278  36.358897     37.172      7.298   199.9122     6.2677     2.1659     0.0243     -0.002      0.139      0.201        233 1.9958e+02 0.0000e+00
      0.145    23.9204     7.6152     90.339  36.344747     37.142      7.304   200.1393     6.2515     2.1122     0.0242      0.001      0.141      0.205        234 1.9681e+02 0.0000e+00
      0.146    23.9226     7.6255     90.468  36.302923     37.110      7.301   200.2908     6.2232     2.2733     0.0242      0.005      0.142      0.207        235 2.0237e+02 0.0000e+00
      0.146    23.9198     7.6373     90.604  36.321968     37.107      7.296   201.1236     6.2111     2.2867     0.0242      0.007      0.142      0.206        236 1.9670e+02 0.0000e+00
      0.144    23.9178     7.6412     90.640  36.350702     37.162      7.294   200.6693     6.2232     2.2733     0.0243      0.007      0.141      0.205        237 2.0264e+02 0.0000e+00
      0.143    23.9171     7.6409     90.628  36.267163     37.051      7.298   200.5179     6.2030     2.2196     0.0242      0.005      0.140      0.203        238 2.0098e+02 0.0000e+00
      0.143    23.9083     7.6329     90.527  36.277636     37.081      7.303   200.7072     6.1747     2.3404     0.0242      0.003      0.140      0.203        239 2.0067e+02 0.0000e+00
      0.142    23.9018     7.6410     90.616  36.308011     37.109      7.307   201.3129     6.2515     2.0987     0.0242      0.001      0.140      0.203        240 2.0210e+02 0.0000e+00
      0.144    23.9055     7.6441     90.651  36.259024     37.059      7.309   201.4643     6.2677     2.1793     0.0242     -0.001      0.141      0.205        241 1.9791e+02 0.0000e+00
      0.146    23.9116     7.6396     90.604  36.249626     37.064      7.313   201.3886     6.2839     2.1390     0.0242     -0.001      0.143      0.208        242 1.9949e+02 0.0000e+00
      0.148    23.9150     7.6351     90.561  36.201072     37.004      7.315   201.3129     6.2596     2.1390     0.0242      0.000      0.145      0.210        243 1.9715e+02 0.0000e+00
      0.150    23.9188     7.6256     90.460  36.200812     37.000      7.314   201.6536     6.2677     2.1659     0.0242      0.002      0.147      0.213        244 1.9389e+02 0.0000e+00
      0.152    23.9224     7.6201     90.401  36.220288     37.026      7.317   202.2972     6.2475     2.1927     0.0242      0.004      0.149      0.216        245 1.9579e+02 0.0000e+00
      0.155    23.9206     7.6054     90.228  36.206491     36.994      7.317   224.1030     6.2555     2.1659     0.0242      0.006      0.151      0.220        246 1.9438e+02 0.0000e+00
      0.156    23.9150     7.5978     90.136  36.247639     37.048      7.323   210.0958     6.2798     2.1390     0.0242      0.007      0.152      0.221        247 1.9542e+02 0.0000e+00
      0.154    23.9098     7.5872     90.010  36.258055     37.050      7.320   205.7044     6.3202     2.1390     0.0242      0.007      0.151      0.219        248 1.9797e+02 0.0000e+00
      0.152    23.9058     7.5798     89.923  36.252848     37.054      7.317   204.6444     6.3283     2.1793     0.0242      0.005      0.149      0.217        249 1.9704e+02 0.0000e+00
      0.151    23.9019     7.5725     89.832  36.254124     37.058      7.315   224.8601     6.3485     2.1927     0.0242      0.003      0.148      0.215        250 1.9797e+02 0.0000e+00
      0.150    23.9007     7.5752     89.859  36.286129     37.090      7.308   225.7308     6.3364     2.0584     0.0242      0.001      0.148      0.214        251 1.9900e+02 0.0000e+00
      0.150    23.9043     7.5799     89.912  36.301994     37.121      7.305   225.5037     6.1989     2.0853     0.0242     -0.001      0.148      0.214        252 1.9763e+02 0.0000e+00
      0.152    23.9110     7.5909     90.040  36.264040     37.065      7.301   225.6173     6.2070     2.0450     0.0242     -0.002      0.149      0.216        253 1.9623e+02 0.0000e+00
      0.154    23.9177     7.6045     90.197  36.244388     37.062      7.299   225.3901     6.1787     2.1122     0.0242     -0.002      0.152      0.220        254 1.9561e+02 0.0000e+00
      0.158    23.9211     7.6248     90.430  36.267131     37.057      7.306   224.7844     6.2111     2.1927     0.0242      0.000      0.155      0.225        255 1.9120e+02 0.0000e+00
      0.161    23.9219     7.6363     90.558  36.384028     37.195      7.310   224.7466     6.2758     2.0987     0.0243      0.004      0.158      0.229        256 1.9100e+02 0.0000e+00
      0.165    23.9211     7.6466     90.675  36.365839     37.164      7.311   225.4658     6.2515     2.0987     0.0243      0.007      0.162      0.234        257 1.8974e+02 0.0000e+00
      0.168    23.9212     7.6472     90.688  36.319423     37.106      7.315   225.4280     6.2717     2.2062     0.0242      0.009      0.164      0.238        258 1.8833e+02 0.0000e+00
      0.169    23.9215     7.6477     90.712  36.352813     37.164      7.314   225.4280     6.2434     2.0853     0.0243      0.011      0.165      0.240        259 1.9068e+02 0.0000e+00
      0.168    23.9193     7.6432     90.658  36.324285     37.107      7.314   225.4280     6.2677     2.1927     0.0242      0.010      0.165      0.240        260 1.8774e+02 0.0000e+00
      0.168    23.9161     7.6460     90.682  36.414245     37.221      7.313   225.3523     6.3445     2.1122     0.0243      0.009      0.164      0.239        261 1.8994e+02 0.0000e+00
      0.166    23.9137     7.6470     90.686  36.507792     37.308      7.307   225.3523     6.3364     2.0450     0.0243      0.006      0.163      0.237        262 1.9214e+02 0.0000e+00
      0.165    23.9127     7.6449     90.659  36.534117     37.339      7.308   225.5794     6.3202     2.0719     0.0243      0.003      0.162      0.234        263 1.8970e+02 0.0000e+00
      0.163    23.9106     7.6439     90.644  36.589099     37.398      7.304   225.8066     6.3081     2.0987     0.0243      0.000      0.160      0.232        264 1.9230e+02 0.0000e+00
      0.163    23.9054     7.6403     90.596  36.528348     37.342      7.304   225.6173     6.1504     2.1390     0.0243     -0.002      0.160      0.232        265 1.9236e+02 0.0000e+00
      0.162    23.9003     7.6304     90.478  36.431768     37.229      7.298   225.6551     6.1342     2.1122     0.0243     -0.004      0.160      0.232        266 1.9067e+02 0.0000e+00
      0.164    23.8972     7.6145     90.290  36.383042     37.204      7.298   225.4280     6.1545     2.0853     0.0243     -0.003      0.161      0.233        267 1.9034e+02 0.0000e+00
      0.165    23.9012     7.6117     90.257  36.262740     37.065      7.297   225.6930     6.1504     2.1256     0.0242     -0.003      0.162      0.234        268 1.9064e+02 0.0000e+00
      0.166    23.9107     7.6048     90.182  36.255237     37.068      7.295   225.8444     6.3849     2.2733     0.0242     -0.001      0.163      0.236        269 1.8970e+02 0.0000e+00
      0.168    23.9113     7.6088     90.232  36.303404     37.122      7.293   225.9201     6.3890     2.2867     0.0242      0.001      0.165      0.239        270 1.8873e+02 0.0000e+00
      0.169    23.9058     7.6086     90.223  36.262111     37.057      7.292   225.7687     6.3890     2.3002     0.0242      0.003      0.166      0.241        271 1.8928e+02 0.0000e+00
      0.170    23.9016     7.6115     90.256  36.247301     37.057      7.293   225.9201     6.3688     2.1793     0.0242      0.004      0.167      0.242        272 1.8709e+02 0.0000e+00
      0.170    23.8997     7.6209     90.372  36.232857     37.032      7.292   226.0716     6.3162     2.1524     0.0242      0.004      0.167      0.242        273 1.8850e+02 0.0000e+00
      0.171    23.8984     7.6333     90.517  36.309750     37.122      7.292   226.0716     6.3000     2.1659     0.0242      0.005      0.168      0.243        274 1.8718e+02 0.0000e+00
      0.172    23.8952     7.6416     90.611  36.359225     37.180      7.293   226.1851     6.3122     2.2196     0.0243      0.004      0.168      0.243        275 1.8674e+02 0.0000e+00
      0.170    23.8946     7.6430     90.631  36.378899     37.181      7.291   226.3366     6.3485     2.0987     0.0243      0.003      0.168      0.243        276 1.8795e+02 0.0000e+00
      0.171    23.8948     7.6437     90.639  36.403902     37.241      7.289   226.5258     6.5022     2.1659     0.0243      0.002      0.168      0.243        277 1.8545e+02 0.0000e+00
      0.171    23.8954     7.6440     90.644  36.328110     37.127      7.290   226.3366     6.5305     2.1390     0.0242      0.001      0.168      0.243        278 1.8797e+02 0.0000e+00
      0.172    23.8993     7.6396     90.600  36.324926     37.155      7.287   227.0558     6.5588     2.1122     0.0242      0.001      0.169      0.244        279 1.8664e+02 0.0000e+00
      0.172    23.9000     7.6310     90.507  36.318887     37.126      7.289   226.7530     6.5467     2.1256     0.0242      0.001      0.169      0.245        280 1.8642e+02 0.0000e+00
      0.172    23.8966     7.6328     90.532  36.305966     37.123      7.291   226.9801     6.4941     2.1390     0.0242      0.001      0.169      0.245        281 1.8711e+02 0.0000e+00
      0.172    23.8962     7.6314     90.518  36.311348     37.123      7.290   226.8287     6.5871     2.1122     0.0242      0.001      0.169      0.244        282 1.8741e+02 0.0000e+00
      0.172    23.8985     7.6363     90.578  36.312190     37.125      7.289   226.9423     6.5912     2.1524     0.0242      0.001      0.169      0.244        283 1.8764e+02 0.0000e+00
      0.172    23.8969     7.6365     90.584  36.334576     37.154      7.290   227.0180     6.5790     2.1793     0.0242      0.001      0.169      0.244        284 1.8658e+02 0.0000e+00
      0.173    23.8950     7.6297     90.508  36.313148     37.124      7.290   226.9044     6.5790     2.1390     0.0242      0.001      0.169      0.245        285 1.8699e+02 0.0000e+00
      0.173    23.8968     7.6236     90.442  36.249881     37.068      7.290   226.8287     6.2070     2.3539     0.0242      0.000      0.169      0.245        286 1.8548e+02 0.0000e+00
      0.173    23.8968     7.6264     90.480  36.205699     37.012      7.290   226.8287     6.2070     2.2464     0.0242      0.000      0.170      0.246        287 1.8455e+02 0.0000e+00
      0.173    23.8971     7.6324     90.557  36.190180     37.011      7.290   226.4123     6.2232     2.4076     0.0242      0.001      0.170      0.246        288 1.8711e+02 0.0000e+00
      0.174    23.9026     7.6339     90.575  36.209875     37.011      7.290   226.1473     6.2272     2.3807     0.0242      0.001      0.170      0.247        289 1.8628e+02 0.0000e+00
      0.174    23.9077     7.6403     90.644  36.210845     37.039      7.290   226.3366     6.2070     2.1927     0.0242      0.001      0.170      0.247        290 1.8500e+02 0.0000e+00
      0.173    23.9099     7.6401     90.639  36.218631     37.006      7.291   226.3366     6.2070     2.0987     0.0242      0.001      0.170      0.246        291 1.8671e+02 0.0000e+00
      0.173    23.9110     7.6362     90.589  36.289161     37.117      7.287   226.7530     6.2192     2.0450     0.0242      0.001      0.170      0.246        292 1.8755e+02 0.0000e+00
      0.173    23.9124     7.6298     90.506  36.271365     37.058      7.283   226.7908     6.2192     2.1122     0.0242      0.000      0.170      0.246        293 1.8408e+02 0.0000e+00
      0.174    23.9147     7.6244     90.434  36.181459     37.000      7.283   226.6773     6.3930     2.1256     0.0242      0.000      0.171      0.247        294 1.8584e+02 0.0000e+00
      0.175    23.9176     7.6239     90.414  36.134116     36.913      7.276   227.2451     6.3728     2.1256     0.0241      0.000      0.171      0.248        295 1.8485e+02 0.0000e+00
      0.175    23.9208     7.6306     90.478  36.152329     36.969      7.274   227.3587     6.4052     2.0987     0.0242      0.001      0.172      0.249        296 1.8304e+02 0.0000e+00
      0.176    23.9240     7.6434     90.624  36.129134     36.909      7.271   227.3587     6.3526     2.2464     0.0241      0.001      0.173      0.250        297 1.8461e+02 0.0000e+00
      0.177    23.9274     7.6539     90.774  36.103662     36.907      7.267   227.2830     6.3809     2.0853     0.0241      0.002      0.174      0.252        298 1.8235e+02 0.0000e+00
      0.178    23.9272     7.6631     90.914  36.124709     36.905      7.264   227.4723     6.3971     2.0719     0.0241      0.003      0.175      0.253        299 1.8461e+02 0.0000e+00
      0.178    23.9236     7.6739     91.057  36.191917     36.988      7.263   227.2830     6.3849     2.1256     0.0242      0.003      0.175      0.253        300 1.8219e+02 0.0000e+00
      0.177    23.9218     7.6765     91.097  36.168316     36.959      7.261   227.4723     6.3728     2.1122     0.0242      0.002      0.174      0.252        301 1.8456e+02 0.0000e+00
      0.176    23.9196     7.6789     91.130  36.124422     36.905      7.256   227.6994     6.3769     2.2599     0.0241      0.002      0.173      0.251        302 1.8453e+02 0.0000e+00
      0.176    23.9158     7.6756     91.097  36.187226     36.992      7.251   227.5101     6.4779     2.1390     0.0242      0.001      0.172      0.250        303 1.8355e+02 0.0000e+00
      0.176    23.9106     7.6715     91.051  36.208793     36.993      7.248   227.9266     6.4496     2.1122     0.0242     -0.000      0.172      0.249        304 1.8683e+02 0.0000e+00
      0.174    23.9030     7.6580     90.895  36.186560     36.997      7.242   228.4187     6.4618     2.2196     0.0242     -0.001      0.171      0.247        305 1.8690e+02 0.0000e+00
      0.172    23.8930     7.6364     90.641  36.125920     36.915      7.228   228.6837     6.4416     2.2464     0.0241     -0.003      0.170      0.246        306 1.8625e+02 0.0000e+00
      0.172    23.8903     7.6163     90.401  36.106309     36.921      7.195   226.8287     6.2717     2.1659     0.0241     -0.003      0.170      0.246        307 1.8562e+02 0.0000e+00
      0.175    23.9050     7.5986     90.190  36.121995     36.928      7.151   228.9109     6.3122     2.1390     0.0241     -0.002      0.172      0.250        308 1.8325e+02 0.0000e+00
      0.179    23.9227     7.5889     90.051  36.106403     36.930      7.131   229.9330     6.2717     2.1122     0.0242     -0.000      0.176      0.256        309 1.8039e+02 0.0000e+00
      0.185    23.9318     7.5878     90.006  36.007078     36.805      7.133   229.9709     6.2758     2.2599     0.0241      0.003      0.181      0.262        310 1.7701e+02 0.0000e+00
      0.189    23.9369     7.5883     90.000  35.949012     36.734      7.154   231.2959     6.1221     2.1390     0.0241      0.006      0.186      0.269        311 1.7310e+02 0.0000e+00
      0.194    23.9404     7.5865     89.985  35.941390     36.727      7.183   231.4473     6.1787     2.1927     0.0241      0.010      0.192      0.277        312 1.7068e+02 0.0000e+00
      0.202    23.9433     7.5930     90.080  35.868266     36.638      7.218   229.9330     6.1383     2.1659     0.0240      0.014      0.197      0.286        313 1.6526e+02 0.0000e+00
      0.207    23.9450     7.6019     90.191  35.832403     36.607      7.241   229.0244     6.1545     2.1659     0.0240      0.018      0.202      0.292        314 1.6403e+02 0.0000e+00
      0.208    23.9476     7.6164     90.348  35.837729     36.604      7.251   219.8630     6.2839     2.1122     0.0240      0.019      0.204      0.295        315 1.6451e+02 0.0000e+00
      0.209    23.9486     7.6366     90.578  35.831978     36.603      7.250   225.2766     6.2798     2.2196     0.0240      0.018      0.205      0.298        316 1.6341e+02 0.0000e+00
      0.211    23.9483     7.6486     90.729  35.839558     36.601      7.244   228.8730     6.2879     2.2464     0.0240      0.016      0.206      0.299        317 1.6146e+02 0.0000e+00
      0.211    23.9470     7.6612     90.889  35.917270     36.686      7.221   227.9266     6.2758     2.1659     0.0241      0.013      0.206      0.297        318 1.6424e+02 0.0000e+00
      0.206    23.9333     7.6627     90.911  36.002191     36.772      7.213   218.8408     6.3324     2.3136     0.0241      0.009      0.201      0.291        319 1.6640e+02 0.0000e+00
      0.198    23.9147     7.6671     90.954  36.060117     36.830      7.215   228.3809     6.3202     2.3270     0.0241      0.003      0.193      0.279        320 1.7237e+02 0.0000e+00
      0.185    23.9073     7.6653     90.935  35.993476     36.783      7.223   217.5537     6.3405     2.3404     0.0241     -0.006      0.178      0.258        321 1.7977e+02 0.0000e+00
      0.160    23.9114     7.6598     90.891  35.847863     36.626      7.255   216.4937     6.3647     2.2464     0.0240     -0.018      0.156      0.227        322 1.9408e+02 0.0000e+00
      0.133    23.9212     7.6571     90.892  35.766803     36.574      7.284   219.9008     6.3202     2.2867     0.0240     -0.033      0.128      0.187        323 2.0211e+02 0.0000e+00
      0.099    23.9243     7.6536     90.861  35.649484     36.429      7.302   215.6230     5.8188     1.8436     0.0239     -0.052      0.095      0.138        324 2.3378e+02 0.0000e+00
      0.058    23.9160     7.6620     90.963  35.578652     36.364      7.312   214.5251     5.8310     1.9242     0.0239     -0.074      0.054      0.078        325 3.2430e+02 0.0000e+00
      0.006    23.9108     7.6652     91.004  35.528712     36.304      7.319   213.5030     5.8431     1.9510     0.0239     -0.099      0.006      0.009        326 3.4227e+02 0.0000e+00
     -0.046    23.9154     7.6602     90.943  35.474368     36.254      7.326   212.7458     5.8269     1.9107     0.0239     -0.124     -0.039     -0.056        327 3.1909e+02 0.0000e+00
     -0.078    23.9222     7.6432     90.741  35.468337     36.258      7.328   212.9351     5.8148     2.1659     0.0239     -0.143     -0.074     -0.106        328 3.4662e+02 0.0000e+00
     -0.102    23.9234     7.6307     90.597  35.476905     36.254      7.330   212.8594     5.8188     2.1390     0.0239     -0.151     -0.104     -0.150        329 3.7383e+02 0.0000e+00
     -0.142    23.9194     7.6187     90.465  35.523019     36.306      7.333   227.2451     5.8431     2.1927     0.0239     -0.155     -0.137     -0.198        330 3.7665e+02 0.0000e+00
     -0.175    23.9198     7.6064     90.336  35.529577     36.305      7.333   232.9994     5.8269     2.1390     0.0239     -0.154     -0.163     -0.236        331 3.7277e+02 0.0000e+00
     -0.179    23.9333     7.5972     90.245  35.528059     36.309      7.337   233.1509     5.9199     2.1659     0.0239     -0.141     -0.171     -0.247        332 3.8081e+02 0.0000e+00
     -0.169    23.9512     7.5938     90.217  35.524907     36.308      7.328   233.7187     5.8957     2.1122     0.0239     -0.117     -0.166     -0.241        333 3.7898e+02 0.0000e+00
     -0.163    23.9581     7.6002     90.296  35.533497     36.298      7.316   233.8323     5.8916     2.1122     0.0239     -0.086     -0.158     -0.229        334 3.7574e+02 0.0000e+00
     -0.151    23.9596     7.6106     90.422  35.576680     36.341      7.307   232.5830     5.9159     2.0987     0.0239     -0.055     -0.148     -0.215        335 3.7827e+02 0.0000e+00
     -0.139    23.9613     7.6205     90.539  35.530477     36.280      7.305   217.7051     5.7905     2.2464     0.0239     -0.028     -0.138     -0.200        336 3.7524e+02 0.0000e+00
     -0.131    23.9605     7.6296     90.644  35.472362     36.221      7.305   216.3422     5.7703     2.2464     0.0239     -0.003     -0.131     -0.189        337 3.7406e+02 0.0000e+00
     -0.128    23.9603     7.6320     90.671  35.471056     36.220      7.308   214.8658     5.7744     2.2196     0.0239      0.019     -0.126     -0.183        338 3.7331e+02 0.0000e+00
     -0.126    23.9629     7.6403     90.770  35.532102     36.278      7.309   214.6387     5.7582     2.3539     0.0239      0.029     -0.124     -0.179        339 3.7135e+02 0.0000e+00
     -0.124    23.9692     7.6450     90.826  35.515021     36.278      7.309   213.8437     5.8593     2.1390     0.0239      0.028     -0.122     -0.177        340 3.7109e+02 0.0000e+00
     -0.122    23.9794     7.6549     90.944  35.432997     36.162      7.312   213.6544     5.8188     2.2464     0.0239      0.024     -0.119     -0.173        341 3.7088e+02 0.0000e+00
     -0.119    23.9900     7.6678     91.097  35.456232     36.214      7.315   213.4272     5.8593     2.1793     0.0239      0.019     -0.115     -0.168        342 3.6965e+02 0.0000e+00
     -0.112    23.9967     7.6822     91.266  35.426787     36.149      7.319   212.9351     5.8107     2.0584     0.0239      0.016     -0.110     -0.160        343 3.6758e+02 0.0000e+00
     -0.106    23.9994     7.6907     91.364  35.410321     36.142      7.321   212.8972     5.8350     2.1927     0.0239      0.014     -0.105     -0.153        344 3.6555e+02 0.0000e+00
     -0.104    24.0003     7.6959     91.425  35.476719     36.194      7.315   212.7079     5.8916     2.3941     0.0239      0.014     -0.102     -0.149        345 3.6481e+02 0.0000e+00
     -0.104    24.0001     7.6962     91.428  35.462783     36.192      7.311   212.7458     5.8916     2.3002     0.0239      0.014     -0.101     -0.147        346 3.6486e+02 0.0000e+00
     -0.102    23.9983     7.6967     91.435  35.427664     36.134      7.306   212.5187     5.9037     2.2867     0.0239      0.014     -0.099     -0.143        347 3.6331e+02 0.0000e+00
     -0.097    23.9972     7.6852     91.300  35.461108     36.191      7.308   212.9351     5.8916     2.3270     0.0239      0.014     -0.096     -0.138        348 3.6147e+02 0.0000e+00
     -0.094    23.9977     7.6697     91.117  35.480476     36.193      7.312   212.7458     5.9482     2.1793     0.0239      0.013     -0.093     -0.135        349 3.6087e+02 0.0000e+00
     -0.093    23.9982     7.6491     90.871  35.462877     36.194      7.312   212.6322     5.9968     2.0450     0.0239      0.011     -0.091     -0.133        350 3.5979e+02 0.0000e+00
     -0.092    23.9983     7.6299     90.644  35.483011     36.193      7.316   212.4429     5.9563     2.1390     0.0239      0.009     -0.090     -0.130        351 3.5891e+02 0.0000e+00
     -0.090    23.9979     7.6076     90.381  35.514735     36.250      7.319   212.8215     5.9927     2.1390     0.0239      0.008     -0.087     -0.127        352 3.5857e+02 0.0000e+00
     -0.086    23.9963     7.5990     90.279  35.482712     36.193      7.320   212.8594     6.0776     2.0853     0.0239      0.009     -0.085     -0.123        353 3.5790e+02 0.0000e+00
     -0.085    23.9950     7.6075     90.383  35.463547     36.193      7.319   213.2380     6.0574     2.1256     0.0239      0.009     -0.083     -0.121        354 3.5742e+02 0.0000e+00
     -0.085    23.9943     7.6222     90.561  35.479270     36.194      7.323   213.0108     6.0938     2.2330     0.0239      0.008     -0.083     -0.121        355 3.5726e+02 0.0000e+00
     -0.084    23.9939     7.6473     90.859  35.463146     36.195      7.323   212.8215     6.0938     2.2464     0.0239      0.007     -0.083     -0.120        356 3.5729e+02 0.0000e+00
     -0.084    23.9949     7.6688     91.112  35.483614     36.196      7.325   213.0108     5.9927     2.0719     0.0239      0.006     -0.082     -0.119        357 3.5772e+02 0.0000e+00
     -0.083    23.9959     7.6810     91.253  35.513113     36.253      7.326   213.2758     6.0291     2.1793     0.0239      0.005     -0.082     -0.119        358 3.5705e+02 0.0000e+00
     -0.083    23.9960     7.6906     91.363  35.485750     36.195      7.325   213.2380     6.0412     2.0719     0.0239      0.004     -0.082     -0.119        359 3.5622e+02 0.0000e+00
     -0.083    23.9958     7.6952     91.418  35.458351     36.194      7.326   213.3515     6.0170     2.1390     0.0239      0.002     -0.082     -0.118        360 3.5644e+02 0.0000e+00
     -0.082    23.9963     7.6924     91.385  35.487895     36.194      7.329   213.1622     6.0251     2.2733     0.0239      0.001     -0.081     -0.117        361 3.5539e+02 0.0000e+00
     -0.080    23.9973     7.6804     91.244  35.508299     36.252      7.327   213.4651     6.0089     2.2464     0.0239      0.002     -0.078     -0.114        362 3.5378e+02 0.0000e+00
     -0.076    23.9976     7.6653     91.066  35.492274     36.194      7.328   213.5787     6.0048     2.4210     0.0239      0.003     -0.075     -0.109        363 3.5297e+02 0.0000e+00
     -0.074    23.9993     7.6577     90.979  35.507838     36.250      7.331   213.4272     6.0008     2.2062     0.0239      0.005     -0.072     -0.105        364 3.5287e+02 0.0000e+00
     -0.071    24.0014     7.6482     90.868  35.488932     36.193      7.325   213.6544     6.0089     2.1927     0.0239      0.006     -0.070     -0.101        365 3.5292e+02 0.0000e+00
     -0.070    24.0011     7.6440     90.819  35.456486     36.192      7.327   214.1465     6.0008     2.0450     0.0239      0.008     -0.068     -0.099        366 3.5219e+02 0.0000e+00
     -0.069    23.9999     7.6382     90.751  35.488897     36.190      7.324   213.5408     6.0251     2.1390     0.0239      0.008     -0.068     -0.098        367 3.5092e+02 0.0000e+00
     -0.068    23.9973     7.6305     90.662  35.507911     36.248      7.322   213.6922     6.0170     2.2196     0.0239      0.008     -0.067     -0.097        368 3.5058e+02 0.0000e+00
     -0.067    23.9950     7.6238     90.585  35.492141     36.191      7.322   213.9572     6.0008     2.1659     0.0239      0.008     -0.065     -0.095        369 3.5067e+02 0.0000e+00
     -0.066    23.9952     7.6271     90.627  35.508525     36.250      7.320   213.9951     6.1342     2.1256     0.0239      0.006     -0.064     -0.093        370 3.4856e+02 0.0000e+00
     -0.063    23.9959     7.6361     90.739  35.487522     36.195      7.319   214.0708     6.1545     2.1659     0.0239      0.006     -0.061     -0.089        371 3.4700e+02 0.0000e+00
     -0.059    23.9965     7.6352     90.730  35.458963     36.195      7.319   214.0708     6.1585     2.1390     0.0239      0.006     -0.058     -0.084        372 3.4609e+02 0.0000e+00
     -0.055    23.9975     7.6356     90.737  35.484749     36.195      7.319   213.9572     6.1464     2.2733     0.0239      0.007     -0.054     -0.078        373 3.4363e+02 0.0000e+00
     -0.050    23.9991     7.6272     90.639  35.514748     36.251      7.318   214.3358     6.3930     2.3136     0.0239      0.009     -0.049     -0.071        374 3.4165e+02 0.0000e+00
     -0.045    24.0003     7.6269     90.637  35.480947     36.193      7.321   214.7522     6.3890     2.2733     0.0239      0.012     -0.044     -0.064        375 3.3985e+02 0.0000e+00
     -0.041    24.0006     7.6339     90.721  35.467498     36.192      7.323   214.6387     6.4132     2.1793     0.0239      0.014     -0.040     -0.058        376 3.3823e+02 0.0000e+00
     -0.036    24.0012     7.6430     90.829  35.472169     36.191      7.322   214.7901     6.3849     2.2196     0.0239      0.016     -0.035     -0.051        377 3.3506e+02 0.0000e+00
     -0.029    24.0027     7.6426     90.824  35.475133     36.191      7.322   214.5630     6.3849     2.2196     0.0239      0.018     -0.028     -0.041        378 3.3200e+02 0.0000e+00
     -0.022    24.0041     7.6419     90.815  35.463809     36.191      7.322   214.5630     6.4052     2.3404     0.0239      0.020     -0.021     -0.031        379 3.2698e+02 0.0000e+00
     -0.014    24.0059     7.6360     90.743  35.426946     36.132      7.323   214.7901     6.3971     2.2196     0.0239      0.022     -0.013     -0.019        380 3.2505e+02 0.0000e+00
     -0.004    24.0085     7.6261     90.625  35.402377     36.131      7.325   215.3201     6.4052     2.2867     0.0239      0.024     -0.004     -0.006        381 3.1995e+02 0.0000e+00
      0.005    24.0101     7.6182     90.530  35.375754     36.073      7.324   215.6230     6.3041     2.4613     0.0238      0.027      0.005      0.007        382 3.2190e+02 0.0000e+00
      0.013    24.0114     7.6063     90.388  35.400763     36.128      7.325   216.5694     6.3324     2.5419     0.0239      0.029      0.013      0.020        383 3.1389e+02 0.0000e+00
      0.023    24.0126     7.5881     90.173  35.430567     36.127      7.324   216.3422     6.3202     2.5284     0.0239      0.032      0.022      0.033        384 2.7511e+02 0.0000e+00
      0.031    24.0134     7.5695     89.954  35.397975     36.126      7.323   217.4401     6.3283     2.4210     0.0239      0.034      0.031      0.045        385 2.5839e+02 0.0000e+00
      0.041    24.0138     7.5571     89.807  35.382007     36.068      7.320   216.9858     6.3405     2.3270     0.0238      0.035      0.041      0.059        386 2.5466e+02 0.0000e+00
      0.054    24.0138     7.5571     89.807  35.450440     36.181      7.321   217.4022     6.3243     2.1122     0.0239      0.036      0.053      0.077        387 2.4056e+02 0.0000e+00
      0.069    24.0135     7.5628     89.875  35.431443     36.124      7.318   217.1372     6.3405     2.1390     0.0239      0.039      0.067      0.097        388 2.2500e+02 0.0000e+00
      0.083    24.0129     7.5679     89.935  35.405649     36.124      7.315   218.5758     6.3283     2.1659     0.0239      0.042      0.081      0.117        389 2.1771e+02 0.0000e+00
      0.094    24.0118     7.5677     89.932  35.423225     36.124      7.313   224.2923     6.3243     2.1524     0.0239      0.045      0.094      0.135        390 2.1095e+02 0.0000e+00
      0.109    24.0114     7.5728     89.992  35.409570     36.125      7.313   220.6580     6.5871     2.1390     0.0239      0.048      0.107      0.154        391 2.0250e+02 0.0000e+00
      0.122    24.0111     7.5783     90.058  35.422643     36.126      7.308   218.7651     6.5912     2.2062     0.0239      0.050      0.119      0.173        392 1.9655e+02 0.0000e+00
      0.134    24.0105     7.5769     90.043  35.466272     36.183      7.308   238.1859     6.5709     2.2196     0.0239      0.052      0.131      0.191        393 1.9021e+02 0.0000e+00
      0.146    24.0113     7.5716     89.979  35.473905     36.183      7.305   221.4530     6.5831     2.1390     0.0239      0.052      0.143      0.208        394 1.8822e+02 0.0000e+00
      0.158    24.0124     7.5668     89.922  35.413144     36.127      7.303   220.5444     6.4456     2.1659     0.0239      0.051      0.155      0.225        395 1.7955e+02 0.0000e+00
      0.170    24.0129     7.5618     89.861  35.363943     36.069      7.301   219.7873     6.4456     2.0719     0.0238      0.050      0.167      0.242        396 1.7564e+02 0.0000e+00
      0.182    24.0128     7.5570     89.804  35.416503     36.125      7.301   219.6737     6.4699     2.1390     0.0239      0.049      0.179      0.259        397 1.7223e+02 0.0000e+00
      0.194    24.0126     7.5587     89.824  35.407047     36.125      7.298   220.6580     6.4537     2.1390     0.0239      0.048      0.191      0.277        398 1.6440e+02 0.0000e+00
      0.207    24.0125     7.5649     89.899  35.375711     36.068      7.301   219.9008     6.4496     2.2330     0.0238      0.048      0.205      0.297        399 1.5928e+02 0.0000e+00
      0.224    24.0123     7.5671     89.925  35.396185     36.125      7.300   219.3330     6.4416     2.2062     0.0239      0.049      0.220      0.320        400 1.5183e+02 0.0000e+00
      0.242    24.0123     7.5748     90.016  35.381567     36.068      7.295   219.1058     6.4294     2.2330     0.0238      0.052      0.236      0.342        401 1.4698e+02 0.0000e+00
      0.254    24.0126     7.5746     90.012  35.393904     36.125      7.284   218.3865     6.4699     2.3136     0.0239      0.054      0.248      0.360        402 1.4347e+02 0.0000e+00
      0.262    24.0128     7.5736     89.999  35.380834     36.068      7.273   219.0301     6.3081     2.2599     0.0238      0.054      0.256      0.372        403 1.4271e+02 0.0000e+00
      0.266    24.0129     7.5683     89.935  35.397833     36.125      7.260   218.4623     6.3243     2.3136     0.0239      0.051      0.263      0.382        404 1.4132e+02 0.0000e+00
      0.278    24.0123     7.5654     89.898  35.372748     36.068      7.259   217.6294     6.3405     2.1927     0.0238      0.048      0.276      0.400        405 1.3446e+02 0.0000e+00
      0.303    24.0117     7.5718     89.973  35.412053     36.125      7.254   218.0837     6.3566     2.2464     0.0239      0.049      0.295      0.427        406 1.3116e+02 0.0000e+00
      0.319    24.0115     7.5773     90.040  35.467551     36.182      7.238   217.9701     6.5993     2.2330     0.0239      0.050      0.311      0.450        407 1.2966e+02 0.0000e+00
      0.329    24.0118     7.5885     90.173  35.422312     36.126      7.228   217.7430     6.5993     2.2733     0.0239      0.050      0.322      0.467        408 1.2720e+02 0.0000e+00
      0.340    24.0124     7.6016     90.328  35.409037     36.126      7.234   218.1215     6.5952     2.2733     0.0239      0.050      0.332      0.482        409 1.2497e+02 0.0000e+00
      0.348    24.0122     7.6126     90.460  35.424757     36.126      7.234   218.7273     6.5709     2.3136     0.0239      0.051      0.339      0.492        410 1.2339e+02 0.0000e+00
      0.349    24.0117     7.6226     90.578  35.402748     36.125      7.231   218.7273     6.5912     2.2196     0.0239      0.049      0.341      0.495        411 1.2264e+02 0.0000e+00
      0.348    24.0114     7.6390     90.772  35.377110     36.068      7.231   218.6515     6.5103     2.1122     0.0238      0.043      0.341      0.495        412 1.2273e+02 0.0000e+00
      0.346    24.0108     7.6356     90.732  35.397347     36.126      7.233   218.7273     6.5143     2.1524     0.0239      0.032      0.340      0.493        413 1.2350e+02 0.0000e+00
      0.346    24.0098     7.6257     90.615  35.377564     36.069      7.240   218.9544     6.5103     2.1524     0.0238      0.020      0.340      0.493        414 1.2437e+02 0.0000e+00
      0.349    24.0087     7.6153     90.491  35.401731     36.126      7.249   218.6894     6.5103     2.0719     0.0239      0.012      0.343      0.497        415 1.2496e+02 0.0000e+00
      0.354    24.0079     7.6130     90.462  35.426587     36.127      7.264   218.9165     6.3324     2.1927     0.0239      0.008      0.348      0.504        416 1.2472e+02 0.0000e+00
      0.361    24.0085     7.6108     90.435  35.405945     36.128      7.275   219.1815     6.3202     2.1659     0.0239      0.006      0.355      0.514        417 1.2330e+02 0.0000e+00
      0.371    24.0089     7.6118     90.443  35.368105     36.072      7.289   219.2951     6.3647     2.0316     0.0238      0.009      0.363      0.526        418 1.1930e+02 0.0000e+00
      0.378    24.0086     7.6231     90.575  35.355050     36.071      7.294   220.0901     6.3243     2.1390     0.0238      0.015      0.370      0.536        419 1.1743e+02 0.0000e+00
      0.381    24.0085     7.6289     90.642  35.422192     36.128      7.296   219.7115     6.4052     2.1390     0.0239      0.019      0.373      0.541        420 1.1600e+02 0.0000e+00
      0.383    24.0084     7.6339     90.701  35.462493     36.185      7.299   220.2415     6.3890     2.1390     0.0239      0.022      0.376      0.546        421 1.1328e+02 0.0000e+00
      0.387    24.0082     7.6372     90.740  35.423526     36.128      7.299   219.7873     6.4092     2.1793     0.0239      0.022      0.381      0.552        422 1.1301e+02 0.0000e+00
      0.393    24.0085     7.6423     90.801  35.411370     36.128      7.300   220.4687     6.3971     2.1524     0.0239      0.022      0.387      0.560        423 1.1249e+02 0.0000e+00
      0.400    24.0089     7.6425     90.805  35.418307     36.128      7.307   220.7337     6.3081     2.0987     0.0239      0.021      0.394      0.570        424 1.1198e+02 0.0000e+00
      0.410    24.0084     7.6378     90.747  35.474210     36.185      7.312   221.2258     6.3324     2.1524     0.0239      0.021      0.402      0.582        425 1.1095e+02 0.0000e+00
      0.418    24.0077     7.6371     90.738  35.460429     36.185      7.314   221.2637     6.3364     2.1927     0.0239      0.022      0.408      0.592        426 1.0935e+02 0.0000e+00
      0.422    24.0066     7.6250     90.596  35.435457     36.128      7.314   221.6801     6.3364     2.1256     0.0239      0.023      0.413      0.599        427 1.0810e+02 0.0000e+00
      0.425    24.0045     7.6196     90.535  35.445973     36.186      7.310   221.9451     6.3809     2.2599     0.0239      0.024      0.416      0.603        428 1.0658e+02 0.0000e+00
      0.426    24.0030     7.6182     90.521  35.388025     36.072      7.310   221.8694     6.3809     2.1659     0.0238      0.023      0.418      0.607        429 1.0543e+02 0.0000e+00
      0.429    24.0022     7.6180     90.521  35.388942     36.131      7.312   222.2858     6.4092     2.2599     0.0239      0.021      0.422      0.612        430 1.0362e+02 0.0000e+00
      0.437    24.0017     7.6162     90.501  35.385519     36.075      7.319   222.5130     6.4092     2.3404     0.0238      0.020      0.429      0.622        431 1.0160e+02 0.0000e+00
      0.447    24.0014     7.6097     90.423  35.451602     36.190      7.319   222.6265     6.3728     2.3002     0.0239      0.019      0.439      0.636        432 1.0028e+02 0.0000e+00
      0.458    24.0019     7.5953     90.252  35.425334     36.133      7.319   222.6644     6.3728     2.1659     0.0239      0.020      0.449      0.651        433 9.8414e+01 0.0000e+00
      0.469    24.0025     7.5828     90.103  35.418209     36.133      7.322   222.8537     6.3971     2.2464     0.0239      0.024      0.459      0.665        434 9.6431e+01 0.0000e+00
      0.476    24.0018     7.5725     89.981  35.460470     36.190      7.319   223.4973     6.4092     2.2733     0.0239      0.028      0.466      0.676        435 9.4958e+01 0.0000e+00
      0.479    24.0013     7.5710     89.963  35.432056     36.132      7.316   223.6487     6.3809     2.3136     0.0239      0.031      0.469      0.681        436 9.2835e+01 0.0000e+00
      0.480    24.0024     7.5811     90.083  35.453569     36.190      7.312   223.6866     6.3162     2.0584     0.0239      0.031      0.471      0.684        437 9.1361e+01 0.0000e+00
      0.482    24.0042     7.5978     90.281  35.433699     36.133      7.313   223.3837     6.3243     2.0719     0.0239      0.028      0.475      0.690        438 8.9428e+01 0.0000e+00
      0.493    24.0057     7.6054     90.371  35.456785     36.190      7.313   223.5730     6.3243     2.0450     0.0239      0.025      0.485      0.704        439 8.7360e+01 0.0000e+00
      0.509    24.0072     7.6155     90.492  35.424836     36.131      7.315   223.8001     6.3607     2.1927     0.0239      0.025      0.499      0.724        440 8.5920e+01 0.0000e+00
      0.525    24.0078     7.6217     90.565  35.414141     36.130      7.315   224.2166     6.2879     2.1659     0.0239      0.028      0.514      0.745        441 8.4277e+01 0.0000e+00
      0.538    24.0076     7.6316     90.684  35.410780     36.129      7.312   224.4058     6.2596     2.1524     0.0239      0.032      0.527      0.764        442 8.3055e+01 0.0000e+00
      0.550    24.0075     7.6406     90.789  35.429019     36.129      7.308   224.9737     6.2596     2.1524     0.0239      0.038      0.538      0.781        443 8.1812e+01 0.0000e+00
      0.558    24.0074     7.6382     90.761  35.450758     36.186      7.303   224.6708     6.2596     2.1122     0.0239      0.044      0.547      0.794        444 8.0536e+01 0.0000e+00
      0.567    24.0074     7.6328     90.695  35.383728     36.072      7.296   225.2008     6.7206     2.2733     0.0238      0.047      0.556      0.807        445 7.9269e+01 0.0000e+00
      0.578    24.0073     7.6202     90.544  35.393807     36.129      7.293   225.4280     6.7408     2.3136     0.0239      0.047      0.565      0.820        446 7.8276e+01 0.0000e+00
      0.585    24.0073     7.6083     90.401  35.438214     36.129      7.289   225.0116     6.7246     2.2196     0.0239      0.044      0.574      0.831        447 7.7418e+01 0.0000e+00
      0.592    24.0073     7.5910     90.195  35.447095     36.186      7.284   225.5037     6.7246     2.2464     0.0239      0.040      0.581      0.841        448 7.6793e+01 0.0000e+00
      0.597    24.0071     7.5698     89.945  35.442070     36.129      7.279   225.9958     6.3485     2.1390     0.0239      0.036      0.586      0.850        449 7.6397e+01 0.0000e+00
      0.602    24.0071     7.5649     89.888  35.444466     36.186      7.273   225.2387     6.3202     2.2196     0.0239      0.032      0.592      0.859        450 7.5859e+01 0.0000e+00
      0.611    24.0071     7.5701     89.949  35.384799     36.072      7.275   225.8444     6.3405     2.1927     0.0238      0.030      0.599      0.870        451 7.5128e+01 0.0000e+00
      0.620    24.0073     7.5783     90.045  35.457011     36.186      7.279   225.5794     6.3041     2.0987     0.0239      0.029      0.609      0.884        452 7.4452e+01 0.0000e+00
      0.632    24.0069     7.5979     90.279  35.473229     36.186      7.287   225.7687     6.3283     2.1927     0.0239      0.030      0.620      0.900        453 7.3784e+01 0.0000e+00
      0.645    24.0066     7.6123     90.451  35.423930     36.129      7.293   226.1473     6.2434     2.1793     0.0239      0.031      0.632      0.916        454 7.3170e+01 0.0000e+00
      0.655    24.0061     7.6301     90.663  35.459048     36.186      7.295   226.3366     6.2515     2.1524     0.0239      0.034      0.642      0.930        455 7.2838e+01 0.0000e+00
      0.661    24.0051     7.6446     90.838  35.429526     36.129      7.291   226.7530     6.1989     2.1390     0.0239      0.036      0.647      0.938        456 7.2696e+01 0.0000e+00
      0.661    24.0043     7.6499     90.903  35.460669     36.187      7.282   226.6016     6.1949     2.1659     0.0239      0.035      0.649      0.941        457 7.2306e+01 0.0000e+00
      0.663    24.0040     7.6444     90.836  35.479606     36.188      7.269   226.5258     6.3122     2.3673     0.0239      0.032      0.651      0.944        458 7.1755e+01 0.0000e+00
      0.667    24.0050     7.6407     90.791  35.465275     36.188      7.268   226.5637     6.3364     2.3002     0.0239      0.028      0.655      0.951        459 7.1174e+01 0.0000e+00
      0.675    24.0062     7.6479     90.877  35.478506     36.189      7.268   226.5258     6.3405     2.1793     0.0239      0.024      0.662      0.961        460 7.0167e+01 0.0000e+00
      0.684    24.0057     7.6564     90.978  35.522456     36.245      7.273   226.8287     6.3324     2.3136     0.0239      0.021      0.671      0.973        461 6.9200e+01 0.0000e+00
      0.693    24.0046     7.6586     91.005  35.529209     36.244      7.276   226.7530     6.4496     2.1390     0.0239      0.020      0.679      0.984        462 6.8527e+01 0.0000e+00
      0.699    24.0051     7.6485     90.884  35.529417     36.244      7.284   226.8287     6.4577     2.1793     0.0239      0.022      0.685      0.993        463 6.7728e+01 0.0000e+00
      0.703    24.0057     7.6393     90.774  35.522198     36.245      7.285   227.5480     6.4860     2.1256     0.0239      0.024      0.689      0.999        464 6.7189e+01 0.0000e+00
      0.705    24.0064     7.6228     90.578  35.478879     36.188      7.282   227.3966     6.4375     2.1122     0.0239      0.025      0.692      1.004        465 6.6515e+01 0.0000e+00
      0.709    24.0079     7.6061     90.379  35.524012     36.244      7.279   227.1316     6.2070     2.1256     0.0239      0.024      0.695      1.009        466 6.5733e+01 0.0000e+00
      0.714    24.0083     7.5939     90.236  35.584661     36.301      7.277   227.7373     6.1949     2.1793     0.0239      0.022      0.700      1.015        467 6.5336e+01 0.0000e+00
      0.718    24.0077     7.5945     90.243  35.522033     36.243      7.276   227.3966     6.2151     2.1659     0.0239      0.020      0.705      1.023        468 6.4754e+01 0.0000e+00
      0.725    24.0074     7.6090     90.416  35.424004     36.128      7.277   227.4723     6.2434     2.2330     0.0239      0.018      0.711      1.032        469 6.4357e+01 0.0000e+00
      0.734    24.0074     7.6248     90.604  35.410078     36.129      7.280   227.9644     6.3283     2.3539     0.0239      0.018      0.719      1.043        470 6.3907e+01 0.0000e+00
      0.741    24.0078     7.6390     90.773  35.420734     36.129      7.280   228.2673     6.3202     2.2733     0.0239      0.020      0.726      1.053        471 6.3508e+01 0.0000e+00
      0.746    24.0079     7.6403     90.787  35.410744     36.129      7.286   228.2294     6.3485     2.3807     0.0239      0.022      0.731      1.061        472 6.3218e+01 0.0000e+00
      0.751    24.0073     7.6294     90.656  35.422510     36.129      7.290   228.2294     6.3243     2.2599     0.0239      0.024      0.736      1.068        473 6.2502e+01 0.0000e+00
      0.756    24.0072     7.6162     90.497  35.406092     36.128      7.289   228.6459     6.3364     2.2330     0.0239      0.024      0.741      1.074        474 6.1967e+01 0.0000e+00
      0.758    24.0066     7.6073     90.394  35.371861     36.072      7.288   228.6080     6.2758     2.1390     0.0238      0.023      0.743      1.077        475 6.1696e+01 0.0000e+00
      0.759    24.0064     7.5979     90.286  35.405794     36.129      7.286   228.7216     6.2677     2.2464     0.0239      0.021      0.744      1.080        476 6.1324e+01 0.0000e+00
      0.761    24.0074     7.5960     90.264  35.423179     36.130      7.288   228.6080     6.2919     2.1659     0.0239      0.017      0.747      1.084        477 6.0855e+01 0.0000e+00
      0.766    24.0079     7.5979     90.287  35.409543     36.130      7.295   228.3430     6.2515     2.1659     0.0239      0.015      0.752      1.091        478 6.0224e+01 0.0000e+00
      0.774    24.0084     7.6059     90.382  35.422765     36.129      7.300   228.5323     6.2596     2.1659     0.0239      0.014      0.759      1.101        479 5.9708e+01 0.0000e+00
      0.782    24.0088     7.6151     90.493  35.406723     36.129      7.304   228.6837     6.2353     2.1122     0.0239      0.015      0.767      1.113        480 5.9282e+01 0.0000e+00
      0.791    24.0084     7.6214     90.568  35.370190     36.071      7.307   228.9487     6.2555     2.1122     0.0238      0.018      0.776      1.125        481 5.8886e+01 0.0000e+00
      0.800    24.0078     7.6258     90.620  35.408914     36.128      7.307   229.2516     6.2677     2.1390     0.0239      0.022      0.785      1.137        482 5.8929e+01 0.0000e+00
      0.808    24.0066     7.6242     90.593  35.417847     36.128      7.307   229.6680     6.5143     2.3673     0.0239      0.026      0.792      1.148        483 5.8900e+01 0.0000e+00
      0.814    24.0058     7.6219     90.560  35.418390     36.129      7.310   229.0244     6.5143     2.2733     0.0239      0.029      0.798      1.158        484 5.8854e+01 0.0000e+00
      0.821    24.0074     7.6077     90.387  35.408239     36.129      7.314   229.4409     6.5265     2.1659     0.0239      0.031      0.806      1.169        485 5.8526e+01 0.0000e+00
      0.830    24.0092     7.5885     90.155  35.371163     36.073      7.316   229.6301     6.5305     2.2464     0.0238      0.031      0.814      1.180        486 5.8160e+01 0.0000e+00
      0.838    24.0098     7.5670     89.897  35.405214     36.129      7.321   229.5923     6.5912     2.1793     0.0239      0.031      0.822      1.192        487 5.8136e+01 0.0000e+00
      0.846    24.0101     7.5527     89.725  35.365863     36.071      7.324   229.5166     6.5669     2.2062     0.0238      0.031      0.830      1.204        488 5.7606e+01 0.0000e+00
      0.856    24.0103     7.5264     89.412  35.360820     36.070      7.327   230.1601     6.5912     2.0987     0.0238      0.031      0.839      1.217        489 5.7697e+01 0.0000e+00
      0.864    24.0105     7.4947     89.034  35.411490     36.127      7.329   229.8573     6.5709     2.1659     0.0239      0.032      0.849      1.231        490 5.7540e+01 0.0000e+00
      0.875    24.0108     7.4636     88.666  35.362119     36.070      7.330   229.8194     6.7287     2.1122     0.0238      0.033      0.861      1.248        491 5.6982e+01 0.0000e+00
      0.893    24.0102     7.4479     88.481  35.362946     36.070      7.326   230.1223     6.7246     2.1659     0.0238      0.037      0.877      1.271        492 5.6858e+01 0.0000e+00
      0.912    24.0064     7.4405     88.395  35.410462     36.127      7.324   230.2737     6.7367     2.1122     0.0239      0.042      0.895      1.297        493 5.6017e+01 0.0000e+00
      0.930    24.0024     7.4297     88.266  35.362303     36.070      7.310   230.8037     6.7287     2.1524     0.0238      0.048      0.910      1.320        494 5.4959e+01 0.0000e+00
      0.942    24.0003     7.4270     88.233  35.363564     36.073      7.291   231.3716     6.7044     2.1927     0.0238      0.053      0.919      1.334        495 5.4467e+01 0.0000e+00
      0.941    23.9984     7.4336     88.312  35.408894     36.133      7.252   230.8794     6.3324     2.1927     0.0239      0.053      0.920      1.335        496 5.4506e+01 0.0000e+00
      0.932    23.9965     7.4400     88.387  35.365209     36.077      7.234   230.4630     6.3405     2.1122     0.0238      0.046      0.916      1.329        497 5.4267e+01 0.0000e+00
      0.930    23.9953     7.4525     88.535  35.358616     36.079      7.238   230.5387     6.3283     2.1659     0.0238      0.037      0.914      1.325        498 5.4425e+01 0.0000e+00
      0.934    23.9947     7.4638     88.668  35.357784     36.080      7.252   230.9930     6.3607     2.1659     0.0238      0.026      0.916      1.328        499 5.4749e+01 0.0000e+00
      0.938    23.9943     7.4750     88.803  35.366244     36.081      7.264   230.6144     5.9401     2.2867     0.0238      0.015      0.921      1.336        500 5.5112e+01 0.0000e+00
      0.947    23.9950     7.4936     89.023  35.348087     36.081      7.277   231.1823     5.9401     2.1793     0.0238      0.009      0.932      1.352        501 5.5640e+01 0.0000e+00
      0.968    23.9962     7.5177     89.309  35.321065     36.025      7.290   231.3716     5.9644     2.2464     0.0238      0.010      0.950      1.378        502 5.4457e+01 0.0000e+00
      0.993    23.9965     7.5342     89.505  35.399874     36.138      7.293   231.5230     5.9442     2.2464     0.0239      0.021      0.973      1.410        503 5.2916e+01 0.0000e+00
      1.014    23.9964     7.5356     89.520  35.368642     36.080      7.299   231.9016     6.2515     2.2464     0.0238      0.037      0.993      1.440        504 5.1900e+01 0.0000e+00
      1.030    23.9963     7.5262     89.401  35.359932     36.080      7.302   231.5987     6.2636     2.3539     0.0238      0.052      1.009      1.464        505 5.0813e+01 0.0000e+00
      1.043    23.9960     7.5118     89.224  35.410712     36.137      7.300   232.1666     6.2515     2.3136     0.0239      0.061      1.023      1.484        506 4.9674e+01 0.0000e+00
      1.059    23.9957     7.4902     88.963  35.364762     36.080      7.289   232.3937     6.2717     2.3136     0.0238      0.067      1.038      1.505        507 4.8330e+01 0.0000e+00
      1.073    23.9951     7.4651     88.662  35.357802     36.080      7.285   232.3937     6.1545     2.2464     0.0238      0.070      1.052      1.526        508 4.7533e+01 0.0000e+00
      1.087    23.9951     7.4429     88.398  35.360061     36.081      7.287   232.4316     6.1181     2.3270     0.0238      0.068      1.067      1.548        509 4.6777e+01 0.0000e+00
      1.105    23.9953     7.4305     88.249  35.361952     36.081      7.294   232.2801     6.1221     2.2464     0.0238      0.064      1.083      1.571        510 4.5956e+01 0.0000e+00
      1.120    23.9951     7.4300     88.241  35.355447     36.081      7.296   232.0151     6.1464     2.2464     0.0238      0.061      1.098      1.592        511 4.5625e+01 0.0000e+00
      1.132    23.9950     7.4319     88.266  35.368155     36.081      7.300   232.3180     6.0008     2.1659     0.0238      0.059      1.111      1.612        512 4.5329e+01 0.0000e+00
      1.147    23.9954     7.4318     88.264  35.405453     36.138      7.302   232.2423     6.0412     2.1122     0.0239      0.058      1.125      1.632        513 4.4752e+01 0.0000e+00
      1.164    23.9940     7.4301     88.244  35.368346     36.081      7.309   232.4694     6.0048     2.0450     0.0238      0.059      1.142      1.657        514 4.4056e+01 0.0000e+00
      1.184    23.9903     7.4228     88.159  35.355018     36.081      7.310   232.5073     5.9927     2.1927     0.0238      0.060      1.161      1.684        515 4.3271e+01 0.0000e+00
      1.204    23.9864     7.4186     88.108  35.362725     36.082      7.312   232.7344     6.0251     2.1927     0.0238      0.063      1.180      1.711        516 4.2527e+01 0.0000e+00
      1.219    23.9836     7.4227     88.154  35.358757     36.085      7.309   232.7344     6.4254     2.2464     0.0238      0.065      1.197      1.735        517 4.1917e+01 0.0000e+00
      1.236    23.9820     7.4252     88.180  35.359959     36.087      7.301   232.8101     6.3930     2.2464     0.0238      0.066      1.213      1.760        518 4.1101e+01 0.0000e+00
      1.256    23.9813     7.4245     88.165  35.301916     36.032      7.295   232.8859     6.3890     2.3270     0.0238      0.068      1.231      1.785        519 4.0469e+01 0.0000e+00
      1.272    23.9803     7.4157     88.057  35.312362     36.034      7.295   233.0752     6.3809     2.2464     0.0238      0.070      1.249      1.811        520 3.9707e+01 0.0000e+00
      1.292    23.9797     7.4105     87.992  35.346960     36.091      7.290   233.0752     6.6599     2.1524     0.0238      0.071      1.267      1.838        521 3.8857e+01 0.0000e+00
      1.311    23.9800     7.4071     87.949  35.318174     36.035      7.288   233.5294     6.6316     2.0987     0.0238      0.071      1.285      1.864        522 3.8196e+01 0.0000e+00
      1.327    23.9802     7.4099     87.978  35.348185     36.092      7.289   233.3023     6.6235     2.1390     0.0238      0.070      1.301      1.887        523 3.7512e+01 0.0000e+00
      1.342    23.9806     7.4050     87.913  35.368927     36.092      7.289   233.9080     6.6518     2.1256     0.0238      0.069      1.314      1.906        524 3.7210e+01 0.0000e+00
      1.350    23.9808     7.4035     87.891  35.410991     36.149      7.283   233.4159     6.8500     2.1927     0.0239      0.067      1.325      1.921        525 3.6909e+01 0.0000e+00
      1.360    23.9805     7.4029     87.878  35.355152     36.092      7.284   233.6430     6.8419     2.1256     0.0238      0.062      1.335      1.936        526 3.6327e+01 0.0000e+00
      1.373    23.9793     7.4144     88.007  35.319789     36.034      7.286   233.6052     6.8217     2.0987     0.0238      0.057      1.347      1.954        527 3.5820e+01 0.0000e+00
      1.387    23.9765     7.4461     88.373  35.395687     36.149      7.290   233.7187     6.8419     2.2062     0.0239      0.054      1.363      1.976        528 3.5130e+01 0.0000e+00
      1.408    23.9730     7.4931     88.921  35.379329     36.093      7.294   233.8702     6.7974     2.1659     0.0238      0.052      1.383      2.006        529 3.4226e+01 0.0000e+00
      1.436    23.9702     7.5570     89.673  35.340146     36.095      7.289   233.7944     6.8055     2.1659     0.0238      0.056      1.407      2.041        530 3.3411e+01 0.0000e+00
      1.461    23.9685     7.6197     90.411  35.325820     36.040      7.286   233.7187     6.7974     2.1659     0.0238      0.063      1.431      2.075        531 3.2795e+01 0.0000e+00
      1.479    23.9669     7.6816     91.134  35.337843     36.099      7.277   234.2866     6.7933     2.0987     0.0238      0.070      1.450      2.103        532 3.2414e+01 0.0000e+00
      1.495    23.9641     7.7298     91.695  35.325186     36.044      7.277   234.2866     6.6640     2.3002     0.0238      0.076      1.467      2.127        533 3.1882e+01 0.0000e+00
      1.512    23.9607     7.7541     91.971  35.341575     36.102      7.278   234.2109     6.6518     2.2733     0.0238      0.079      1.484      2.151        534 3.1282e+01 0.0000e+00
      1.531    23.9578     7.7604     92.026  35.317448     36.047      7.280   234.3623     6.6842     2.3136     0.0238      0.080      1.502      2.178        535 3.0720e+01 0.0000e+00
      1.551    23.9543     7.7454     91.828  35.295897     36.049      7.282   234.3623     6.6437     2.3270     0.0238      0.079      1.521      2.206        536 3.0101e+01 0.0000e+00
      1.572    23.9498     7.6956     91.218  35.249767     35.994      7.282   234.8923     6.6437     2.2330     0.0238      0.077      1.540      2.234        537 2.9602e+01 0.0000e+00
      1.590    23.9435     7.6156     90.249  35.167256     35.911      7.281   234.5137     6.7287     2.1927     0.0237      0.074      1.559      2.261        538 2.9138e+01 0.0000e+00
      1.608    23.9375     7.5407     89.337  35.161325     35.915      7.283   234.4380     6.7367     2.1793     0.0237      0.073      1.577      2.288        539 2.8599e+01 0.0000e+00
      1.626    23.9340     7.4452     88.154  35.168180     35.919      7.284   234.8166     6.7367     2.2062     0.0237      0.073      1.596      2.315        540 2.7896e+01 0.0000e+00
      1.649    23.9300     7.3079     86.442  35.188386     35.952      7.286   235.0059     6.7206     2.2464     0.0238      0.075      1.618      2.347        541 2.7099e+01 0.0000e+00
      1.675    23.9238     7.0849     83.711  35.165839     35.926      7.285   234.9680     6.7125     2.0719     0.0237      0.078      1.643      2.382        542 2.6474e+01 0.0000e+00
      1.700    23.9174     6.7167     79.252  35.107269     35.872      7.283   235.0059     6.7003     2.0853     0.0237      0.081      1.666      2.417        543 2.5878e+01 0.0000e+00
      1.722    23.9097     6.2345     73.477  35.172306     35.934      7.283   235.2709     6.7206     2.1390     0.0237      0.084      1.688      2.448        544 2.5268e+01 0.0000e+00
      1.742    23.8989     5.7235     67.401  35.292506     36.081      7.283   235.2330     6.7287     2.1659     0.0238      0.086      1.708      2.478        545 2.4758e+01 0.0000e+00
      1.763    23.8869     5.2488     61.782  35.313573     36.087      7.283   235.0437     6.9025     2.2196     0.0238      0.087      1.729      2.508        546 2.4263e+01 0.0000e+00
      1.786    23.8753     4.8928     57.560  35.235064     36.038      7.288   235.0816     6.8702     2.1659     0.0238      0.088      1.751      2.540        547 2.3720e+01 0.0000e+00
      1.809    23.8630     4.6480     54.629  35.271585     36.046      7.285   235.1952     6.8742     2.1793     0.0238      0.089      1.774      2.574        548 2.3173e+01 0.0000e+00
      1.833    23.8481     4.5152     53.017  35.505390     36.341      7.284   235.4602     6.9187     2.3002     0.0239      0.088      1.797      2.606        549 2.2723e+01 0.0000e+00
      1.854    23.8159     4.4759     52.522  36.041443     36.836      7.284   235.1952     6.8904     2.1524     0.0241      0.087      1.820      2.639        550 2.2187e+01 0.0000e+00
      1.880    23.7645     4.4792     52.546  36.532271     37.448      7.287   235.6494     6.9025     2.0987     0.0244      0.088      1.843      2.672        551 2.1586e+01 0.0000e+00
      1.902    23.7040     4.4594     52.266  36.347842     37.186      7.286   235.4980     6.8904     2.0853     0.0242      0.089      1.866      2.706        552 2.1145e+01 0.0000e+00
      1.926    23.6330     4.4265     51.825  35.766779     36.711      7.291   235.4223     6.9147     2.0719     0.0240      0.091      1.889      2.740        553 2.0648e+01 0.0000e+00
      1.950    23.5698     4.3716     51.140  35.297964     36.181      7.290   235.7630     6.7287     2.2867     0.0238      0.092      1.913      2.773        554 2.0105e+01 0.0000e+00
      1.973    23.5285     4.2955     50.207  35.270454     36.293      7.287   236.4823     6.7125     2.2599     0.0238      0.092      1.933      2.803        555 1.9756e+01 0.0000e+00
      1.989    23.5030     4.2204     49.294  35.326522     36.340      7.282   236.2173     6.7125     2.2330     0.0238      0.090      1.950      2.828        556 1.9441e+01 0.0000e+00
      2.004    23.4732     4.1645     48.612  35.287532     36.371      7.274   236.4066     6.7367     2.2733     0.0238      0.087      1.967      2.852        557 1.9000e+01 0.0000e+00
      2.025    23.4251     4.1502     48.421  35.318998     36.390      7.270   236.6337     6.7165     2.1122     0.0238      0.083      1.986      2.879        558 1.8617e+01 0.0000e+00
      2.044    23.3727     4.1934     48.903  35.346694     36.469      7.258   236.8987     6.6154     2.1390     0.0238      0.080      2.005      2.907        559 1.8294e+01 0.0000e+00
      2.062    23.3409     4.2574     49.626  35.312397     36.448      7.250   237.3152     6.5790     2.1793     0.0238      0.077      2.022      2.932        560 1.8020e+01 0.0000e+00
      2.078    23.3225     4.2979     50.078  35.243073     36.430      7.240   237.1259     6.5912     2.2464     0.0238      0.073      2.038      2.957        561 1.7730e+01 0.0000e+00
      2.097    23.2766     4.2876     49.942  35.166072     36.368      7.231   237.6559     6.5548     2.2599     0.0238      0.071      2.058      2.985        562 1.7271e+01 0.0000e+00
      2.121    23.2203     4.2146     49.080  34.993037     36.206      7.218   237.7694     6.6599     2.1659     0.0237      0.072      2.080      3.016        563 1.6837e+01 0.0000e+00
      2.144    23.1757     4.1078     47.825  34.954253     36.184      7.203   237.6937     6.6680     2.1793     0.0237      0.075      2.103      3.050        564 1.6403e+01 0.0000e+00
      2.168    23.1316     3.9848     46.379  35.036415     36.342      7.192   238.3752     6.6356     2.2062     0.0237      0.078      2.124      3.081        565 1.6007e+01 0.0000e+00
      2.185    23.0933     3.8597     44.904  35.009442     36.318      7.180   238.6023     6.6518     2.1256     0.0237      0.080      2.142      3.107        566 1.5775e+01 0.0000e+00
      2.201    23.0626     3.7389     43.472  34.987845     36.351      7.168   238.2616     7.6668     2.3404     0.0237      0.080      2.158      3.130        567 1.5536e+01 0.0000e+00
      2.216    23.0362     3.6424     42.329  34.885372     36.264      7.155   239.1323     7.6627     2.3136     0.0237      0.079      2.173      3.152        568 1.5266e+01 0.0000e+00
      2.230    23.0117     3.5751     41.531  34.899730     36.287      7.149   239.3216     7.6789     2.2196     0.0237      0.076      2.189      3.175        569 1.4996e+01 0.0000e+00
      2.250    22.9869     3.5131     40.795  35.029305     36.481      7.134   239.8895     7.6749     2.2196     0.0237      0.073      2.207      3.201        570 1.4685e+01 0.0000e+00
      2.272    22.9652     3.4613     40.176  35.020701     36.442      7.121   239.7002     7.4565     2.2464     0.0237      0.071      2.227      3.230        571 1.4337e+01 0.0000e+00
      2.291    22.9489     3.3918     39.342  34.910450     36.402      7.109   240.1545     7.4969     2.3002     0.0237      0.069      2.245      3.257        572 1.4108e+01 0.0000e+00
      2.306    22.9358     3.3003     38.252  34.869952     36.303      7.096   240.4573     7.5050     2.3002     0.0236      0.068      2.261      3.280        573 1.3928e+01 0.0000e+00
      2.321    22.9234     3.1418     36.401  35.011798     36.548      7.087   240.6087     7.4646     2.2464     0.0237      0.069      2.277      3.302        574 1.3672e+01 0.0000e+00
      2.338    22.9083     2.8284     32.750  35.089819     36.558      7.080   240.4195     7.1896     3.2535     0.0237      0.069      2.295      3.328        575 1.3375e+01 0.0000e+00
      2.361    22.8847     2.4358     28.170  35.069433     36.626      7.069   241.1009     7.2139     3.1730     0.0238      0.071      2.315      3.359        576 1.3052e+01 0.0000e+00
      2.384    22.8538     2.0191     23.337  34.918546     36.404      7.059   241.2523     7.2301     3.3744     0.0237      0.073      2.338      3.391        577 1.2748e+01 0.0000e+00
      2.406    22.8274     1.6027     18.517  35.040347     36.597      7.046   241.5930     7.2301     3.4684     0.0237      0.074      2.359      3.422        578 1.2476e+01 0.0000e+00
      2.426    22.8067     1.2168     14.047  35.155124     36.737      7.030   241.5930     7.2301     3.3475     0.0238      0.076      2.378      3.450        579 1.2254e+01 0.0000e+00
      2.443    22.7876     0.8797     10.145  35.072293     36.641      7.023   241.8959     6.8297     4.4218     0.0237      0.078      2.396      3.475        580 1.2038e+01 0.0000e+00
      2.459    22.7640     0.6404      7.374  35.232411     36.861      7.014   242.3123     6.8459     4.4352     0.0238      0.079      2.413      3.500        581 1.1871e+01 0.0000e+00
      2.479    22.7265     0.4741      5.446  35.726967     37.344      7.003   242.1230     6.8419     4.4486     0.0240      0.079      2.434      3.530        582 1.1562e+01 0.0000e+00
      2.507    22.6896     0.3529      4.043  36.503250     38.239      6.992   242.3123     6.8500     4.3815     0.0244      0.080      2.458      3.565        583 1.1123e+01 0.0000e+00
      2.533    22.6688     0.2453      2.803  36.787338     38.534      6.983   242.9938     6.3283     4.6098     0.0245      0.081      2.482      3.600        584 1.0849e+01 0.0000e+00
      2.553    22.6342     0.1498      1.708  36.856394     38.622      6.970   243.1452     6.3324     4.5292     0.0245      0.082      2.502      3.629        585 1.0620e+01 0.0000e+00
      2.569    22.5758     0.0556      0.633  37.485089     39.313      6.959   243.5995     6.3445     4.6366     0.0248      0.082      2.520      3.654        586 1.0382e+01 0.0000e+00
      2.585    22.5410    -0.0106     -0.121  38.229500     40.132      6.949   243.8645     6.3283     4.5829     0.0251      0.082      2.536      3.677        587 1.0140e+01 0.0000e+00
      2.602    22.5210    -0.0548     -0.623  38.184243     40.155      6.935   243.7130     6.2151     4.8783     0.0251      0.081      2.552      3.702        588 9.9012e+00 0.0000e+00
      2.621    22.4805    -0.0782     -0.888  38.401614     40.301      6.921   243.8266     6.2192     4.8380     0.0252      0.079      2.572      3.731        589 9.5881e+00 0.0000e+00
      2.648    22.4271    -0.0818     -0.928  39.115842     41.258      6.903   243.7888     6.2192     4.8380     0.0256      0.077      2.596      3.766        590 9.2180e+00 0.0000e+00
      2.674    22.3435    -0.0658     -0.745  39.757427     41.735      6.887   243.9780     6.2434     4.8380     0.0258      0.077      2.622      3.803        591 8.9350e+00 0.0000e+00
      2.701    22.2235    -0.0251     -0.284  40.421242     42.755      6.867   244.8866     5.5075     5.9257     0.0262      0.080      2.649      3.841        592 8.5457e+00 0.0000e+00
      2.728    22.0888     0.0185      0.209  40.455266     42.593      6.845   245.0759     5.5156     5.9123     0.0261      0.086      2.675      3.879        593 8.2243e+00 0.0000e+00
      2.753    21.9523     0.0555      0.626  40.753397     43.236      6.825   245.3030     5.5075     5.8451     0.0263      0.092      2.698      3.912        594 7.9940e+00 0.0000e+00
      2.771    21.8440     0.0840      0.947  40.940250     43.417      6.809   245.2652     5.5317     5.8854     0.0264      0.096      2.718      3.942        595 7.7449e+00 0.0000e+00
      2.792    21.7683     0.1081      1.218  40.727117     43.397      6.787   245.9088     4.8039     6.3285     0.0263      0.096      2.738      3.971        596 7.5517e+00 0.0000e+00
      2.813    21.7124     0.1314      1.479  40.722054     43.436      6.768   246.4766     4.8160     6.4091     0.0263      0.095      2.759      4.001        597 7.3200e+00 0.0000e+00
      2.835    21.6658     0.1411      1.589  40.827949     43.657      6.749   246.9688     4.8120     6.3822     0.0264      0.091      2.779      4.031        598 7.1392e+00 0.0000e+00
      2.854    21.6187     0.1543      1.738  41.010698     43.888      6.734   246.8552     4.7796     6.3151     0.0264      0.087      2.800      4.062        599 6.8930e+00 0.0000e+00
      2.879    21.5609     0.1548      1.743  41.176974     44.111      6.722   246.9688     4.7513     6.1943     0.0265      0.085      2.824      4.096        600 6.5511e+00 0.0000e+00
      2.907    21.4945     0.1609      1.812  41.481370     44.486      6.709   247.1202     7.2220     5.8451     0.0267      0.085      2.851      4.135        601 6.2249e+00 0.0000e+00
      2.936    21.4355     0.1633      1.837  41.699906     44.781      6.699   247.6880     7.2098     5.9660     0.0268      0.089      2.880      4.177        602 5.8445e+00 0.0000e+00
      2.968    21.3601     0.1610      1.811  41.735712     44.876      6.681   248.2559     7.2139     5.8317     0.0268      0.095      2.908      4.217        603 5.5721e+00 0.0000e+00
      2.992    21.2818     0.1625      1.829  41.792850     44.992      6.666   248.9752     7.2260     5.7914     0.0268      0.099      2.931      4.252        604 5.3812e+00 0.0000e+00
      3.009    21.2410     0.1577      1.775  41.895841     45.186      6.657   250.1109    13.7120     5.4423     0.0269      0.100      2.949      4.277        605 5.2321e+00 0.0000e+00
      3.021    21.2123     0.1603      1.807  41.963592     45.325      6.647   249.9216    13.7646     5.4154     0.0269      0.098      2.961      4.295        606 5.1685e+00 0.0000e+00
      3.030    21.1875     0.1584      1.789  42.064586     45.484      6.639   250.2245    13.7686     5.5229     0.0270      0.091      2.969      4.308        607 5.1160e+00 0.0000e+00
      3.033    21.1953     0.1588      1.795  42.007524     45.452      6.623   250.0352    13.7282     5.5363     0.0270      0.078      2.973      4.313        608 5.2046e+00 0.0000e+00
      3.032    21.2041     0.1580      1.787  41.797283     45.235      6.616   249.8081    22.0824     4.7038     0.0269      0.062      2.974      4.314        609 5.2518e+00 0.0000e+00
      3.034    21.2038     0.1643      1.857  41.910892     45.348      6.610   249.3916    22.0824     4.7843     0.0269      0.045      2.977      4.317        610 5.1970e+00 0.0000e+00
      3.041    21.1787     0.1674      1.891  42.044143     45.519      6.604   249.6188    22.1066     4.8917     0.0270      0.031      2.982      4.325        611 5.1718e+00 0.0000e+00
      3.048    21.1254     0.1688      1.905  42.224802     45.644      6.601   249.5431    22.1026     4.8783     0.0270      0.023      2.988      4.334        612 5.1608e+00 0.0000e+00
      3.053    21.1312     0.1724      1.946  42.427763     45.995      6.595   248.8238    17.1572     4.7575     0.0272      0.018      2.993      4.341        613 5.2087e+00 0.0000e+00
      3.056    21.1576     0.1769      1.997  42.177260     45.664      6.587   248.9752    17.1410     4.7977     0.0270      0.016      2.997      4.346        614 5.2056e+00 0.0000e+00
      3.060    21.1752     0.1746      1.969  42.032212     45.591      6.582   248.8995    17.1208     4.8112     0.0270      0.016      3.002      4.353        615 5.1729e+00 0.0000e+00
      3.067    21.2479     0.1745      1.968  41.866579     45.324      6.581   248.8995    17.1532     4.8783     0.0269      0.018      3.008      4.363        616 5.0956e+00 0.0000e+00
      3.075    21.3347     0.1749      1.971  41.582357     45.036      6.578   248.4073    18.5603     4.2069     0.0268      0.021      3.016      4.374        617 5.0218e+00 0.0000e+00
      3.082    21.3907     0.1722      1.930  41.495888     44.843      6.570   248.6723    18.5684     4.2472     0.0267      0.022      3.023      4.384        618 4.9940e+00 0.0000e+00
      3.088    21.4032     0.1765      1.965  41.469814     44.757      6.568   248.5209    18.5401     4.1264     0.0267      0.023      3.028      4.392        619 4.9408e+00 0.0000e+00
      3.093    21.3902     0.1766      1.959  41.614762     44.826      6.563   248.1045    18.5442     4.1264     0.0267      0.023      3.035      4.401        620 4.8890e+00 0.0000e+00
      3.102    21.3580     0.1787      1.979  41.612142     44.871      6.560   247.8395    16.2272     3.5221     0.0268      0.025      3.045      4.416        621 4.7282e+00 0.0000e+00
      3.120    21.3103     0.1809      2.000  41.710402     44.889      6.559   248.3316    16.2555     3.6161     0.0268      0.029      3.057      4.434        622 4.6140e+00 0.0000e+00
      3.129    21.3053     0.1781      1.967  41.878159     45.245      6.553   248.1045    16.1867     3.5221     0.0269      0.033      3.066      4.446        623 4.5788e+00 0.0000e+00
      3.129    21.3075     0.1736      1.912  41.789062     45.028      6.549   248.0288    16.2029     3.5087     0.0268      0.032      3.068      4.450        624 4.6101e+00 0.0000e+00
      3.129    21.2754     0.1759      1.932  41.821301     45.237      6.545   247.9152    16.1948     3.5758     0.0269      0.030      3.069      4.452        625 4.5708e+00 0.0000e+00
      3.133    21.2728     0.1668      1.829  42.105052     45.360      6.544   248.2559    15.2850     3.7638     0.0269      0.028      3.073      4.458        626 4.4581e+00 0.0000e+00
      3.140    21.2256     0.1628      1.786  41.940288     45.449      6.537   248.1045    15.3335     3.7772     0.0270      0.025      3.083      4.472        627 4.3739e+00 0.0000e+00
      3.159    20.9662     0.1574      1.726  42.263696     45.457      6.535   247.8395    15.3254     3.7907     0.0270      0.026      3.101      4.497        628 4.1261e+00 0.0000e+00
      3.188    20.6329     0.1566      1.713  44.046453     47.819      6.527   248.1045    15.3254     3.7772     0.0280      0.032      3.122      4.527        629 3.9572e+00 0.0000e+00
      3.200    20.4395     0.1564      1.704  45.032573     48.859      6.517   247.8016    16.2110     3.2804     0.0283      0.037      3.137      4.550        630 3.8791e+00 0.0000e+00
      3.210    20.3432     0.1553      1.689  45.071770     49.493      6.510   247.9152    16.2191     3.4012     0.0285      0.045      3.147      4.564        631 3.8284e+00 0.0000e+00
      3.215    20.2701     0.1549      1.684  45.155038     49.581      6.508   248.1802    16.2231     3.4012     0.0285      0.050      3.157      4.577        632 3.7024e+00 0.0000e+00
      3.230    20.1857     0.1539      1.675  45.344486     50.083      6.507   247.8016    16.1948     3.3744     0.0287      0.054      3.172      4.599        633 3.4555e+00 0.0000e+00
      3.256    20.0545     0.1554      1.689  45.963637     50.662      6.506   247.9152    13.7484     3.7235     0.0289      0.058      3.193      4.631        634 3.2271e+00 0.0000e+00
      3.282    19.9154     0.1523      1.646  47.114532     52.204      6.494   248.0288    13.7403     3.8041     0.0295      0.063      3.217      4.666        635 3.0460e+00 0.0000e+00
      3.304    19.8397     0.1545      1.664  47.740266     52.953      6.483   248.2559    13.7605     3.8578     0.0298      0.065      3.238      4.695        636 2.9754e+00 0.0000e+00
      3.317    19.8451     0.1587      1.703  47.648018     53.051      6.476   248.1045    13.7444     3.8578     0.0298      0.066      3.254      4.718        637 2.8813e+00 0.0000e+00
      3.333    19.8319     0.1632      1.745  47.318436     52.771      6.469   248.6723    10.5742     1.9645     0.0297      0.071      3.271      4.743        638 2.7365e+00 0.0000e+00
      3.355    19.7046     0.1676      1.790  47.794363     53.196      6.463   249.0509    10.5661     1.9376     0.0299      0.076      3.291      4.773        639 2.6329e+00 0.0000e+00
      3.379    19.5198     0.1672      1.785  49.548629     55.332      6.449   249.1645    10.5903     2.0047     0.0308      0.080      3.312      4.803        640 2.5285e+00 0.0000e+00
      3.395    19.4219     0.1647      1.760  50.032091     55.959      6.445   249.0509    10.5984     1.8705     0.0310      0.079      3.329      4.827        641 2.4098e+00 0.0000e+00
      3.409    19.4278     0.1624      1.736  49.477965     55.536      6.438   249.5052    10.5580     1.7765     0.0308      0.075      3.342      4.847        642 2.3738e+00 0.0000e+00
      3.420    19.4498     0.1587      1.697  49.229251     55.440      6.436   249.1266    10.5378     1.6690     0.0307      0.070      3.353      4.864        643 2.3763e+00 0.0000e+00
      3.429    19.3649     0.1514      1.621  49.184203     55.300      6.432   249.0131    10.5216     1.7228     0.0307      0.065      3.368      4.885        644 2.2539e+00 0.0000e+00
      3.457    19.1436     0.1473      1.577  49.474681     55.687      6.429   249.7323    10.4892     1.7228     0.0308      0.066      3.391      4.918        645 2.0743e+00 0.0000e+00
      3.487    18.9394     0.1439      1.534  49.906514     56.190      6.423   250.1866    10.5095     1.7362     0.0310      0.068      3.418      4.957        646 1.9954e+00 0.0000e+00
      3.511    18.7618     0.1371      1.455  49.685614     56.364      6.419   250.0352    11.4395     2.2196     0.0310      0.071      3.441      4.991        647 1.9498e+00 0.0000e+00
      3.529    18.6031     0.1343      1.423  48.889042     55.531      6.416   249.6188    11.4112     2.1256     0.0306      0.075      3.458      5.016        648 1.9086e+00 0.0000e+00
      3.540    18.5237     0.1395      1.478  48.761121     55.764      6.411   249.3538    11.4233     2.1390     0.0307      0.077      3.472      5.035        649 1.8757e+00 0.0000e+00
      3.552    18.5113     0.1375      1.457  48.835864     55.964      6.408   248.8995    11.4314     2.1390     0.0307      0.078      3.484      5.053        650 1.8262e+00 0.0000e+00
      3.565    18.5389     0.1366      1.448  48.914834     56.197      6.410   248.2559    10.7116     1.9913     0.0308      0.076      3.494      5.068        651 1.8136e+00 0.0000e+00
      3.571    18.5676     0.1317      1.396  49.108068     56.434      6.408   247.1959    10.6914     2.0047     0.0309      0.069      3.500      5.077        652 1.8240e+00 0.0000e+00
      3.571    18.5939     0.1336      1.409  49.099927     56.369      6.406   246.7038    10.7278     2.0450     0.0308      0.055      3.502      5.080        653 1.8184e+00 0.0000e+00
      3.572    18.6513     0.1417      1.488  49.073344     56.328      6.405   246.0602    10.6914     2.0047     0.0308      0.041      3.504      5.082        654 1.8185e+00 0.0000e+00
      3.576    18.6386     0.1401      1.469  49.170809     56.364      6.407   245.3788     7.7517     1.7228     0.0309      0.031      3.511      5.092        655 1.7966e+00 0.0000e+00
      3.593    18.4355     0.1392      1.461  48.948932     56.124      6.403   245.0380     7.7153     1.6153     0.0308      0.027      3.523      5.111        656 1.7238e+00 0.0000e+00
      3.610    18.2406     0.1406      1.472  48.251372     55.208      6.402   244.2052     7.7234     1.6690     0.0304      0.028      3.538      5.132        657 1.6845e+00 0.0000e+00
      3.621    18.1648     0.1456      1.518  48.109900     55.405      6.402   243.9780     7.7274     1.7630     0.0304      0.030      3.552      5.151        658 1.6925e+00 0.0000e+00
      3.636    18.1312     0.1440      1.497  48.205096     55.732      6.401   243.5616     4.4076     1.8705     0.0305      0.035      3.564      5.169        659 1.6620e+00 0.0000e+00
      3.645    18.1494     0.1566      1.624  48.192369     55.811      6.397   243.3723     4.4399     1.8839     0.0305      0.041      3.573      5.183        660 1.6363e+00 0.0000e+00
      3.650    18.1751     0.1518      1.570  48.244508     55.939      6.395   242.8045     4.3793     1.8839     0.0305      0.045      3.581      5.194        661 1.6469e+00 0.0000e+00
      3.660    18.1303     0.1598      1.649  48.199585     55.830      6.396   241.9337     4.3672     1.8705     0.0305      0.046      3.592      5.210        662 1.5997e+00 0.0000e+00
      3.681    17.9268     0.1613      1.661  48.070210     55.685      6.395   241.7823     5.2729     2.1390     0.0304      0.048      3.609      5.235        663 1.5539e+00 0.0000e+00
      3.699    17.7070     0.1648      1.693  47.722946     55.301      6.392   241.2145     5.2325     2.1390     0.0303      0.048      3.625      5.258        664 1.5434e+00 0.0000e+00
      3.708    17.6522     0.1630      1.672  47.563438     55.384      6.386   241.0630     5.2810     2.0853     0.0302      0.048      3.637      5.275        665 1.5291e+00 0.0000e+00
      3.720    17.6631     0.1627      1.666  47.675299     55.831      6.383   240.4573     5.2851     2.1256     0.0304      0.049      3.648      5.291        666 1.5346e+00 0.0000e+00
      3.732    17.5586     0.1627      1.661  47.732235     55.937      6.385   240.9116     5.8957     1.7496     0.0304      0.050      3.662      5.311        667 1.5134e+00 0.0000e+00
      3.751    17.3581     0.1623      1.654  47.522310     55.718      6.385   240.7980     6.6559     1.8033     0.0303      0.053      3.678      5.335        668 1.4689e+00 0.0000e+00
      3.769    17.2006     0.1615      1.647  47.343048     55.561      6.384   240.6466     6.6680     1.6288     0.0302      0.057      3.696      5.360        669 1.4809e+00 0.0000e+00
      3.786    17.1016     0.1609      1.639  47.272845     55.863      6.378   240.4573     6.6518     1.8167     0.0303      0.059      3.716      5.389        670 1.4808e+00 0.0000e+00
      3.813    16.9981     0.1581      1.606  47.461407     56.134      6.375   240.6087     6.6356     1.6959     0.0303      0.061      3.741      5.426        671 1.4112e+00 0.0000e+00
      3.846    16.8635     0.1557      1.575  48.829740     58.029      6.371   240.4195     5.7703     2.1659     0.0311      0.070      3.768      5.466        672 1.4034e+00 0.0000e+00
      3.870    16.7433     0.1608      1.621  49.843593     59.363      6.365   240.3816     5.7541     2.1390     0.0317      0.080      3.792      5.500        673 1.4021e+00 0.0000e+00
      3.886    16.6506     0.1575      1.584  49.790789     59.430      6.362   240.4573     5.7460     2.0987     0.0316      0.086      3.809      5.525        674 1.3701e+00 0.0000e+00
      3.898    16.5788     0.1581      1.585  49.845258     59.728      6.356   239.9273     5.7744     2.1927     0.0317      0.087      3.824      5.545        675 1.3632e+00 0.0000e+00
      3.913    16.4791     0.1636      1.635  49.953966     59.935      6.357   239.8895     4.0396     2.6896     0.0318      0.084      3.839      5.568        676 1.3476e+00 0.0000e+00
      3.934    16.3469     0.1672      1.668  50.338203     60.536      6.354   240.3059     4.0032     2.7433     0.0320      0.082      3.858      5.595        677 1.3514e+00 0.0000e+00
      3.955    16.2726     0.1684      1.677  50.880827     61.325      6.349   240.3437     4.0477     2.7433     0.0323      0.078      3.877      5.623        678 1.3488e+00 0.0000e+00
      3.971    16.2819     0.1730      1.721  50.970539     61.657      6.343   239.9652     4.0113     2.8104     0.0324      0.073      3.895      5.649        679 1.3236e+00 0.0000e+00
      3.987    16.2533     0.1729      1.718  50.731208     61.432      6.338   240.3059     3.9951     2.6761     0.0323      0.068      3.913      5.676        680 1.3087e+00 0.0000e+00
      4.013    16.1038     0.1692      1.678  51.208403     61.990      6.333   240.4195     3.9911     2.6761     0.0326      0.069      3.938      5.711        681 1.2644e+00 0.0000e+00
      4.047    15.9156     0.1637      1.621  52.840322     64.028      6.325   240.3437     4.0073     2.6224     0.0335      0.077      3.968      5.755        682 1.2095e+00 0.0000e+00
      4.077    15.7528     0.1636      1.617  54.488600     66.309      6.319   240.4573     4.0315     2.8238     0.0344      0.086      3.998      5.797        683 1.2191e+00 0.0000e+00
      4.104    15.6208     0.1585      1.564  55.005110     67.229      6.317   240.3437     3.7081     3.1998     0.0348      0.093      4.025      5.837        684 1.1934e+00 0.0000e+00
      4.131    15.5022     0.1619      1.595  54.958437     67.396      6.311   240.6087     3.6919     3.1193     0.0348      0.099      4.050      5.874        685 1.1240e+00 0.0000e+00
      4.154    15.3672     0.1575      1.547  55.081170     67.820      6.312   240.4195     3.6959     3.0790     0.0349      0.103      4.074      5.909        686 1.1289e+00 0.0000e+00
      4.178    15.2417     0.1592      1.561  55.327473     68.260      6.310   240.6087     3.6919     3.1595     0.0351      0.106      4.097      5.943        687 1.1055e+00 0.0000e+00
      4.203    15.1833     0.1579      1.546  55.572327     68.870      6.307   240.7980     3.2754     4.3412     0.0353      0.106      4.119      5.975        688 1.0649e+00 0.0000e+00
      4.220    15.1489     0.1562      1.528  55.489057     68.914      6.309   240.7223     3.2471     4.4083     0.0353      0.101      4.137      6.000        689 1.0532e+00 0.0000e+00
      4.232    15.0828     0.1556      1.519  55.520249     69.083      6.310   240.7602     3.2390     4.3009     0.0353      0.092      4.152      6.021        690 1.0352e+00 0.0000e+00
      4.247    15.0083     0.1530      1.491  55.652314     69.311      6.315   240.8737     3.2511     4.4218     0.0354      0.085      4.167      6.044        691 1.0210e+00 0.0000e+00
      4.268    14.9241     0.1563      1.519  55.680998     69.431      6.316   240.6087     3.2430     4.3815     0.0354      0.079      4.187      6.073        692 9.9399e-01 0.0000e+00
      4.294    14.8335     0.1539      1.491  55.692416     69.626      6.317   240.6845     2.7740     5.4826     0.0355      0.076      4.209      6.105        693 9.7251e-01 0.0000e+00
      4.314    14.7562     0.1547      1.496  55.697539     69.706      6.322   240.5330     2.8023     5.4826     0.0355      0.075      4.230      6.135        694 9.4678e-01 0.0000e+00
      4.331    14.6765     0.1572      1.517  55.466870     69.687      6.320   241.1766     2.8063     5.4154     0.0355      0.074      4.249      6.162        695 9.4180e-01 0.0000e+00
      4.351    14.5718     0.1580      1.521  55.593600     69.790      6.325   241.3280     2.7982     5.4826     0.0355      0.074      4.268      6.189        696 9.2701e-01 0.0000e+00
      4.372    14.4721     0.1584      1.521  56.638383     71.477      6.327   241.3659     2.8387     5.6437     0.0362      0.077      4.288      6.219        697 9.0096e-01 0.0000e+00
      4.394    14.4116     0.1604      1.537  56.868417     71.811      6.329   241.0252     2.8427     5.6437     0.0363      0.080      4.309      6.250        698 8.7481e-01 0.0000e+00
      4.417    14.3576     0.1616      1.546  56.910614     72.063      6.333   241.1766     2.8710     5.7108     0.0364      0.082      4.331      6.282        699 8.4363e-01 0.0000e+00
      4.440    14.2792     0.1603      1.531  57.536034     73.026      6.334   241.6687     2.8427     5.6840     0.0368      0.082      4.354      6.315        700 8.4240e-01 0.0000e+00
      4.463    14.1768     0.1604      1.530  58.079425     73.727      6.337   241.5930     2.9195     5.4960     0.0371      0.083      4.377      6.348        701 7.9454e-01 0.0000e+00
      4.488    14.0519     0.1635      1.557  59.025434     75.160      6.339   240.8359     2.8953     5.3886     0.0377      0.086      4.401      6.383        702 7.4556e-01 0.0000e+00
      4.513    13.9266     0.1661      1.578  60.842483     77.567      6.341   240.5330     2.9195     5.4960     0.0387      0.089      4.425      6.418        703 7.5164e-01 0.0000e+00
      4.535    13.8282     0.1614      1.532  62.440193     80.077      6.341   240.2302     2.9195     5.4154     0.0398      0.091      4.448      6.452        704 7.1568e-01 0.0000e+00
      4.559    13.7408     0.1591      1.508  63.214087     81.051      6.342   240.0030     2.7821     4.8649     0.0402      0.092      4.473      6.488        705 6.7316e-01 0.0000e+00
      4.589    13.6401     0.1515      1.435  64.660986     83.350      6.341   239.8895     2.8144     4.8515     0.0412      0.095      4.503      6.531        706 6.6400e-01 0.0000e+00
      4.624    13.5356     0.1479      1.401  66.371931     85.591      6.342   239.5109     2.7821     4.8380     0.0422      0.099      4.538      6.581        707 6.1893e-01 0.0000e+00
      4.668    13.4357     0.1488      1.407  67.589809     87.523      6.337   240.2302     2.7901     4.7575     0.0430      0.108      4.575      6.635        708 5.6633e-01 0.0000e+00
      4.702    13.3502     0.1463      1.383  68.254608     88.518      6.336   240.0787     2.7740     3.2804     0.0434      0.116      4.608      6.682        709 5.4746e-01 0.0000e+00
      4.724    13.2774     0.1394      1.317  68.842054     89.554      6.333   240.3816     2.7861     3.3744     0.0438      0.120      4.634      6.721        710 5.2889e-01 0.0000e+00
      4.752    13.2002     0.1374      1.296  69.086866     90.116      6.337   241.2523     2.7861     3.3475     0.0441      0.123      4.663      6.763        711 5.1076e-01 0.0000e+00
      4.789    13.1181     0.1387      1.308  67.326214     87.984      6.339   240.4573     2.7901     3.4684     0.0431      0.127      4.696      6.810        712 4.9321e-01 0.0000e+00
      4.823    13.0431     0.1331      1.254  65.359446     85.413      6.338   239.2459     2.6648     2.5150     0.0419      0.129      4.726      6.855        713 4.7905e-01 0.0000e+00
      4.845    12.9856     0.1335      1.257  65.266820     85.672      6.342   238.3373     2.6324     2.5150     0.0420      0.125      4.750      6.888        714 4.8019e-01 0.0000e+00
      4.861    12.9448     0.1333      1.254  65.659298     86.245      6.351   237.1259     2.6405     2.4479     0.0422      0.117      4.767      6.913        715 4.7004e-01 0.0000e+00
      4.875    12.9126     0.1274      1.199  65.643353     86.450      6.359   236.3687     2.6527     2.4479     0.0423      0.106      4.783      6.937        716 4.5817e-01 0.0000e+00
      4.895    12.8786     0.1280      1.203  65.227311     85.915      6.368   235.9902     2.6607     2.5284     0.0420      0.098      4.802      6.964        717 4.6332e-01 0.0000e+00
      4.919    12.8393     0.1279      1.202  64.335551     84.881      6.374   235.5737     2.7942     1.6019     0.0415      0.093      4.823      6.996        718 4.2689e-01 0.0000e+00
      4.942    12.8004     0.1218      1.145  62.921703     83.036      6.384   234.4380     2.8144     1.7630     0.0407      0.086      4.847      7.030        719 4.1815e-01 0.0000e+00
      4.968    12.7659     0.1231      1.158  61.640872     81.422      6.391   233.6052     2.7821     1.6959     0.0400      0.082      4.871      7.064        720 4.2979e-01 0.0000e+00
      4.989    12.7326     0.1260      1.185  60.821419     80.469      6.395   232.5830     2.7821     1.7630     0.0395      0.081      4.892      7.095        721 4.0618e-01 0.0000e+00
      5.008    12.6990     0.1191      1.120  60.229410     79.690      6.404   231.3337     2.9964     1.7228     0.0392      0.083      4.911      7.123        722 3.9221e-01 0.0000e+00
      5.028    12.6639     0.1194      1.121  59.170537     78.500      6.406   229.8951     2.9640     1.7228     0.0386      0.085      4.931      7.152        723 4.0527e-01 0.0000e+00
      5.049    12.6293     0.1181      1.108  57.655434     76.343      6.413   228.9109     2.9842     1.8436     0.0376      0.086      4.949      7.178        724 4.1871e-01 0.0000e+00
      5.062    12.6028     0.1120      1.051  56.770298     75.449      6.417   227.9644     2.9883     1.6556     0.0372      0.083      4.962      7.197        725 3.9651e-01 0.0000e+00
      5.070    12.5829     0.1136      1.065  56.501291     74.960      6.422   226.3366     2.9034     1.5213     0.0370      0.076      4.972      7.210        726 3.9296e-01 0.0000e+00
      5.077    12.5711     0.1134      1.063  56.327579     75.014      6.426   225.4658     2.9074     1.4408     0.0370      0.068      4.978      7.220        727 3.9456e-01 0.0000e+00
      5.082    12.5699     0.1117      1.047  56.244258     74.680      6.428   224.3680     2.9155     1.5079     0.0368      0.058      4.983      7.227        728 3.8478e-01 0.0000e+00
      5.084    12.5761     0.1083      1.014  56.515933     75.339      6.433   223.6108     2.9317     1.6422     0.0371      0.047      4.986      7.231        729 3.8064e-01 0.0000e+00
      5.086    12.5839     0.1119      1.048  56.880183     75.561      6.432   223.1187     2.9762     1.4945     0.0372      0.037      4.991      7.238        730 3.9940e-01 0.0000e+00
      5.097    12.5730     0.1158      1.084  56.444128     75.293      6.438   221.9073     2.9721     1.4810     0.0371      0.029      5.003      7.256        731 3.6643e-01 0.0000e+00
      5.122    12.5509     0.1139      1.066  55.574138     73.709      6.440   220.8851     2.9681     1.4139     0.0364      0.029      5.023      7.286        732 3.4587e-01 0.0000e+00
      5.147    12.5269     0.1079      1.010  54.637729     72.952      6.445   220.4308     2.9802     1.5079     0.0361      0.036      5.047      7.320        733 3.8267e-01 0.0000e+00
      5.169    12.4984     0.1088      1.018  53.275137     70.684      6.449   219.7494     2.8589     1.5348     0.0351      0.046      5.070      7.355        734 3.5127e-01 0.0000e+00
      5.196    12.4786     0.1067      0.998  52.460744     70.096      6.451   219.3330     2.8751     1.4810     0.0348      0.059      5.095      7.390        735 3.4237e-01 0.0000e+00
      5.220    12.4693     0.1114      1.042  52.296829     69.516      6.451   219.0301     2.8548     1.4676     0.0345      0.072      5.119      7.424        736 3.5618e-01 0.0000e+00
      5.243    12.4500     0.1122      1.050  51.965270     69.553      6.452   217.8944     2.8629     1.4945     0.0345      0.084      5.143      7.459        737 3.3333e-01 0.0000e+00
      5.270    12.4242     0.1095      1.024  50.587834     67.329      6.451   217.2508     2.7740     1.9779     0.0335      0.093      5.167      7.494        738 3.1831e-01 0.0000e+00
      5.293    12.4084     0.1070      1.000  49.885262     66.654      6.454   216.4937     2.8063     1.8839     0.0332      0.096      5.191      7.529        739 3.4978e-01 0.0000e+00
      5.316    12.3927     0.1130      1.056  49.752764     66.479      6.450   215.6608     2.7740     2.0316     0.0331      0.096      5.215      7.563        740 3.3972e-01 0.0000e+00
      5.344    12.3838     0.1161      1.085  49.001636     65.457      6.450   215.8880     2.7740     1.9510     0.0327      0.096      5.239      7.598        741 2.8877e-01 0.0000e+00
      5.365    12.3834     0.1101      1.029  49.157999     65.711      6.449   216.3422     2.7942     1.9645     0.0328      0.096      5.260      7.630        742 2.9510e-01 0.0000e+00
      5.384    12.3765     0.1031      0.964  49.083313     65.726      6.449   216.1908     2.4707     2.2599     0.0328      0.094      5.282      7.662        743 2.9875e-01 0.0000e+00
      5.410    12.3645     0.1047      0.978  48.590057     64.866      6.445   216.3422     2.4747     2.3404     0.0324      0.093      5.307      7.697        744 2.9046e-01 0.0000e+00
      5.441    12.3517     0.1028      0.961  48.525354     65.028      6.446   215.7744     2.4707     2.2867     0.0325      0.094      5.334      7.736        745 2.8397e-01 0.0000e+00
      5.465    12.3408     0.1012      0.946  47.976719     64.113      6.443   215.4337     2.4586     2.2464     0.0321      0.095      5.357      7.770        746 2.8820e-01 0.0000e+00
      5.482    12.3330     0.0983      0.918  47.640571     63.798      6.443   215.5094     2.3696     3.0790     0.0319      0.094      5.377      7.798        747 2.9316e-01 0.0000e+00
      5.503    12.3276     0.1023      0.955  47.608216     63.742      6.441   214.7144     2.4060     3.2401     0.0319      0.093      5.398      7.828        748 2.9220e-01 0.0000e+00
      5.527    12.3241     0.0988      0.923  47.275077     63.306      6.436   214.4115     2.4181     3.1058     0.0317      0.091      5.420      7.861        749 2.9002e-01 0.0000e+00
      5.550    12.3200     0.1058      0.988  47.135197     63.128      6.434   213.9951     2.4100     3.1730     0.0316      0.091      5.443      7.895        750 2.8073e-01 0.0000e+00
      5.575    12.3144     0.1043      0.974  47.129422     63.133      6.430   213.2001     2.1149     4.4352     0.0316      0.091      5.468      7.930        751 2.9285e-01 0.0000e+00
      5.601    12.3088     0.1036      0.967  47.074534     63.066      6.426   212.4429     2.1634     4.4218     0.0316      0.090      5.493      7.967        752 2.8707e-01 0.0000e+00
      5.628    12.3038     0.1015      0.948  46.966100     62.925      6.420   213.2380     2.1472     4.5023     0.0315      0.091      5.518      8.005        753 2.3998e-01 0.0000e+00
      5.654    12.2992     0.1009      0.942  46.759882     62.673      6.413   213.2001     2.1472     4.4621     0.0314      0.094      5.543      8.040        754 2.2828e-01 0.0000e+00
      5.675    12.2966     0.1078      1.007  46.559610     62.381      6.408   213.1622     0.9745    12.8411     0.0313      0.096      5.564      8.070        755 2.3004e-01 0.0000e+00
      5.692    12.2934     0.0973      0.908  46.532808     62.389      6.408   213.1244     0.9705    12.8277     0.0313      0.095      5.583      8.098        756 2.3759e-01 0.0000e+00
      5.712    12.2880     0.0976      0.911  46.348114     62.130      6.401   213.0108     0.9624    12.8277     0.0312      0.093      5.604      8.129        757 2.3156e-01 0.0000e+00
      5.740    12.2824     0.0962      0.898  46.136614     61.836      6.395   213.5408     0.9705    12.9082     0.0310      0.092      5.630      8.166        758 2.2365e-01 0.0000e+00
      5.771    12.2784     0.0998      0.932  46.054151     61.770      6.390   213.9194     1.1767    13.5125     0.0310      0.092      5.659      8.208        759 2.4081e-01 0.0000e+00
      5.802    12.2752     0.0975      0.910  45.946277     61.592      6.382   214.3737     1.1606    13.4722     0.0309      0.094      5.688      8.250        760 1.8630e-01 0.0000e+00
      5.828    12.2712     0.0986      0.920  46.003798     61.711      6.375   214.1465     1.1484    13.5528     0.0310      0.097      5.715      8.289        761 1.7222e-01 0.0000e+00
      5.854    12.2680     0.1001      0.935  46.012244     61.716      6.371   214.9415     1.1606    13.4051     0.0310      0.100      5.742      8.329        762 1.8678e-01 0.0000e+00
      5.887    12.2661     0.0990      0.924  46.024791     61.723      6.365   214.7522     1.1525    13.4856     0.0310      0.106      5.772      8.371        763 1.7113e-01 0.0000e+00
      5.915    12.2644     0.1069      0.998  46.106885     61.878      6.357   214.5251     0.9665    14.3316     0.0310      0.111      5.800      8.411        764 1.8434e-01 0.0000e+00
      5.939    12.2626     0.0985      0.920  46.147478     61.881      6.356   214.7144     1.0150    14.3450     0.0310      0.112      5.826      8.449        765 1.9493e-01 0.0000e+00
      5.968    12.2606     0.0909      0.849  46.211671     62.034      6.349   214.7901     0.9584    14.2376     0.0311      0.111      5.854      8.490        766 2.2435e-01 0.0000e+00
      6.001    12.2591     0.0978      0.913  46.205045     61.962      6.344   215.6230     0.9382    14.2510     0.0311      0.111      5.884      8.533        767 1.7462e-01 0.0000e+00
      6.030    12.2578     0.0997      0.931  46.215073     62.041      6.335   215.5851     0.8452    14.7881     0.0311      0.112      5.910      8.573        768 1.4271e-01 0.0000e+00
      6.049    12.2565     0.0911      0.851  46.258543     62.043      6.335   215.6230     0.8532    14.7344     0.0311      0.111      5.933      8.605        769 1.7493e-01 0.0000e+00
      6.071    12.2556     0.0993      0.927  46.210298     62.045      6.329   215.6608     0.8290    14.7076     0.0311      0.108      5.956      8.639        770 1.4493e-01 0.0000e+00
      6.101    12.2550     0.0940      0.877  46.393812     62.197      6.324   216.2287     0.8613    14.6404     0.0312      0.105      5.984      8.679        771 1.4730e-01 0.0000e+00
      6.133    12.2538     0.0943      0.880  46.653338     62.687      6.318   215.7365     0.7238    17.3529     0.0314      0.105      6.014      8.722        772 1.6573e-01 0.0000e+00
      6.163    12.2535     0.0973      0.908  46.451148     62.275      6.312   216.2287     0.6915    17.3797     0.0312      0.107      6.042      8.764        773 1.4755e-01 0.0000e+00
      6.189    12.2538     0.0977      0.912  46.319008     62.202      6.307   216.3801     0.7158    17.4066     0.0312      0.106      6.068      8.802        774 1.2748e-01 0.0000e+00
      6.214    12.2531     0.0954      0.890  46.313309     62.127      6.306   216.3801     0.7077    17.5274     0.0311      0.106      6.092      8.836        775 1.2462e-01 0.0000e+00
      6.233    12.2527     0.0929      0.867  46.280194     62.127      6.305   216.4937     0.5944    18.6151     0.0311      0.105      6.113      8.866        776 1.2639e-01 0.0000e+00
      6.255    12.2528     0.0927      0.865  46.360221     62.203      6.297   216.3801     0.5904    18.5614     0.0312      0.104      6.136      8.900        777 1.2525e-01 0.0000e+00
      6.285    12.2535     0.0931      0.869  46.836894     62.842      6.296   216.6830     0.6025    18.5748     0.0315      0.102      6.164      8.940        778 1.2593e-01 0.0000e+00
      6.317    12.2544     0.1018      0.950  47.645570     63.968      6.293   217.1372     0.6106    18.5882     0.0319      0.101      6.193      8.982        779 1.2558e-01 0.0000e+00
      6.342    12.2540     0.0931      0.869  48.024683     64.455      6.288   217.1372     0.6147    18.7091     0.0322      0.100      6.219      9.019        780 1.2562e-01 0.0000e+00
      6.364    12.2536     0.0893      0.833  47.967627     64.378      6.287   217.0615     0.6066    18.7359     0.0321      0.100      6.241      9.052        781 1.2548e-01 0.0000e+00
      6.387    12.2534     0.0934      0.872  48.043022     64.454      6.284   217.3265     0.5864    18.5882     0.0322      0.100      6.264      9.086        782 1.2568e-01 0.0000e+00
      6.412    12.2527     0.0916      0.855  48.049564     64.529      6.280   217.3265     0.6187    18.6822     0.0322      0.100      6.289      9.121        783 1.2557e-01 0.0000e+00
      6.438    12.2516     0.0910      0.850  47.751746     64.042      6.275   217.6672     0.6996    18.4405     0.0320      0.101      6.314      9.158        784 1.2573e-01 0.0000e+00
      6.465    12.2507     0.0887      0.828  47.701400     64.043      6.271   217.6294     0.6713    18.3734     0.0320      0.100      6.340      9.196        785 1.2584e-01 0.0000e+00
      6.492    12.2502     0.0911      0.850  47.726418     64.045      6.269   217.7430     0.6349    18.4003     0.0320      0.099      6.367      9.235        786 1.2566e-01 0.0000e+00
      6.522    12.2501     0.0872      0.814  47.690938     64.009      6.263   218.0458     0.6672    18.4003     0.0320      0.100      6.396      9.277        787 1.2562e-01 0.0000e+00
      6.553    12.2498     0.0935      0.873  47.656524     63.972      6.261   217.8565     0.6753    18.4137     0.0320      0.103      6.425      9.319        788 1.2575e-01 0.0000e+00
      6.580    12.2495     0.0962      0.898  47.620862     63.897      6.258   218.0458     0.7279    17.9974     0.0319      0.107      6.452      9.358        789 1.2566e-01 0.0000e+00
      6.605    12.2488     0.0918      0.857  47.705644     64.048      6.255   218.4244     0.7400    17.9974     0.0320      0.109      6.477      9.395        790 1.2576e-01 0.0000e+00
      6.630    12.2486     0.0898      0.839  47.729076     64.048      6.256   218.2351     0.7158    18.0646     0.0320      0.109      6.503      9.432        791 1.2572e-01 0.0000e+00
      6.659    12.2485     0.0978      0.913  47.740086     64.087      6.253   218.5380     0.7441    17.9706     0.0320      0.109      6.529      9.469        792 1.2562e-01 0.0000e+00
      6.684    12.2481     0.0927      0.865  47.721619     64.050      6.256   218.5380     0.7238    17.7423     0.0320      0.107      6.552      9.503        793 1.2571e-01 0.0000e+00
      6.701    12.2487     0.0921      0.859  47.722382     64.050      6.257   218.9165     0.6996    17.8229     0.0320      0.103      6.571      9.531        794 1.2567e-01 0.0000e+00
      6.718    12.2500     0.0903      0.843  47.857846     64.238      6.254   218.2351     0.7238    17.8094     0.0321      0.097      6.590      9.558        795 1.2561e-01 0.0000e+00
      6.741    12.2508     0.0918      0.857  47.909160     64.312      6.254   218.7651     0.7198    17.7557     0.0321      0.092      6.612      9.590        796 1.2561e-01 0.0000e+00
      6.767    12.2509     0.0881      0.822  48.103678     64.535      6.257   218.9544     0.8290    17.1783     0.0322      0.090      6.636      9.625        797 1.2573e-01 0.0000e+00
      6.794    12.2516     0.0891      0.832  48.654486     65.322      6.258   218.6137     0.8290    17.0977     0.0325      0.089      6.662      9.662        798 1.2578e-01 0.0000e+00
      6.819    12.2527     0.0875      0.817  49.152754     65.960      6.255   219.1058     0.8330    17.1917     0.0328      0.090      6.687      9.700        799 1.2571e-01 0.0000e+00
      6.846    12.2537     0.0896      0.837  49.442367     66.372      6.255   219.0301     0.8532    17.2052     0.0330      0.091      6.715      9.740        800 1.2558e-01 0.0000e+00
      6.880    12.2548     0.0887      0.828  49.718660     66.708      6.255   218.9544     0.7158    16.3861     0.0332      0.096      6.748      9.787        801 1.2562e-01 0.0000e+00
      6.918    12.2554     0.0911      0.851  50.233536     67.419      6.252   219.4087     0.7238    16.2786     0.0335      0.106      6.783      9.837        802 1.2569e-01 0.0000e+00
      6.950    12.2552     0.0899      0.839  50.819873     68.206      6.249   219.1815     0.7077    16.3995     0.0338      0.114      6.814      9.882        803 1.2554e-01 0.0000e+00
      6.977    12.2550     0.0943      0.880  51.125992     68.617      6.244   219.1058     0.7117    16.3592     0.0340      0.118      6.839      9.918        804 1.2570e-01 0.0000e+00
      6.993    12.2547     0.0900      0.840  51.217916     68.731      6.241   218.9544     0.7400    15.9161     0.0341      0.117      6.855      9.942        805 1.2565e-01 0.0000e+00
      7.001    12.2538     0.0910      0.849  51.180383     68.693      6.241   219.2573     0.7077    15.8624     0.0340      0.110      6.865      9.957        806 1.2557e-01 0.0000e+00
      7.008    12.2532     0.0854      0.797  51.143019     68.619      6.244   219.2573     0.7238    15.8624     0.0340      0.098      6.872      9.967        807 1.2569e-01 0.0000e+00
      7.016    12.2532     0.0866      0.808  51.234733     68.771      6.246   218.8408     0.6794    15.9698     0.0341      0.083      6.881      9.980        808 1.2564e-01 0.0000e+00
      7.028    12.2529     0.0957      0.894  51.303703     68.847      6.245   219.1815     0.7319    15.9161     0.0341      0.067      6.891      9.995        809 1.2563e-01 0.0000e+00
      7.037    12.2518     0.0887      0.828  51.324326     68.884      6.248   218.9544     0.7238    15.8489     0.0341      0.053      6.900     10.009        810 1.2545e-01 0.0000e+00
      7.045    12.2510     0.0870      0.812  51.357479     68.922      6.251   218.8030     0.7238    15.9967     0.0341      0.042      6.908     10.020        811 1.2555e-01 0.0000e+00
      7.052    12.2507     0.0898      0.838  51.351491     68.924      6.253   218.6894     0.7117    15.9429     0.0341      0.036      6.917     10.032        812 1.2559e-01 0.0000e+00
      7.064    12.2505     0.0882      0.823  51.420825     69.001      6.254   218.6894     0.7198    15.9161     0.0342      0.035      6.927     10.047        813 1.2552e-01 0.0000e+00
      7.074    12.2505     0.0898      0.838  51.686749     69.377      6.254   217.9701     0.7926    15.9161     0.0343      0.036      6.937     10.061        814 1.2567e-01 0.0000e+00
      7.082    12.2509     0.0926      0.864  51.703249     69.415      6.257   218.5380     0.7805    15.8489     0.0344      0.037      6.948     10.077        815 1.2569e-01 0.0000e+00
      7.100    12.2512     0.0889      0.830  51.697114     69.340      6.260   218.3108     0.7683    15.8892     0.0343      0.039      6.965     10.102        816 1.2572e-01 0.0000e+00
      7.125    12.2512     0.0908      0.848  51.842799     69.639      6.256   218.2730     0.7764    15.8624     0.0345      0.044      6.989     10.136        817 1.2557e-01 0.0000e+00
      7.153    12.2517     0.0886      0.827  52.264021     70.052      6.256   218.5001     0.7077    15.9295     0.0346      0.054      7.016     10.175        818 1.2575e-01 0.0000e+00
      7.184    12.2522 -9.990e-29 -9.990e-29  53.903849     72.380      6.252   218.0837     0.7319    15.8892     0.0357      0.066      7.041     10.213        819 1.2575e-01 0.0000e+00
      7.204    12.2515 -9.990e-29 -9.990e-29  55.382885     74.369      6.252   217.6294     0.6996    15.9161     0.0366      0.076      7.061     10.242        820 1.2551e-01 0.0000e+00
      7.213    12.2506 -9.990e-29 -9.990e-29  55.351283     74.293      6.250   217.8187     0.7238    15.9698     0.0365      0.081      7.072     10.258        821 1.2568e-01 0.0000e+00
      7.220    12.2508 -9.990e-29 -9.990e-29  55.338462     74.219      6.248   217.8187     0.7319    15.9832     0.0365      0.081      7.080     10.269        822 1.2571e-01 0.0000e+00
      7.227    12.2531 -9.990e-29 -9.990e-29  55.547285     74.634      6.250   217.5158     0.7158    15.8892     0.0367      0.076      7.089     10.281        823 1.2568e-01 0.0000e+00
      7.238    12.2526 -9.990e-29 -9.990e-29  55.536730     74.446      6.253   217.8187     0.7158    15.9698     0.0366      0.067      7.099     10.296        824 1.2565e-01 0.0000e+00
      7.252    12.2496 -9.990e-29 -9.990e-29  55.381285     74.441      6.255   217.8944     0.7319    15.9698     0.0366      0.056      7.111     10.313        825 1.2561e-01 0.0000e+00
      7.263    12.2493 -9.990e-29 -9.990e-29  54.968848     73.653      6.258   217.2508     0.7643    15.9161     0.0363      0.047      7.120     10.326        826 1.2561e-01 0.0000e+00
      7.266    12.2509 -9.990e-29 -9.990e-29  54.892176     73.773      6.258   216.9858     0.7441    15.8489     0.0363      0.039      7.125     10.334        827 1.2549e-01 0.0000e+00
      7.267    12.2523 -9.990e-29 -9.990e-29  54.942323     73.660      6.261   216.7965     0.6915    15.9967     0.0363      0.034      7.127     10.337        828 1.2555e-01 0.0000e+00
      7.268 -9.990e-29 -9.990e-29 -9.990e-29  54.817380     73.657      6.263   216.7965     0.7158    15.9295     0.0363      0.031      7.128     10.338        829 1.2577e-01 0.0000e+00
      7.269 -9.990e-29 -9.990e-29 -9.990e-29  54.750792     73.391      6.265   216.6830     0.6996    15.8758     0.0361      0.026      7.128     10.338        830 1.2583e-01 0.0000e+00
