* Sea-Bird SBE19plus  Data File:
* FileName = C:\R\Reservoirs\Data\DataNotYetUploadedToEDI\Raw_CTD\RawDownloads\091223_bvr50_S7809_0003.hex
* Software version 2.8.0.119
* Temperature SN = 7809
* Conductivity SN = 7809
* System UpLoad Time = Sep 12 2023 18:11:30
* <ApplicationData>
* <Seaterm232>
* <SoftwareVersion>2.8.0.119</SoftwareVersion>
* <BuildDate>07-Nov-2018</BuildDate>
* </Seaterm232>
* </ApplicationData>
* <InstrumentState>
* <HardwareData DeviceType='SBE19plus' SerialNumber='01907809'>
*
*    <Manufacturer>Sea-Bird Electronics, Inc.</Manufacturer>
*
*    <FirmwareVersion>3.1.8</FirmwareVersion>
*
*    <FirmwareDate>Mar  9 2016 16:22:29</FirmwareDate>
*
*    <CommandSetVersion>1.4</CommandSetVersion>
*
*    <PCBAssembly PCBSerialNum='120721' AssemblyNum='41054J'/>
*
*    <PCBAssembly PCBSerialNum='120715' AssemblyNum='41967A'/>
*
*    <PCBAssembly PCBSerialNum='116699' AssemblyNum='41606'/>
*
*    <PCBAssembly PCBSerialNum='120719' AssemblyNum='41059D'/>
*
*    <MfgDate>28-Apr-2017</MfgDate>
*
*    <InternalSensors>
*
*       <Sensor id='Main Temperature'>
*
*          <type>temperature0</type>
*
*          <SerialNumber>01907809</SerialNumber>
*
*       </Sensor>
*
*       <Sensor id='Main Conductivity'>
*
*          <type>conductivity-0</type>
*
*          <SerialNumber>01907809</SerialNumber>
*
*       </Sensor>
*
*       <Sensor id='Main Pressure'>
*
*          <type>strain-0</type>
*
*          <SerialNumber>10586018</SerialNumber>
*
*       </Sensor>
*
*    </InternalSensors>
*
*    <ExternalSensors>
*
*       <Sensor id='volt 0'>
*
*          <type>pH</type>
*
*          <SerialNumber>27-0363</SerialNumber>
*
*       </Sensor>
*
*       <Sensor id='volt 1'>
*
*          <type>ORP</type>
*
*          <SerialNumber>27-0363</SerialNumber>
*
*       </Sensor>
*
*       <Sensor id='volt 2'>
*
*          <type>OXY</type>
*
*          <SerialNumber>43-0434</SerialNumber>
*
*       </Sensor>
*
*       <Sensor id='volt 3'>
*
*          <type>PAR</type>
*
*          <SerialNumber>1122</SerialNumber>
*
*       </Sensor>
*
*       <Sensor id='volt 4'>
*
*          <type>ECO AFL/FL</type>
*
*          <SerialNumber>FLNTURT-2496</SerialNumber>
*
*       </Sensor>
*
*       <Sensor id='volt 5'>
*
*          <type>ECO-NTU</type>
*
*          <SerialNumber>FLNTURT-2496</SerialNumber>
*
*       </Sensor>
*
*       <Sensor id='serial'>
*
*          <type>not assigned</type>
*
*          <SerialNumber>not assigned</SerialNumber>
*
*       </Sensor>
*
*    </ExternalSensors>
*
* </HardwareData>
* <StatusData DeviceType='SBE19plus' SerialNumber='01907809'>
*
*    <DateTime>2023-09-12T18:09:58</DateTime>
*
*    <LoggingState>not logging</LoggingState>
*
*    <EventSummary numEvents='0'/>
*
*    <Power>
*
*       <vMain>13.0</vMain>
*
*       <vLith>8.4</vLith>
*
*       <iMain>63.0</iMain>
*
*       <iPump>61.5</iPump>
*
*       <iExt01>20.1</iExt01>
*
*       <iExt2345>37.2</iExt2345>
*
*    </Power>
*
*    <MemorySummary>
*
*       <Bytes>49358</Bytes>
*
*       <Samples>2146</Samples>
*
*       <SamplesFree>2858642</SamplesFree>
*
*       <SampleLength>23</SampleLength>
*
*       <Profiles>3</Profiles>
*
*    </MemorySummary>
*
* </StatusData>
* <ConfigurationData DeviceType='SBE19plus' SerialNumber='01907809'>
*
*    <ProfileMode>
*
*       <ScansToAverage>1</ScansToAverage>
*
*       <MinimumCondFreq>0</MinimumCondFreq>
*
*       <PumpDelay>45</PumpDelay>
*
*       <AutoRun>no</AutoRun>
*
*       <IgnoreSwitch>no</IgnoreSwitch>
*
*    </ProfileMode>
*
*    <Battery>
*
*       <Type>alkaline</Type>
*
*       <CutOff>7.5</CutOff>
*
*    </Battery>
*
*    <DataChannels>
*
*       <ExtVolt0>yes</ExtVolt0>
*
*       <ExtVolt1>yes</ExtVolt1>
*
*       <ExtVolt2>yes</ExtVolt2>
*
*       <ExtVolt3>yes</ExtVolt3>
*
*       <ExtVolt4>yes</ExtVolt4>
*
*       <ExtVolt5>yes</ExtVolt5>
*
*       <SBE38>no</SBE38>
*
*       <WETLABS>no</WETLABS>
*
*       <OPTODE>no</OPTODE>
*
*       <SBE63>no</SBE63>
*
*       <SeaFET>no</SeaFET>
*
*       <GTD>no</GTD>
*
*    </DataChannels>
*
*    <EchoCharacters>yes</EchoCharacters>
*
*    <OutputExecutedTag>yes</OutputExecutedTag>
*
*    <OutputFormat>raw HEX</OutputFormat>
*
* </ConfigurationData>
* <CalibrationCoefficients DeviceType='SBE19plus' SerialNumber='01907809'>
*
*    <Calibration format='TEMP1' id='Main Temperature'>
*
*       <SerialNum>01907809</SerialNum>
*
*       <CalDate>31-Jan-23</CalDate>
*
*       <TA0>1.218232e-03</TA0>
*
*       <TA1>2.815090e-04</TA1>
*
*       <TA2>-1.578887e-06</TA2>
*
*       <TA3>1.972343e-07</TA3>
*
*       <TOFFSET>0.000000e+00</TOFFSET>
*
*    </Calibration>
*
*    <Calibration format='WBCOND0' id='Main Conductivity'>
*
*       <SerialNum>01907809</SerialNum>
*
*       <CalDate>31-Jan-23</CalDate>
*
*       <G>-1.005652e+00</G>
*
*       <H>1.267963e-01</H>
*
*       <I>-1.561708e-04</I>
*
*       <J>2.645944e-05</J>
*
*       <CPCOR>-9.570000e-08</CPCOR>
*
*       <CTCOR>3.250000e-06</CTCOR>
*
*       <CSLOPE>1.000000e+00</CSLOPE>
*
*    </Calibration>
*
*    <Calibration format='STRAIN0' id='Main Pressure'>
*
*       <SerialNum>10586018</SerialNum>
*
*       <CalDate>20-Jan-23</CalDate>
*
*       <PA0>4.416439e-02</PA0>
*
*       <PA1>4.850502e-04</PA1>
*
*       <PA2>-3.090426e-12</PA2>
*
*       <PTCA0>5.254757e+05</PTCA0>
*
*       <PTCA1>1.050255e+01</PTCA1>
*
*       <PTCA2>-2.922435e-01</PTCA2>
*
*       <PTCB0>2.516687e+01</PTCB0>
*
*       <PTCB1>3.750000e-04</PTCB1>
*
*       <PTCB2>0.000000e+00</PTCB2>
*
*       <PTEMPA0>-5.470820e+01</PTEMPA0>
*
*       <PTEMPA1>5.485421e+01</PTEMPA1>
*
*       <PTEMPA2>-3.446578e-01</PTEMPA2>
*
*       <POFFSET>8.500000e-01</POFFSET>
*
*       <PRANGE>1.600000e+02</PRANGE>
*
*    </Calibration>
*
*    <Calibration format='VOLT0' id='Volt 0'>
*
*       <OFFSET>-4.920000e-02</OFFSET>
*
*       <SLOPE>1.248122e+00</SLOPE>
*
*    </Calibration>
*
*    <Calibration format='VOLT0' id='Volt 1'>
*
*       <OFFSET>-4.784000e-02</OFFSET>
*
*       <SLOPE>1.248871e+00</SLOPE>
*
*    </Calibration>
*
*    <Calibration format='VOLT0' id='Volt 2'>
*
*       <OFFSET>-4.864632e-02</OFFSET>
*
*       <SLOPE>1.248714e+00</SLOPE>
*
*    </Calibration>
*
*    <Calibration format='VOLT0' id='Volt 3'>
*
*       <OFFSET>-4.743790e-02</OFFSET>
*
*       <SLOPE>1.248571e+00</SLOPE>
*
*    </Calibration>
*
*    <Calibration format='VOLT0' id='Volt 4'>
*
*       <OFFSET>-4.671263e-02</OFFSET>
*
*       <SLOPE>1.248951e+00</SLOPE>
*
*    </Calibration>
*
*    <Calibration format='VOLT0' id='Volt 5'>
*
*       <OFFSET>-4.871053e-02</OFFSET>
*
*       <SLOPE>1.249136e+00</SLOPE>
*
*    </Calibration>
*
*    <Calibration format='FREQ0' id='external frequency channel'>
*
*       <EXTFREQSF>1.000014e+00</EXTFREQSF>
*
*    </Calibration>
*
* </CalibrationCoefficients>
* <EventCounters DeviceType='SBE19plus' SerialNumber='01907809'>
*
*    <EventSummary numEvents='0'/>
*
* </EventCounters></InstrumentState>
* <Headers>
*
* cast   3 12 Sep 2023 15:11:40 samples 1258 to 2146, avg = 1, stop = mag switch
*
# nquan = 15
# nvalues = 889                         
# units = specified
# name 0 = depFM: Depth [fresh water, m]
# name 1 = dz/dtM: Descent Rate [m/s]
# name 2 = sbeox0Mg/L: Oxygen, SBE 43 [mg/l]
# name 3 = sbeox0PS: Oxygen, SBE 43 [% saturation]
# name 4 = specc: Specific Conductance [uS/cm]
# name 5 = c0uS/cm: Conductivity [uS/cm]
# name 6 = flECO-AFL: Fluorescence, WET Labs ECO-AFL/FL [mg/m^3]
# name 7 = ph: pH
# name 8 = orp: Oxidation Reduction Potential [mV]
# name 9 = par/sat/log: PAR/Logarithmic, Satlantic
# name 10 = turbWETntu0: Turbidity, WET Labs ECO [NTU]
# name 11 = prdM: Pressure, Strain Gauge [db]
# name 12 = prdE: Pressure, Strain Gauge [psi]
# name 13 = tv290C: Temperature [ITS-90, deg C]
# name 14 = flag:  0.000e+00
# span 0 =     -0.673,      9.416       
# span 1 =     -0.331,      0.321       
# span 2 =    -2.0022,     8.9866       
# span 3 =    -17.634,    106.876       
# span 4 =      0.496,    422.461       
# span 5 =   0.537748, 312.835198       
# span 6 =    -0.1523,    56.7091       
# span 7 =      2.084,      8.418       
# span 8 = -1240.7455,   542.8769       
# span 9 = 1.2341e-01, 2.2447e+02       
# span 10 =     1.0756,   271.0053      
# span 11 =     -0.661,      9.234      
# span 12 =     -0.958,     13.393      
# span 13 =    11.8345,    29.1905      
# span 14 = 0.0000e+00, 0.0000e+00      
# interval = seconds: 0.25
# start_time = Sep 12 2023 15:11:40 [Instrument's time stamp, header]
# bad_flag = -9.990e-29
# <Sensors count="9" >
#   <sensor Channel="1" >
#     <!-- Count, Temperature -->
#     <TemperatureSensor SensorID="58" >
#       <SerialNumber>7809</SerialNumber>
#       <CalibrationDate>31-Jan-23</CalibrationDate>
#       <A0>1.21823180e-003</A0>
#       <A1>2.81508993e-004</A1>
#       <A2>-1.57888696e-006</A2>
#       <A3>1.97234302e-007</A3>
#       <Slope>1.00000000</Slope>
#       <Offset>0.0000</Offset>
#     </TemperatureSensor>
#   </sensor>
#   <sensor Channel="2" >
#     <!-- Frequency 0, Conductivity -->
#     <ConductivitySensor SensorID="3" >
#       <SerialNumber>7809</SerialNumber>
#       <CalibrationDate>31-Jan-23</CalibrationDate>
#       <UseG_J>1</UseG_J>
#       <!-- Cell const and series R are applicable only for wide range sensors. -->
#       <SeriesR>0.0000</SeriesR>
#       <CellConst>2000.0000</CellConst>
#       <ConductivityType>0</ConductivityType>
#       <Coefficients equation="0" >
#         <A>0.00000000e+000</A>
#         <B>0.00000000e+000</B>
#         <C>0.00000000e+000</C>
#         <D>0.00000000e+000</D>
#         <M>0.0</M>
#         <CPcor>-9.57000000e-008</CPcor>
#       </Coefficients>
#       <Coefficients equation="1" >
#         <G>-1.00565232e+000</G>
#         <H>1.26796307e-001</H>
#         <I>-1.56170788e-004</I>
#         <J>2.64594368e-005</J>
#         <CPcor>-9.57000000e-008</CPcor>
#         <CTcor>3.2500e-006</CTcor>
#         <!-- WBOTC not applicable unless ConductivityType = 1. -->
#         <WBOTC>0.00000000e+000</WBOTC>
#       </Coefficients>
#       <Slope>1.00000000</Slope>
#       <Offset>0.00000</Offset>
#     </ConductivitySensor>
#   </sensor>
#   <sensor Channel="3" >
#     <!-- Count, Pressure, Strain Gauge -->
#     <PressureSensor SensorID="46" >
#       <SerialNumber>7809</SerialNumber>
#       <CalibrationDate>20-Jan-23</CalibrationDate>
#       <PA0>4.41643944e-002</PA0>
#       <PA1>4.85050239e-004</PA1>
#       <PA2>-3.09042623e-012</PA2>
#       <PTEMPA0>-5.47081996e+001</PTEMPA0>
#       <PTEMPA1>5.48542136e+001</PTEMPA1>
#       <PTEMPA2>-3.44657813e-001</PTEMPA2>
#       <PTCA0>5.25475731e+005</PTCA0>
#       <PTCA1>1.05025484e+001</PTCA1>
#       <PTCA2>-2.92243463e-001</PTCA2>
#       <PTCB0>2.51668750e+001</PTCB0>
#       <PTCB1>3.75000000e-004</PTCB1>
#       <PTCB2>0.00000000e+000</PTCB2>
#       <Offset>0.000000</Offset>
#     </PressureSensor>
#   </sensor>
#   <sensor Channel="4" >
#     <!-- A/D voltage 0, Oxygen, SBE 43 -->
#     <OxygenSensor SensorID="38" >
#       <SerialNumber>0434</SerialNumber>
#       <CalibrationDate>18-Feb-23</CalibrationDate>
#       <Use2007Equation>1</Use2007Equation>
#       <CalibrationCoefficients equation="0" >
#         <!-- Coefficients for Owens-Millard equation. -->
#         <Boc>0.0000</Boc>
#         <Soc>0.0000e+000</Soc>
#         <offset>0.0000</offset>
#         <Pcor>0.00e+000</Pcor>
#         <Tcor>0.0000</Tcor>
#         <Tau>0.0</Tau>
#       </CalibrationCoefficients>
#       <CalibrationCoefficients equation="1" >
#         <!-- Coefficients for Sea-Bird equation - SBE calibration in 2007 and later. -->
#         <Soc>5.1878e-001</Soc>
#         <offset>-0.5046</offset>
#         <A>-4.2788e-003</A>
#         <B> 1.5372e-004</B>
#         <C>-2.1853e-006</C>
#         <D0> 2.5826e+000</D0>
#         <D1> 1.92634e-004</D1>
#         <D2>-4.64803e-002</D2>
#         <E> 3.6000e-002</E>
#         <Tau20> 0.9900</Tau20>
#         <H1>-3.3000e-002</H1>
#         <H2> 5.0000e+003</H2>
#         <H3> 1.4500e+003</H3>
#       </CalibrationCoefficients>
#     </OxygenSensor>
#   </sensor>
#   <sensor Channel="5" >
#     <!-- A/D voltage 1, PAR/Logarithmic, Satlantic -->
#     <PARLog_SatlanticSensor SensorID="76" >
#       <SerialNumber>1122</SerialNumber>
#       <CalibrationDate>08-Sep-2021</CalibrationDate>
#       <a0>9.6751e-001</a0>
#       <a1>8.0992e-001</a1>
#       <Im>1.3589e+000</Im>
#       <Multiplier>1.0000e+000</Multiplier>
#     </PARLog_SatlanticSensor>
#   </sensor>
#   <sensor Channel="6" >
#     <!-- A/D voltage 2, pH -->
#     <pH_Sensor SensorID="43" >
#       <SerialNumber>0363</SerialNumber>
#       <CalibrationDate>28-Feb-23</CalibrationDate>
#       <Slope>4.7364</Slope>
#       <Offset>2.5433</Offset>
#     </pH_Sensor>
#   </sensor>
#   <sensor Channel="7" >
#     <!-- A/D voltage 3, Oxidation Reduction Potential -->
#     <OxidationReductionPotentialSensor SensorID="41" >
#       <SerialNumber>0363</SerialNumber>
#       <CalibrationDate>28-Feb-23</CalibrationDate>
#       <B>2.499480</B>
#       <M>-0.496195</M>
#       <Offset>0.0</Offset>
#     </OxidationReductionPotentialSensor>
#   </sensor>
#   <sensor Channel="8" >
#     <!-- A/D voltage 4, Fluorometer, WET Labs ECO-AFL/FL -->
#     <FluoroWetlabECO_AFL_FL_Sensor SensorID="20" >
#       <SerialNumber>FLNTURT-2496</SerialNumber>
#       <CalibrationDate>02-Sep-2021</CalibrationDate>
#       <ScaleFactor>4.80000000e+001</ScaleFactor>
#       <!-- Dark output -->
#       <Vblank>0.0550</Vblank>
#     </FluoroWetlabECO_AFL_FL_Sensor>
#   </sensor>
#   <sensor Channel="9" >
#     <!-- A/D voltage 5, Turbidity Meter, WET Labs, ECO-NTU -->
#     <TurbidityMeter SensorID="67" >
#       <SerialNumber>FLNTURT--2496</SerialNumber>
#       <CalibrationDate>02-Sep-2021</CalibrationDate>
#       <ScaleFactor>197.000000</ScaleFactor>
#       <!-- Dark output -->
#       <DarkVoltage>0.070000</DarkVoltage>
#     </TurbidityMeter>
#   </sensor>
# </Sensors>
# datcnv_date = Sep 12 2023 18:14:29, 7.26.7.129 [datcnv_vars = 14]
# datcnv_in = C:\R\Reservoirs\Data\DataNotYetUploadedToEDI\Raw_CTD\RawDownloads\091223_fcr50_S7809003.hex C:\R\Reservoirs\Data\DataNotYetUploadedToEDI\Raw_CTD\RawDownloads\SBE19plusV2_7809_start20230701.xmlcon
# datcnv_skipover = 0
# datcnv_ox_hysteresis_correction = yes
# datcnv_ox_tau_correction = yes
# filter_date = Sep 12 2023 18:14:49, 7.26.7.129
# filter_in = C:\R\Reservoirs\Data\DataNotYetUploadedToEDI\Raw_CTD\RawDownloads\091223_fcr50_S7809003.cnv
# filter_low_pass_tc_A = 0.030
# filter_low_pass_tc_B = 0.150
# filter_low_pass_A_vars = sbeox0Mg/L prdM prdE tv290C
# filter_low_pass_B_vars = depFM dz/dtM sbeox0PS specc c0uS/cm flECO-AFL ph orp par/sat/log turbWETntu0
# alignctd_date = Sep 12 2023 18:15:08, 7.26.7.129
# alignctd_in = C:\R\Reservoirs\Data\DataNotYetUploadedToEDI\Raw_CTD\RawDownloads\091223_fcr50_S7809003.cnv
# alignctd_adv = dz/dtM 1.000, sbeox0PS 1.000, specc 1.000, c0uS/cm 1.000, flECO-AFL 1.000, ph 1.000, orp 1.000, turbWETntu0 1.000                                                                                                   
# file_type = ascii
*END*
     -0.673 2.1028e-14     7.3515     95.905      0.522   0.565250    -0.0734      5.930 -1240.7455 1.7927e+02     1.6745     -0.660     -0.957    29.1904 0.0000e+00
     -0.673 2.3131e-13     7.3502     95.927      0.520   0.563061    -0.0837      5.928 -1240.7455 1.8413e+02     1.6969     -0.660     -0.957    29.1902 0.0000e+00
     -0.673 2.5444e-12     7.3509     95.956      0.508   0.550310    -0.0931      5.923 -1240.7452 1.8917e+02     1.6354     -0.660     -0.957    29.1901 0.0000e+00
     -0.673 2.7989e-11     7.3529     95.956      0.496   0.537748    -0.0791      5.908 -1240.7423 1.9345e+02     1.6823     -0.659     -0.957    29.1904 0.0000e+00
     -0.673 3.0787e-10     7.3497     95.951      0.496   0.537851    -0.0633      5.881 -1240.7106 1.9619e+02     1.7173     -0.660     -0.957    29.1905 0.0000e+00
     -0.673 3.3866e-09     7.3528     95.958      0.509   0.551556    -0.0691      5.856 -1240.3618 1.9871e+02     1.6158     -0.660     -0.957    29.1899 0.0000e+00
     -0.673 3.7253e-08     7.3571     95.966      0.532   0.576779    -0.0827      5.854 -1236.5251 1.9846e+02     1.5478     -0.660     -0.958    29.1889 0.0000e+00
     -0.673 4.0978e-07     7.3552     95.970      0.544   0.589464    -0.0787      5.874 -1200.8606 1.9054e+02     1.7138     -0.660     -0.957    29.1882 0.0000e+00
     -0.673      0.000     7.3547     95.967      0.534   0.578262    -0.0700      5.896 -1135.8359 1.7963e+02     1.9843     -0.660     -0.957    29.1877 0.0000e+00
     -0.673      0.000     7.3560     95.952      0.524   0.568002    -0.0775      5.916 -1100.9453 1.6744e+02     2.0858     -0.660     -0.957    29.1874 0.0000e+00
     -0.673      0.001     7.3565     95.935      0.546   0.592090    -0.0852      5.932 -1113.4361 1.5293e+02     2.0865     -0.659     -0.957    29.1873 0.0000e+00
     -0.673      0.001     7.3568     95.934      0.569   0.616160    -0.0804      5.944 -1157.5450 1.3858e+02     2.1645     -0.660     -0.957    29.1874 0.0000e+00
     -0.672      0.001     7.3570     95.934      0.559   0.605683    -0.0696      5.953 -1208.6251 1.2669e+02     2.2769     -0.659     -0.957    29.1879 0.0000e+00
     -0.672      0.001     7.3554     95.924      0.546   0.592083    -0.0711      5.957 -1234.9392 1.1990e+02     2.3177     -0.659     -0.956    29.1882 0.0000e+00
     -0.672      0.000     7.3531     95.920      0.533   0.578397    -0.0731      5.954 -1240.2176 1.1745e+02     2.3506     -0.659     -0.957    29.1882 0.0000e+00
     -0.672 1.8626e-08     7.3536     95.925      0.523   0.566881    -0.0608      5.950 -1240.6975 1.1584e+02     2.4015     -0.659     -0.956    29.1882 0.0000e+00
     -0.672 2.0489e-07     7.3547     95.937      0.535   0.579520    -0.0564      5.948 -1240.7411 1.1323e+02     2.3870     -0.658     -0.955    29.1880 0.0000e+00
     -0.672 2.0489e-07     7.3524     95.953      0.558   0.604541    -0.0694      5.951 -1240.7451 1.1094e+02     2.3116     -0.659     -0.956    29.1875 0.0000e+00
     -0.672 1.8626e-08     7.3530     95.959      0.568   0.616056    -0.0763      5.959 -1240.7455 1.1018e+02     2.3099     -0.659     -0.956    29.1873 0.0000e+00
     -0.672 1.6933e-09     7.3531     95.951      0.546   0.592082    -0.0644      5.963 -1240.7455 1.0977e+02     2.3328     -0.660     -0.957    29.1873 0.0000e+00
     -0.672 1.5394e-10     7.3538     95.935      0.524   0.568012    -0.0680      5.962 -1240.7455 1.0927e+02     2.2121     -0.659     -0.956    29.1870 0.0000e+00
     -0.672 1.3994e-11     7.3562     95.940      0.534   0.578386    -0.0865      5.960 -1240.7455 1.0773e+02     2.1149     -0.658     -0.955    29.1867 0.0000e+00
     -0.672 1.2722e-12     7.3559     95.950      0.545   0.590835    -0.0795      5.957 -1240.7455 1.0401e+02     2.1474     -0.659     -0.956    29.1863 0.0000e+00
     -0.672 1.1565e-13     7.3566     95.954      0.546   0.591864    -0.0669      5.956 -1240.7455 1.0052e+02     2.1610     -0.659     -0.956    29.1859 0.0000e+00
     -0.672 1.0514e-14     7.3527     95.961      0.545   0.590824    -0.0756      5.961 -1240.7455 9.6658e+01     2.0740     -0.660     -0.957    29.1855 0.0000e+00
     -0.672 9.5585e-16     7.3548     95.953      0.533   0.578262    -0.0756      5.962 -1240.7455 8.9341e+01     1.9502     -0.659     -0.956    29.1849 0.0000e+00
     -0.672 8.6895e-17     7.3564     95.950      0.523   0.566642    -0.0587      5.951 -1240.7455 7.9912e+01     1.9280     -0.659     -0.956    29.1842 0.0000e+00
     -0.672 7.8995e-18     7.3546     95.950      0.532   0.577005    -0.0550      5.938 -1240.7455 7.4065e+01     1.9425     -0.659     -0.956    29.1837 0.0000e+00
     -0.672 7.1815e-19     7.3584     95.945      0.532   0.576891    -0.0725      5.949 -1240.7455 8.0210e+01     1.7496     -0.658     -0.955    29.1831 0.0000e+00
     -0.672 6.5285e-20     7.3551     95.938      0.522   0.565261    -0.0874      5.980 -1240.7455 9.6800e+01     1.4745     -0.660     -0.957    29.1824 0.0000e+00
     -0.672 5.9350e-21     7.3560     95.937      0.520   0.563063    -0.0773      6.005 -1240.7455 1.0952e+02     1.4175     -0.659     -0.957    29.1815 0.0000e+00
     -0.672 5.3955e-22     7.3563     95.957      0.508   0.550310    -0.0668      6.007 -1240.7455 1.0823e+02     1.4356     -0.659     -0.956    29.1809 0.0000e+00
     -0.672 4.9049e-23     7.3555     95.962      0.496   0.537748    -0.0765      5.993 -1240.7455 9.6169e+01     1.4196     -0.659     -0.956    29.1806 0.0000e+00
     -0.672 4.4590e-24     7.3558     95.949      0.496   0.537851    -0.0785      5.978 -1240.7455 8.5947e+01     1.4980     -0.659     -0.956    29.1799 0.0000e+00
     -0.672 4.0537e-25     7.3535     95.949      0.509   0.551555    -0.0657      5.970 -1240.7455 8.2756e+01     1.5980     -0.660     -0.957    29.1786 0.0000e+00
     -0.672 3.6851e-26     7.3582     95.955      0.532   0.576767    -0.0716      5.966 -1240.7455 8.3714e+01     1.6034     -0.659     -0.957    29.1774 0.0000e+00
     -0.672 3.3501e-27     7.3582     95.953      0.543   0.589340    -0.0831      5.960 -1240.7455 1.0071e+02     1.5289     -0.660     -0.957    29.1764 0.0000e+00
     -0.672 3.0456e-28     7.3557     95.948      0.532   0.576892    -0.0720      5.955 -1240.7455 1.3636e+02     1.4490     -0.659     -0.956    29.1759 0.0000e+00
     -0.672 2.7687e-29     7.3566     95.954      0.510   0.552937    -0.0705      5.965 -1240.7455 1.6557e+02     1.3553     -0.659     -0.957    29.1757 0.0000e+00
     -0.672 2.5170e-30     7.3574     95.967      0.510   0.553051    -0.0813      5.972 -1240.7455 1.7830e+02     1.2843     -0.659     -0.957    29.1747 0.0000e+00
     -0.673 2.2882e-31     7.3574     95.981      0.533   0.578273    -0.0858      5.951 -1240.7455 1.8301e+02     1.3413     -0.660     -0.957    29.1739 0.0000e+00
     -0.673 2.0802e-32     7.3560     95.987      0.557   0.604540    -0.0836      5.935 -1240.7454 1.8594e+02     1.4296     -0.660     -0.957    29.1733 0.0000e+00
     -0.673 1.8911e-33     7.3574     95.977      0.569   0.617303    -0.0709      5.942 -1240.7448 1.8787e+02     1.4643     -0.660     -0.957    29.1727 0.0000e+00
     -0.673 1.7191e-34     7.3583     95.966      0.559   0.605912    -0.0655      5.973 -1240.7382 1.8539e+02     1.4534     -0.660     -0.958    29.1721 0.0000e+00
     -0.673 1.5630e-35     7.3597     95.972      0.548   0.593483    -0.0765      6.048 -1240.6656 1.8161e+02     1.3996     -0.660     -0.957    29.1714 0.0000e+00
     -0.673 1.4369e-36     7.3609     95.978      0.548   0.593702    -0.0874      6.141 -1239.8669 1.8200e+02     1.3607     -0.660     -0.957    29.1708 0.0000e+00
     -0.672 3.0636e-37     7.3596     95.963      0.562   0.608559    -0.0892      6.214 -1231.0804 1.9000e+02     1.3591     -0.659     -0.957    29.1697 0.0000e+00
     -0.672 1.9609e-36     7.3580     95.951      0.597   0.646448    -0.0897      6.477 -1134.4292 1.9940e+02     1.3461     -0.659     -0.956    29.1686 0.0000e+00
     -0.673 2.1442e-35     7.3593     95.966      0.620   0.671791    -0.0850      6.747 -1045.8323 1.9774e+02     1.3397     -0.660     -0.957    29.1670 0.0000e+00
     -0.673 2.3585e-34     7.3615     95.997      0.610   0.661636    -0.0745      6.420 -1134.4292 1.8716e+02     1.3504     -0.660     -0.957    29.1642 0.0000e+00
     -0.673 2.5943e-33     7.3592     96.009      0.600   0.650329    -0.0789      5.845 -1231.0804 1.7509e+02     1.3382     -0.659     -0.956    29.1610 0.0000e+00
     -0.673 2.8538e-32     7.3583     96.001      0.611   0.661760    -0.0882      5.636 -1239.8668 1.6408e+02     1.3631     -0.660     -0.957    29.1580 0.0000e+00
     -0.673 3.1392e-31     7.3593     96.003      0.622   0.673174    -0.0796      5.677 -1240.6656 1.4522e+02     1.4124     -0.659     -0.956    29.1564 0.0000e+00
     -0.673 3.4531e-30     7.3639     96.014      0.611   0.661658    -0.0744      5.757 -1240.7383 1.1302e+02     1.3875     -0.660     -0.957    29.1555 0.0000e+00
     -0.673 3.7984e-29     7.3648     96.023      0.599   0.649198    -0.0921      5.817 -1240.7449 8.4065e+01     1.3364     -0.660     -0.957    29.1548 0.0000e+00
     -0.673 4.1782e-28     7.3624     96.028      0.599   0.649188    -0.0926      5.748 -1240.7455 6.8657e+01     1.3412     -0.660     -0.957    29.1539 0.0000e+00
     -0.673 4.5960e-27     7.3636     96.048      0.611   0.661542    -0.0646      5.429 -1240.7455 6.3119e+01     1.4117     -0.660     -0.957    29.1532 0.0000e+00
     -0.673 5.0556e-26     7.3642     96.046      0.621   0.671896    -0.0538      4.924 -1240.7455 6.2289e+01     1.4370     -0.660     -0.957    29.1530 0.0000e+00
     -0.673 5.5612e-25     7.3660     96.005      0.598   0.647703    -0.0620      4.397 -1240.7455 6.3079e+01     1.3388     -0.660     -0.957    29.1528 0.0000e+00
     -0.673 6.1173e-24     7.3643     95.991      0.575   0.622378    -0.0716      3.889 -1240.7455 6.4649e+01     1.2837     -0.660     -0.957    29.1527 0.0000e+00
     -0.673 6.7291e-23     7.3675     95.994      0.572   0.619037    -0.0786      3.429 -1240.7455 6.5056e+01     1.3173     -0.659     -0.956    29.1528 0.0000e+00
     -0.673 7.4020e-22     7.3699     95.965      0.561   0.607303    -0.0709      3.111 -1240.7455 6.3414e+01     1.3355     -0.660     -0.957    29.1524 0.0000e+00
     -0.673 8.1422e-21     7.3614     95.925      0.560   0.607179    -0.0618      2.858 -1240.7455 6.1849e+01     1.3329     -0.661     -0.958    29.1528 0.0000e+00
     -0.673 8.9564e-20     7.3619     95.903      0.570   0.617542    -0.0608      2.507 -1240.7455 6.1512e+01     1.3535     -0.660     -0.957    29.1535 0.0000e+00
     -0.673 9.8520e-19     7.3649     95.915      0.559   0.605922    -0.0512      2.157 -1240.7455 6.1367e+01     1.4144     -0.659     -0.956    29.1538 0.0000e+00
     -0.673 1.0837e-17     7.3601     95.949      0.548   0.593359    -0.0537      2.084 -1240.7455 6.1508e+01     1.4203     -0.660     -0.957    29.1543 0.0000e+00
     -0.673 1.1921e-16     7.3576     96.004      0.547   0.592311    -0.0736      2.525 -1240.7455 6.2143e+01     1.3894     -0.660     -0.958    29.1544 0.0000e+00
     -0.673 1.3113e-15     7.3541     96.064      0.548   0.593256    -0.0752      3.418 -1240.7455 6.2904e+01     1.4171     -0.660     -0.957    29.1541 0.0000e+00
     -0.673 1.4424e-14     7.3565     96.078      0.559   0.604780    -0.0733      4.214 -1240.7455 6.3712e+01     1.3796     -0.660     -0.957    29.1536 0.0000e+00
     -0.673 1.5867e-13     7.3592     96.064      0.559   0.604978    -0.0842      4.557 -1240.7455 6.6356e+01     1.2776     -0.659     -0.956    29.1529 0.0000e+00
     -0.673 1.7453e-12     7.3622     96.060      0.550   0.595651    -0.0816      4.606 -1240.7455 7.2025e+01     1.3108     -0.660     -0.957    29.1525 0.0000e+00
     -0.673 1.9199e-11     7.3715     96.069      0.571   0.618684    -0.0662      4.537 -1240.7455 7.9168e+01     1.4061     -0.660     -0.957    29.1515 0.0000e+00
     -0.672 2.1119e-10     7.3701     96.068      0.581   0.630115    -0.0562      4.422 -1240.7455 8.6481e+01     1.4401     -0.659     -0.956    29.1500 0.0000e+00
     -0.672 2.3231e-09     7.3685     96.054      0.560   0.607190    -0.0613      4.397 -1240.7451 9.4471e+01     1.4472     -0.659     -0.956    29.1491 0.0000e+00
     -0.672 2.5554e-08     7.3682     96.047      0.549   0.594842    -0.0779      4.474 -1240.7415 1.0318e+02     1.4241     -0.659     -0.956    29.1484 0.0000e+00
     -0.672 2.8109e-07     7.3696     96.025      0.561   0.607499    -0.0821      4.543 -1240.7011 1.0976e+02     1.3997     -0.660     -0.957    29.1482 0.0000e+00
     -0.672      0.000     7.3705     95.995      0.585   0.633546    -0.0791      4.618 -1240.2570 1.1311e+02     1.3576     -0.659     -0.956    29.1476 0.0000e+00
     -0.672      0.000     7.3668     95.995      0.606   0.656428    -0.0826      4.775 -1235.3725 1.1402e+02     1.2902     -0.659     -0.956    29.1481 0.0000e+00
     -0.672      0.000     7.3688     96.004      0.818   0.884163    -0.0837      4.986 -1181.6420 1.1336e+02     1.2686     -0.659     -0.956    29.1472 0.0000e+00
     -0.672      0.004     7.3666     96.009      3.375   3.640415    -0.0760      5.239  -590.6074 1.1380e+02     1.2320     -0.659     -0.956    29.1488 0.0000e+00
     -0.672      0.020     7.3622     96.054     13.673  14.660069    -0.0642      5.701   272.1943 1.1871e+02     1.1210     -0.660     -0.957    29.1462 0.0000e+00
     -0.672      0.058     7.3631     96.215     29.190  30.991452    -0.0574      6.377   404.8099 1.3089e+02     1.0885     -0.659     -0.956    29.1506 0.0000e+00
     -0.671      0.118     7.3662     96.680     38.829  40.621045    -0.0269      7.022   205.0994 1.4893e+02     1.4192     -0.659     -0.956    29.1437 0.0000e+00
     -0.658      0.189     7.3619     97.559     41.349  42.487163     0.3216      7.518   197.4352 1.6832e+02     4.7099     -0.659     -0.957    29.1531 0.0000e+00
     -0.607      0.254     7.3707     98.744     42.099  42.574515     0.9599      7.866   204.9382 1.8624e+02    10.7137     -0.616     -0.893    29.1233 0.0000e+00
     -0.507      0.298     7.4544    100.045     42.565  42.564749     1.2989      8.078   211.3263 2.0167e+02    13.9575     -0.506     -0.733    28.5042 0.0000e+00
     -0.382      0.314     7.6388    101.388     42.850  42.558782     1.3488      8.206   215.8224 2.1447e+02    14.0406     -0.372     -0.540    27.3697 0.0000e+00
     -0.264      0.306     7.8583    102.628     43.098  42.628892     1.7620      8.291   219.9800 2.2316e+02    12.0951     -0.242     -0.351    26.3298 0.0000e+00
     -0.186      0.276     8.0856    103.392     43.356  42.777479     2.5336      8.350   223.5663 2.2447e+02     8.5047     -0.164     -0.239    25.4684 0.0000e+00
     -0.149      0.232     8.2807    103.835     43.516  42.895345     2.9716      8.386   225.8874 1.9785e+02     6.5309     -0.144     -0.209    24.9091 0.0000e+00
     -0.123      0.194     8.4309    104.290     43.506  42.911468     3.0296      8.408   227.3951 1.5450e+02     6.3354     -0.129     -0.187    24.6179 0.0000e+00
     -0.080      0.179     8.5926    104.621     43.464  42.908987     3.0680      8.418   228.5452 1.3864e+02     6.4475     -0.082     -0.119    24.4259 0.0000e+00
     -0.031      0.190     8.6656    104.879     43.549  42.992354     3.1359      8.418   230.5868 1.3732e+02     6.6903     -0.022     -0.033    24.3021 0.0000e+00
      0.009      0.213     8.6883    105.201     43.680  43.094315     3.1843      8.410   233.3233 1.2744e+02     6.8118      0.004      0.005    24.2465 0.0000e+00
      0.059      0.227     8.7393    105.611     43.708  43.126194     3.2044      8.400   235.0463 1.1351e+02     6.8239      0.044      0.065    24.3047 0.0000e+00
      0.134      0.226     8.7442    106.116     43.587  43.060444     3.2379      8.386   235.9321 1.0038e+02     6.6321      0.131      0.191    24.3798 0.0000e+00
      0.215      0.216     8.7624    106.568     43.355  42.870661     3.2805      8.370   237.1506 9.0909e+01     6.2686      0.217      0.314    24.3719 0.0000e+00
      0.281      0.204     8.8037    106.876     43.200  42.672291     3.2955      8.350   238.6800 8.4648e+01     6.0836      0.286      0.414    24.3084 0.0000e+00
      0.321      0.186     8.8334    106.762     43.207  42.566028     3.3026      8.329   240.0553 8.1853e+01     6.0693      0.324      0.470    24.2947 0.0000e+00
      0.344      0.164     8.8696    105.547     43.226  42.474256     3.3165      8.313   241.3890 7.8960e+01     6.0612      0.333      0.482    24.3940 0.0000e+00
      0.374      0.147     8.8944    103.425     43.214  42.387626     3.3303      8.298   242.5884 7.3992e+01     6.0203      0.360      0.522    24.4832 0.0000e+00
      0.418      0.139     8.9279    101.269     43.220  42.343606     3.3526      8.284   243.4589 6.9218e+01     5.9844      0.412      0.599    24.4178 0.0000e+00
      0.461      0.139     8.9866     98.790     43.236  42.322759     3.3618      8.270   243.9975 6.5642e+01     5.9685      0.455      0.660    24.2434 0.0000e+00
      0.497      0.144     8.9067     95.680     43.273  42.325915     3.3662      8.252   244.3691 6.2632e+01     5.9994      0.487      0.706    24.1057 0.0000e+00
      0.528      0.146     8.6788     92.662     43.294  42.318249     3.3805      8.230   244.9411 6.0044e+01     6.1192      0.519      0.752    24.0310 0.0000e+00
      0.560      0.145     8.5386     90.037     43.286  42.293497     3.3860      8.210   246.0087 5.7209e+01     6.2203      0.545      0.791    23.9739 0.0000e+00
      0.598      0.144     8.3612     87.939     43.348  42.343965     3.3748      8.191   247.2104 5.3694e+01     6.2661      0.582      0.845    23.9370 0.0000e+00
      0.642      0.142     8.0532     87.134     43.433  42.420685     3.3608      8.173   247.4252 5.0638e+01     6.2973      0.634      0.919    23.9006 0.0000e+00
      0.681      0.139     7.8050     87.665     43.408  42.395990     3.3914      8.158   247.0567 4.8258e+01     6.3238      0.669      0.970    23.8597 0.0000e+00
      0.716      0.136     7.5991     88.601     43.376  42.362725     3.4542      8.142   247.4872 4.5968e+01     6.3479      0.701      1.018    23.8447 0.0000e+00
      0.748      0.136     7.3763     89.384     43.483  42.462775     3.4786      8.122   248.5862 4.4223e+01     6.3151      0.739      1.071    23.8360 0.0000e+00
      0.774      0.136     7.3071     89.983     43.619  42.590147     3.4869      8.100   249.6759 4.2731e+01     6.2691      0.758      1.099    23.8235 0.0000e+00
      0.804      0.138     7.3990     90.411     43.609  42.569886     3.5624      8.080   250.1661 4.0476e+01     6.3380      0.782      1.134    23.8304 0.0000e+00
      0.845      0.143     7.4889     90.497     43.514  42.471668     3.6924      8.063   250.1257 3.7851e+01     6.4992      0.829      1.203    23.8269 0.0000e+00
      0.889      0.148     7.5537     89.947     43.462  42.418114     3.7770      8.046   250.3061 3.5859e+01     6.5787      0.877      1.272    23.8214 0.0000e+00
      0.926      0.150     7.6028     88.666     43.414  42.366657     3.8112      8.030   250.9697 3.4304e+01     6.5475      0.908      1.317    23.8196 0.0000e+00
      0.963      0.148     7.6463     86.891     43.347  42.293795     3.9982      8.011   251.9549 3.2475e+01     6.5318      0.940      1.364    23.7993 0.0000e+00
      1.004      0.147     7.6672     85.078     43.362  42.298767     4.3482      7.989   252.6683 3.0708e+01     6.5258      0.987      1.432    23.7948 0.0000e+00
      1.041      0.147     7.6235     83.603     43.443  42.363288     4.5464      7.968   252.8834 2.9447e+01     6.5095      1.024      1.485    23.7961 0.0000e+00
      1.071      0.150     7.5083     82.429     43.474  42.375724     4.5721      7.947   253.0078 2.8211e+01     6.5394      1.046      1.517    23.7872 0.0000e+00
      1.107      0.151     7.3450     81.461     43.504  42.385631     4.5845      7.926   253.2250 2.6541e+01     6.5454      1.081      1.567    23.7820 0.0000e+00
      1.152      0.148     7.1765     80.886     43.557  42.419571     4.7303      7.906   253.6173 2.4877e+01     6.4795      1.133      1.643    23.7703 0.0000e+00
      1.195      0.145     7.0597     80.832     43.558  42.405246     5.0113      7.886   254.3955 2.3545e+01     6.3919      1.173      1.702    23.7525 0.0000e+00
      1.234      0.141     6.9719     81.307     43.572  42.402815     5.1766      7.863   255.1491 2.2354e+01     6.3059      1.210      1.754    23.7311 0.0000e+00
      1.268      0.133     6.8801     82.270     43.641  42.453625     5.2231      7.841   255.2436 2.1457e+01     6.2939      1.249      1.812    23.7069 0.0000e+00
      1.295      0.123     6.8313     83.396     43.656  42.448321     5.3814      7.821   255.0220 2.0697e+01     6.2809      1.269      1.841    23.6880 0.0000e+00
      1.324      0.115     6.8320     84.363     43.629  42.402140     5.6597      7.801   255.0504 1.9757e+01     6.1484      1.294      1.876    23.6699 0.0000e+00
      1.356      0.111     6.8693     85.195     43.649  42.402975     5.8082      7.780   255.8445 1.8987e+01     6.0239      1.335      1.937    23.6528 0.0000e+00
      1.382      0.111     6.9667     85.856     43.658  42.394929     5.8286      7.761   257.1381 1.8455e+01     6.0400      1.356      1.968    23.6346 0.0000e+00
      1.404      0.116     7.0806     86.151     43.654  42.368297     5.9815      7.741   257.7851 1.7730e+01     6.1390      1.371      1.989    23.6127 0.0000e+00
      1.434      0.125     7.1578     86.170     43.714  42.398282     6.2417      7.719   257.6446 1.6934e+01     6.1950      1.408      2.042    23.5874 0.0000e+00
      1.464      0.135     7.2310     86.089     43.786  42.440078     6.3696      7.696   257.4195 1.6238e+01     6.2047      1.436      2.083    23.5652 0.0000e+00
      1.497      0.148     7.3026     85.864     43.864  42.492793     6.3865      7.673   257.9024 1.5312e+01     6.1886      1.461      2.119    23.5521 0.0000e+00
      1.541      0.155     7.3254     85.510     43.986  42.591329     6.4876      7.652   258.7504 1.4268e+01     5.9313      1.510      2.192    23.5242 0.0000e+00
      1.588      0.152     7.3206     85.011     44.014  42.615905     6.6602      7.635   259.2413 1.3383e+01     5.4513      1.558      2.261    23.4890 0.0000e+00
      1.634      0.146     7.3278     84.392     43.908  42.536049     6.7338      7.616   259.4491 1.2510e+01     5.1668      1.599      2.320    23.4546 0.0000e+00
      1.678      0.143     7.3077     84.092     43.876  42.514419     6.7122      7.593   259.1129 1.1840e+01     5.1213      1.652      2.397    23.4306 0.0000e+00
      1.706      0.138     7.2795     84.413     44.002  42.608279     6.6321      7.571   258.7034 1.1605e+01     5.1751      1.681      2.439    23.4063 0.0000e+00
      1.721      0.132     7.2491     85.154     44.078  42.655327     6.4977      7.551   258.8857 1.1280e+01     5.3048      1.678      2.434    23.3873 0.0000e+00
      1.751      0.130     7.1664     86.044     43.991  42.575459     6.4273      7.529   259.2524 1.0502e+01     5.3918      1.704      2.473    23.4378 0.0000e+00
      1.801      0.138     7.1243     86.923     43.946  42.531206     6.4058      7.504   259.2653 9.8041e+00     5.3724      1.774      2.575    23.4705 0.0000e+00
      1.841      0.151     7.1727     87.610     44.090  42.628041     6.3117      7.483   258.8693 9.5277e+00     5.1724      1.816      2.634    23.4087 0.0000e+00
      1.865      0.158     7.2509     88.001     44.235  42.730675     6.1218      7.465   258.0786 9.1932e+00     4.8528      1.820      2.640    23.3576 0.0000e+00
      1.905      0.153     7.3256     88.203     44.237  42.756552     5.9489      7.449   257.2771 8.5033e+00     4.6851      1.856      2.693    23.3861 0.0000e+00
      1.963      0.144     7.4024     88.304     44.166  42.750543     5.8863      7.435   257.1796 7.8506e+00     4.6813      1.931      2.801    23.4146 0.0000e+00
      2.009      0.139     7.4780     88.174     44.087  42.721592     5.8809      7.421   257.4156 7.5532e+00     4.6709      1.983      2.875    23.3385 0.0000e+00
      2.034      0.139     7.5162     87.604     44.086  42.723935     5.8994      7.403   257.5493 7.3722e+00     4.5933      1.994      2.891    23.2546 0.0000e+00
      2.054      0.139     7.5220     86.634     44.193  42.778876     5.9437      7.383   257.1617 7.0991e+00     4.4601      2.011      2.917    23.3047 0.0000e+00
      2.081      0.140     7.5217     85.668     44.298  42.814561     5.9835      7.364   256.2565 6.7809e+00     4.3926      2.038      2.955    23.4053 0.0000e+00
      2.119      0.150     7.5116     85.003     44.356  42.837935     6.0148      7.347   255.8110 6.3988e+00     4.4276      2.073      3.006    23.4600 0.0000e+00
      2.167      0.160     7.4619     84.425     44.395  42.871024     6.0564      7.331   255.9055 6.0279e+00     4.1986      2.127      3.086    23.4768 0.0000e+00
      2.214      0.163     7.3733     83.649     44.417  42.897274     6.1117      7.317   256.1085 5.7223e+00     3.7079      2.171      3.150    23.4058 0.0000e+00
      2.262      0.158     7.2907     82.681     44.407  42.901448     6.1507      7.304   255.5116 5.4222e+00     3.4472      2.215      3.213    23.2966 0.0000e+00
      2.308      0.148     7.2506     81.689     44.349  42.858036     6.1712      7.293   254.2816 5.2077e+00     3.4379      2.270      3.293    23.2722 0.0000e+00
      2.342      0.142     7.2128     80.938     44.313  42.816707     6.2341      7.278   253.7123 5.0861e+00     3.4597      2.301      3.337    23.2791 0.0000e+00
      2.364      0.140     7.1412     80.495     44.383  42.846039     6.3281      7.261   253.6185 4.9396e+00     3.4372      2.317      3.361    23.2781 0.0000e+00
      2.389      0.138     7.0551     80.302     44.475  42.895261     6.3746      7.246   253.4908 4.7371e+00     3.4397      2.339      3.392    23.2984 0.0000e+00
      2.424      0.136     6.9537     80.513     44.446  42.904005     6.4145      7.232   253.0290 4.4968e+00     3.4556      2.370      3.437    23.3212 0.0000e+00
      2.474      0.139     6.8884     81.298     44.322  42.888341     6.7440      7.218   252.3368 4.2628e+00     3.3901      2.426      3.518    23.3218 0.0000e+00
      2.522      0.147     6.8647     82.547     44.265  42.896444     7.3289      7.202   251.7467 4.1187e+00     3.2957      2.484      3.603    23.2743 0.0000e+00
      2.550      0.151     6.8513     84.007     44.335  42.938606     7.6352      7.187   251.2288 4.0402e+00     3.2372      2.505      3.633    23.1785 0.0000e+00
      2.572      0.148     6.8583     85.630     44.374  42.953769     7.6681      7.175   250.8933 3.8892e+00     3.2287      2.511      3.642    23.2149 0.0000e+00
      2.612      0.143     6.9031     87.335     44.318  42.952784     7.9185      7.164   251.1313 3.6670e+00     3.1937      2.556      3.706    23.4032 0.0000e+00
      2.665      0.142     7.0107     88.763     44.293  42.990258     8.3896      7.152   251.6114 3.4935e+00     3.1216      2.622      3.803    23.5029 0.0000e+00
      2.705      0.144     7.1434     89.659     44.337  43.026131     8.6617      7.139   251.3638 3.3888e+00     3.1077      2.660      3.859    23.4169 0.0000e+00
      2.731      0.145     7.2907     90.034     44.373  43.005672     8.7041      7.126   250.8911 3.2805e+00     3.0600      2.674      3.878    23.3377 0.0000e+00
      2.762      0.146     7.4364     89.839     44.426  42.996702     8.8020      7.110   250.8864 3.1316e+00     2.9551      2.704      3.922    23.4538 0.0000e+00
      2.802      0.149     7.5505     88.922     44.538  43.044526     9.9857      7.090   251.4788 2.9851e+00     3.0002      2.752      3.991    23.5659 0.0000e+00
      2.838      0.154     7.6269     87.490     44.598  43.076035    12.1877      7.072   252.4608 2.8386e+00     3.1620      2.782      4.034    23.5368 0.0000e+00
      2.878      0.159     7.6702     85.964     44.533  43.060269    13.4118      7.054   253.0373 2.6326e+00     3.2372      2.813      4.081    23.4469 0.0000e+00
      2.929      0.161     7.6749     84.530     44.440  43.044385    13.6837      7.038   253.6310 2.4344e+00     3.2268      2.876      4.172    23.3914 0.0000e+00
      2.975      0.160     7.5989     83.201     44.427  43.074515    15.5331      7.024   254.5625 2.3227e+00     3.3436      2.925      4.243    23.3131 0.0000e+00
      3.008      0.160     7.4682     81.903     44.450  43.107264    18.9268      7.009   255.5240 2.2106e+00     3.5562      2.946      4.273    23.2407 0.0000e+00
      3.044      0.158     7.3237     80.605     44.474  43.123009    20.8504      6.994   256.3087 2.0347e+00     3.6793      2.981      4.323    23.3340 0.0000e+00
      3.087      0.155     7.1851     79.431     44.501  43.137920    21.8365      6.981   256.4792 1.8669e+00     3.8413      3.030      4.395    23.4438 0.0000e+00
      3.127      0.156     7.0695     78.467     44.536  43.160585    30.7500      6.969   256.0372 1.7373e+00     4.6272      3.065      4.446    23.4847 0.0000e+00
      3.167      0.161     6.9628     77.666     45.083  43.650930    47.0476      6.957   254.9222 1.5895e+00     5.9392      3.103      4.500    23.4901 0.0000e+00
      3.208      0.163     6.8460     76.822     47.229  45.321614    55.9317      6.947   253.4937 1.4295e+00     6.6553      3.150      4.568    23.4759 0.0000e+00
      3.246      0.160     6.7467     75.213     51.058  47.553942    56.7091      6.937   252.4453 1.2703e+00     6.7956      3.181      4.613    23.4628 0.0000e+00
      3.290      0.153     6.6667     71.170     55.208  49.055880    56.4631      6.928   251.4528 1.0863e+00     7.3290      3.221      4.672    23.4470 0.0000e+00
      3.339      0.145     6.6039     62.976     58.431  49.701534    55.8707      6.918   249.7535 9.3056e-01     8.1852      3.281      4.759    23.4606 0.0000e+00
      3.377      0.142     6.5449     50.250     59.594  49.198764    55.4883      6.905   245.3208 8.3858e-01     8.5735      3.316      4.810    23.4366 0.0000e+00
      3.402      0.149     6.6364     34.464     59.099  47.800255    54.8781      6.885   234.0802 7.6871e-01     8.6077      3.336      4.838    22.0944 0.0000e+00
      3.426      0.163     6.6996     18.352     59.140  47.076532    48.4271      6.863   216.6614 6.9738e-01     9.0771      3.359      4.872    19.3563 0.0000e+00
      3.457      0.180     6.2105      4.047     60.083  47.177486    36.5911      6.845   199.5627 5.8018e-01     9.9104      3.381      4.904    17.2914 0.0000e+00
      3.510      0.195     5.0663     -7.249     60.874  47.242509    30.1159      6.830   185.5676 4.1430e-01    10.3137      3.434      4.980    16.1455 0.0000e+00
      3.581      0.204     3.4449    -14.617     61.149  47.036738    29.4716      6.817   172.9791 2.7554e-01    10.2990      3.512      5.096    15.3558 0.0000e+00
      3.652      0.209     1.7854    -17.634     60.677  46.403189    28.9756      6.806   162.3916 1.8608e-01    10.3134      3.585      5.200    14.7883 0.0000e+00
      3.709      0.209     0.3107    -16.801     59.545  45.359108    24.1276      6.795   155.6395 1.3805e-01    10.6579      3.644      5.285    14.2365 0.0000e+00
      3.748      0.206    -0.8986    -13.584     58.736  44.569891    15.2496      6.785   151.5674 1.2499e-01    11.3568      3.680      5.337    13.7599 0.0000e+00
      3.782      0.201    -1.6887     -9.610     58.719  44.351461    10.3902      6.778   148.6035 1.2381e-01    11.7617      3.702      5.369    13.4114 0.0000e+00
      3.829      0.200    -2.0022     -5.993     59.019  44.368341     9.8020      6.772   146.1322 1.2370e-01    11.7615      3.748      5.436    13.2037 0.0000e+00
      3.892      0.202    -1.8521     -3.085     59.305  44.392868     8.2209      6.767   143.7991 1.2366e-01    11.8325      3.820      5.540    13.0855 0.0000e+00
      3.955      0.197    -1.4552     -0.587     59.513  44.393884     5.3975      6.762   141.9899 1.2366e-01    12.0726      3.881      5.630    12.9553 0.0000e+00
      4.010      0.184    -0.9977      1.998     59.627  44.380459     3.8724      6.759   140.9490 1.2367e-01    12.2739      3.932      5.703    12.7610 0.0000e+00
      4.061      0.167    -0.6039      5.148     59.662  44.357391     3.7300      6.755   140.5919 1.2366e-01    12.3199      3.986      5.780    12.5793 0.0000e+00
      4.100      0.156    -0.3139      9.270     59.718  44.368833     3.5007      6.749   140.6834 1.2362e-01    12.3548      4.031      5.846    12.4164 0.0000e+00
      4.120      0.152    -0.0671     14.350     59.797  44.391816     3.0892      6.743   141.7105 1.2359e-01    12.4910      4.042      5.862    12.2754 0.0000e+00
      4.138      0.150     0.1942     19.828     59.835  44.381313     2.8581      6.738   143.8040 1.2362e-01    12.6343      4.044      5.867    12.1953 0.0000e+00
      4.181      0.150     0.5128     25.081     59.858  44.368758     2.8289      6.734   146.2938 1.2367e-01    12.6870      4.092      5.935    12.1676 0.0000e+00
      4.241      0.158     0.9517     29.719     59.880  44.366947     2.7033      6.730   150.0467 1.2372e-01    12.4445      4.163      6.038    12.1494 0.0000e+00
      4.293      0.175     1.5289     33.544     59.887  44.359395     2.4631      6.724   155.8825 1.2370e-01    11.9572      4.219      6.120    12.1165 0.0000e+00
      4.324      0.191     2.1436     36.430     59.877  44.340903     2.3297      6.717   162.5635 1.2362e-01    11.6804      4.242      6.153    12.0805 0.0000e+00
      4.353      0.202     2.7237     38.263     59.881  44.333785     2.2804      6.712   168.4465 1.2361e-01    11.6932      4.255      6.171    12.0540 0.0000e+00
      4.408      0.215     3.2306     39.146     59.897  44.336794     1.8838      6.707   173.0672 1.2361e-01    12.0437      4.315      6.257    12.0424 0.0000e+00
      4.479      0.234     3.6448     39.386     59.876  44.313798     1.1636      6.703   177.0474 1.2358e-01    12.6045      4.400      6.381    12.0339 0.0000e+00
      4.545      0.254     3.9660     39.272     59.877  44.309635     0.7721      6.698   181.6384 1.2365e-01    12.8724      4.458      6.466    12.0231 0.0000e+00
      4.610      0.270     4.1590     38.953     59.935  44.349935     0.7375      6.692   186.7621 1.2372e-01    12.9592      4.515      6.549    12.0153 0.0000e+00
      4.682      0.282     4.2407     38.491     59.949  44.356703     0.7120      6.686   190.9014 1.2366e-01    13.4835      4.592      6.661    12.0073 0.0000e+00
      4.754      0.293     4.2555     37.946     59.914  44.327984     0.6308      6.681   194.1738 1.2359e-01    14.3608      4.666      6.767    12.0003 0.0000e+00
      4.824      0.304     4.2386     37.394     59.907  44.320086     0.5288      6.677   197.7627 1.2355e-01    14.8226      4.727      6.856    11.9966 0.0000e+00
      4.903      0.309     4.2034     36.872     59.916  44.324681     0.4861      6.674   201.6852 1.2353e-01    14.8649      4.802      6.964    11.9957 0.0000e+00
      4.993      0.299     4.1515     36.374     59.912  44.320057     0.4803      6.671   205.2060 1.2358e-01    14.8384      4.899      7.105    11.9928 0.0000e+00
      5.083      0.273     4.0900     35.921     59.924  44.327653     0.4500      6.669   208.2403 1.2364e-01    14.9118      4.990      7.237    11.9891 0.0000e+00
      5.161      0.231     4.0280     35.530     59.954  44.353043     0.4113      6.667   210.9259 1.2364e-01    15.1714      5.066      7.347    11.9874 0.0000e+00
      5.224      0.181     3.9745     35.195     59.968  44.373136     0.4038      6.665   213.4140 1.2364e-01    15.3138      5.131      7.443    11.9867 0.0000e+00
      5.261      0.128     3.9185     34.918     59.962  44.380170     0.4173      6.663   216.0391 1.2364e-01    15.2672      5.173      7.502    11.9852 0.0000e+00
      5.269      0.081     3.8693     34.704     59.945  44.374629     0.4843      6.661   218.4900 1.2361e-01    15.1198      5.171      7.500    11.9828 0.0000e+00
      5.267      0.045     3.8284     34.544     59.929  44.369616     0.6063      6.660   220.4192 1.2359e-01    14.8977      5.159      7.484    11.9838 0.0000e+00
      5.272      0.021     3.7905     34.413     59.924  44.383048     0.6846      6.658   221.8127 1.2360e-01    14.8025      5.170      7.498    11.9929 0.0000e+00
      5.279      0.011     3.7598     34.306     59.928  44.410090     0.7320      6.656   222.3469 1.2358e-01    14.8223      5.180      7.513    12.0069 0.0000e+00
      5.281      0.009     3.7359     34.207     59.941  44.442695     1.0378      6.653   222.0597 1.2355e-01    14.5907      5.180      7.513    12.0103 0.0000e+00
      5.280      0.011     3.7210     34.102     59.935  44.459905     1.5848      6.649   221.6947 1.2359e-01    14.1209      5.175      7.506    12.0108 0.0000e+00
      5.282      0.020     3.7043     33.996     59.865  44.427762     1.8780      6.645   221.5481 1.2365e-01    13.8554      5.180      7.511    12.0273 0.0000e+00
      5.286      0.039     3.6916     33.884     59.780  44.371473     1.9279      6.640   221.5784 1.2369e-01    13.8403      5.188      7.525    12.0511 0.0000e+00
      5.287      0.063     3.6811     33.772     59.770  44.350641     2.2048      6.636   221.5444 1.2370e-01    13.8361      5.181      7.515    12.0697 0.0000e+00
      5.298      0.084     3.6666     33.654     59.820  44.366304     2.6968      6.632   221.3086 1.2365e-01    13.7363      5.183      7.518    12.0859 0.0000e+00
      5.333      0.103     3.6551     33.531     59.848  44.370380     2.9492      6.628   221.5668 1.2357e-01    13.6243      5.224      7.576    12.1081 0.0000e+00
      5.380      0.123     3.6405     33.422     59.818  44.336428     2.9340      6.623   222.6875 1.2353e-01    13.6083      5.282      7.661    12.1186 0.0000e+00
      5.418      0.146     3.6310     33.324     59.754  44.273169     2.7287      6.618   224.1046 1.2353e-01    13.8173      5.321      7.717    12.1006 0.0000e+00
      5.442      0.167     3.6206     33.238     59.744  44.240288     2.3650      6.612   225.1929 1.2359e-01    14.2032      5.334      7.736    12.0774 0.0000e+00
      5.472      0.183     3.6064     33.169     59.801  44.256227     2.1654      6.607   226.1226 1.2363e-01    14.4139      5.356      7.768    12.0641 0.0000e+00
      5.524      0.199     3.5966     33.123     59.853  44.275415     2.1376      6.603   227.5161 1.2362e-01    14.3842      5.412      7.849    12.0578 0.0000e+00
      5.590      0.218     3.5862     33.096     59.877  44.281840     2.0956      6.599   229.3078 1.2365e-01    14.3217      5.484      7.953    12.0476 0.0000e+00
      5.656      0.236     3.5793     33.080     59.870  44.270411     1.7165      6.594   231.0941 1.2368e-01    14.5470      5.548      8.047    12.0222 0.0000e+00
      5.718      0.243     3.5731     33.064     59.867  44.264178     1.0161      6.591   232.7675 1.2365e-01    15.0245      5.606      8.131    11.9967 0.0000e+00
      5.780      0.241     3.5701     33.042     59.879  44.269946     0.6271      6.589   234.3115 1.2364e-01    15.2789      5.666      8.219    11.9814 0.0000e+00
      5.844      0.236     3.5679     33.023     59.892  44.276666     0.5751      6.587   235.8240 1.2360e-01    15.3000      5.730      8.311    11.9732 0.0000e+00
      5.905      0.231     3.5671     33.018     59.902  44.281954     0.5126      6.583   237.2887 1.2355e-01    15.3477      5.795      8.405    11.9687 0.0000e+00
      5.959      0.224     3.5657     33.018     59.888  44.270403     0.4369      6.580   238.6842 1.2356e-01    15.4796      5.844      8.476    11.9656 0.0000e+00
      6.013      0.215     3.5631     33.008     59.880  44.263953     0.4178      6.577   240.3078 1.2361e-01    15.5973      5.891      8.545    11.9630 0.0000e+00
      6.072      0.205     3.5608     32.999     59.885  44.267433     0.4228      6.575   241.9493 1.2368e-01    15.6100      5.955      8.638    11.9602 0.0000e+00
      6.127      0.193     3.5606     32.987     59.860  44.249010     0.4220      6.573   243.1298 1.2367e-01    15.5637      6.013      8.721    11.9589 0.0000e+00
      6.173      0.178     3.5624     32.970     59.838  44.231631     0.4339      6.570   244.0847 1.2360e-01    15.5158      6.054      8.781    11.9582 0.0000e+00
      6.217      0.161     3.5594     32.955     59.862  44.247741     0.4418      6.568   245.4062 1.2361e-01    15.4754      6.095      8.841    11.9574 0.0000e+00
      6.258      0.145     3.5594     32.930     59.872  44.253356     0.4509      6.565   246.9772 1.2362e-01    15.4854      6.142      8.907    11.9577 0.0000e+00
      6.290      0.131     3.5583     32.899     59.850  44.236045     0.4693      6.562   248.1951 1.2359e-01    15.5343      6.174      8.954    11.9578 0.0000e+00
      6.315      0.120     3.5556     32.874     59.841  44.228856     0.4718      6.560   249.2045 1.2356e-01    15.5195      6.190      8.978    11.9567 0.0000e+00
      6.343      0.117     3.5554     32.850     59.842  44.229914     0.4563      6.557   250.2336 1.2351e-01    15.4775      6.217      9.017    11.9552 0.0000e+00
      6.375      0.127     3.5525     32.833     59.867  44.248835     0.4491      6.552   251.6036 1.2347e-01    15.4704      6.257      9.074    11.9538 0.0000e+00
      6.400      0.152     3.5478     32.828     59.892  44.267192     0.4595      6.547   253.3797 1.2352e-01    15.6041      6.279      9.106    11.9529 0.0000e+00
      6.425      0.187     3.5466     32.825     59.885  44.261436     0.4810      6.543   254.8449 1.2357e-01    15.8651      6.290      9.122    11.9525 0.0000e+00
      6.471      0.225     3.5432     32.820     59.860  44.242706     0.4852      6.540   255.8110 1.2358e-01    15.9603      6.336      9.189    11.9528 0.0000e+00
      6.542      0.262     3.5407     32.796     59.845  44.231165     0.4607      6.535   256.5423 1.2362e-01    15.9022      6.413      9.302    11.9532 0.0000e+00
      6.627      0.296     3.5415     32.738     59.870  44.248847     0.4508      6.531   257.3199 1.2364e-01    15.8799      6.496      9.422    11.9528 0.0000e+00
      6.716      0.318     3.5403     32.679     59.895  44.266060     0.4734      6.528   258.2447 1.2357e-01    15.8615      6.587      9.553    11.9521 0.0000e+00
      6.803      0.321     3.5409     32.622     59.872  44.248848     0.4925      6.526   259.0337 1.2350e-01    15.8155      6.672      9.677    11.9518 0.0000e+00
      6.888      0.305     3.5401     32.536     59.848  44.231167     0.4823      6.524   259.6317 1.2349e-01    15.7683      6.754      9.795    11.9516 0.0000e+00
      6.973      0.277     3.5309     32.443     59.862  44.242718     0.4593      6.523   260.2264 1.2354e-01    15.7351      6.841      9.923    11.9512 0.0000e+00
      7.048      0.246     3.5241     32.378     59.887  44.261553     0.4470      6.522   260.5462 1.2357e-01    15.7211      6.918     10.035    11.9502 0.0000e+00
      7.103      0.214     3.5217     32.334     59.896  44.268465     0.4491      6.522   260.8316 1.2353e-01    15.7353      6.972     10.112    11.9495 0.0000e+00
      7.143      0.179     3.5099     32.313     59.890  44.262813     0.4598      6.520   261.6111 1.2352e-01    15.7712      7.007     10.163    11.9500 0.0000e+00
      7.178      0.144     3.4980     32.313     59.883  44.256683     0.4602      6.517   262.5724 1.2355e-01    15.7794      7.037     10.205    11.9508 0.0000e+00
      7.214      0.111     3.4923     32.322     59.884  44.257828     0.4292      6.515   263.4202 1.2362e-01    15.7320      7.075     10.260    11.9514 0.0000e+00
      7.248      0.086     3.4869     32.351     59.904  44.276662     0.3924      6.514   263.6013 1.2368e-01    15.6756      7.115     10.320    11.9519 0.0000e+00
      7.265      0.069     3.4844     32.391     59.919  44.293970     0.3903      6.511   263.3860 1.2368e-01    15.6785      7.132     10.343    11.9507 0.0000e+00
      7.268      0.062     3.4865     32.422     59.889  44.276660     0.4128      6.509   264.0015 1.2368e-01    15.7325      7.126     10.336    11.9489 0.0000e+00
      7.270      0.067     3.4855     32.442     59.861  44.257817     0.4472      6.508   265.3645 1.2368e-01    15.7489      7.125     10.335    11.9492 0.0000e+00
      7.279      0.093     3.4889     32.453     59.863  44.256569     0.4901      6.503   266.7010 1.2366e-01    15.7057      7.136     10.350    11.9528 0.0000e+00
      7.299      0.140     3.4944     32.449     59.878  44.261566     0.5146      6.497   267.0834 1.2363e-01    15.6877      7.152     10.373    11.9587 0.0000e+00
      7.334      0.196     3.4965     32.432     59.876  44.254742     0.5192      6.492   266.6328 1.2359e-01    15.7367      7.185     10.421    11.9641 0.0000e+00
      7.389      0.240     3.4988     32.410     59.857  44.237537     0.5119      6.488   266.5874 1.2354e-01    15.8197      7.236     10.495    11.9663 0.0000e+00
      7.471      0.260     3.5002     32.385     59.866  44.243969     0.4849      6.486   267.2227 1.2353e-01    15.9047      7.314     10.609    11.9627 0.0000e+00
      7.576      0.258     3.5007     32.359     59.898  44.269037     0.4592      6.483   268.1182 1.2357e-01    15.9461      7.434     10.782    11.9567 0.0000e+00
      7.669      0.238     3.4984     32.331     59.918  44.286716     0.4510      6.481   268.6397 1.2362e-01    15.9100      7.540     10.936    11.9519 0.0000e+00
      7.721      0.208     3.4964     32.306     59.888  44.267301     0.4438      6.481   268.7094 1.2368e-01    15.8435      7.583     11.000    11.9494 0.0000e+00
      7.741      0.173     3.4936     32.306     59.831  44.224717     0.4309      6.480   268.8753 1.2366e-01    15.7918      7.588     11.005    11.9489 0.0000e+00
      7.761      0.146     3.4910     32.330     59.823  44.216186     0.4118      6.478   269.2692 1.2355e-01    15.7628      7.603     11.028    11.9495 0.0000e+00
      7.795      0.141     3.4875     32.344     59.844  44.227624     0.3874      6.474   269.8577 1.2347e-01    15.7319      7.644     11.087    11.9533 0.0000e+00
      7.832      0.160     3.4835     32.339     59.860  44.236053     0.3771      6.470   270.8292 1.2348e-01    15.6916      7.682     11.142    11.9571 0.0000e+00
      7.867      0.186     3.4828     32.331     59.890  44.254610     0.4045      6.466   271.7232 1.2350e-01    15.7543      7.710     11.183    11.9566 0.0000e+00
      7.915      0.204     3.4884     32.316     59.902  44.261547     0.4510      6.465   271.9772 1.2352e-01    15.9435      7.753     11.245    11.9532 0.0000e+00
      7.981      0.210     3.4904     32.301     59.897  44.256448     0.4649      6.464   272.0065 1.2355e-01    16.0310      7.824     11.347    11.9496 0.0000e+00
      8.055      0.204     3.4879     32.281     59.898  44.256448     0.4482      6.463   272.2502 1.2356e-01    15.9590      7.905     11.466    11.9468 0.0000e+00
      8.116      0.184     3.4895     32.260     59.905  44.261547     0.4321      6.461   273.2037 1.2356e-01    15.8576      7.966     11.554    11.9432 0.0000e+00
      8.160      0.156     3.4861     32.258     59.895  44.254614     0.4209      6.459   274.5870 1.2358e-01    15.7962      8.005     11.610    11.9414 0.0000e+00
      8.191      0.131     3.4855     32.261     59.869  44.236104     0.4124      6.457   275.3807 1.2359e-01    15.8318      8.038     11.658    11.9413 0.0000e+00
      8.210      0.121     3.4840     32.254     59.857  44.228178     0.4040      6.453   275.5731 1.2354e-01    15.8438      8.057     11.686    11.9398 0.0000e+00
      8.218      0.130     3.4789     32.242     59.849  44.222255     0.4110      6.449   276.1390 1.2350e-01    15.7713      8.055     11.683    11.9394 0.0000e+00
      8.237      0.154     3.4812     32.247     59.859  44.227966     0.4305      6.447   277.4048 1.2355e-01    15.7401      8.064     11.696    11.9402 0.0000e+00
      8.283      0.188     3.4811     32.267     59.869  44.233736     0.4475      6.446   278.3150 1.2362e-01    15.7747      8.115     11.770    11.9417 0.0000e+00
      8.349      0.222     3.4807     32.276     59.864  44.228541     0.4666      6.443   278.3685 1.2361e-01    15.8133      8.188     11.875    11.9430 0.0000e+00
      8.420      0.247     3.4776     32.276     59.865  44.228628     0.4704      6.441   277.9652 1.2354e-01    15.7964      8.257     11.975    11.9425 0.0000e+00
      8.494      0.255     3.4782     32.263     59.874  44.234785     0.4510      6.439   278.1709 1.2354e-01    15.7414      8.330     12.081    11.9410 0.0000e+00
      8.567      0.247     3.4830     32.231     59.880  44.239502     0.4326      6.438   279.3072 1.2354e-01    15.7294      8.405     12.191    11.9392 0.0000e+00
      8.632      0.232     3.4827     32.191     59.856  44.222185     0.4398      6.436   280.3467 1.2354e-01    15.7544      8.469     12.284    11.9378 0.0000e+00
      8.686      0.220     3.4834     32.169     59.850  44.215837     0.4624      6.433   280.7597 1.2362e-01    15.7695      8.523     12.362    11.9366 0.0000e+00
      8.731      0.211     3.4821     32.158     59.865  44.226227     0.4729      6.431   280.6866 1.2372e-01    15.7411      8.565     12.422    11.9364 0.0000e+00
      8.772      0.205     3.4785     32.148     59.860  44.220844     0.4669      6.428   280.5810 1.2370e-01    15.6847      8.597     12.469    11.9378 0.0000e+00
      8.823      0.200     3.4723     32.163     59.852  44.214238     0.4564      6.425   280.7742 1.2360e-01    15.6679      8.646     12.540    11.9376 0.0000e+00
      8.887      0.200     3.4709     32.203     59.846  44.209822     0.4544      6.424   281.2159 1.2359e-01    15.6748      8.717     12.642    11.9361 0.0000e+00
      8.947      0.203     3.4709     32.238     59.874  44.230929     0.4594      6.421   281.5330 1.2360e-01    15.6997      8.781     12.735    11.9353 0.0000e+00
      8.993      0.208     3.4678     32.265     60.113  44.405957     0.4585      6.417   281.5972 1.2357e-01    15.7293      8.819     12.791    11.9342 0.0000e+00
      9.034      0.212     3.4693     32.265     62.371  46.072162     0.4520      6.415   281.0453 1.2352e-01    15.7260      8.855     12.844    11.9335 0.0000e+00
      9.084      0.212     3.4764     32.226     86.125  63.615116     0.4480      6.412   280.1957 1.2347e-01    15.7277      8.904     12.915    11.9335 0.0000e+00
      9.142      0.207     3.4787     32.193    139.676 103.153060     0.4513      6.409   280.2727 1.2348e-01    15.7506      8.963     13.000    11.9337 0.0000e+00
      9.207      0.199     3.4825     32.175    219.266 161.880049     0.4587      6.407   280.5131 1.2346e-01    15.7640      9.029     13.096    11.9334 0.0000e+00
      9.270      0.184     3.4851     32.125    309.315 228.262732     0.4538      6.404   279.7470 1.2341e-01    15.7185      9.097     13.193    11.9313 0.0000e+00
      9.317      0.160     3.4766     31.939    360.457 265.857350     0.4504      6.401   278.4954 1.2346e-01    15.6450      9.146     13.266    11.9310 0.0000e+00
      9.345      0.129     3.4728     31.364    372.887 274.868411     0.4510      6.399   277.6833 1.2358e-01    15.5923      9.165     13.293    11.9279 0.0000e+00
      9.369      0.097     3.4731     30.114    378.798 279.126746     0.4368      6.398   277.8435 1.2362e-01    15.5592      9.184     13.319    11.9171 0.0000e+00
      9.394      0.068     3.4700     28.164    382.608 281.902836     0.4198      6.398   278.6256 1.2361e-01    15.5525      9.218     13.370    11.9016 0.0000e+00
      9.409      0.046     3.4609     25.723    384.688 283.453646     0.4027      6.396   279.3099 1.2361e-01    15.5115      9.231     13.388    11.8758 0.0000e+00
      9.413      0.030     3.4174     23.053    385.279 283.941163     0.3884      6.394   279.7500 1.2361e-01    15.5071      9.231     13.387    11.8505 0.0000e+00
      9.414      0.017     3.2819     20.398    385.182 283.943875     0.3807      6.392   279.9032 1.2364e-01    15.6354      9.233     13.391    11.8378 0.0000e+00
      9.414      0.007     3.0616     17.961    384.963 283.871883     0.3841      6.392   279.5271 1.2364e-01    15.7648      9.232     13.390    11.8345 0.0000e+00
      9.414      0.002     2.7880     15.868    384.604 283.713096     0.4047      6.392   278.6448 1.2360e-01    15.8416      9.233     13.391    11.8378 0.0000e+00
      9.415      0.001     2.4891     14.184    383.904 283.308655     0.4307      6.391   277.8398 1.2359e-01    15.9156      9.232     13.390    11.8450 0.0000e+00
      9.415      0.000     2.1945     12.944    383.128 282.835532     0.4486      6.389   277.7092 1.2361e-01    15.9414      9.233     13.391    11.8551 0.0000e+00
      9.415 1.9277e-08     1.9253     12.063    382.879 282.745420     0.4461      6.388   278.3556 1.2364e-01    15.9145      9.232     13.391    11.8664 0.0000e+00
      9.415 2.1205e-07     1.6986     11.420    383.240 283.118380     0.4418      6.387   279.5463 1.2362e-01    15.8990      9.233     13.391    11.8804 0.0000e+00
      9.415 2.1205e-07     1.5116     10.950    383.933 283.748450     0.4549      6.385   280.4918 1.2355e-01    15.8900      9.233     13.391    11.8967 0.0000e+00
      9.415 1.9277e-08     1.3828     10.597    384.816 284.519025     0.4716      6.383   280.4085 1.2354e-01    15.9085      9.233     13.392    11.9090 0.0000e+00
      9.415 1.7525e-09     1.2935     10.334    385.469 285.113354     0.4761      6.382   279.6570 1.2359e-01    15.9861      9.233     13.391    11.9199 0.0000e+00
      9.415 1.5931e-10     1.2236     10.154    384.248 284.318780     0.4681      6.379   279.0632 1.2356e-01    16.0085      9.233     13.391    11.9340 0.0000e+00
      9.415 1.4483e-11     1.1769     10.042    373.743 276.646155     0.4576      6.377   278.8215 1.2347e-01    15.9065      9.233     13.391    11.9501 0.0000e+00
      9.415 1.3166e-12     1.1379      9.965    349.754 258.977101     0.4505      6.375   278.8005 1.2352e-01    15.7767      9.233     13.392    11.9658 0.0000e+00
      9.415 1.1970e-13     1.1102      9.895    328.288 243.161417     0.4480      6.372   279.4107 1.2369e-01    15.7027      9.233     13.392    11.9798 0.0000e+00
      9.416 1.0881e-14     1.0903      9.853    324.963 240.771031     0.4441      6.370   280.6931 1.2375e-01    15.6955      9.234     13.393    11.9941 0.0000e+00
      9.416 9.8920e-16     1.0792      9.841    330.357 244.831728     0.4461      6.369   281.3149 1.2367e-01    15.7916      9.233     13.392    12.0083 0.0000e+00
      9.415 8.9935e-17     1.0732      9.836    330.705 245.147584     0.4631      6.368   280.8195 1.2361e-01    15.9427      9.233     13.391    12.0210 0.0000e+00
      9.415 8.2348e-18     1.0628      9.846    326.853 242.349018     0.4664      6.367   279.9518 1.2362e-01    15.9849      9.233     13.392    12.0325 0.0000e+00
      9.416 1.3961e-18     1.0585      9.888    322.874 239.456621     0.4521      6.366   279.4282 1.2361e-01    15.9602      9.233     13.392    12.0433 0.0000e+00
      9.416 7.2493e-18     1.0586      9.958    319.785 237.223791     0.4492      6.365   279.4777 1.2360e-01    16.0889      9.234     13.393    12.0530 0.0000e+00
      9.416 7.9005e-17     1.0572     10.002    319.597 237.141686     0.4560      6.364   279.6045 1.2360e-01    16.3110      9.234     13.393    12.0615 0.0000e+00
      9.416 8.6899e-16     1.0569      9.963    326.307 242.180812     0.4596      6.363   279.8430 1.2360e-01    16.3916      9.234     13.393    12.0700 0.0000e+00
      9.416 9.5589e-15     1.0613      9.836    343.416 254.947100     0.4590      6.362   280.7259 1.2360e-01    16.3800      9.233     13.392    12.0794 0.0000e+00
      9.416 1.0515e-13     1.0705      9.667    364.583 270.738859     0.4655      6.361   282.1062 1.2356e-01    16.3065      9.233     13.392    12.0884 0.0000e+00
      9.416 1.1566e-12     1.0786      9.507    377.673 280.546588     0.4796      6.358   283.0241 1.2356e-01    16.1523      9.233     13.392    12.0970 0.0000e+00
      9.416 1.2723e-11     1.0736      9.346    381.313 283.350204     0.4805      6.356   283.1342 1.2363e-01    16.0187      9.234     13.392    12.1060 0.0000e+00
      9.416 1.3995e-10     1.0583      9.181    380.517 282.868321     0.4674      6.355   282.4906 1.2367e-01    15.9211      9.234     13.392    12.1156 0.0000e+00
      9.416 1.5395e-09     1.0359      9.036    373.381 277.674605     0.4547      6.353   281.3509 1.2362e-01    15.8946      9.234     13.392    12.1261 0.0000e+00
      9.416 1.6934e-08     1.0207      8.912    355.834 264.725372     0.4517      6.351   280.8838 1.2359e-01    15.9378      9.234     13.393    12.1380 0.0000e+00
      9.416 1.8627e-07     1.0035      8.807    334.504 248.941896     0.4642      6.349   281.4037 1.2362e-01    15.9990      9.234     13.393    12.1510 0.0000e+00
      9.416 1.8627e-07     0.9829      8.710    320.265 238.418910     0.4902      6.347   282.4737 1.2363e-01    16.0531      9.234     13.393    12.1657 0.0000e+00
      9.416 1.6934e-08     0.9685      8.599    313.710 233.602686     0.5238      6.347   283.4962 1.2361e-01    16.0800      9.234     13.392    12.1816 0.0000e+00
      9.416 1.5395e-09     0.9541      8.484    310.938 231.594470     0.5464      6.346   283.8721 1.2358e-01    16.0850      9.234     13.392    12.1963 0.0000e+00
      9.416 1.3995e-10     0.9434      8.385    311.520 232.077285     0.5467      6.346   284.0081 1.2359e-01    16.0792      9.234     13.392    12.2087 0.0000e+00
      9.416 1.2723e-11     0.9339      8.280    314.718 234.507186     0.5363      6.344   284.0216 1.2365e-01    16.0790      9.234     13.393    12.2196 0.0000e+00
      9.416 1.1566e-12     0.9221      8.157    320.160 238.613540     0.5198      6.341   283.5191 1.2365e-01    16.0140      9.234     13.392    12.2297 0.0000e+00
      9.416 1.0515e-13     0.9066      8.034    326.775 243.596185     0.4973      6.339   282.8374 1.2359e-01    15.9080      9.234     13.392    12.2389 0.0000e+00
      9.416 9.5226e-15     0.8985      7.908    328.100 244.629525     0.4975      6.339   282.5755 1.2353e-01    15.8904      9.234     13.392    12.2464 0.0000e+00
      9.416 4.6911e-16     0.8876      7.787    322.986 240.851715     0.5391      6.338   283.1921 1.2350e-01    15.9030      9.234     13.393    12.2534 0.0000e+00
      9.416 -4.320e-15     0.8722      7.683    317.813 237.019479     0.5760      6.336   284.0121 1.2354e-01    15.8901      9.234     13.393    12.2615 0.0000e+00
      9.415 -4.838e-14     0.8604      7.575    314.766 234.763301     0.5852      6.334   284.1439 1.2364e-01    15.9052      9.233     13.392    12.2703 0.0000e+00
      9.415 -5.323e-13     0.8460      7.463    318.905 237.857750     0.5928      6.333   284.6137 1.2366e-01    15.9836      9.233     13.392    12.2775 0.0000e+00
      9.415 -5.855e-12     0.8315      7.358    337.349 251.611599     0.5841      6.332   285.5624 1.2364e-01    16.0858      9.233     13.391    12.2828 0.0000e+00
      9.416 -6.440e-11     0.8227      7.258    361.066 269.288410     0.5546      6.331   285.6343 1.2364e-01    16.1168      9.234     13.392    12.2868 0.0000e+00
      9.416 -7.084e-10     0.8105      7.174    375.444 279.987192     0.5279      6.328   285.0527 1.2360e-01    16.0503      9.234     13.393    12.2891 0.0000e+00
      9.416 -7.793e-09     0.7975      7.109    380.254 283.542256     0.5111      6.325   284.4667 1.2356e-01    15.9653      9.234     13.392    12.2904 0.0000e+00
      9.416 -8.572e-08     0.7876      7.043    381.353 284.338343     0.5094      6.323   283.7980 1.2359e-01    15.9433      9.234     13.392    12.2903 0.0000e+00
      9.416 -9.429e-07     0.7750      6.967    381.118 284.153296     0.5156      6.323   283.4203 1.2358e-01    15.9551      9.234     13.393    12.2884 0.0000e+00
      9.416     -0.000     0.7668      6.914    380.664 283.809783     0.5200      6.322   283.7716 1.2356e-01    15.9711      9.234     13.392    12.2850 0.0000e+00
      9.416     -0.000     0.7603      6.906    380.634 283.781755     0.5206      6.320   284.9478 1.2355e-01    15.9996      9.234     13.392    12.2799 0.0000e+00
      9.416     -0.001     0.7546      6.889    380.929 284.007096     0.5143      6.318   286.1986 1.2351e-01    15.9925      9.234     13.392    12.2764 0.0000e+00
      9.416     -0.004     0.7447      6.843    381.263 284.286378     0.5099      6.317   286.5919 1.2351e-01    15.9543      9.234     13.392    12.2758 0.0000e+00
      9.416     -0.007     0.7363      6.793    381.608 284.589413     0.5182      6.315   286.3469 1.2358e-01    15.9476      9.234     13.393    12.2756 0.0000e+00
      9.415     -0.010     0.7400      6.719    382.328 285.166170     0.5312      6.313   285.7323 1.2359e-01    15.9794      9.233     13.391    12.2742 0.0000e+00
      9.411     -0.015     0.7392      6.616    384.780 287.020665     0.5418      6.313   284.9257 1.2356e-01    16.0309      9.229     13.386    12.2738 0.0000e+00
      9.407     -0.021     0.7309      6.493    388.833 290.052866     0.5381      6.312   284.5102 1.2359e-01    16.0584      9.224     13.378    12.2783 0.0000e+00
      9.402     -0.026     0.7278      6.320    391.836 292.276601     0.5197      6.312   284.8377 1.2364e-01    16.0044      9.221     13.374    12.2856 0.0000e+00
      9.394     -0.032     0.7205      6.128    393.076 293.155859     0.5109      6.311   285.8740 1.2368e-01    15.9245      9.213     13.363    12.2912 0.0000e+00
      9.383     -0.043     0.7064      5.955    393.096 293.101796     0.5144      6.310   287.4031 1.2366e-01    15.9806      9.200     13.344    12.2941 0.0000e+00
      9.373     -0.063     0.6979      5.780    392.446 292.522353     0.5206      6.309   288.8709 1.2357e-01    16.1697      9.190     13.329    12.2961 0.0000e+00
      9.365     -0.084     0.6767      5.630    392.680 292.575351     0.5281      6.308   289.5114 1.2352e-01    16.2643      9.185     13.322    12.2945 0.0000e+00
      9.348     -0.094     0.6527      5.520    393.873 293.356984     0.5296      6.304   289.2106 1.2352e-01    16.2023      9.176     13.309    12.2876 0.0000e+00
      9.311     -0.092     0.6389      5.427    395.178 294.262136     0.5056      6.300   288.4170 1.2353e-01    16.1025      9.139     13.253    12.2794 0.0000e+00
      9.261     -0.082     0.6170      5.358    396.549 295.230010     0.4638      6.297   287.6596 1.2360e-01    16.0140      9.075     13.160    12.2680 0.0000e+00
      9.226     -0.068     0.6004      5.303    398.269 296.448325     0.4395      6.295   287.7969 1.2365e-01    15.9529      9.033     13.101    12.2499 0.0000e+00
      9.223     -0.051     0.5916      5.248    402.018 299.160037     0.4368      6.294   288.1836 1.2361e-01    15.9100      9.040     13.111    12.2342 0.0000e+00
      9.236     -0.036     0.5793      5.205    407.780 303.334735     0.4482      6.293   287.4313 1.2364e-01    16.0079      9.062     13.143    12.2284 0.0000e+00
      9.241     -0.027     0.5737      5.167    412.246 306.490539     0.4690      6.292   286.2723 1.2362e-01    16.2820      9.066     13.150    12.2228 0.0000e+00
      9.233     -0.026     0.5686      5.128    414.827 308.193675     0.4795      6.291   285.7001 1.2352e-01    16.4570      9.057     13.137    12.2144 0.0000e+00
      9.217     -0.031     0.5613      5.103    416.972 309.523622     0.4759      6.289   285.5032 1.2352e-01    16.4503      9.041     13.112    12.2057 0.0000e+00
      9.197     -0.046     0.5577      5.098    418.916 310.674005     0.4836      6.288   285.0961 1.2359e-01    16.2691      9.017     13.078    12.1936 0.0000e+00
      9.184     -0.073     0.5541      5.098    420.688 311.748740     0.5054      6.288   284.6491 1.2363e-01    15.9745      9.000     13.054    12.1722 0.0000e+00
      9.184     -0.114     0.5500      5.135    422.038 312.613688     0.5145      6.287   284.7443 1.2358e-01    15.7915      9.006     13.062    12.1461 0.0000e+00
      9.180     -0.160     0.5460      5.256    422.461 312.835198     0.5115      6.287   285.5593 1.2354e-01    15.7315      9.016     13.077    12.1155 0.0000e+00
      9.140     -0.202     0.5487      5.455    419.901 310.825178     0.4853      6.287   286.8457 1.2356e-01    15.7272      8.984     13.029    12.0751 0.0000e+00
      9.054     -0.237     0.5472      5.734    392.723 290.626011     0.4397      6.287   287.9943 1.2355e-01    15.7742      8.886     12.888    12.0435 0.0000e+00
      8.951     -0.258     0.5477      6.098    315.522 233.498761     0.4172      6.287   288.4338 1.2353e-01    15.8206      8.767     12.715    12.0312 0.0000e+00
      8.867     -0.259     0.5633      6.484    202.310 149.760247     0.4132      6.287   288.2880 1.2356e-01    15.8097      8.684     12.595    12.0255 0.0000e+00
      8.811     -0.239     0.5842      6.822    106.999  79.252512     0.4160      6.287   287.7796 1.2364e-01    15.7788      8.640     12.531    12.0078 0.0000e+00
      8.764     -0.213     0.6132      7.043     67.711  50.193534     0.4267      6.287   287.0191 1.2366e-01    15.7546      8.595     12.467    11.9925 0.0000e+00
      8.719     -0.199     0.6555      7.019     62.171  46.100514     0.4344      6.287   286.8368 1.2357e-01    15.7221      8.546     12.394    11.9978 0.0000e+00
      8.682     -0.202     0.7010      6.843     61.120  45.319041     0.4513      6.288   287.1241 1.2353e-01    15.7273      8.514     12.348    12.0148 0.0000e+00
      8.644     -0.219     0.7365      7.083     60.862  45.125145     0.4635      6.289   287.6541 1.2355e-01    15.7493      8.488     12.310    12.0449 0.0000e+00
      8.584     -0.242     0.7682      8.398     60.642  44.962280     0.4577      6.289   288.1681 1.2354e-01    15.8173      8.426     12.221    12.0723 0.0000e+00
      8.508     -0.266     0.7675     10.993     60.356  44.746425     0.4562      6.289   287.9190 1.2356e-01    15.9344      8.340     12.096    12.0767 0.0000e+00
      8.431     -0.285     0.7216     14.592     60.189  44.610110     0.4527      6.289   287.5665 1.2362e-01    15.9697      8.267     11.990    12.0707 0.0000e+00
      8.354     -0.289     0.7167     18.788     60.175  44.583680     0.4570      6.288   287.6920 1.2365e-01    16.0395      8.198     11.890    12.0672 0.0000e+00
      8.270     -0.278     0.8502     23.195     60.236  44.617300     0.4758      6.286   287.9732 1.2365e-01    16.4365      8.110     11.764    12.0697 0.0000e+00
      8.190     -0.261     1.1458     27.447     60.269  44.635715     0.4883      6.286   288.4722 1.2367e-01    17.0460      8.022     11.636    12.0694 0.0000e+00
      8.128     -0.249     1.5482     31.123     60.248  44.615893     0.4828      6.286   288.9927 1.2369e-01    17.3637      7.965     11.552    12.0569 0.0000e+00
      8.082     -0.245     2.0150     33.802     60.189  44.568063     0.4599      6.286   289.0183 1.2366e-01    17.3399      7.927     11.497    12.0407 0.0000e+00
      8.035     -0.248     2.5033     35.380     60.104  44.501772     0.4526      6.286   288.8676 1.2362e-01    17.0658      7.883     11.434    12.0298 0.0000e+00
      7.979     -0.253     2.9748     36.075     60.038  44.449156     0.4696      6.285   288.9775 1.2361e-01    16.5770      7.832     11.358    12.0274 0.0000e+00
      7.906     -0.249     3.3937     36.191     60.032  44.439718     0.4826      6.281   289.8313 1.2356e-01    16.2802      7.760     11.255    12.0249 0.0000e+00
      7.818     -0.231     3.6848     35.954     60.051  44.451130     0.4762      6.275   291.0171 1.2354e-01    16.2098      7.665     11.118    12.0192 0.0000e+00
      7.735     -0.198     3.8436     35.484     60.070  44.460185     0.4674      6.270   291.0975 1.2355e-01    16.1019      7.573     10.985    12.0183 0.0000e+00
      7.682     -0.154     3.9069     34.903     60.115  44.485719     0.4842      6.268   290.5454 1.2358e-01    16.0004      7.518     10.904    12.0150 0.0000e+00
      7.666     -0.111     3.9101     34.338     60.153  44.505920     0.5132      6.267   290.5359 1.2361e-01    15.9733      7.512     10.895    12.0094 0.0000e+00
      7.668     -0.084     3.8827     33.868     60.171  44.513999     0.5266      6.268   291.2411 1.2357e-01    15.9783      7.523     10.911    12.0093 0.0000e+00
      7.668     -0.090     3.8272     33.488     60.181  44.519917     0.5045      6.268   292.1029 1.2353e-01    15.9931      7.521     10.909    12.0061 0.0000e+00
      7.661     -0.128     3.7599     33.146     60.171  44.513998     0.4620      6.269   292.2652 1.2351e-01    15.9814      7.515     10.899    11.9973 0.0000e+00
      7.639     -0.177     3.6965     32.830     60.150  44.505918     0.4546      6.269   291.9993 1.2351e-01    15.9741      7.505     10.885    11.9903 0.0000e+00
      7.580     -0.212     3.6462     32.571     60.108  44.485715     0.4736      6.267   291.7272 1.2358e-01    15.9734      7.452     10.808    11.9863 0.0000e+00
      7.481     -0.223     3.6091     32.386     60.066  44.460167     0.4915      6.263   291.8152 1.2367e-01    16.0069      7.338     10.641    11.9844 0.0000e+00
      7.381     -0.218     3.5724     32.261     60.059  44.450950     0.5121      6.261   292.2884 1.2367e-01    16.1055      7.223     10.475    11.9849 0.0000e+00
      7.319     -0.210     3.5356     32.152     60.053  44.437742     0.5151      6.261   292.2868 1.2362e-01    16.1407      7.160     10.384    11.9915 0.0000e+00
      7.299     -0.200     3.5064     32.044     60.046  44.427426     0.5106      6.261   291.8819 1.2365e-01    16.1597      7.151     10.371    12.0041 0.0000e+00
      7.295     -0.185     3.4862     31.963     60.080  44.453181     0.5164      6.259   291.5223 1.2369e-01    16.1988      7.166     10.393    12.0105 0.0000e+00
      7.263     -0.166     3.4754     31.922     60.130  44.495226     0.5353      6.255   291.2078 1.2365e-01    16.2037      7.144     10.362    12.0043 0.0000e+00
      7.186     -0.149     3.4657     31.902     60.123  44.491433     0.5647      6.252   290.9183 1.2356e-01    16.2183      7.051     10.228    11.9949 0.0000e+00
      7.101     -0.135     3.4520     31.865     60.100  44.470806     0.5720      6.250   290.5171 1.2355e-01    16.2042      6.943     10.071    11.9896 0.0000e+00
      7.061     -0.126     3.4431     31.797     60.147  44.499737     0.5732      6.250   290.1434 1.2361e-01    16.2377      6.905     10.015    11.9906 0.0000e+00
      7.066     -0.122     3.4388     31.736     60.185  44.523832     0.5885      6.251   289.6692 1.2358e-01    16.6579      6.928     10.047    11.9974 0.0000e+00
      7.081     -0.127     3.4382     31.703     60.164  44.508217     0.5985      6.251   288.9995 1.2355e-01    17.2882      6.954     10.087    12.0000 0.0000e+00
      7.071     -0.139     3.4359     31.672     60.150  44.501380     0.5942      6.249   288.6718 1.2361e-01    17.5390      6.951     10.081    11.9950 0.0000e+00
      7.019     -0.149     3.4265     31.647     60.146  44.504655     0.5774      6.245   288.8042 1.2361e-01    17.5049      6.898     10.004    11.9891 0.0000e+00
      6.932     -0.149     3.4187     31.636     60.115  44.484350     0.5706      6.242   289.0518 1.2357e-01    17.3204      6.799      9.860    11.9853 0.0000e+00
      6.849     -0.129     3.4181     31.627     60.069  44.446306     0.5790      6.241   288.5678 1.2357e-01    16.9817      6.695      9.711    11.9847 0.0000e+00
      6.814     -0.092     3.4135     31.615     60.050  44.425536     0.5874      6.241   287.4254 1.2358e-01    16.7914      6.660      9.660    11.9882 0.0000e+00
      6.830     -0.044     3.4090     31.581     60.057  44.423650     0.5885      6.241   286.8550 1.2360e-01    16.7605      6.695      9.710    11.9958 0.0000e+00
      6.859      0.001     3.4096     31.548     60.063  44.423495     0.5921      6.241   287.0916 1.2362e-01    17.1560      6.735      9.767    11.9994 0.0000e+00
      6.871      0.026     3.4075     31.548     60.070  44.423651     0.6144      6.240   287.6196 1.2362e-01    17.9865      6.743      9.780    11.9941 0.0000e+00
      6.871      0.021     3.4094     31.546     60.081  44.425537     0.6419      6.239   287.4738 1.2366e-01    18.4666      6.735      9.770    11.9867 0.0000e+00
      6.872     -0.015     3.4047     31.534     60.119  44.446298     0.6496      6.239   286.4474 1.2368e-01    18.5197      6.738      9.772    11.9815 0.0000e+00
      6.877     -0.070     3.3983     31.535     60.172  44.484224     0.6335      6.238   285.5341 1.2362e-01    18.3214      6.746      9.784    11.9773 0.0000e+00
      6.875     -0.126     3.4024     31.559     60.184  44.503228     0.6140      6.238   285.0352 1.2355e-01    17.9488      6.748      9.788    11.9745 0.0000e+00
      6.850     -0.166     3.4020     31.610     60.138  44.485640     0.6134      6.236   284.7173 1.2355e-01    17.8048      6.738      9.771    11.9692 0.0000e+00
      6.778     -0.182     3.4001     31.683     60.089  44.462029     0.6262      6.233   284.2716 1.2358e-01    17.8448      6.665      9.667    11.9607 0.0000e+00
      6.673     -0.177     3.4007     31.741     60.099  44.471678     0.6262      6.231   283.5181 1.2355e-01    17.8174      6.531      9.473    11.9574 0.0000e+00
      6.594     -0.152     3.4019     31.753     60.112  44.475354     0.5977      6.231   282.7473 1.2358e-01    17.6103      6.439      9.339    11.9666 0.0000e+00
      6.574     -0.110     3.4063     31.761     60.079  44.442993     0.5639      6.231   282.1802 1.2364e-01    17.2535      6.434      9.332    11.9855 0.0000e+00
      6.589     -0.060     3.4139     31.782     60.027  44.397781     0.5670      6.231   281.8236 1.2360e-01    17.0900      6.466      9.379    11.9984 0.0000e+00
      6.600     -0.027     3.4238     31.763     60.000  44.373045     0.5857      6.231   281.6186 1.2355e-01    17.2051      6.479      9.397    11.9976 0.0000e+00
      6.600     -0.039     3.4219     31.706     60.037  44.397827     0.5898      6.231   281.2507 1.2355e-01    17.5511      6.470      9.385    11.9908 0.0000e+00
      6.600     -0.095     3.4212     31.651     60.094  44.443501     0.5911      6.231   280.6453 1.2356e-01    17.9944      6.472      9.387    11.9838 0.0000e+00
      6.594     -0.161     3.4294     31.626     60.128  44.480945     0.5856      6.229   280.1495 1.2357e-01    18.1591      6.477      9.394    11.9777 0.0000e+00
      6.554     -0.203     3.4261     31.642     60.092  44.469705     0.5811      6.224   279.6431 1.2354e-01    18.1424      6.453      9.359    11.9741 0.0000e+00
      6.458     -0.209     3.4184     31.673     60.032  44.434573     0.5866      6.219   279.3406 1.2352e-01    17.8941      6.348      9.207    11.9711 0.0000e+00
      6.335     -0.189     3.4116     31.691     60.038  44.437046     0.5942      6.217   279.4172 1.2357e-01    17.3438      6.192      8.981    11.9719 0.0000e+00
      6.256     -0.147     3.4068     31.686     60.048  44.436119     0.5980      6.217   278.9350 1.2363e-01    16.9886      6.103      8.851    11.9837 0.0000e+00
      6.250     -0.088     3.4090     31.657     60.044  44.423359     0.5912      6.217   277.8982 1.2359e-01    16.9122      6.115      8.869    12.0012 0.0000e+00
      6.284     -0.023     3.4127     31.621     60.034  44.409713     0.5950      6.217   277.2921 1.2353e-01    17.1377      6.168      8.947    12.0106 0.0000e+00
      6.312      0.024     3.4149     31.586     60.023  44.398075     0.6275      6.217   277.2853 1.2350e-01    17.6316      6.200      8.993    12.0072 0.0000e+00
      6.320      0.027     3.4159     31.541     60.040  44.409603     0.6512      6.218   277.3853 1.2352e-01    17.8968      6.199      8.991    11.9974 0.0000e+00
      6.323     -0.017     3.4122     31.484     60.055  44.422141     0.6402      6.218   277.1252 1.2356e-01    17.8844      6.198      8.988    11.9889 0.0000e+00
      6.329     -0.086     3.4079     31.433     60.049  44.422712     0.6115      6.218   276.6360 1.2356e-01    17.7892      6.208      9.005    11.9836 0.0000e+00
      6.323     -0.150     3.4056     31.423     60.027  44.416519     0.5860      6.215   276.2880 1.2356e-01    17.6339      6.216      9.016    11.9809 0.0000e+00
      6.278     -0.185     3.4004     31.455     60.003  44.410756     0.5745      6.211   276.1009 1.2356e-01    17.5784      6.179      8.962    11.9805 0.0000e+00
      6.182     -0.189     3.3944     31.491     60.001  44.416526     0.5716      6.207   275.9232 1.2357e-01    17.6300      6.070      8.803    11.9809 0.0000e+00
      6.073     -0.165     3.3861     31.524     60.011  44.422811     0.5682      6.204   275.6874 1.2357e-01    17.6088      5.936      8.610    11.9835 0.0000e+00
      6.009     -0.121     3.3842     31.561     60.019  44.423271     0.5587      6.204   275.4868 1.2357e-01    17.4587      5.863      8.505    11.9929 0.0000e+00
      6.011     -0.062     3.3897     31.611     60.025  44.422074     0.5554      6.205   275.1325 1.2357e-01    17.2497      5.882      8.531    12.0064 0.0000e+00
      6.048     -0.003     3.3923     31.670     60.013  44.408334     0.5621      6.207   274.6732 1.2357e-01    17.1318      5.937      8.611    12.0124 0.0000e+00
      6.079      0.037     3.3959     31.701     59.985  44.384099     0.5729      6.208   274.4933 1.2358e-01    17.1255      5.970      8.658    12.0101 0.0000e+00
      6.092      0.044     3.3999     31.699     59.986  44.382954     0.5944      6.208   274.5066 1.2362e-01    17.1054      5.977      8.668    12.0048 0.0000e+00
      6.095      0.021     3.4051     31.676     60.003  44.394484     0.6143      6.208   274.3174 1.2362e-01    17.0601      5.977      8.669    11.9995 0.0000e+00
      6.095     -0.027     3.4146     31.629     60.006  44.396564     0.6222      6.207   273.5824 1.2358e-01    17.0551      5.978      8.670    11.9957 0.0000e+00
      6.094     -0.092     3.4182     31.594     60.017  44.408095     0.6230      6.206   272.8474 1.2356e-01    17.0796      5.977      8.669    11.9926 0.0000e+00
      6.087     -0.158     3.4162     31.589     60.003  44.406958     0.5980      6.204   272.8295 1.2354e-01    17.0149      5.977      8.668    11.9910 0.0000e+00
      6.052     -0.204     3.4160     31.579     59.954  44.382834     0.5455      6.200   273.1948 1.2355e-01    16.8191      5.956      8.638    11.9903 0.0000e+00
      5.966     -0.218     3.4085     31.578     59.928  44.370337     0.5131      6.196   273.3923 1.2360e-01    16.6601      5.871      8.515    11.9902 0.0000e+00
      5.844     -0.203     3.4022     31.597     59.948  44.382822     0.5141      6.195   273.1513 1.2359e-01    16.5949      5.719      8.295    11.9919 0.0000e+00
      5.750     -0.167     3.4057     31.617     59.992  44.406832     0.5404      6.196   272.6911 1.2356e-01    16.5430      5.605      8.130    11.9994 0.0000e+00
      5.729     -0.113     3.4009     31.627     60.002  44.406724     0.5813      6.197   272.5604 1.2356e-01    16.5108      5.601      8.123    12.0129 0.0000e+00
      5.756     -0.051     3.3998     31.619     59.973  44.381509     0.5930      6.197   272.7750 1.2354e-01    16.4783      5.649      8.193    12.0204 0.0000e+00
      5.782     -0.004     3.4040     31.599     59.940  44.355858     0.5730      6.197   272.9634 1.2355e-01    16.4238      5.681      8.239    12.0160 0.0000e+00
      5.787     -0.003     3.4060     31.569     59.933  44.350498     0.5570      6.198   272.9446 1.2356e-01    16.4670      5.676      8.233    12.0067 0.0000e+00
      5.786     -0.053     3.4092     31.553     59.971  44.380173     0.5658      6.198   272.8058 1.2351e-01    16.6246      5.672      8.226    12.0001 0.0000e+00
      5.786     -0.127     3.4069     31.561     59.988  44.397277     0.5868      6.197   272.9201 1.2352e-01    16.7240      5.679      8.236    11.9978 0.0000e+00
      5.766     -0.187     3.4062     31.592     59.936  44.366880     0.5871      6.195   273.3799 1.2360e-01    16.6778      5.672      8.226    11.9970 0.0000e+00
      5.697     -0.212     3.4007     31.639     59.877  44.330042     0.5687      6.190   273.6325 1.2362e-01    16.5448      5.612      8.138    11.9972 0.0000e+00
      5.580     -0.207     3.3990     31.674     59.882  44.332747     0.5559      6.187   273.5662 1.2360e-01    16.2768      5.470      7.935    11.9977 0.0000e+00
      5.470     -0.179     3.4004     31.706     59.898  44.336104     0.5582      6.187   273.5246 1.2360e-01    15.9309      5.333      7.734    12.0003 0.0000e+00
      5.429     -0.131     3.4013     31.742     59.873  44.307141     0.5708      6.187   273.5603 1.2363e-01    15.7796      5.298      7.685    12.0090 0.0000e+00
      5.447     -0.069     3.4099     31.768     59.873  44.299943     0.5835      6.187   273.7394 1.2367e-01    15.7792      5.342      7.749    12.0176 0.0000e+00
      5.474     -0.010     3.4113     31.785     59.895  44.312543     0.5870      6.187   274.0550 1.2361e-01    15.9945      5.378      7.800    12.0162 0.0000e+00
      5.483      0.025     3.4151     31.798     59.925  44.332533     0.5800      6.187   274.3649 1.2353e-01    16.4359      5.378      7.799    12.0068 0.0000e+00
      5.485      0.025     3.4217     31.812     59.951  44.351194     0.5734      6.187   274.4747 1.2355e-01    16.6745      5.376      7.797    11.9973 0.0000e+00
      5.489     -0.007     3.4236     31.823     59.947  44.347744     0.5740      6.187   274.3503 1.2361e-01    16.6940      5.383      7.807    11.9913 0.0000e+00
      5.494     -0.060     3.4263     31.832     59.955  44.354290     0.5706      6.187   274.3234 1.2362e-01    16.5692      5.387      7.812    11.9881 0.0000e+00
      5.495     -0.122     3.4270     31.849     59.968  44.366880     0.5653      6.186   274.5789 1.2356e-01    16.2923      5.393      7.821    11.9870 0.0000e+00
      5.476     -0.174     3.4290     31.883     59.966  44.373019     0.5687      6.183   274.8587 1.2355e-01    16.1472      5.389      7.817    11.9869 0.0000e+00
      5.412     -0.202     3.4303     31.913     59.944  44.365044     0.5692      6.179   274.8681 1.2358e-01    16.1822      5.328      7.728    11.9866 0.0000e+00
      5.302     -0.202     3.4309     31.938     59.898  44.333942     0.5550      6.177   274.7784 1.2358e-01    16.1342      5.198      7.538    11.9860 0.0000e+00
      5.198     -0.181     3.4315     31.982     59.877  44.314361     0.5298      6.177   274.8059 1.2362e-01    15.9087      5.070      7.354    11.9874 0.0000e+00
      5.153     -0.138     3.4363     32.027     59.892  44.318722     0.5153      6.178   274.9429 1.2361e-01    15.7094      5.031      7.297    11.9953 0.0000e+00
      5.163     -0.079     3.4394     32.054     59.906  44.323183     0.5119      6.178   275.1442 1.2354e-01    15.6722      5.064      7.345    12.0051 0.0000e+00
      5.182     -0.021     3.4385     32.058     59.888  44.304823     0.5393      6.178   275.3471 1.2356e-01    15.8347      5.091      7.384    12.0072 0.0000e+00
      5.187      0.012     3.4467     32.038     59.870  44.287151     0.6044      6.179   275.5038 1.2359e-01    16.1026      5.085      7.376    12.0020 0.0000e+00
      5.188      0.006     3.4518     32.005     59.892  44.299950     0.6344      6.180   275.4895 1.2359e-01    16.2123      5.083      7.373    11.9956 0.0000e+00
      5.195     -0.036     3.4558     31.975     59.937  44.332614     0.6266      6.180   275.5189 1.2363e-01    16.1707      5.097      7.391    11.9910 0.0000e+00
      5.200     -0.102     3.4559     31.951     59.977  44.364697     0.6021      6.180   275.8594 1.2365e-01    16.0782      5.104      7.402    11.9871 0.0000e+00
      5.190     -0.169     3.4544     31.956     59.972  44.370480     0.5541      6.177   276.2503 1.2366e-01    15.9817      5.099      7.396    11.9831 0.0000e+00
      5.146     -0.218     3.4495     32.011     59.914  44.339064     0.5208      6.172   276.4600 1.2363e-01    15.9606      5.069      7.354    11.9800 0.0000e+00
      5.047     -0.244     3.4471     32.056     59.855  44.302255     0.5066      6.169   276.4162 1.2357e-01    15.9598      4.967      7.205    11.9781 0.0000e+00
      4.918     -0.257     3.4442     32.054     59.864  44.306314     0.4996      6.169   276.4082 1.2353e-01    15.9376      4.802      6.966    11.9795 0.0000e+00
      4.829     -0.267     3.4402     32.030     59.897  44.324662     0.5023      6.170   276.7936 1.2351e-01    15.8635      4.704      6.823    11.9884 0.0000e+00
      4.806     -0.267     3.4509     32.025     59.913  44.333662     0.5148      6.171   277.2896 1.2354e-01    15.7814      4.710      6.832    12.0018 0.0000e+00
      4.795     -0.247     3.4554     32.048     59.935  44.351644     0.5337      6.169   277.5878 1.2356e-01    15.7981      4.724      6.851    12.0088 0.0000e+00
      4.737     -0.215     3.4548     32.077     59.930  44.351652     0.5398      6.165   277.6453 1.2356e-01    15.7923      4.669      6.771    12.0043 0.0000e+00
      4.631     -0.188     3.4503     32.102     59.905  44.333764     0.5218      6.162   277.8128 1.2356e-01    15.7106      4.537      6.581    11.9965 0.0000e+00
      4.538     -0.163     3.4500     32.120     59.900  44.325795     0.5001      6.162   278.3223 1.2356e-01    15.6650      4.421      6.412    11.9938 0.0000e+00
      4.504     -0.127     3.4537     32.135     59.901  44.318780     0.5017      6.163   278.7296 1.2352e-01    15.6847      4.402      6.384    11.9967 0.0000e+00
      4.514     -0.086     3.4561     32.137     59.902  44.312414     0.5154      6.165   278.7797 1.2351e-01    15.7446      4.430      6.424    12.0018 0.0000e+00
      4.525     -0.071     3.4595     32.130     59.909  44.312300     0.5081      6.167   278.6712 1.2356e-01    15.7733      4.442      6.442    12.0028 0.0000e+00
      4.529     -0.106     3.4607     32.140     59.918  44.317397     0.4968      6.167   278.8787 1.2356e-01    15.7243      4.441      6.441    11.9973 0.0000e+00
      4.525     -0.173     3.4643     32.166     59.903  44.310562     0.5038      6.165   279.5682 1.2352e-01    15.6657      4.446      6.449    11.9898 0.0000e+00
      4.488     -0.227     3.4649     32.204     59.869  44.293147     0.5084      6.160   280.2108 1.2352e-01    15.6788      4.431      6.426    11.9841 0.0000e+00
      4.383     -0.242     3.4625     32.268     59.871  44.297291     0.5203      6.155   280.5395 1.2353e-01    15.6787      4.322      6.269    11.9788 0.0000e+00
      4.236     -0.220     3.4643     32.343     59.876  44.297177     0.5307      6.154   280.7036 1.2351e-01    15.5613      4.134      5.996    11.9761 0.0000e+00
      4.132     -0.171     3.4675     32.407     59.877  44.291765     0.5178      6.155   280.4739 1.2353e-01    15.4548      4.010      5.815    11.9816 0.0000e+00
      4.122     -0.103     3.4694     32.466     59.892  44.295329     0.5140      6.157   280.0857 1.2360e-01    15.4153      4.022      5.834    11.9910 0.0000e+00
      4.165     -0.027     3.4766     32.502     59.879  44.276784     0.5515      6.158   280.3114 1.2362e-01    15.3574      4.090      5.933    11.9928 0.0000e+00
      4.205      0.032     3.4873     32.491     59.865  44.257961     0.6126      6.159   280.8804 1.2360e-01    15.3017      4.135      5.997    11.9884 0.0000e+00
      4.221      0.048     3.4929     32.465     59.874  44.258170     0.6376      6.160   281.2011 1.2364e-01    15.2542      4.143      6.010    11.9832 0.0000e+00
      4.223      0.015     3.5003     32.437     59.906  44.279303     0.6294      6.160   280.9193 1.2363e-01    15.2268      4.140      6.005    11.9772 0.0000e+00
      4.224     -0.054     3.5080     32.420     59.964  44.323042     0.6295      6.160   280.3979 1.2358e-01    15.2102      4.144      6.009    11.9692 0.0000e+00
      4.223     -0.134     3.5035     32.428     59.983  44.342664     0.6225      6.160   280.5756 1.2359e-01    15.2241      4.146      6.012    11.9605 0.0000e+00
      4.204     -0.199     3.5020     32.458     59.946  44.326137     0.6027      6.157   281.1750 1.2361e-01    15.3256      4.139      6.002    11.9560 0.0000e+00
      4.139     -0.233     3.4989     32.520     59.914  44.313659     0.5895      6.152   281.5365 1.2363e-01    15.3451      4.087      5.928    11.9540 0.0000e+00
      4.017     -0.239     3.4952     32.598     59.913  44.318769     0.5884      6.150   281.0744 1.2364e-01    15.2550      3.943      5.718    11.9529 0.0000e+00
      3.892     -0.219     3.4976     32.659     59.920  44.324436     0.6056      6.150   279.9755 1.2363e-01    15.1588      3.784      5.488    11.9574 0.0000e+00
      3.834     -0.176     3.4980     32.684     59.916  44.318698     0.6312      6.149   279.3495 1.2365e-01    15.0696      3.733      5.415    11.9688 0.0000e+00
      3.838     -0.115     3.5052     32.668     59.912  44.312869     0.6481      6.148   279.2695 1.2365e-01    15.0637      3.766      5.463    11.9798 0.0000e+00
      3.848     -0.057     3.5146     32.602     59.922  44.317447     0.6596      6.148   279.1807 1.2361e-01    15.0887      3.781      5.484    11.9852 0.0000e+00
      3.847     -0.035     3.5217     32.508     59.912  44.310565     0.6621      6.149   278.7061 1.2366e-01    15.0640      3.769      5.467    11.9845 0.0000e+00
      3.846     -0.069     3.5247     32.418     59.886  44.293139     0.6453      6.151   277.7476 1.2375e-01    15.0031      3.773      5.472    11.9811 0.0000e+00
      3.845     -0.139     3.5241     32.333     59.886  44.297188     0.6228      6.151   275.9374 1.2407e-01    15.0022      3.775      5.475    11.9784 0.0000e+00
      3.825     -0.204     3.5164     32.268     59.873  44.296052     0.6313      6.147   273.3387 1.2836e-01    15.0536      3.765      5.462    11.9761 0.0000e+00
      3.760     -0.241     3.5035     32.238     59.835  44.279420     0.7407      6.142   271.4495 1.7655e-01    14.8727      3.715      5.388    11.9758 0.0000e+00
      3.638     -0.251     3.4954     32.210     59.826  44.286538     0.9212      6.140   270.5619 2.9344e-01    14.4552      3.572      5.181    11.9772 0.0000e+00
      3.512     -0.234     3.4852     32.180     59.846  44.318646     1.0165      6.140   269.7484 3.8793e-01    14.1724      3.414      4.951    11.9798 0.0000e+00
      3.446     -0.191     3.4750     32.160     59.861  44.350270     1.0270      6.141   268.8396 3.9804e-01    14.1180      3.356      4.866    11.9888 0.0000e+00
      3.438     -0.129     3.4747     32.109     59.836  44.351528     1.0892      6.142   267.9196 3.8198e-01    14.1386      3.372      4.891    11.9987 0.0000e+00
      3.443     -0.067     3.4704     31.957     59.786  44.333875     1.2026      6.142   267.5735 3.6924e-01    14.1477      3.380      4.902    12.0080 0.0000e+00
      3.444     -0.036     3.4639     31.668     59.757  44.327288     1.2660      6.142   267.1502 3.5594e-01    14.1260      3.374      4.895    12.0242 0.0000e+00
      3.446     -0.059     3.4634     31.291     59.759  44.335388     1.2819      6.142   265.2967 3.5279e-01    14.0811      3.380      4.903    12.0414 0.0000e+00
      3.446     -0.128     3.4587     30.842     59.803  44.368339     1.3788      6.142   262.6287 3.5782e-01    13.9809      3.381      4.904    12.0573 0.0000e+00
      3.432     -0.205     3.4448     30.328     59.853  44.408312     1.5623      6.140   259.6712 4.0898e-01    13.8714      3.376      4.897    12.0754 0.0000e+00
      3.382     -0.257     3.4074     29.801     59.872  44.437830     1.6616      6.136   256.8119 6.0142e-01    13.8497      3.345      4.851    12.0896 0.0000e+00
      3.267     -0.272     3.3668     29.311     59.877  44.471342     1.6722      6.134   254.5570 9.9197e-01    13.8888      3.223      4.675    12.0946 0.0000e+00
      3.116     -0.256     3.3201     28.963     59.854  44.496141     1.7493      6.134   252.2824 1.3883e+00    13.8667      3.034      4.400    12.0927 0.0000e+00
      3.012     -0.214     3.2603     28.802     59.774  44.483802     2.6191      6.134   249.7876 1.4711e+00    13.7194      2.913      4.226    12.0900 0.0000e+00
      2.995     -0.153     3.2043     28.751     59.679  44.449169     4.2316      6.134   247.3642 1.3114e+00    13.5427      2.925      4.243    12.1027 0.0000e+00
      3.019     -0.099     3.1425     28.715     59.676  44.458307     5.1240      6.133   245.0074 1.1942e+00    13.4386      2.972      4.309    12.1299 0.0000e+00
      3.032     -0.089     3.1005     28.626     59.767  44.530823     5.2273      6.133   243.1462 1.1673e+00    13.3830      2.978      4.319    12.1653 0.0000e+00
      3.032     -0.131     3.0851     28.468     59.841  44.627687     5.4555      6.131   242.0684 1.1850e+00    13.2111      2.973      4.312    12.2098 0.0000e+00
      3.014     -0.191     3.0804     28.266     59.844  44.740813     5.8532      6.126   241.3547 1.3257e+00    12.9662      2.974      4.314    12.2465 0.0000e+00
      2.944     -0.225     3.0790     28.060     59.719  44.819607     6.0824      6.121   240.5388 1.7608e+00    12.9157      2.919      4.235    12.2522 0.0000e+00
      2.813     -0.222     3.0706     27.854     59.455  44.818815     6.1870      6.119   239.0003 2.3610e+00    12.9759      2.758      3.999    12.2383 0.0000e+00
      2.689     -0.192     3.0514     27.605     59.209  44.794938     6.9431      6.121   237.1213 2.6205e+00    12.8745      2.597      3.768    12.2609 0.0000e+00
      2.646     -0.140     3.0205     27.240     58.997  44.721537     8.3169      6.123   236.1471 2.4124e+00    12.6119      2.568      3.725    12.3619 0.0000e+00
      2.671     -0.074     2.9883     26.664     58.864  44.629700     9.0640      6.125   235.8247 2.1427e+00    12.4309      2.621      3.802    12.5102 0.0000e+00
      2.701     -0.011     2.9557     25.854     58.962  44.636740     9.1927      6.125   235.3742 2.0431e+00    12.4277      2.658      3.856    12.7016 0.0000e+00
      2.713      0.017     2.9213     24.898     59.139  44.679621     9.9557      6.125   233.8838 2.0092e+00    12.5399      2.661      3.861    12.8531 0.0000e+00
      2.714     -0.010     2.8838     23.932     59.241  44.703714    11.3400      6.124   231.6572 1.9695e+00    12.6945      2.661      3.860    12.9153 0.0000e+00
      2.714     -0.083     2.8231     23.137     59.281  44.737549    12.0891      6.124   230.6506 1.9375e+00    12.7257      2.661      3.860    12.9371 0.0000e+00
      2.710     -0.171     2.7375     22.673     59.259  44.771331    12.1294      6.122   230.5751 1.9494e+00    12.6089      2.662      3.861    12.8565 0.0000e+00
      2.682     -0.243     2.6386     22.554     59.194  44.794832    11.9858      6.118   230.1422 2.1812e+00    12.1705      2.654      3.849    12.7550 0.0000e+00
      2.595     -0.283     2.5312     22.689     59.113  44.831344    11.7420      6.115   229.4598 2.8091e+00    11.4556      2.573      3.731    12.7128 0.0000e+00
      2.450     -0.292     2.4391     22.978     58.963  44.895496    11.6125      6.115   228.8635 3.6666e+00    11.1046      2.400      3.481    12.7134 0.0000e+00
      2.313     -0.269     2.3872     23.348     58.639  44.935886    11.6024      6.117   228.6113 4.2001e+00    11.0700      2.236      3.244    12.7690 0.0000e+00
      2.246     -0.217     2.3759     23.723     58.261  44.939159    11.6780      6.119   228.7337 4.1510e+00    10.9684      2.179      3.161    12.8331 0.0000e+00
      2.237     -0.144     2.3906     23.966     58.021  44.935414    12.6013      6.120   228.9669 3.9365e+00    10.6282      2.195      3.183    12.8930 0.0000e+00
      2.240     -0.070     2.4170     23.914     57.672  44.827322    14.3098      6.121   229.0212 3.8568e+00    10.0989      2.200      3.190    13.0206 0.0000e+00
      2.239     -0.020     2.4420     23.571     57.019  44.648055    15.2567      6.124   228.8746 3.8309e+00     9.8638      2.196      3.183    13.3055 0.0000e+00
      2.239     -0.000     2.4685     23.132     56.254  44.545716    15.3692      6.128   228.7430 3.8246e+00     9.8349      2.197      3.185    13.6224 0.0000e+00
      2.240      0.001     2.4963     22.747     55.397  44.479247    15.6776      6.130   228.5483 3.8350e+00     9.4424      2.196      3.185    13.7412 0.0000e+00
      2.241     -0.007     2.4886     22.279     54.541  44.479908    16.2467      6.131   228.5848 3.8310e+00     8.7724      2.197      3.188    13.7800 0.0000e+00
      2.242     -0.034     2.4271     21.489     54.033  44.618047    16.5489      6.131   228.6680 3.8071e+00     8.4293      2.198      3.188    14.0984 0.0000e+00
      2.242     -0.093     2.3483     20.328     54.063  44.817124    16.4944      6.130   228.0925 3.7958e+00     8.4363      2.199      3.190    14.5726 0.0000e+00
      2.239     -0.173     2.2904     18.823     54.488  44.919317    15.5035      6.128   227.3048 3.8752e+00     8.3793      2.198      3.190    15.0893 0.0000e+00
      2.214     -0.243     2.2216     17.034     54.937  44.837661    13.6490      6.125   226.6295 4.3076e+00     8.2190      2.192      3.181    15.8264 0.0000e+00
      2.129     -0.283     2.1142     15.228     55.087  44.654467    12.6324      6.123   226.4661 5.4943e+00     8.1374      2.122      3.077    16.4213 0.0000e+00
      1.979     -0.290     1.9919     13.863     54.817  44.481349    12.5676      6.124   226.9647 7.1332e+00     8.1440      1.937      2.809    16.6025 0.0000e+00
      1.838     -0.265     1.8576     13.278     54.289  44.395017    12.8237      6.127   227.2377 8.0526e+00     8.0265      1.765      2.561    16.2984 0.0000e+00
      1.773     -0.212     1.6935     13.458     53.872  44.436295    13.2982      6.131   227.0994 7.8887e+00     7.7064      1.716      2.488    15.7408 0.0000e+00
      1.770     -0.137     1.5054     14.108     53.744  44.536586    13.5523      6.134   226.8410 7.5352e+00     7.4509      1.736      2.517    15.4006 0.0000e+00
      1.779     -0.062     1.3536     14.869     53.787  44.592226    13.5817      6.137   226.7799 7.4824e+00     7.3624      1.750      2.538    15.4514 0.0000e+00
      1.782     -0.013     1.2855     15.514     53.873  44.601216    13.7626      6.141   227.0494 7.5104e+00     7.1489      1.746      2.533    15.8812 0.0000e+00
      1.782      0.001     1.3023     15.950     53.933  44.581731    14.1077      6.143   227.4314 7.5273e+00     6.7829      1.747      2.534    16.3186 0.0000e+00
      1.781     -0.004     1.3758     16.174     53.928  44.546968    14.2924      6.144   227.7864 7.5533e+00     6.5579      1.746      2.533    16.4992 0.0000e+00
      1.779     -0.015     1.4579     16.220     53.824  44.498249    14.2971      6.147   228.0721 7.5567e+00     6.4778      1.744      2.530    16.4679 0.0000e+00
      1.777     -0.030     1.5260     16.122     53.645  44.437076    14.2145      6.148   227.9602 7.5465e+00     6.4284      1.743      2.528    16.3898 0.0000e+00
      1.773     -0.060     1.5715     15.972     53.433  44.378737    13.3105      6.146   227.5520 7.5819e+00     6.2339      1.741      2.525    16.3169 0.0000e+00
      1.762     -0.113     1.5924     15.913     53.191  44.300848    11.6653      6.145   227.7822 7.7490e+00     5.8681      1.732      2.514    16.2672 0.0000e+00
      1.741     -0.178     1.5955     15.973     52.939  44.193748    10.7687      6.145   228.5922 8.0535e+00     5.6270      1.710      2.481    16.3204 0.0000e+00
      1.705     -0.237     1.5805     16.068     52.607  44.036087    10.6928      6.144   229.2585 8.7833e+00     5.5734      1.685      2.444    16.4032 0.0000e+00
      1.629     -0.278     1.5540     16.124     52.129  43.854679    10.8559      6.143   229.0413 1.0557e+01     5.7327      1.622      2.353    16.5186 0.0000e+00
      1.506     -0.307     1.5441     16.145     51.639  43.777973    11.1930      6.146   228.2888 1.2913e+01     6.0832      1.474      2.139    16.6534 0.0000e+00
      1.387     -0.327     1.5513     16.192     51.273  43.807310    11.3977      6.151   228.5053 1.4448e+01     6.3272      1.333      1.933    16.7357 0.0000e+00
      1.318     -0.331     1.5605     16.253     51.031  43.828990    11.4421      6.154   229.6804 1.5160e+01     6.3606      1.283      1.861    16.8145 0.0000e+00
      1.271     -0.308     1.5607     16.284     50.837  43.786495    11.6212      6.154   230.3661 1.6638e+01     6.4177      1.264      1.833    17.0018 0.0000e+00
      1.196     -0.264     1.5452     16.331     50.586  43.674504    11.9485      6.153   229.9984 1.9336e+01     6.6090      1.185      1.719    17.3865 0.0000e+00
      1.097     -0.219     1.5390     16.471     50.271  43.554122    12.1204      6.153   229.8805 2.1884e+01     6.7606      1.064      1.543    17.7697 0.0000e+00
      1.022     -0.179     1.5416     16.735     49.950  43.473709    12.1262      6.154   230.8343 2.3142e+01     6.8153      0.984      1.427    17.9787 0.0000e+00
      0.990     -0.134     1.5387     17.090     49.613  43.400710    12.0604      6.156   232.2384 2.3312e+01     6.6897      0.964      1.398    18.0677 0.0000e+00
      0.983     -0.083     1.5379     17.513     49.233  43.306531    11.9319      6.157   233.3497 2.3212e+01     6.4029      0.964      1.397    18.1371 0.0000e+00
      0.983     -0.038     1.5450     18.018     48.843  43.223944    11.8545      6.160   233.9456 2.3121e+01     6.2518      0.964      1.397    18.3000 0.0000e+00
      0.983     -0.012     1.5647     18.569     48.497  43.164182    11.8157      6.162   234.3662 2.3014e+01     6.2635      0.964      1.398    18.5062 0.0000e+00
      0.983     -0.004     1.5924     19.083     48.189  43.092075    11.5378      6.160   235.0795 2.2917e+01     6.2031      0.964      1.399    18.7321 0.0000e+00
      0.983     -0.013     1.6223     19.546     47.943  43.050575    11.0248      6.156   235.9458 2.2788e+01     5.9654      0.964      1.398    18.9623 0.0000e+00
      0.983     -0.047     1.6605     19.996     47.869  43.106952    10.7391      6.158   236.7526 2.2662e+01     5.7806      0.964      1.399    19.2475 0.0000e+00
      0.983     -0.107     1.7065     20.451     47.977  43.202649    10.7058      6.165   237.7800 2.2597e+01     5.7795      0.965      1.399    19.5280 0.0000e+00
      0.976     -0.177     1.7472     20.895     48.171  43.255540    10.5804      6.170   238.7312 2.3320e+01     5.8835      0.966      1.400    19.7038 0.0000e+00
      0.939     -0.231     1.7800     21.288     48.323  43.238499    10.3556      6.172   239.1340 2.6622e+01     6.0467      0.945      1.373    19.9086 0.0000e+00
      0.840     -0.258     1.8149     21.555     48.286  43.123343    10.2261      6.175   239.2939 3.3316e+01     6.1141      0.846      1.227    20.0748 0.0000e+00
      0.703     -0.257     1.8567     21.658     48.003  42.942113    10.1970      6.181   240.1480 3.9994e+01     6.0486      0.670      0.972    20.0711 0.0000e+00
      0.600     -0.229     1.9043     21.683     47.512  42.761120    10.1949      6.186   241.6321 4.2495e+01     6.0065      0.559      0.811    19.9043 0.0000e+00
      0.564     -0.174     1.9507     21.808     46.985  42.649083    10.2836      6.190   242.9551 4.2110e+01     6.0490      0.545      0.792    19.7060 0.0000e+00
      0.560     -0.104     1.9822     22.290     46.565  42.603533    10.4537      6.194   244.3570 4.1739e+01     6.0841      0.549      0.797    19.5960 0.0000e+00
      0.561     -0.043     1.9858     23.482     46.198  42.528198    10.5455      6.196   245.7617 4.1587e+01     6.0551      0.550      0.796    19.6407 0.0000e+00
      0.562     -0.008     1.9707     25.679     45.859  42.436743    10.5358      6.198   247.0335 4.1375e+01     6.0397      0.551      0.799    19.9525 0.0000e+00
      0.564      0.002     1.9560     28.716     45.565  42.386651    10.4119      6.200   248.5496 4.1195e+01     6.0003      0.553      0.801    20.4070 0.0000e+00
      0.565     -0.000     1.9741     31.991     45.320  42.367144    10.1955      6.203   249.7242 4.1000e+01     5.8873      0.554      0.805    20.7764 0.0000e+00
      0.566     -0.017     2.0567     35.149     45.198  42.391591    10.0833      6.205   249.9647 4.0822e+01     5.8342      0.555      0.806    21.0403 0.0000e+00
      0.566     -0.057     2.2453     38.244     45.276  42.492024    10.0546      6.207   249.5642 4.0752e+01     5.8018      0.555      0.805    21.2571 0.0000e+00
      0.565     -0.122     2.5317     41.365     45.525  42.629451     9.7320      6.209   249.3559 4.0989e+01     5.7350      0.556      0.806    21.5053 0.0000e+00
      0.553     -0.195     2.8165     44.345     45.829  42.720189     9.1200      6.209   249.8550 4.3077e+01     5.7100      0.553      0.802    21.7696 0.0000e+00
      0.505     -0.251     3.0779     46.652     46.036  42.700266     8.7812      6.207   250.4369 5.0148e+01     5.7382      0.519      0.753    21.9347 0.0000e+00
      0.397     -0.277     3.3429     47.654     46.108  42.642144     8.7912      6.209   250.7120 6.2929e+01     5.8368      0.406      0.590    21.9691 0.0000e+00
      0.257     -0.272     3.6269     47.195     46.128  42.651970     9.1906      6.214   250.9452 7.5402e+01     5.9460      0.236      0.342    21.8577 0.0000e+00
      0.150     -0.237     3.9244     45.734     46.067  42.628657     9.9226      6.218   251.1061 8.1028e+01     6.0001      0.117      0.170    21.6176 0.0000e+00
      0.110     -0.177     4.1755     43.948     45.922  42.550731    10.3257      6.221   251.3664 8.0809e+01     5.9784      0.096      0.140    21.3337 0.0000e+00
      0.109     -0.105     4.2849     42.419     45.798  42.534969    10.3446      6.225   252.0272 7.9181e+01     5.9564      0.109      0.158    21.1726 0.0000e+00
      0.114     -0.045     4.2187     41.377     45.738  42.565169    10.2093      6.227   252.7290 7.8214e+01     5.9739      0.113      0.164    21.2250 0.0000e+00
      0.117     -0.023     4.0660     40.933     45.743  42.598643     9.9552      6.226   252.9686 7.7843e+01     5.8820      0.115      0.167    21.2646 0.0000e+00
      0.117     -0.048     3.8837     41.453     45.771  42.622384     9.8016      6.224   252.7726 7.7923e+01     5.7683      0.116      0.168    21.2869 0.0000e+00
      0.115     -0.107     3.7308     42.954     45.764  42.598342     9.7751      6.223   252.8549 7.8771e+01     5.7595      0.115      0.167    21.4460 0.0000e+00
      0.105     -0.170     3.6366     44.803     45.758  42.561814     9.7433      6.222   253.4478 8.3538e+01     5.7764      0.113      0.164    21.5567 0.0000e+00
      0.064     -0.209     3.5751     46.327     45.793  42.561510     9.4763      6.222   253.8321 1.0482e+02     5.8697      0.087      0.125    21.5643 0.0000e+00
     -0.034     -0.219     3.6173     47.215     45.765  42.531140     8.9845      6.227   253.9743 1.3074e+02     5.9998     -0.014     -0.020    21.5605 0.0000e+00
     -0.161     -0.204     3.7795     47.517     45.619  42.448494     8.7159      6.237   254.3928 1.3398e+02     6.0509     -0.180     -0.262    21.5426 0.0000e+00
     -0.240     -0.168     3.9672     47.488     45.429  42.387433     8.6919      6.247   255.1063 1.2760e+02     6.0783     -0.274     -0.396    21.5052 0.0000e+00
     -0.243     -0.116     4.1152     47.432     45.249  42.364259     8.6116      6.253   255.7175 1.2717e+02     6.0912     -0.242     -0.349    21.4562 0.0000e+00
     -0.222     -0.064     4.1923     47.683     45.111  42.358911     8.4771      6.257   255.9327 1.2913e+02     6.1392     -0.208     -0.302    21.4360 0.0000e+00
     -0.214     -0.043     4.2049     48.656     45.064  42.386420     8.4057      6.258   255.9871 1.3040e+02     6.2824     -0.209     -0.303    21.4942 0.0000e+00
     -0.213     -0.065     4.1817     50.677     45.115  42.443090     8.2980      6.255   256.2036 1.2904e+02     7.4818     -0.208     -0.301    21.6344 0.0000e+00
     -0.220     -0.107     4.1524     53.518     45.198  42.472884     7.2160      6.248   256.6575 1.2667e+02    21.1871     -0.208     -0.301    21.8183 0.0000e+00
     -0.255     -0.137     4.1502     56.415     45.218  42.429236     5.2445      6.241   257.3450 1.2333e+02    46.3871     -0.232     -0.335    21.9668 0.0000e+00
     -0.328     -0.144     4.2129     58.675     45.161  42.359544     4.1710      6.239   258.0635 1.1971e+02    60.1794     -0.319     -0.462    22.0487 0.0000e+00
     -0.405     -0.133     4.3940     59.926     45.077  42.328387     4.0322      6.239   258.7191 1.1754e+02    61.5933     -0.417     -0.605    22.0607 0.0000e+00
     -0.445     -0.107     4.6811     60.131     44.975  42.306472     3.4497      6.240   259.1633 1.1708e+02    63.2782     -0.448     -0.651    21.9873 0.0000e+00
     -0.449     -0.076     4.9637     59.627     44.872  42.285094     2.3805      6.240   258.9606 1.1764e+02    66.2383     -0.442     -0.643    21.8899 0.0000e+00
     -0.439     -0.055     5.1761     59.017     44.762  42.260419     1.7834      6.237   258.3324 1.1824e+02    67.9043     -0.429     -0.622    21.8598 0.0000e+00
     -0.432     -0.060     5.2798     58.694     44.627  42.198662     1.7069      6.222   257.2462 1.1869e+02    67.8443     -0.419     -0.608    21.9376 0.0000e+00
     -0.434     -0.085     5.2772     58.593     44.569  42.173182     1.5302      6.193   256.6690 1.1830e+02    64.7961     -0.421     -0.611    22.0327 0.0000e+00
     -0.456     -0.113     5.2049     58.583     44.812  42.396675     1.2033      6.168   257.3760 1.1569e+02    59.1275     -0.432     -0.628    22.1052 0.0000e+00
     -0.511     -0.128     5.1231     58.540     46.025  43.504543     1.0245      6.153   257.1047 1.1162e+02    56.0444     -0.492     -0.714    22.2068 0.0000e+00
     -0.581     -0.128     5.0986     58.352     48.326  45.602719     1.0253      6.147   255.7977 1.0853e+02    56.2459     -0.583     -0.846    22.2920 0.0000e+00
     -0.628     -0.117     5.0872     57.996     50.267  47.325572     1.1631      6.147   255.2542 1.0776e+02    61.2570     -0.629     -0.914    22.3198 0.0000e+00
     -0.642     -0.094     5.0911     57.466     50.932  47.830205     2.6732      6.149   255.4363 1.0885e+02   116.0862     -0.634     -0.920    22.3115 0.0000e+00
     -0.641     -0.062     5.0980     56.850     50.851  47.641022     5.4436      6.152   260.6671 1.0959e+02   216.6279     -0.625     -0.906    22.2721 0.0000e+00
     -0.647     -0.035     5.0846     56.226     50.752  47.450514     6.9355      6.155   271.0921 1.0842e+02   271.0053     -0.628     -0.912    22.1935 0.0000e+00
     -0.660     -0.020     5.0718     56.072     50.544  47.177312     6.9120      6.158   277.1191 1.0579e+02   270.0490     -0.652     -0.945    22.0755 0.0000e+00
     -0.667     -0.015     5.0287     57.260     44.081  41.099783     5.3425      6.160   277.8713 1.0312e+02   205.4407     -0.658     -0.953    21.9448 0.0000e+00
     -0.667     -0.012     4.9887     59.898     27.899  25.994039     2.4653      6.161   278.4657 1.0120e+02    86.3246     -0.654     -0.948    21.8324 0.0000e+00
     -0.667     -0.007     4.9356     63.386     13.659  12.717061     0.8968      6.161   278.7997 9.9797e+01    21.3751     -0.654     -0.949    21.7372 0.0000e+00
     -0.667     -0.002     4.8815     67.222      8.975   8.349810     0.8357      6.161   278.1242 1.0000e+02    15.8484     -0.654     -0.948    21.6564 0.0000e+00
     -0.667      0.000     4.9947     71.060      7.433   6.912248     1.8843      6.161   277.3523 1.0140e+02    19.3641     -0.654     -0.949    21.5973 0.0000e+00
     -0.667      0.001     5.2590     74.510      5.002   4.648850     3.8538      6.162   277.0384 1.0218e+02    26.6839     -0.654     -0.949    21.5611 0.0000e+00
     -0.667      0.002     5.5821     77.191      3.332   3.094050     5.0146      6.164   277.0826 1.0306e+02    30.6702     -0.653     -0.948    21.5338 0.0000e+00
     -0.667      0.005     5.9329     78.940      2.825   2.621020     6.0485      6.166   277.1977 1.0462e+02    31.1140     -0.654     -0.948    21.5071 0.0000e+00
     -0.667      0.009     6.2857     79.800      2.671   2.476888    16.4120      6.168   277.3124 1.0586e+02    32.5962     -0.654     -0.948    21.4844 0.0000e+00
     -0.665      0.012     6.6095     79.990      2.689   2.491564    35.4115      6.169   277.4374 1.0611e+02    35.3032     -0.653     -0.946    21.4590 0.0000e+00
     -0.660      0.014     6.8534     79.821      2.748   2.545093    45.6783      6.169   277.4176 1.0588e+02    36.6862     -0.648     -0.940    21.4252 0.0000e+00
     -0.653      0.015     7.0124     79.513      2.828   2.617348    45.5466      6.166   277.1588 1.0573e+02    35.9620     -0.640     -0.928    21.3913 0.0000e+00
     -0.648      0.015     7.0853     79.160      3.913   3.618561    34.0516      6.161   277.6637 1.0528e+02    27.1968     -0.634     -0.918    21.3590 0.0000e+00
     -0.645      0.015     7.0951     78.835      5.698   5.274631    12.8470      6.154   279.9089 1.0493e+02    11.1865     -0.632     -0.916    21.3290 0.0000e+00
     -0.644      0.015     7.0771     78.564      5.758   5.345990     1.2613      6.148   282.7098 1.0521e+02     2.4533     -0.632     -0.917    21.2962 0.0000e+00
     -0.641      0.014     7.0531     78.341      4.934   4.608403     0.1983      6.145   287.6095 1.0590e+02     1.7428     -0.628     -0.913    21.2680 0.0000e+00
     -0.636      0.009     7.0233     78.175      5.570   5.225976     0.1191      6.143   299.3152 1.0625e+02     2.5961     -0.625     -0.905    21.2323 0.0000e+00
     -0.631      0.000     6.9960     78.052      6.497   6.097706     0.1866      6.140   317.0378 1.0604e+02    12.3936     -0.619     -0.896    21.2139 0.0000e+00
     -0.627     -0.009     6.9452     77.968      6.568   6.152316     0.3062      6.133   328.6093 1.0573e+02    30.3307     -0.615     -0.891    21.4240 0.0000e+00
     -0.627     -0.017     6.8787     77.930      6.368   5.949639     0.3755      6.126   326.2546 1.0449e+02    40.0337     -0.610     -0.884    21.7590 0.0000e+00
     -0.639     -0.022     6.8412     77.923      6.018   5.611182     0.3842      6.117   322.2092 1.0077e+02    40.1799     -0.622     -0.903    21.9456 0.0000e+00
     -0.658     -0.024     6.8276     77.938      5.617   5.227773     0.2865      6.108   325.2973 9.6116e+01    31.9612     -0.652     -0.946    21.9638 0.0000e+00
     -0.667     -0.022     6.8367     77.983      5.368   4.988407     0.0929      6.101   325.6497 9.4997e+01    16.6323     -0.656     -0.952    21.8346 0.0000e+00
     -0.667     -0.017     6.8518     78.042      5.112   4.744323    -0.0170      6.098   319.2429 9.6795e+01     8.2496     -0.654     -0.949    21.7023 0.0000e+00
     -0.667     -0.009     6.8638     78.107      4.917   4.557238    -0.0184      6.096   314.1687 9.7619e+01     7.3964     -0.655     -0.950    21.6104 0.0000e+00
     -0.667     -0.002     6.8753     78.185      4.792   4.436866     0.1003      6.093   313.8565 9.7658e+01     6.0434     -0.652     -0.947    21.5245 0.0000e+00
     -0.667 -1.519e-09     6.8900     78.249      4.583   4.239168     0.3110      6.090   313.4035 9.7295e+01     3.6760     -0.654     -0.949    21.4555 0.0000e+00
     -0.667 -1.671e-08     6.9040     78.288      4.402   4.067399     0.4317      6.094   307.6590 9.6126e+01     2.4106     -0.654     -0.949    21.3927 0.0000e+00
     -0.667 -1.838e-07     6.9154     78.312      4.272   3.943788     0.4444      6.098   299.6377 9.5631e+01     2.3233     -0.654     -0.949    21.3394 0.0000e+00
     -0.667 -1.838e-07     6.9315     78.317      4.144   3.821523     0.3151      6.099   296.4352 9.6039e+01     2.0395     -0.654     -0.949    21.2875 0.0000e+00
     -0.667 -1.671e-08     6.9439     78.319      4.047   3.729392     0.0671      6.096   304.7293 9.5761e+01     1.4391     -0.655     -0.949    21.2399 0.0000e+00
     -0.667 -1.519e-09     6.9524     78.352      3.830   3.526668    -0.0738      6.093   312.9356 9.4935e+01     1.0756     -0.654     -0.949    21.1931 0.0000e+00
     -0.667 -1.381e-10     6.9616     78.398      3.486   3.207488    -0.0903      6.095   303.5949 9.4640e+01     1.0961     -0.655     -0.949    21.1480 0.0000e+00
     -0.667 -1.256e-11     6.9677     78.430      3.305   3.037587    -0.0662      6.096   290.7365 9.2822e+01     1.4466     -0.654     -0.949    21.1057 0.0000e+00
     -0.667 -1.141e-12     6.9708     78.458      3.328   3.056086     0.1767      6.090   292.0322 8.6831e+01     4.7326     -0.655     -0.949    21.0652 0.0000e+00
     -0.667 -1.038e-13     6.9805     78.473      3.325   3.051077     0.6244      6.078   312.5499 7.6909e+01    10.8009     -0.655     -0.949    21.0254 0.0000e+00
     -0.667 -9.435e-15     6.9919     78.468      3.246   2.977023     0.8937      6.066   339.3752 6.8725e+01    14.1858     -0.654     -0.949    20.9869 0.0000e+00
     -0.667 -8.575e-16     6.9979     78.469      3.187   2.920863     1.0103      6.062   337.6071 6.7346e+01    14.4367     -0.654     -0.949    20.9494 0.0000e+00
     -0.668 -7.795e-17     7.0065     78.496      3.144   2.878815     1.9424      6.068   312.1649 6.9095e+01    13.5270     -0.655     -0.950    20.9129 0.0000e+00
     -0.668 -7.085e-18     7.0133     78.546      3.113   2.848698     3.6748      6.073   297.7895 7.0261e+01    11.8630     -0.655     -0.950    20.8792 0.0000e+00
     -0.668 -6.445e-19     7.0152     78.583      3.072   2.810110     4.6367      6.073   296.0376 7.1237e+01    10.9530     -0.654     -0.949    20.8477 0.0000e+00
     -0.668 -5.855e-20     7.0193     78.587      2.986   2.728974     4.6908      6.072   297.7802 7.2726e+01    10.9280     -0.655     -0.950    20.8167 0.0000e+00
     -0.668 -5.325e-21     7.0259     78.595      2.877   2.627842     4.2795      6.071   306.9855 7.3919e+01    11.9364     -0.655     -0.949    20.7860 0.0000e+00
     -0.668 -4.841e-22     7.0357     78.622      2.780   2.537507     3.5256      6.073   311.6622 7.4518e+01    13.7854     -0.655     -0.949    20.7558 0.0000e+00
     -0.668 -4.401e-23     7.0448     78.649      2.768   2.523570     3.1160      6.080   290.0551 7.5972e+01    14.7704     -0.655     -0.950    20.7269 0.0000e+00
     -0.668 -4.001e-24     7.0462     78.667      2.770   2.522671     3.0471      6.088   253.0906 7.8112e+01    14.9638     -0.655     -0.949    20.6986 0.0000e+00
     -0.668 -3.637e-25     7.0506     78.674      2.706   2.463281     2.6346      6.092   235.2125 7.9976e+01    16.0893     -0.655     -0.949    20.6718 0.0000e+00
     -0.668 -3.306e-26     7.0586     78.688      2.751   2.502286     1.8820      6.084   248.8100 8.0123e+01    18.1315     -0.655     -0.949    20.6392 0.0000e+00
     -0.668 -3.006e-27     7.0681     78.731      2.946   2.677549     1.4803      6.069   277.3391 7.8076e+01    19.2630     -0.654     -0.949    20.5881 0.0000e+00
     -0.668 -2.732e-28     7.0775     78.756      3.162   2.872047     1.4318      6.055   302.9374 7.6499e+01    19.0444     -0.655     -0.950    20.5344 0.0000e+00
     -0.667 -2.484e-29     7.0833     78.724      3.392   3.080267     1.3283      6.047   327.5593 7.8395e+01    15.0781     -0.654     -0.949    20.4958 0.0000e+00
     -0.667 -2.258e-30     7.0867     78.713      3.700   3.358064     1.1446      6.040   351.5964 8.2215e+01     7.7891     -0.654     -0.949    20.4664 0.0000e+00
     -0.668 -2.053e-31     7.0956     78.748      4.006   3.633617     1.0077      6.039   356.0996 8.4019e+01     3.8101     -0.655     -0.951    20.4405 0.0000e+00
     -0.668 -1.866e-32     7.1061     78.787      4.137   3.751341     0.9638      6.043   345.6126 8.3503e+01     3.4501     -0.655     -0.950    20.4168 0.0000e+00
     -0.668 -1.697e-33     7.0994     78.814      4.087   3.704534     0.9380      6.052   320.7321 8.2240e+01     3.4366     -0.655     -0.950    20.3941 0.0000e+00
     -0.668 -1.542e-34     7.1016     78.834      4.086   3.701149     0.7294      6.059   275.7047 8.1329e+01     3.3056     -0.655     -0.950    20.3722 0.0000e+00
     -0.668 -1.402e-35     7.1110     78.877      4.308   3.900460     0.3394      6.048   268.6410 8.1812e+01     2.9930     -0.654     -0.949    20.3508 0.0000e+00
     -0.668 -1.275e-36     7.1161     78.978      4.657   4.213910     0.1172      6.023   323.9457 8.7644e+01     2.7997     -0.655     -0.950    20.3296 0.0000e+00
     -0.668 -1.159e-37     7.1231     79.133      5.131   4.640296     0.0905      6.003   372.6584 1.0213e+02     2.7446     -0.655     -0.950    20.3088 0.0000e+00
     -0.668 -1.053e-38     7.1253     79.210      5.673   5.128072     0.0507      5.993   392.0643 1.1714e+02     2.4634     -0.655     -0.950    20.2867 0.0000e+00
     -0.668 -9.575e-40     7.1331     79.141      5.932   5.360133    -0.0227      5.992   395.8807 1.2419e+02     1.9619     -0.655     -0.950    20.2622 0.0000e+00
     -0.668 -8.705e-41     7.1428     79.069      5.789   5.228760    -0.0733      6.005   372.0830 1.2730e+02     1.6334     -0.655     -0.950    20.2379 0.0000e+00
     -0.668 -7.915e-42     7.1665     79.044      5.535   4.996783    -0.0955      6.016   349.3671 1.3009e+02     1.5664     -0.655     -0.951    20.2156 0.0000e+00
     -0.668 -7.195e-43     7.1824     78.998      5.430   4.899394    -0.1079      6.010   349.5726 1.3099e+02     1.5614     -0.655     -0.950    20.1946 0.0000e+00
     -0.668 -6.529e-44     7.1678     78.909      5.475   4.938173    -0.1230      6.005   350.9940 1.3024e+02     1.4714     -0.655     -0.951    20.1745 0.0000e+00
     -0.668 -4.740e-45     7.1643     78.806      5.500   4.958830    -0.1453      6.006   356.4855 1.2912e+02     1.3666     -0.655     -0.950    20.1550 0.0000e+00
     -0.668 1.2716e-44     7.1687     78.735      5.291   4.769042    -0.1523      6.006   372.4355 1.2774e+02     1.3527     -0.655     -0.951    20.1355 0.0000e+00
     -0.668 1.4577e-43     7.1673     78.722      4.973   4.480673    -0.1410      6.011   380.4552 1.2613e+02     1.3708     -0.655     -0.950    20.1161 0.0000e+00
     -0.668 1.6040e-42     7.1612     78.733      4.730   4.259668    -0.1416      6.020   372.7459 1.2548e+02     1.3464     -0.655     -0.950    20.0970 0.0000e+00
     -0.668 1.7644e-41     7.1527     78.723      4.441   3.997410    -0.1513      6.029   348.4842 1.2645e+02     1.3319     -0.655     -0.950    20.0783 0.0000e+00
     -0.668 1.9408e-40     7.1473     78.713      4.201   3.780372    -0.1499      6.035   320.2755 1.2815e+02     1.3658     -0.655     -0.950    20.0598 0.0000e+00
     -0.668 2.1349e-39     7.1500     78.720      4.142   3.726025    -0.1497      6.040   308.4655 1.2991e+02     1.3469     -0.655     -0.950    20.0415 0.0000e+00
     -0.668 2.3484e-38     7.1568     78.749      4.067   3.657055    -0.1487      6.045   306.0118 1.3097e+02     1.2393     -0.655     -0.951    20.0235 0.0000e+00
     -0.668 2.5832e-37     7.1558     78.771      3.842   3.453247    -0.1463      6.050   303.1695 1.3038e+02     1.1235     -0.656     -0.950    20.0057 0.0000e+00
     -0.668 2.8416e-36     7.1579     78.767      3.590   3.225585    -0.1467      6.054   301.6323 1.3019e+02     1.1084     -0.655     -0.949    19.9879 0.0000e+00
     -0.668 3.1257e-35     7.1603     78.776      3.405   3.058236    -0.1358      6.058   300.0739 1.3200e+02     1.1929     -0.654     -0.950    19.9697 0.0000e+00
     -0.668 3.4383e-34     7.1664     78.796      3.215   2.886839    -0.1229      6.061   299.4702 1.3327e+02     1.2584     -0.655     -0.950    19.9521 0.0000e+00
     -0.668 3.7821e-33     7.1732     78.808      3.049   2.736897    -0.1319      6.062   302.0764 1.3292e+02     1.2845     -0.655     -0.950    19.9355 0.0000e+00
     -0.668 4.1603e-32     7.1713     78.823      2.941   2.638905    -0.1454      6.063   304.6544 1.3228e+02     1.3382     -0.655     -0.950    19.9191 0.0000e+00
     -0.668 4.5763e-31     7.1755     78.833      2.815   2.525523    -0.1448      6.068   296.4836 1.3210e+02     1.3612     -0.655     -0.950    19.9030 0.0000e+00
     -0.668 5.0340e-30     7.1812     78.847      2.654   2.379532    -0.1324      6.090   219.2009 1.3235e+02     1.3233     -0.655     -0.950    19.8869 0.0000e+00
     -0.668 5.5374e-29     7.1826     78.875      2.459   2.203978    -0.1036      6.128    83.3294 1.3243e+02     1.3243     -0.655     -0.950    19.8710 0.0000e+00
     -0.668 6.0911e-28     7.1878     78.899      2.288   2.049865    -0.0798      6.141    19.4596 1.3227e+02     1.3390     -0.655     -0.950    19.8556 0.0000e+00
     -0.668 6.7002e-27     7.1901     78.911      2.203   1.973085    -0.0779      6.126    39.2514 1.3198e+02     1.3309     -0.656     -0.951    19.8404 0.0000e+00
     -0.667 7.3703e-26     7.1925     78.925      2.132   1.909071    -0.0893      6.109    70.0191 1.2910e+02     1.3283     -0.655     -0.950    19.8254 0.0000e+00
     -0.667 8.1073e-25     7.1987     78.948      2.062   1.845964    -0.0926      6.094   117.3478 1.2223e+02     1.3416     -0.654     -0.949    19.8108 0.0000e+00
     -0.667 8.9180e-24     7.2029     78.963      2.060   1.843494    -0.0766      6.076   199.2847 1.1267e+02     1.3892     -0.654     -0.949    19.7966 0.0000e+00
     -0.667 9.8098e-23     7.2056     78.967      2.101   1.879209    -0.0616      6.058   289.1108 1.0191e+02     1.3913     -0.654     -0.949    19.7825 0.0000e+00
     -0.667 1.0791e-21     7.2083     78.987      2.122   1.897729    -0.0611      6.052   343.5509 9.4126e+01     1.3336     -0.655     -0.949    19.7683 0.0000e+00
     -0.668 1.1870e-20     7.2131     79.007      2.100   1.877380    -0.0626      6.065   325.5358 9.1371e+01     1.3392     -0.655     -0.950    19.7540 0.0000e+00
     -0.668 1.3057e-19     7.2179     79.012      2.039   1.823200    -0.0541      6.094   242.8537 9.0311e+01     1.3915     -0.655     -0.949    19.7396 0.0000e+00
     -0.667 1.4363e-18     7.2173     79.037      1.957   1.749395    -0.0583      6.118   168.3627 8.8223e+01     1.3855     -0.654     -0.948    19.7262 0.0000e+00
     -0.667 1.5799e-17     7.2224     79.060      1.882   1.681770    -0.0799      6.117   179.1772 8.5952e+01     1.3682     -0.654     -0.949    19.7133 0.0000e+00
     -0.667 1.7379e-16     7.2280     79.069      1.834   1.638983    -0.0829      6.093   273.4620 8.4909e+01     1.3876     -0.654     -0.948    19.7009 0.0000e+00
     -0.667 1.9117e-15     7.2258     79.074      1.805   1.612115    -0.0770      6.073   359.6827 8.4710e+01     1.3812     -0.654     -0.949    19.6895 0.0000e+00
     -0.667 2.1028e-14     7.2330     79.072      1.804   1.610281    -0.0927      6.075   373.0599 8.4847e+01     1.3594     -0.654     -0.949    19.6787 0.0000e+00
     -0.667 2.3131e-13     7.2361     79.068      1.811   1.616816    -0.0976      6.090   348.8208 8.4129e+01     1.3629     -0.654     -0.949    19.6689 0.0000e+00
     -0.667 2.5444e-12     7.2376     79.087      1.752   1.564444    -0.0779      6.094   353.7226 8.1248e+01     1.3549     -0.655     -0.949    19.6593 0.0000e+00
     -0.667 2.7989e-11     7.2400     79.131      1.662   1.483785    -0.0627      6.089   403.7619 7.8782e+01     1.3664     -0.654     -0.949    19.6498 0.0000e+00
     -0.668 3.0787e-10     7.2411     79.186      1.642   1.465027    -0.0642      6.088   435.7993 8.6850e+01     1.3983     -0.655     -0.949    19.6410 0.0000e+00
     -0.668 3.3866e-09     7.2404     79.225      1.713   1.527663    -0.0791      6.090   417.1464 1.1234e+02     1.3651     -0.655     -0.949    19.6322 0.0000e+00
     -0.668 3.7253e-08     7.2439     79.269      1.874   1.671041    -0.0836      6.093   404.5149 1.3933e+02     1.3403     -0.655     -0.949    19.6235 0.0000e+00
     -0.667 4.0978e-07     7.2492     79.333      2.024   1.805061    -0.0780      6.103   407.9151 1.4967e+02     1.3382     -0.654     -0.949    19.6150 0.0000e+00
     -0.667      0.000     7.2573     79.348      2.039   1.817883    -0.0779      6.115   405.0856 1.4797e+02     1.3059     -0.654     -0.949    19.6061 0.0000e+00
     -0.668      0.000     7.2617     79.291      1.978   1.762742    -0.0739      6.122   399.5580 1.4104e+02     1.3254     -0.655     -0.950    19.5970 0.0000e+00
     -0.668      0.001     7.2633     79.153      1.917   1.708437    -0.0632      6.124   393.3930 1.2853e+02     1.3685     -0.655     -0.950    19.5876 0.0000e+00
     -0.667      0.001     7.2774     78.973      1.872   1.668022    -0.0652      6.124   388.2770 1.1661e+02     1.3495     -0.654     -0.949    19.5778 0.0000e+00
     -0.667      0.001     7.2780     78.809      1.857   1.654148    -0.0810      6.126   381.7534 1.0968e+02     1.3338     -0.654     -0.948    19.5679 0.0000e+00
     -0.667      0.001     7.2761     78.660      1.872   1.667374    -0.0790      6.129   376.1209 1.0210e+02     1.3498     -0.654     -0.948    19.5583 0.0000e+00
     -0.667      0.000     7.2635     78.515      1.911   1.701256    -0.0661      6.131   376.1004 9.4747e+01     1.3383     -0.653     -0.948    19.5489 0.0000e+00
     -0.667 5.5878e-08     7.2444     78.380      1.892   1.683756    -0.0750      6.130   372.0407 9.2695e+01     1.3655     -0.654     -0.948    19.5395 0.0000e+00
     -0.667 6.1466e-07     7.2327     78.270      1.778   1.582458    -0.0871      6.131   390.7046 9.3344e+01     1.5070     -0.654     -0.948    19.5301 0.0000e+00
     -0.667      0.000     7.2198     78.190      1.675   1.489952    -0.0788      6.135   441.9032 9.2210e+01     1.6485     -0.653     -0.948    19.5213 0.0000e+00
     -0.667      0.000     7.2082     78.121      1.632   1.452061    -0.0660      6.136   458.8405 8.6968e+01     1.6764     -0.654     -0.949    19.5131 0.0000e+00
     -0.667      0.001     7.1957     78.039      1.620   1.441024    -0.0660      6.137   439.8470 7.7575e+01     1.5712     -0.654     -0.949    19.5049 0.0000e+00
     -0.666      0.001     7.1869     77.946      1.597   1.419853    -0.0795      6.139   424.4265 6.7518e+01     1.4016     -0.653     -0.947    19.4969 0.0000e+00
     -0.666      0.001     7.1812     77.871      1.558   1.386109    -0.0871      6.140   412.9809 6.1124e+01     1.3333     -0.653     -0.947    19.4891 0.0000e+00
     -0.666      0.001     7.1771     77.786      1.518   1.349729    -0.0752      6.141   403.0719 5.6586e+01     1.3602     -0.652     -0.946    19.4812 0.0000e+00
     -0.666      0.000     7.1712     77.656      1.458   1.296697    -0.0689      6.143   394.0124 5.2713e+01     1.3510     -0.653     -0.947    19.4729 0.0000e+00
     -0.666 1.8626e-08     7.1610     77.501      1.407   1.251643    -0.0692      6.143   385.9542 5.1718e+01     1.3248     -0.653     -0.947    19.4669 0.0000e+00
     -0.666 2.0489e-07     7.1560     77.388      1.403   1.248378    -0.0620      6.143   379.2050 5.0978e+01     1.3515     -0.652     -0.946    19.4658 0.0000e+00
     -0.666 2.0489e-07     7.1500     77.396      1.413   1.257209    -0.0652      6.144   373.6681 4.9025e+01     1.3656     -0.653     -0.947    19.4670 0.0000e+00
     -0.666 1.8626e-08     7.1367     77.583      1.385   1.231742    -0.0742      6.146   369.1696 4.7501e+01     1.3586     -0.652     -0.946    19.4684 0.0000e+00
     -0.666 1.6933e-09     7.1199     77.949      1.342   1.193820    -0.0788      6.148   366.0263 4.5718e+01     1.3693     -0.653     -0.947    19.4695 0.0000e+00
     -0.666 1.5394e-10     7.1071     78.484      1.325   1.178744    -0.0797      6.150   362.9363 4.3635e+01     1.3242     -0.652     -0.946    19.4699 0.0000e+00
     -0.666 1.3994e-11     7.1045     79.129      1.321   1.176136    -0.0839      6.152   358.3089 4.3221e+01     1.2575     -0.653     -0.947    19.4710 0.0000e+00
     -0.666 1.2722e-12     7.1230     79.780      1.306   1.162296    -0.0886      6.153   353.0108 4.4246e+01     1.2464     -0.652     -0.946    19.4726 0.0000e+00
     -0.666 1.1565e-13     7.1563     80.412      1.279   1.138080    -0.0777      6.155   348.0056 4.4772e+01     1.2923     -0.653     -0.947    19.4745 0.0000e+00
     -0.666 1.0465e-14     7.2053     80.987      1.278   1.136708    -0.0690      6.157   343.3928 4.4434e+01     1.3687     -0.653     -0.947    19.4768 0.0000e+00
     -0.665 4.1717e-16     7.2716     81.438      1.288   1.145712    -0.0760      6.158   339.4829 4.4043e+01     1.3845     -0.652     -0.946    19.4782 0.0000e+00
     -0.665 -5.839e-15     7.3287     81.738      1.259   1.120261    -0.0874      6.159   336.5238 4.4495e+01     1.3465     -0.653     -0.946    19.4789 0.0000e+00
     -0.666 -6.517e-14     7.3891     81.913      1.216   1.082341    -0.0904      6.159   334.2863 4.5686e+01     1.3528     -0.653     -0.947    19.4796 0.0000e+00
     -0.666 -7.170e-13     7.4442     82.001      1.199   1.067274    -0.0779      6.160   331.6159 4.7086e+01     1.3591     -0.653     -0.947    19.4805 0.0000e+00
     -0.665 -7.887e-12     7.4865     82.029      1.197   1.064771    -0.0697      6.162   328.4142 4.8767e+01     1.3191     -0.652     -0.946    19.4814 0.0000e+00
     -0.665 -8.675e-11     7.5128     82.025      1.182   1.052074    -0.0752      6.164   325.9461 5.1057e+01     1.3135     -0.653     -0.946    19.4825 0.0000e+00
     -0.665 -9.543e-10     7.5267     81.992      1.169   1.040443    -0.0693      6.165   324.0583 5.3627e+01     1.3602     -0.653     -0.947    19.4836 0.0000e+00
     -0.665 -1.050e-08     7.5351     81.943      1.181   1.050815    -0.0648      6.166   322.5388 5.5172e+01     1.3717     -0.652     -0.946    19.4843 0.0000e+00
     -0.665 -1.155e-07     7.5351     81.904      1.181   1.050805    -0.0881      6.168   321.5132 5.5495e+01     1.3151     -0.652     -0.946    19.4846 0.0000e+00
     -0.665 -2.117e-07     7.5362     81.876      1.169   1.040317    -0.1005      6.169   320.5197 5.5527e+01     1.2909     -0.652     -0.946    19.4850 0.0000e+00
     -0.665 -1.154e-07     7.5317     81.836      1.181   1.050690    -0.0902      6.171   319.4745 5.6215e+01     1.3181     -0.652     -0.946    19.4858 0.0000e+00
     -0.665 -1.049e-08     7.5268     81.795      1.179   1.049547    -0.0881      6.171   318.5123 5.7894e+01     1.3030     -0.653     -0.946    19.4864 0.0000e+00
     -0.665 -9.540e-10     7.5221     81.770      1.153   1.026496    -0.0827      6.171   318.0916 5.9599e+01     1.3121     -0.653     -0.947    19.4870 0.0000e+00
     -0.665 -8.675e-11     7.5216     81.712      1.152   1.025344    -0.0667      6.172   318.0878 6.0017e+01     1.3949     -0.653     -0.947    19.4872 0.0000e+00
     -0.665 -7.885e-12     7.5173     81.564      1.164   1.035614    -0.0614      6.172   319.2406 5.8984e+01     1.4497     -0.652     -0.946    19.4875 0.0000e+00
     -0.665 -7.170e-13     7.5112     81.357      1.151   1.023984    -0.0692      6.173   321.8771 5.8391e+01     1.4280     -0.653     -0.947    19.4879 0.0000e+00
     -0.665 -6.520e-14     7.5119     81.204      1.136   1.011411    -0.0772      6.174   323.2939 6.0961e+01     1.3723     -0.652     -0.946    19.4882 0.0000e+00
     -0.665 -5.925e-15     7.5087     81.136      1.135   1.010267    -0.0836      6.175   322.7773 6.5591e+01     1.3573     -0.652     -0.945    19.4885 0.0000e+00
     -0.665 -5.385e-16     7.4947     81.040      1.135   1.010163    -0.0880      6.176   321.3083 6.7680e+01     1.3831     -0.652     -0.946    19.4892 0.0000e+00
     -0.665 -4.897e-17     7.4703     80.894      1.135   1.010153    -0.0880      6.178   319.2130 6.7446e+01     1.4447     -0.652     -0.946    19.4901 0.0000e+00
     -0.665 -4.452e-18     7.4532     80.816      1.135   1.010152    -0.0765      6.179   317.8347 6.7936e+01     1.5561     -0.652     -0.946    19.4908 0.0000e+00
     -0.665 -4.047e-19     7.4542     80.838      1.135   1.010152    -0.0645      6.181   317.4635 6.8630e+01     1.6371     -0.652     -0.946    19.4919 0.0000e+00
     -0.665 -3.679e-20     7.4467     80.911      1.135   1.010152    -0.0683      6.182   316.9615 6.8753e+01     1.6041     -0.651     -0.945    19.4934 0.0000e+00
     -0.665 -3.345e-21     7.4253     80.987      1.135   1.010151    -0.0729      6.182   316.1533 6.9959e+01     1.5318     -0.652     -0.946    19.4943 0.0000e+00
     -0.665 -3.040e-22     7.4186     81.047      1.135   1.010141    -0.0702      6.183   315.2632 7.2171e+01     1.5491     -0.652     -0.946    19.4948 0.0000e+00
     -0.665 -2.764e-23     7.4225     81.094      1.135   1.010027    -0.0687      6.184   314.1150 7.2860e+01     1.5735     -0.652     -0.946    19.4950 0.0000e+00
     -0.665 -2.513e-24     7.4312     81.152      1.133   1.008771    -0.0798      6.185   313.0253 7.2644e+01     1.5533     -0.652     -0.946    19.4946 0.0000e+00
     -0.665 -2.284e-25     7.4382     81.222      1.118   0.994951    -0.0888      6.186   312.4119 7.3293e+01     1.5792     -0.652     -0.946    19.4943 0.0000e+00
     -0.665 -2.077e-26     7.4443     81.260      1.090   0.969615    -0.0769      6.188   312.0328 7.4194e+01     1.6136     -0.652     -0.946    19.4934 0.0000e+00
     -0.665 -1.888e-27     7.4476     81.251      1.074   0.955795    -0.0686      6.188   311.4538 7.4097e+01     1.6271     -0.652     -0.945    19.4920 0.0000e+00
     -0.665 -1.717e-28     7.4524     81.248      1.073   0.954539    -0.0803      6.188   310.2283 7.1475e+01     1.6052     -0.652     -0.946    19.4908 0.0000e+00
     -0.665 -1.560e-29     7.4618     81.279      1.073   0.954425    -0.0930      6.190   308.6595 6.2174e+01     1.5541     -0.652     -0.945    19.4903 0.0000e+00
     -0.665 -1.418e-30     7.4657     81.304      1.073   0.954424    -0.0892      6.191   307.3696 5.0154e+01     1.5904     -0.652     -0.946    19.4899 0.0000e+00
     -0.665 -1.289e-31     7.4626     81.307      1.073   0.954527    -0.0757      6.192   306.0764 4.5477e+01     1.6336     -0.652     -0.946    19.4895 0.0000e+00
     -0.665 -1.172e-32     7.4601     81.316      1.073   0.955669    -0.0721      6.193   304.6379 4.5124e+01     1.5642     -0.652     -0.945    19.4894 0.0000e+00
     -0.665 -1.035e-33     7.4665     81.333      1.088   0.968233    -0.0788      6.194   303.2270 4.4129e+01     1.5032     -0.652     -0.946    19.4895 0.0000e+00
     -0.665 2.4411e-34     7.4687     81.343      1.101   0.979749    -0.0814      6.195   302.2678 4.3547e+01     1.5451     -0.652     -0.945    19.4898 0.0000e+00
     -0.665 3.7423e-33     7.4674     81.363      1.088   0.968232    -0.0788      6.195   301.8164 4.3483e+01     1.5927     -0.652     -0.945    19.4902 0.0000e+00
     -0.665 4.1261e-32     7.4676     81.385      1.073   0.955659    -0.0810      6.195   301.2108 4.4261e+01     1.5659     -0.652     -0.946    19.4908 0.0000e+00
     -0.665 4.5388e-31     7.4715     81.386      1.072   0.954413    -0.0830      6.196   299.5056 4.6082e+01     1.5637     -0.652     -0.946    19.4912 0.0000e+00
     -0.665 4.9927e-30     7.4694     81.389      1.071   0.953167    -0.0781      6.197   297.1157 4.9717e+01     1.5311     -0.652     -0.945    19.4919 0.0000e+00
     -0.665 5.4920e-29     7.4732     81.498      1.057   0.940589    -0.0797      6.199   297.4384 5.7696e+01     1.3769     -0.652     -0.945    19.4928 0.0000e+00
     -0.665 6.0412e-28     7.4748     81.627      1.044   0.929019    -0.0853      6.202   299.9663 6.7122e+01     1.3039     -0.652     -0.945    19.4931 0.0000e+00
     -0.665 6.6453e-27     7.4766     81.569      1.056   0.939954    -0.0796      6.202   305.3968 7.1599e+01     1.3662     -0.652     -0.945    19.4936 0.0000e+00
     -0.665 7.3098e-26     7.4700     81.474      1.063   0.946121    -0.0772      6.202   324.2074 7.2930e+01     1.4130     -0.651     -0.945    19.4943 0.0000e+00
     -0.665 8.0408e-25     7.4793     81.463      1.057   0.940248    -0.0891      6.204   350.7649 7.7330e+01     1.3913     -0.652     -0.945    19.4952 0.0000e+00
     -0.664 8.8449e-24     7.5108     81.471      1.047   0.932291    -0.0995      6.206   369.2437 8.3017e+01     1.3087     -0.651     -0.944    19.4960 0.0000e+00
     -0.664 9.7294e-23     7.4891     81.476      1.026   0.913247    -0.0945      6.207   402.3127 8.3268e+01     1.2692     -0.652     -0.945    19.4970 0.0000e+00
     -0.664 1.0702e-21     7.4773     81.466      1.011   0.899999    -0.0782      6.209   434.8361 7.8547e+01     1.2887     -0.652     -0.945    19.4979 0.0000e+00
     -0.664 1.1773e-20     7.4825     81.451      1.010   0.898794    -0.0695      6.210   422.1099 7.2704e+01     1.2719     -0.651     -0.944    19.4986 0.0000e+00
     -0.664 1.2950e-19     7.4803     81.477      1.010   0.898684    -0.0723      6.210   399.8699 6.7556e+01     1.2709     -0.651     -0.945    19.4994 0.0000e+00
     -0.664 1.4245e-18     7.4831     81.550      1.010   0.898659    -0.0701      6.209   393.0777 6.3610e+01     1.3454     -0.652     -0.945    19.5006 0.0000e+00
     -0.664 1.5669e-17     7.4809     81.609      1.009   0.898501    -0.0683      6.209   387.1350 6.1212e+01     1.3868     -0.651     -0.945    19.5018 0.0000e+00
     -0.664 1.7236e-16     7.4777     81.620      1.007   0.896772    -0.0833      6.210   381.9641 6.0412e+01     1.3269     -0.651     -0.945    19.5031 0.0000e+00
     -0.664 1.8960e-15     7.4786     81.613      0.986   0.877756    -0.0937      6.211   375.6421 6.0060e+01     1.3041     -0.651     -0.945    19.5047 0.0000e+00
     -0.664 2.0856e-14     7.4891     81.621      0.965   0.858598    -0.0857      6.212   366.1055 5.9828e+01     1.3505     -0.652     -0.945    19.5062 0.0000e+00
     -0.664 2.2941e-13     7.4947     81.623      0.961   0.855151    -0.0780      6.214   360.6980 5.9982e+01     1.3411     -0.651     -0.944    19.5074 0.0000e+00
     -0.664 2.5236e-12     7.4950     81.602      0.939   0.836086    -0.0755      6.215   365.2401 6.0645e+01     1.3273     -0.652     -0.945    19.5081 0.0000e+00
     -0.664 2.7759e-11     7.4918     81.588      0.919   0.818097    -0.0725      6.214   379.8964 6.2420e+01     1.3891     -0.651     -0.944    19.5086 0.0000e+00
     -0.664 3.0535e-10     7.4942     81.601      0.929   0.827674    -0.0670      6.211   400.2443 6.5385e+01     1.4389     -0.651     -0.945    19.5088 0.0000e+00
     -0.664 3.3589e-09     7.4957     81.619      0.927   0.825204    -0.0670      6.207   412.4276 6.7706e+01     1.4166     -0.651     -0.944    19.5087 0.0000e+00
     -0.664 3.6947e-08     7.4916     81.643      0.885   0.788234    -0.0803      6.205   417.4179 6.8433e+01     1.3583     -0.651     -0.944    19.5094 0.0000e+00
     -0.664 4.0642e-07     7.4893     81.696      0.855   0.760707    -0.0867      6.205   422.2081 6.8349e+01     1.3488     -0.652     -0.945    19.5108 0.0000e+00
     -0.664      0.000     7.4918     81.761      0.838   0.745735    -0.0780      6.205   423.7976 6.7791e+01     1.4045     -0.651     -0.945    19.5119 0.0000e+00
     -0.664      0.000     7.4934     81.813      0.824   0.733887    -0.0745      6.204   423.2141 6.6395e+01     1.4175     -0.651     -0.944    19.5128 0.0000e+00
     -0.664      0.001     7.4937     81.865      0.836   0.744127    -0.0705      6.203   422.8975 6.4140e+01     1.4373     -0.651     -0.945    19.5137 0.0000e+00
     -0.664      0.001     7.4994     81.930      0.834   0.742869    -0.0627      6.204   422.8085 6.2318e+01     1.5410     -0.651     -0.944    19.5139 0.0000e+00
     -0.664      0.000     7.5071     81.979      0.807   0.718674    -0.0634      6.207   422.9978 6.1581e+01     1.5780     -0.651     -0.944    19.5142 0.0000e+00
     -0.664 1.8474e-08     7.5107     82.004      0.791   0.704958    -0.0701      6.208   423.3795 6.1317e+01     1.5438     -0.650     -0.943    19.5148 0.0000e+00
     -0.664 2.0321e-07     7.5143     82.025      0.790   0.703712    -0.0773      6.209   423.4661 6.1154e+01     1.5718     -0.651     -0.943    19.5152 0.0000e+00
     -0.664 2.0321e-07     7.5221     82.045      0.790   0.703600    -0.0758      6.210   423.6155 6.0966e+01     1.6090     -0.650     -0.944    19.5156 0.0000e+00
     -0.664 1.8501e-08     7.5271     82.066      0.790   0.703609    -0.0763      6.211   424.5826 6.0811e+01     1.5834     -0.651     -0.943    19.5160 0.0000e+00
     -0.663 1.9848e-09     7.5274     82.092      0.790   0.703815    -0.0836      6.212   427.3304 6.0853e+01     1.5700     -0.650     -0.944    19.5159 0.0000e+00
     -0.663 3.5115e-09     7.5303     82.117      0.793   0.706100    -0.0801      6.212   444.6212 6.1138e+01     1.6184     -0.650     -0.943    19.5159 0.0000e+00
     -0.663 3.6961e-08     7.5318     82.136      0.821   0.731226    -0.0673      6.209   471.3733 6.1527e+01     1.6558     -0.650     -0.943    19.5161 0.0000e+00
     -0.664 4.0642e-07     7.5329     82.155      0.847   0.754259    -0.0627      6.202   482.6900 6.1897e+01     1.6121     -0.651     -0.944    19.5168 0.0000e+00
     -0.664      0.000     7.5361     82.179      0.821   0.731226    -0.0739      6.196   487.3239 6.2648e+01     1.5343     -0.651     -0.944    19.5177 0.0000e+00
     -0.663      0.000     7.5382     82.205      0.793   0.706099    -0.0781      6.195   503.0521 6.2966e+01     1.5346     -0.650     -0.943    19.5180 0.0000e+00
     -0.663      0.001     7.5398     82.209      0.790   0.703805    -0.0722      6.196   524.4397 6.1251e+01     1.5819     -0.650     -0.943    19.5184 0.0000e+00
     -0.663      0.001     7.5408     82.159      0.790   0.703493    -0.0768      6.197   538.1357 5.8706e+01     1.5594     -0.650     -0.943    19.5193 0.0000e+00
     -0.663      0.000     7.5436     82.121      0.789   0.702321    -0.0840      6.198   542.3433 5.7165e+01     1.5357     -0.650     -0.942    19.5205 0.0000e+00
     -0.663 1.8474e-08     7.5452     82.141      0.774   0.689642    -0.0846      6.199   542.8769 5.6606e+01     1.5686     -0.650     -0.942    19.5220 0.0000e+00
     -0.663 2.0321e-07     7.5489     82.136      0.759   0.676869    -0.0843      6.202   541.6624 5.6552e+01     1.5475     -0.649     -0.942    19.5240 0.0000e+00
     -0.663 2.0321e-07     7.5399     82.102      0.757   0.674566    -0.0886      6.203   540.2203 5.6598e+01     1.4857     -0.650     -0.943    19.5317 0.0000e+00
     -0.663 1.8475e-08     7.5290     82.082      0.742   0.661794    -0.0870      6.203   538.5181 5.6605e+01     1.5045     -0.650     -0.943    19.5467 0.0000e+00
     -0.663 1.6933e-09     7.5373     82.085      0.727   0.649126    -0.0726      6.205   536.4831 5.6607e+01     1.6040     -0.650     -0.942    19.5620 0.0000e+00
     -0.663 3.0535e-10     7.5317     82.095      0.726   0.648078    -0.0638      6.206   535.4893 5.6534e+01     1.6630     -0.650     -0.942    19.5752 0.0000e+00
     -0.663 -9.990e-29     7.5251 -9.990e-29 -9.990e-29 -9.990e-29 -9.990e-29 -9.990e-29 -9.990e-29 5.6343e+01 -9.990e-29     -0.650     -0.942    19.5874 0.0000e+00
     -0.663 -9.990e-29     7.5230 -9.990e-29 -9.990e-29 -9.990e-29 -9.990e-29 -9.990e-29 -9.990e-29 5.6069e+01 -9.990e-29     -0.650     -0.943    19.5962 0.0000e+00
     -0.663 -9.990e-29     7.5205 -9.990e-29 -9.990e-29 -9.990e-29 -9.990e-29 -9.990e-29 -9.990e-29 5.5779e+01 -9.990e-29     -0.650     -0.943    19.6046 0.0000e+00
     -0.663 -9.990e-29     7.5250 -9.990e-29 -9.990e-29 -9.990e-29 -9.990e-29 -9.990e-29 -9.990e-29 5.5639e+01 -9.990e-29     -0.650     -0.943    19.6102 0.0000e+00
