* Sea-Bird SBE19plus  Data File:
* FileName = C:\DATA\20180917_fcr_0001.hex
* Software version 2.6.3.104 SB_Terminal.dll
* Temperature SN = 7809
* Conductivity SN = 7809
* System UpLoad Time = Sep 17 2018 17:51:15
* <ApplicationData>
* <Seaterm232>
* <SoftwareVersion>2.6.3.104</SoftwareVersion>
* <BuildDate>30-Jun-2017</BuildDate>
* </Seaterm232>
* </ApplicationData>
* cast   1 17 Sep 2018 14:39:31 samples 1 to 502, avg = 1, stop = mag switch
# nquan = 15
# nvalues = 358                         
# units = specified
# name 0 = depFM: Depth [fresh water, m]
# name 1 = dz/dtM: Descent Rate [m/s]
# name 2 = sbeox0Mg/L: Oxygen, SBE 43 [mg/l]
# name 3 = sbeox0PS: Oxygen, SBE 43 [% saturation]
# name 4 = specc: Specific Conductance [uS/cm]
# name 5 = c0uS/cm: Conductivity [uS/cm]
# name 6 = flECO-AFL: Fluorescence, WET Labs ECO-AFL/FL [mg/m^3]
# name 7 = ph: pH
# name 8 = orp: Oxidation Reduction Potential [mV]
# name 9 = par/sat/log: PAR/Logarithmic, Satlantic
# name 10 = turbWETntu0: Turbidity, WET Labs ECO [NTU]
# name 11 = prdM: Pressure, Strain Gauge [db]
# name 12 = prdE: Pressure, Strain Gauge [psi]
# name 13 = tv290C: Temperature [ITS-90, deg C]
# name 14 = flag:  0.000e+00
# span 0 =     -0.602,      2.465       
# span 1 =     -0.185,      0.152       
# span 2 =     4.7747,     8.3479       
# span 3 =     55.173,     96.529       
# span 4 =      0.784,     36.535       
# span 5 =   0.741960,  34.735657       
# span 6 =    -0.1863,     5.3338       
# span 7 =      6.208,      7.634       
# span 8 =   175.7722,   298.8318       
# span 9 = 4.9402e+00, 1.5249e+02       
# span 10 =    -0.2477,     9.4818      
# span 11 =     -0.592,      2.419      
# span 12 =     -0.859,      3.508      
# span 13 =    21.3469,    22.5694      
# span 14 = 0.0000e+00, 0.0000e+00      
# interval = seconds: 0.25
# start_time = Sep 17 2018 14:39:31 [Instrument's time stamp, header]
# bad_flag = -9.990e-29
# <Sensors count="9" >
#   <sensor Channel="1" >
#     <!-- Count, Temperature -->
#     <TemperatureSensor SensorID="58" >
#       <SerialNumber>7809</SerialNumber>
#       <CalibrationDate>09-Mar-18</CalibrationDate>
#       <A0>1.21093245e-003</A0>
#       <A1>2.84356597e-004</A1>
#       <A2>-1.94507398e-006</A2>
#       <A3>2.12806664e-007</A3>
#       <Slope>1.00000000</Slope>
#       <Offset>0.0000</Offset>
#     </TemperatureSensor>
#   </sensor>
#   <sensor Channel="2" >
#     <!-- Frequency 0, Conductivity -->
#     <ConductivitySensor SensorID="3" >
#       <SerialNumber>7809</SerialNumber>
#       <CalibrationDate>09-Mar-18</CalibrationDate>
#       <UseG_J>1</UseG_J>
#       <!-- Cell const and series R are applicable only for wide range sensors. -->
#       <SeriesR>0.0000</SeriesR>
#       <CellConst>2000.0000</CellConst>
#       <ConductivityType>0</ConductivityType>
#       <Coefficients equation="0" >
#         <A>0.00000000e+000</A>
#         <B>0.00000000e+000</B>
#         <C>0.00000000e+000</C>
#         <D>0.00000000e+000</D>
#         <M>0.0</M>
#         <CPcor>-9.57000000e-008</CPcor>
#       </Coefficients>
#       <Coefficients equation="1" >
#         <G>-1.00672082e+000</G>
#         <H>1.26906489e-001</H>
#         <I>-1.40584351e-004</I>
#         <J>2.47837121e-005</J>
#         <CPcor>-9.57000000e-008</CPcor>
#         <CTcor>3.2500e-006</CTcor>
#         <!-- WBOTC not applicable unless ConductivityType = 1. -->
#         <WBOTC>0.00000000e+000</WBOTC>
#       </Coefficients>
#       <Slope>1.00000000</Slope>
#       <Offset>0.00000</Offset>
#     </ConductivitySensor>
#   </sensor>
#   <sensor Channel="3" >
#     <!-- Count, Pressure, Strain Gauge -->
#     <PressureSensor SensorID="46" >
#       <SerialNumber>7809</SerialNumber>
#       <CalibrationDate>07-Mar-18</CalibrationDate>
#       <PA0>-4.08176359e-002</PA0>
#       <PA1>4.85188419e-004</PA1>
#       <PA2>-3.51168169e-012</PA2>
#       <PTEMPA0>-5.37806900e+001</PTEMPA0>
#       <PTEMPA1>5.36620721e+001</PTEMPA1>
#       <PTEMPA2>4.87214332e-002</PTEMPA2>
#       <PTCA0>5.25213435e+005</PTCA0>
#       <PTCA1>1.79532409e+000</PTCA1>
#       <PTCA2>-2.84353509e-001</PTCA2>
#       <PTCB0>2.51668750e+001</PTCB0>
#       <PTCB1>3.75000000e-004</PTCB1>
#       <PTCB2>0.00000000e+000</PTCB2>
#       <Offset>0.000000</Offset>
#     </PressureSensor>
#   </sensor>
#   <sensor Channel="4" >
#     <!-- A/D voltage 0, pH -->
#     <pH_Sensor SensorID="43" >
#       <SerialNumber>0363</SerialNumber>
#       <CalibrationDate>16-Mar-18</CalibrationDate>
#       <Slope>4.6194</Slope>
#       <Offset>2.5947</Offset>
#     </pH_Sensor>
#   </sensor>
#   <sensor Channel="5" >
#     <!-- A/D voltage 1, Oxidation Reduction Potential -->
#     <OxidationReductionPotentialSensor SensorID="41" >
#       <SerialNumber>0363</SerialNumber>
#       <CalibrationDate>16-Mar-18</CalibrationDate>
#       <B>2.499480</B>
#       <M>-0.496195</M>
#       <Offset>0.0</Offset>
#     </OxidationReductionPotentialSensor>
#   </sensor>
#   <sensor Channel="6" >
#     <!-- A/D voltage 2, Oxygen, SBE 43 -->
#     <OxygenSensor SensorID="38" >
#       <SerialNumber>0434</SerialNumber>
#       <CalibrationDate>13-Mar-18</CalibrationDate>
#       <Use2007Equation>1</Use2007Equation>
#       <CalibrationCoefficients equation="0" >
#         <!-- Coefficients for Owens-Millard equation. -->
#         <Boc>0.0000</Boc>
#         <Soc>0.0000e+000</Soc>
#         <offset>0.0000</offset>
#         <Pcor>0.00e+000</Pcor>
#         <Tcor>0.0000</Tcor>
#         <Tau>0.0</Tau>
#       </CalibrationCoefficients>
#       <CalibrationCoefficients equation="1" >
#         <!-- Coefficients for Sea-Bird equation - SBE calibration in 2007 and later. -->
#         <Soc>4.5718e-001</Soc>
#         <offset>-0.6113</offset>
#         <A>-4.0649e-003</A>
#         <B> 2.0945e-004</B>
#         <C>-3.3182e-006</C>
#         <D0> 2.5826e+000</D0>
#         <D1> 1.92634e-004</D1>
#         <D2>-4.64803e-002</D2>
#         <E> 3.6000e-002</E>
#         <Tau20> 1.2200</Tau20>
#         <H1>-3.3000e-002</H1>
#         <H2> 5.0000e+003</H2>
#         <H3> 1.4500e+003</H3>
#       </CalibrationCoefficients>
#     </OxygenSensor>
#   </sensor>
#   <sensor Channel="7" >
#     <!-- A/D voltage 3, PAR/Logarithmic, Satlantic -->
#     <PARLog_SatlanticSensor SensorID="76" >
#       <SerialNumber>1122</SerialNumber>
#       <CalibrationDate>22-Jun-2017</CalibrationDate>
#       <a0>9.6090e-001</a0>
#       <a1>8.0780e-001</a1>
#       <Im>1.3589e+000</Im>
#       <Multiplier>1.0000e+000</Multiplier>
#     </PARLog_SatlanticSensor>
#   </sensor>
#   <sensor Channel="8" >
#     <!-- A/D voltage 4, Fluorometer, WET Labs ECO-AFL/FL -->
#     <FluoroWetlabECO_AFL_FL_Sensor SensorID="20" >
#       <SerialNumber>FLNTURT-2496</SerialNumber>
#       <CalibrationDate>25-Jan-2017</CalibrationDate>
#       <ScaleFactor>5.30000000e+001</ScaleFactor>
#       <!-- Dark output -->
#       <Vblank>0.0560</Vblank>
#     </FluoroWetlabECO_AFL_FL_Sensor>
#   </sensor>
#   <sensor Channel="9" >
#     <!-- A/D voltage 5, Turbidity Meter, WET Labs, ECO-NTU -->
#     <TurbidityMeter SensorID="67" >
#       <SerialNumber>FLNTURT-2496</SerialNumber>
#       <CalibrationDate>25-Jan-2017</CalibrationDate>
#       <ScaleFactor>176.000000</ScaleFactor>
#       <!-- Dark output -->
#       <DarkVoltage>0.072000</DarkVoltage>
#     </TurbidityMeter>
#   </sensor>
# </Sensors>
# datcnv_date = Sep 17 2018 17:58:16, 7.26.7.114 [datcnv_vars = 14]
# datcnv_in = C:\DATA\20180917_fcr10.hex C:\DATA\SBE19plusV2_7809.xmlcon
# datcnv_skipover = 0
# datcnv_ox_hysteresis_correction = yes
# datcnv_ox_tau_correction = yes
# filter_date = Sep 17 2018 17:59:15, 7.26.7.114
# filter_in = C:\DATA\20180917_fcr10.cnv
# filter_low_pass_tc_A = 0.030
# filter_low_pass_tc_B = 0.150
# filter_low_pass_A_vars = prdM prdE tv290C
# filter_low_pass_B_vars = depFM dz/dtM sbeox0Mg/L sbeox0PS specc c0uS/cm flECO-AFL ph orp par/sat/log turbWETntu0
# alignctd_date = Sep 17 2018 17:59:41, 7.26.7.114
# alignctd_in = C:\DATA\20180917_fcr10.cnv
# alignctd_adv = dz/dtM 1.000, sbeox0Mg/L 1.000, sbeox0PS 1.000, specc 1.000, c0uS/cm 1.000, flECO-AFL 1.000, ph 1.000, orp 1.000, turbWETntu0 1.000                                                                                 
# file_type = ascii
*END*
     -0.599 2.1419e-07     8.3226     95.738      0.784   0.741960    -0.1686      6.210   225.4945 8.8816e+01    -0.1559     -0.587     -0.852    22.2994 0.0000e+00
     -0.599      0.000     8.3232     95.743      0.899   0.850873    -0.1648      6.209   231.9620 8.2604e+01    -0.1602     -0.587     -0.852    22.2994 0.0000e+00
     -0.599      0.000     8.3222     95.729      1.011   0.955928    -0.1616      6.208   237.0003 7.8279e+01    -0.1922     -0.588     -0.853    22.2993 0.0000e+00
     -0.599      0.000     8.3200     95.704      1.122   1.060975    -0.1666      6.209   237.1974 7.7814e+01    -0.2373     -0.587     -0.852    22.2989 0.0000e+00
     -0.599      0.003     8.3180     95.702      1.169   1.106378    -0.1698      6.223   241.3153 7.9390e+01    -0.2477     -0.587     -0.852    22.2981 0.0000e+00
     -0.599      0.009     8.3117     95.697      1.187   1.124407    -0.1731      6.262   252.7176 8.3553e+01    -0.2267     -0.587     -0.853    22.2964 0.0000e+00
     -0.599      0.014     8.3014     95.677      1.215   1.152132    -0.1787      6.321   263.3824 8.9304e+01    -0.2272     -0.587     -0.851    22.2955 0.0000e+00
     -0.597      0.014     8.2936     95.674      1.251   1.187952    -0.1733      6.370   281.6419 9.4770e+01    -0.2242     -0.589     -0.854    22.2940 0.0000e+00
     -0.587      0.009     8.2884     95.674      1.306   1.240435    -0.1631      6.394   298.8318 9.8000e+01    -0.2208     -0.580     -0.841    22.2957 0.0000e+00
     -0.572      0.002     8.2848     95.665      1.281   1.215977    -0.1660      6.404   290.2832 9.7370e+01    -0.2168     -0.554     -0.804    22.3342 0.0000e+00
     -0.570     -0.003     8.2841     95.670      1.273   1.209300    -0.1800      6.413   257.6957 9.5944e+01    -0.2056     -0.552     -0.801    22.4019 0.0000e+00
     -0.584     -0.004     8.2850     95.684      2.488   2.364564    -0.1863      6.447   231.0802 9.6562e+01    -0.2071     -0.573     -0.832    22.4515 0.0000e+00
     -0.597      0.001     8.2852     95.692      7.703   7.320102    -0.1771      6.523   244.4912 9.8012e+01    -0.2045     -0.590     -0.856    22.4825 0.0000e+00
     -0.602      0.011     8.2852     95.702     14.925  14.183902    -0.1701      6.615   262.8258 9.8596e+01    -0.2053     -0.592     -0.859    22.5013 0.0000e+00
     -0.598      0.023     8.2849     95.710     18.382  17.471202    -0.1748      6.710   264.6800 9.8886e+01    -0.2171     -0.591     -0.857    22.5049 0.0000e+00
     -0.581      0.035     8.2835     95.705     18.678  17.754702    -0.1783      6.820   269.8363 9.9826e+01    -0.1946     -0.575     -0.833    22.5036 0.0000e+00
     -0.557      0.042     8.2818     95.693     18.926  17.992472    -0.1768      6.930   270.7925 1.0070e+02    -0.1464     -0.542     -0.785    22.5058 0.0000e+00
     -0.542      0.044     8.2806     95.686     19.398  18.442037    -0.1748      7.023   268.2402 1.0106e+02    -0.1529     -0.526     -0.763    22.5122 0.0000e+00
     -0.539      0.041     8.2796     95.676     19.986  19.001520    -0.1723      7.102   260.5726 1.0108e+02    -0.1821     -0.529     -0.768    22.5189 0.0000e+00
     -0.536      0.036     8.2790     95.667     21.367  20.314306    -0.1743      7.173   246.3990 1.0113e+02    -0.1937     -0.530     -0.769    22.5238 0.0000e+00
     -0.526      0.031     8.2794     95.671     23.074  21.937287    -0.1802      7.252   239.8650 1.0156e+02    -0.2318     -0.516     -0.747    22.5282 0.0000e+00
     -0.514      0.028     8.2794     95.672     24.202  23.009832    -0.1798      7.350   249.1124 1.0228e+02    -0.2467     -0.502     -0.728    22.5318 0.0000e+00
     -0.505      0.026     8.2791     95.671     27.662  26.299848    -0.1787      7.454   264.0808 1.0337e+02    -0.2213     -0.495     -0.718    22.5328 0.0000e+00
     -0.498      0.024     8.2791     95.672     33.389  31.745047    -0.1850      7.535   266.5778 1.0457e+02    -0.2297     -0.486     -0.705    22.5317 0.0000e+00
     -0.496      0.022     8.2798     95.682     36.344  34.554064    -0.1825      7.585   243.2542 1.0556e+02    -0.2262     -0.485     -0.703    22.5313 0.0000e+00
     -0.494      0.022     8.2817     95.703     36.535  34.735657    -0.1665      7.612   206.2089 1.0659e+02    -0.2095     -0.488     -0.708    22.5316 0.0000e+00
     -0.489      0.024     8.2823     95.711     36.433  34.639382    -0.1664      7.628   187.6029 1.0734e+02    -0.2413     -0.480     -0.697    22.5318 0.0000e+00
     -0.482      0.029     8.2811     95.699     36.320  34.533367    -0.1810      7.634   187.7022 1.0734e+02    -0.2446     -0.471     -0.683    22.5320 0.0000e+00
     -0.474      0.034     8.2807     95.698     36.253  34.470136    -0.1784      7.632   190.4588 1.0726e+02    -0.2190     -0.467     -0.677    22.5322 0.0000e+00
     -0.464      0.036     8.2822     95.720     36.226  34.446530    -0.1621      7.624   193.9164 1.0751e+02    -0.2062     -0.456     -0.661    22.5323 0.0000e+00
     -0.452      0.036     8.2821     95.725     36.215  34.438508    -0.1591      7.612   197.1569 1.0770e+02    -0.1813     -0.443     -0.641    22.5331 0.0000e+00
     -0.441      0.033     8.2790     95.697     36.210  34.436664    -0.1696      7.600   199.6120 1.0776e+02    -0.1923     -0.432     -0.626    22.5343 0.0000e+00
     -0.431      0.028     8.2770     95.680     36.194  34.424238    -0.1695      7.590   201.2313 1.0788e+02    -0.2181     -0.422     -0.612    22.5354 0.0000e+00
     -0.424      0.024     8.2766     95.680     36.183  34.415306    -0.1668      7.582   202.4524 1.0833e+02    -0.2177     -0.416     -0.602    22.5379 0.0000e+00
     -0.421      0.021     8.2761     95.678     36.157  34.392194    -0.1742      7.573   205.2569 1.0858e+02    -0.2182     -0.412     -0.598    22.5417 0.0000e+00
     -0.421      0.021     8.2754     95.673     36.096  34.335344    -0.1758      7.554   210.0155 1.0851e+02    -0.1935     -0.413     -0.600    22.5462 0.0000e+00
     -0.418      0.020     8.2751     95.671     36.058  34.299605    -0.1777      7.526   213.7002 1.0878e+02    -0.1327     -0.411     -0.597    22.5498 0.0000e+00
     -0.409      0.019     8.2753     95.673     36.035  34.277664    -0.1786      7.502   214.6178 1.0940e+02    -0.0636     -0.402     -0.584    22.5522 0.0000e+00
     -0.399      0.017     8.2758     95.681     36.016  34.260617    -0.1674      7.487   214.4858 1.1032e+02    -0.0283     -0.390     -0.566    22.5542 0.0000e+00
     -0.392      0.016     8.2776     95.705     36.039  34.284041    -0.1620      7.476   211.3295 1.1049e+02    -0.0112     -0.382     -0.553    22.5557 0.0000e+00
     -0.391      0.014     8.2783     95.716     36.062  34.306809    -0.1682      7.460   203.6432 1.0923e+02    -0.0097     -0.382     -0.555    22.5562 0.0000e+00
     -0.393      0.014     8.2778     95.713     36.035  34.281841    -0.1780      7.445   202.5144 1.0751e+02    -0.0412     -0.387     -0.560    22.5567 0.0000e+00
     -0.393      0.018     8.2792     95.730     35.987  34.236227    -0.1800      7.437   205.1673 1.0602e+02    -0.0261     -0.386     -0.561    22.5577 0.0000e+00
     -0.388      0.028     8.2807     95.749     35.948  34.199919    -0.1646      7.436   204.1420 1.0507e+02     0.0201     -0.381     -0.554    22.5592 0.0000e+00
     -0.380      0.047     8.2808     95.750     35.906  34.160432    -0.0930      7.433   205.9495 1.0495e+02     0.2131     -0.374     -0.542    22.5610 0.0000e+00
     -0.370      0.071     8.2801     95.742     35.885  34.139888     0.6225      7.421   199.2315 1.0616e+02     2.6131     -0.365     -0.529    22.5624 0.0000e+00
     -0.354      0.098     8.2817     95.760     35.888  34.142077     1.9325      7.403   183.4002 1.0830e+02     7.0344     -0.352     -0.511    22.5634 0.0000e+00
     -0.326      0.124     8.2893     95.847     35.868  34.123379     2.6502      7.394   175.7722 1.0958e+02     9.4198     -0.324     -0.469    22.5638 0.0000e+00
     -0.286      0.143     8.3051     96.030     35.848  34.104363     2.7572      7.390   175.8333 1.0945e+02     9.4818     -0.282     -0.409    22.5640 0.0000e+00
     -0.239      0.152     8.3283     96.299     35.845  34.102707     3.1802      7.386   177.1698 1.0889e+02     7.6305     -0.236     -0.343    22.5638 0.0000e+00
     -0.187      0.151     8.3479     96.529     35.845  34.103363     3.9413      7.383   178.5951 1.0777e+02     4.1872     -0.183     -0.265    22.5630 0.0000e+00
     -0.141      0.142     8.3302     96.325     35.854  34.112293     4.3597      7.383   179.9888 1.0603e+02     2.3342     -0.132     -0.190    22.5626 0.0000e+00
     -0.109      0.128     8.2333     95.206     35.890  34.147159     4.3982      7.385   181.4602 1.0434e+02     2.1942     -0.101     -0.147    22.5632 0.0000e+00
     -0.089      0.112     8.0456     93.036     35.953  34.207331     4.4433      7.384   183.2210 1.0177e+02     2.1887     -0.088     -0.128    22.5644 0.0000e+00
     -0.068      0.093     7.7868     90.043     35.951  34.204654     4.5279      7.381   184.6724 9.3688e+01     2.1769     -0.071     -0.103    22.5655 0.0000e+00
     -0.042      0.075     7.4883     86.591     35.856  34.114795     4.5759      7.380   185.7592 7.9182e+01     2.1443     -0.041     -0.060    22.5664 0.0000e+00
     -0.016      0.060     7.1748     82.966     35.812  34.073617     4.5737      7.379   187.1557 6.7403e+01     2.0993     -0.011     -0.017    22.5669 0.0000e+00
     -0.001      0.047     6.8695     79.435     35.827  34.087874     4.4637      7.376   188.9100 6.4008e+01     2.0290      0.005      0.007    22.5671 0.0000e+00
      0.003      0.036     6.6040     76.366     35.837  34.096624     4.2667      7.371   190.4495 6.4737e+01     1.9349      0.005      0.008    22.5667 0.0000e+00
      0.002      0.025     6.3980     73.984     35.857  34.115901     4.1581      7.365   191.6597 6.5375e+01     1.9072      0.001      0.001    22.5667 0.0000e+00
      0.004      0.016     6.2522     72.298     35.871  34.130399     4.1436      7.359   192.9602 6.6705e+01     1.9691      0.002      0.003    22.5670 0.0000e+00
      0.011      0.011     6.1574     71.203     35.886  34.144883     4.1467      7.353   194.3862 6.9123e+01     2.0735      0.010      0.015    22.5667 0.0000e+00
      0.018      0.010     6.0954     70.488     35.906  34.163995     4.1493      7.349   195.6513 7.0644e+01     2.1613      0.019      0.028    22.5663 0.0000e+00
      0.021      0.009     6.0528     69.995     35.913  34.170926     4.1466      7.349   196.7266 7.1102e+01     2.2074      0.022      0.032    22.5666 0.0000e+00
      0.020      0.007     6.0312     69.745     35.907  34.165165     4.1513      7.350   197.9235 7.2222e+01     2.2041      0.020      0.029    22.5674 0.0000e+00
      0.019      0.004     6.0307     69.739     35.899  34.157859     4.1608      7.350   199.3677 7.4111e+01     2.1513      0.018      0.027    22.5684 0.0000e+00
      0.019      0.002     6.0452     69.908     35.887  34.146105     4.1873      7.347   200.7662 7.5633e+01     2.0879      0.018      0.027    22.5687 0.0000e+00
      0.020      0.000     6.0687     70.179     35.891  34.150081     4.2330      7.340   201.8411 7.6650e+01     1.9864      0.019      0.028    22.5689 0.0000e+00
      0.022     -0.002     6.0914     70.441     35.951  34.205930     4.2631      7.333   202.5552 7.6655e+01     1.9014      0.021      0.031    22.5692 0.0000e+00
      0.023     -0.002     6.1068     70.618     35.997  34.249710     4.2761      7.330   203.2051 7.6930e+01     1.9143      0.023      0.034    22.5694 0.0000e+00
      0.021      0.002     6.1197     70.767     35.982  34.234808     4.2800      7.333   203.9343 7.9912e+01     1.9900      0.023      0.034    22.5691 0.0000e+00
      0.016      0.008     6.1386     70.984     35.963  34.216300     4.2727      7.336   204.4891 8.3514e+01     2.0845      0.016      0.023    22.5688 0.0000e+00
      0.014      0.016     6.1645     71.283     35.963  34.216476     4.2615      7.338   204.9232 8.4076e+01     2.1410      0.009      0.013    22.5684 0.0000e+00
      0.020      0.026     6.1925     71.608     35.984  34.236937     4.2540      7.340   205.4830 8.2516e+01     2.1550      0.017      0.024    22.5679 0.0000e+00
      0.033      0.037     6.2186     71.909     36.022  34.273142     4.2385      7.339   206.3532 8.1190e+01     2.1617      0.033      0.047    22.5672 0.0000e+00
      0.047      0.047     6.2406     72.164     36.022  34.273130     4.2109      7.326   207.4437 8.0721e+01     2.1615      0.047      0.067    22.5666 0.0000e+00
      0.059      0.054     6.2573     72.357     35.984  34.236787     4.2052      7.304   208.4291 8.0916e+01     2.1525      0.059      0.085    22.5666 0.0000e+00
      0.073      0.055     6.2633     72.425     35.961  34.214824     4.2159      7.284   209.2336 8.0918e+01     2.1440      0.070      0.101    22.5667 0.0000e+00
      0.089      0.052     6.2507     72.279     35.944  34.198129     4.2308      7.273   209.8574 8.1052e+01     2.1195      0.087      0.125    22.5668 0.0000e+00
      0.106      0.052     6.2197     71.920     35.906  34.161967     4.2562      7.273   210.4647 8.1687e+01     2.1006      0.106      0.153    22.5669 0.0000e+00
      0.119      0.060     6.1803     71.465     35.903  34.158694     4.2744      7.275   211.2428 8.2447e+01     2.1294      0.118      0.172    22.5667 0.0000e+00
      0.126      0.073     6.1457     71.063     35.971  34.222071     4.2765      7.277   212.1233 8.3008e+01     2.1624      0.124      0.180    22.5666 0.0000e+00
      0.134      0.084     6.1260     70.833     36.046  34.293072     4.2264      7.275   212.9373 8.0932e+01     2.1639      0.126      0.182    22.5665 0.0000e+00
      0.158      0.086     6.1253     70.822     36.074  34.318462     4.1279      7.262   213.5130 7.6050e+01     2.1786      0.146      0.211    22.5661 0.0000e+00
      0.198      0.073     6.1345     70.924     36.031  34.274989     4.0789      7.247   214.0082 7.2795e+01     2.2179      0.194      0.282    22.5652 0.0000e+00
      0.238      0.043     6.1386     70.965     35.969  34.212067     4.0926      7.241   214.7946 7.2517e+01     2.2111      0.240      0.348    22.5636 0.0000e+00
      0.261     -0.005     6.1384     70.955     35.952  34.192859     4.1004      7.245   215.8793 7.4969e+01     2.1579      0.266      0.386    22.5625 0.0000e+00
      0.255     -0.065     6.1394     70.965     35.930  34.169776     4.1001      7.255   216.9708 8.1075e+01     2.1230      0.262      0.381    22.5623 0.0000e+00
      0.219     -0.125     6.1397     70.970     35.881  34.123526     4.1156      7.262   217.8395 8.9209e+01     2.1252      0.221      0.321    22.5585 0.0000e+00
      0.161     -0.168     6.1380     70.952     35.832  34.078274     4.1331      7.258   218.5531 9.8236e+01     2.1549      0.162      0.235    22.5517 0.0000e+00
      0.095     -0.185     6.1380     70.954     35.818  34.067262     4.1460      7.250   219.3190 1.1178e+02     2.1766      0.093      0.135    22.5466 0.0000e+00
      0.031     -0.176     6.1494     71.089     35.870  34.117412     4.1789      7.243   220.0441 1.2811e+02     2.1736      0.024      0.035    22.5444 0.0000e+00
     -0.018     -0.150     6.1720     71.351     35.931  34.176503     4.2284      7.229   220.6094 1.3829e+02     2.1492     -0.024     -0.035    22.5457 0.0000e+00
     -0.050     -0.116     6.1915     71.577     35.966  34.210078     4.2565      7.214   221.0774 1.4133e+02     2.1258     -0.055     -0.078    22.5478 0.0000e+00
     -0.065     -0.083     6.1966     71.633     35.963  34.205777     4.2620      7.207   221.4859 1.4162e+02     2.1346     -0.068     -0.097    22.5500 0.0000e+00
     -0.071     -0.057     6.1819     71.458     35.947  34.188012     4.2580      7.210   221.8492 1.4098e+02     2.1337     -0.067     -0.098    22.5519 0.0000e+00
     -0.078     -0.040     6.1497     71.081     35.948  34.185830     4.2536      7.218   222.2008 1.3976e+02     2.1157     -0.075     -0.109    22.5535 0.0000e+00
     -0.088     -0.031     6.1065     70.579     35.943  34.179394     4.2553      7.227   222.6398 1.3968e+02     2.1303     -0.087     -0.127    22.5546 0.0000e+00
     -0.098     -0.026     6.0579     70.016     35.938  34.173702     4.2601      7.237   223.2848 1.4104e+02     2.1569     -0.097     -0.140    22.5522 0.0000e+00
     -0.105     -0.019     6.0083     69.442     35.945  34.180525     4.2660      7.245   223.9767 1.4228e+02     2.1332     -0.103     -0.149    22.5471 0.0000e+00
     -0.110     -0.010     5.9612     68.899     35.964  34.198377     4.2706      7.250   224.5525 1.4402e+02     2.0875     -0.108     -0.156    22.5428 0.0000e+00
     -0.113     -0.002     5.9181     68.400     35.964  34.198992     4.2796      7.252   225.0852 1.4541e+02     2.0929     -0.113     -0.165    22.5408 0.0000e+00
     -0.110      0.004     5.8769     67.924     35.953  34.187963     4.2923      7.251   225.5136 1.4548e+02     2.1370     -0.110     -0.160    22.5399 0.0000e+00
     -0.103      0.007     5.8332     67.417     35.958  34.192062     4.3508      7.247   225.7733 1.4450e+02     2.1632     -0.101     -0.147    22.5398 0.0000e+00
     -0.097      0.008     5.7850     66.857     35.952  34.185038     4.4631      7.242   225.9888 1.4376e+02     2.1649     -0.094     -0.137    22.5403 0.0000e+00
     -0.095      0.007     5.7340     66.266     35.934  34.166552     4.5290      7.241   226.3114 1.4430e+02     2.1583     -0.093     -0.134    22.5401 0.0000e+00
     -0.096      0.004     5.6801     65.642     35.926  34.159103     4.5220      7.244   226.7495 1.4466e+02     2.1442     -0.094     -0.136    22.5399 0.0000e+00
     -0.099      0.002     5.6226     64.976     35.926  34.158486     4.5084      7.248   227.3281 1.4456e+02     2.1472     -0.097     -0.140    22.5396 0.0000e+00
     -0.100      0.002     5.5659     64.320     35.927  34.159091     4.5194      7.248   227.9730 1.4401e+02     2.1639     -0.100     -0.143    22.5374 0.0000e+00
     -0.098      0.002     5.5153     63.735     35.936  34.166418     4.5354      7.241   228.4383 1.4330e+02     2.1627     -0.099     -0.141    22.5350 0.0000e+00
     -0.095      0.002     5.4689     63.199     35.954  34.183550     4.5369      7.228   228.7376 1.4344e+02     2.1332     -0.093     -0.135    22.5343 0.0000e+00
     -0.093      0.002     5.4260     62.703     35.946  34.175685     4.5290      7.218   229.0966 1.4422e+02     2.1120     -0.089     -0.130    22.5339 0.0000e+00
     -0.093      0.001     5.3868     62.249     35.903  34.134840     4.5223      7.217   229.5960 1.4521e+02     2.1195     -0.090     -0.131    22.5333 0.0000e+00
     -0.094      0.000     5.3497     61.819     35.903  34.134320     4.5200      7.222   229.9572 1.4606e+02     2.1331     -0.092     -0.133    22.5325 0.0000e+00
     -0.095     -0.001     5.3132     61.398     35.939  34.169390     4.5191      7.228   230.1950 1.4654e+02     2.1239     -0.094     -0.136    22.5321 0.0000e+00
     -0.096     -0.001     5.2764     60.973     35.948  34.177775     4.5216      7.234   230.6644 1.4673e+02     2.0993     -0.096     -0.139    22.5322 0.0000e+00
     -0.096      0.000     5.2406     60.558     35.943  34.172180     4.5035      7.238   231.1580 1.4632e+02     2.1110     -0.095     -0.138    22.5319 0.0000e+00
     -0.095      0.000     5.2072     60.172     35.936  34.165260     4.4747      7.241   231.4309 1.4551e+02     2.1426     -0.093     -0.135    22.5316 0.0000e+00
     -0.094     -0.001     5.1783     59.838     35.928  34.157622     4.4676      7.242   231.7267 1.4484e+02     2.1770     -0.093     -0.134    22.5314 0.0000e+00
     -0.094     -0.003     5.1547     59.565     35.914  34.143349     4.4632      7.241   232.1534 1.4455e+02     2.1905     -0.092     -0.133    22.5312 0.0000e+00
     -0.095     -0.003     5.1330     59.314     35.889  34.119722     4.4592      7.241   232.5463 1.4489e+02     2.1839     -0.092     -0.134    22.5309 0.0000e+00
     -0.098     -0.003     5.1110     59.059     35.896  34.126016     4.4547      7.241   232.9496 1.4526e+02     2.1882     -0.096     -0.140    22.5305 0.0000e+00
     -0.100     -0.002     5.0882     58.795     35.928  34.155926     4.4553      7.241   233.3305 1.4568e+02     2.1818     -0.099     -0.143    22.5304 0.0000e+00
     -0.102     -0.002     5.0659     58.537     35.936  34.163781     4.4677      7.240   233.6238 1.4647e+02     2.1683     -0.101     -0.146    22.5302 0.0000e+00
     -0.101     -0.002     5.0444     58.288     35.929  34.157476     4.4662      7.238   234.0006 1.4686e+02     2.1465     -0.101     -0.145    22.5297 0.0000e+00
     -0.098     -0.002     5.0232     58.043     35.914  34.143211     4.4551      7.235   234.3589 1.4704e+02     2.1321     -0.096     -0.139    22.5294 0.0000e+00
     -0.098     -0.002     5.0050     57.833     35.889  34.118336     4.4531      7.232   234.6004 1.4752e+02     2.1462     -0.094     -0.136    22.5290 0.0000e+00
     -0.100     -0.002     4.9886     57.643     35.881  34.110782     4.4609      7.232   234.7695 1.4799e+02     2.1652     -0.098     -0.142    22.5288 0.0000e+00
     -0.104     -0.001     4.9704     57.432     35.886  34.115390     4.4664      7.231   235.0261 1.4854e+02     2.1478     -0.103     -0.148    22.5287 0.0000e+00
     -0.105      0.000     4.9514     57.213     35.881  34.110533     4.4735      7.230   235.5531 1.4933e+02     2.1186     -0.105     -0.153    22.5285 0.0000e+00
     -0.105      0.002     4.9349     57.022     35.887  34.115576     4.5013      7.229   235.9790 1.5018e+02     2.1476     -0.104     -0.151    22.5280 0.0000e+00
     -0.102      0.005     4.9207     56.857     35.884  34.112851     4.5264      7.228   236.1318 1.5076e+02     2.1933     -0.100     -0.146    22.5275 0.0000e+00
     -0.098      0.010     4.9068     56.697     35.847  34.077581     4.5285      7.228   236.3680 1.5086e+02     2.1826     -0.096     -0.140    22.5275 0.0000e+00
     -0.096      0.016     4.8908     56.512     35.839  34.070235     4.5272      7.227   236.5979 1.5056e+02     2.1403     -0.094     -0.136    22.5271 0.0000e+00
     -0.095      0.025     4.8727     56.302     35.858  34.087549     4.5284      7.224   236.6734 1.4936e+02     2.1097     -0.094     -0.136    22.5266 0.0000e+00
     -0.091      0.036     4.8556     56.105     35.867  34.096364     4.5251      7.216   236.9379 1.4916e+02     2.0874     -0.092     -0.133    22.5266 0.0000e+00
     -0.081      0.047     4.8387     55.910     35.885  34.113298     4.5236      7.207   237.3866 1.5157e+02     2.1144     -0.082     -0.119    22.5264 0.0000e+00
     -0.066      0.057     4.8216     55.712     35.873  34.101748     4.5283      7.199   237.7106 1.5249e+02     2.2230     -0.067     -0.098    22.5260 0.0000e+00
     -0.046      0.062     4.8074     55.547     35.855  34.083743     4.5364      7.194   237.9302 1.4716e+02     2.3010     -0.047     -0.067    22.5260 0.0000e+00
     -0.023      0.063     4.7957     55.410     35.858  34.086163     4.5385      7.194   237.9763 1.3851e+02     2.2653     -0.021     -0.029    22.5259 0.0000e+00
     -0.004      0.060     4.7846     55.280     35.839  34.067487     4.5275      7.196   237.8377 1.3302e+02     2.2182     -0.001     -0.002    22.5259 0.0000e+00
      0.008      0.055     4.7762     55.185     35.817  34.048480     4.5218      7.198   237.8027 1.2987e+02     2.2200      0.009      0.013    22.5259 0.0000e+00
      0.017      0.050     4.7747     55.173     35.812  34.046907     4.5243      7.201   237.9841 1.2643e+02     2.1954      0.017      0.025    22.5256 0.0000e+00
      0.027      0.047     4.7862     55.313     35.810  34.048468     4.5222      7.203   238.3091 1.2371e+02     2.1349      0.025      0.037    22.5237 0.0000e+00
      0.038      0.046     4.8122     55.617     35.826  34.067361     4.5241      7.202   238.6351 1.2171e+02     2.0983      0.035      0.052    22.5220 0.0000e+00
      0.050      0.047     4.8453     56.002     35.843  34.084786     4.5741      7.201   238.8288 1.1961e+02     2.0887      0.049      0.070    22.5240 0.0000e+00
      0.064      0.047     4.8811     56.417     35.825  34.068608     4.6674      7.201   238.8446 1.1738e+02     2.1106      0.063      0.092    22.5293 0.0000e+00
      0.078      0.046     4.9187     56.854     35.816  34.062303     4.7154      7.202   238.8265 1.1468e+02     2.1495      0.077      0.112    22.5353 0.0000e+00
      0.090      0.044     4.9575     57.306     35.825  34.072070     4.7130      7.202   238.9545 1.1255e+02     2.1610      0.089      0.130    22.5402 0.0000e+00
      0.099      0.042     5.0051     57.860     35.810  34.059678     4.7026      7.203   239.1869 1.1188e+02     2.1583      0.098      0.142    22.5426 0.0000e+00
      0.108      0.041     5.0708     58.621     35.787  34.039507     4.6351      7.203   239.3991 1.1133e+02     2.1478      0.105      0.152    22.5436 0.0000e+00
      0.117      0.041     5.1521     59.561     35.764  34.018727     4.5227      7.202   239.6276 1.0985e+02     2.1566      0.114      0.166    22.5454 0.0000e+00
      0.128      0.041     5.2382     60.558     35.743  33.998991     4.4645      7.201   239.8843 1.0818e+02     2.1736      0.125      0.182    22.5483 0.0000e+00
      0.140      0.041     5.3198     61.502     35.735  33.991427     4.4553      7.201   240.0079 1.0667e+02     2.1692      0.137      0.199    22.5507 0.0000e+00
      0.152      0.041     5.3900     62.314     35.734  33.990791     4.4566      7.201   240.0899 1.0489e+02     2.1644      0.149      0.217    22.5528 0.0000e+00
      0.163      0.041     5.4445     62.945     35.734  33.991301     4.4616      7.201   240.3584 1.0361e+02     2.1774      0.160      0.232    22.5540 0.0000e+00
      0.172      0.042     5.4856     63.421     35.740  33.997594     4.4612      7.200   240.7599 1.0265e+02     2.2035      0.169      0.245    22.5542 0.0000e+00
      0.181      0.042     5.5183     63.800     35.746  34.003368     4.4701      7.198   241.0732 1.0122e+02     2.1744      0.176      0.256    22.5547 0.0000e+00
      0.191      0.043     5.5438     64.094     35.740  33.997595     4.5053      7.197   241.2212 9.9421e+01     2.1617      0.185      0.270    22.5555 0.0000e+00
      0.203      0.043     5.5624     64.309     35.733  33.991300     4.5563      7.197   241.2578 9.7699e+01     2.2639      0.199      0.290    22.5565 0.0000e+00
      0.217      0.044     5.5739     64.442     35.733  33.990779     4.5893      7.198   241.4299 9.6300e+01     2.3417      0.213      0.309    22.5571 0.0000e+00
      0.228      0.046     5.5777     64.486     35.734  33.991299     4.5922      7.198   241.8402 9.5134e+01     2.3087      0.224      0.325    22.5576 0.0000e+00
      0.238      0.047     5.5756     64.462     35.740  33.997584     4.5825      7.195   242.2611 9.4154e+01     2.2621      0.234      0.338    22.5575 0.0000e+00
      0.249      0.047     5.5683     64.378     35.746  34.003252     4.5820      7.190   242.6464 9.2888e+01     2.2665      0.243      0.353    22.5572 0.0000e+00
      0.261      0.048     5.5558     64.233     35.738  33.996312     4.5861      7.185   243.0575 9.1369e+01     2.2702      0.255      0.370    22.5570 0.0000e+00
      0.275      0.048     5.5426     64.081     35.718  33.977192     4.5763      7.180   243.5320 9.0100e+01     2.2457      0.270      0.391    22.5571 0.0000e+00
      0.289      0.048     5.5334     63.975     35.703  33.962623     4.5283      7.174   244.0818 8.8916e+01     2.2144      0.284      0.412    22.5573 0.0000e+00
      0.301      0.047     5.5264     63.893     35.687  33.947194     4.4472      7.169   244.5428 8.7752e+01     2.1672      0.296      0.429    22.5575 0.0000e+00
      0.313      0.044     5.5187     63.803     35.656  33.917679     4.3943      7.167   244.9757 8.6560e+01     2.1325      0.307      0.446    22.5574 0.0000e+00
      0.324      0.041     5.5084     63.685     35.662  33.923338     4.3851      7.168   245.6169 8.5588e+01     2.1304      0.318      0.461    22.5572 0.0000e+00
      0.334      0.038     5.4952     63.531     35.693  33.952105     4.3915      7.169   246.2721 8.5001e+01     2.1415      0.328      0.476    22.5571 0.0000e+00
      0.343      0.036     5.4787     63.340     35.688  33.947911     4.4255      7.172   246.7028 8.4398e+01     2.1745      0.337      0.488    22.5570 0.0000e+00
      0.351      0.034     5.4569     63.087     35.676  33.936137     4.4836      7.174   246.9531 8.3786e+01     2.2242      0.345      0.499    22.5568 0.0000e+00
      0.360      0.034     5.4288     62.762     35.677  33.936780     4.5161      7.177   247.2329 8.3140e+01     2.2543      0.353      0.513    22.5565 0.0000e+00
      0.368      0.035     5.3973     62.398     35.697  33.955685     4.5244      7.180   247.6766 8.2520e+01     2.2641      0.361      0.524    22.5561 0.0000e+00
      0.375      0.037     5.3676     62.055     35.717  33.974164     4.5465      7.182   248.1885 8.1868e+01     2.2509      0.368      0.533    22.5558 0.0000e+00
      0.384      0.042     5.3426     61.766     35.712  33.969657     4.5724      7.182   248.6034 8.0763e+01     2.2168      0.376      0.545    22.5556 0.0000e+00
      0.395      0.047     5.3266     61.582     35.706  33.964708     4.5800      7.181   248.9069 7.9294e+01     2.2178      0.386      0.560    22.5552 0.0000e+00
      0.409      0.051     5.3348     61.679     35.719  33.977847     4.5840      7.180   249.1909 7.7591e+01     2.2634      0.400      0.580    22.5552 0.0000e+00
      0.424      0.054     5.4043     62.484     35.742  34.001484     4.5929      7.179   249.4570 7.5796e+01     2.3111      0.416      0.603    22.5555 0.0000e+00
      0.440      0.055     5.5745     64.455     35.735  33.996439     4.5957      7.179   249.7147 7.4169e+01     2.3061      0.432      0.626    22.5557 0.0000e+00
      0.456      0.054     5.8405     67.533     35.717  33.980366     4.5900      7.179   249.9836 7.2789e+01     2.2636      0.448      0.650    22.5556 0.0000e+00
      0.469      0.052     6.1524     71.141     35.735  33.997704     4.5880      7.179   250.2990 7.1802e+01     2.2545      0.461      0.669    22.5567 0.0000e+00
      0.481      0.049     6.4608     74.707     35.753  34.015509     4.6086      7.178   250.6035 7.0983e+01     2.2578      0.471      0.684    22.5596 0.0000e+00
      0.492      0.045     6.7391     77.926     35.742  34.005097     4.6366      7.178   250.8255 6.9972e+01     2.2421      0.482      0.699    22.5621 0.0000e+00
      0.504      0.042     6.9741     80.643     35.735  33.998848     4.6423      7.178   251.0052 6.8934e+01     2.2484      0.494      0.717    22.5634 0.0000e+00
      0.515      0.040     7.1507     82.685     35.740  34.003482     4.6405      7.179   251.1407 6.8116e+01     2.2725      0.506      0.734    22.5641 0.0000e+00
      0.525      0.039     7.2533     83.870     35.734  33.997605     4.6611      7.181   251.3457 6.7486e+01     2.2885      0.516      0.748    22.5645 0.0000e+00
      0.534      0.038     7.2868     84.256     35.729  33.991301     4.6979      7.185   251.7637 6.6949e+01     2.3211      0.524      0.759    22.5647 0.0000e+00
      0.542      0.038     7.2773     84.143     35.730  33.990780     4.7265      7.186   252.1503 6.6440e+01     2.3310      0.532      0.771    22.5647 0.0000e+00
      0.551      0.039     7.2473     83.793     35.732  33.991301     4.7408      7.185   252.3198 6.5779e+01     2.2856      0.540      0.783    22.5646 0.0000e+00
      0.561      0.040     7.2102     83.363     35.739  33.997595     4.7430      7.184   252.5228 6.4924e+01     2.2606      0.549      0.796    22.5645 0.0000e+00
      0.573      0.042     7.1737     82.941     35.745  34.003369     4.7438      7.184   252.7982 6.4074e+01     2.2727      0.562      0.814    22.5638 0.0000e+00
      0.585      0.045     7.1386     82.536     35.738  33.997597     4.7598      7.183   252.9820 6.3414e+01     2.2791      0.574      0.833    22.5612 0.0000e+00
      0.595      0.049     7.1054     82.152     35.731  33.991312     4.7796      7.178   253.3685 6.2784e+01     2.2772      0.583      0.846    22.5583 0.0000e+00
      0.606      0.053     7.0778     81.834     35.731  33.990895     4.7903      7.160   253.8578 6.1896e+01     2.2494      0.593      0.860    22.5576 0.0000e+00
      0.620      0.055     7.0575     81.600     35.732  33.992561     4.8148      7.135   253.9937 6.0834e+01     2.2794      0.607      0.880    22.5584 0.0000e+00
      0.635      0.056     7.0427     81.429     35.752  34.011454     4.8557      7.119   254.0647 5.9621e+01     2.4259      0.622      0.902    22.5587 0.0000e+00
      0.653      0.056     7.0321     81.306     35.770  34.028775     4.8801      7.114   254.2003 5.8471e+01     2.5261      0.642      0.930    22.5592 0.0000e+00
      0.669      0.055     7.0240     81.211     35.753  34.011445     4.8897      7.116   254.3432 5.7731e+01     2.5140      0.658      0.955    22.5601 0.0000e+00
      0.681      0.054     7.0163     81.120     35.734  33.992457     4.8988      7.125   254.5878 5.7140e+01     2.4318      0.668      0.968    22.5606 0.0000e+00
      0.691      0.053     7.0118     81.062     35.734  33.989749     4.9163      7.135   255.0064 5.6373e+01     2.3259      0.678      0.983    22.5609 0.0000e+00
      0.703      0.053     7.0093     81.024     35.727  33.978704     4.9447      7.143   255.4474 5.5426e+01     2.3009      0.689      0.999    22.5607 0.0000e+00
      0.718      0.052     7.0044     80.956     35.740  33.985935     4.9579      7.148   255.5312 5.4355e+01     2.3438      0.703      1.019    22.5598 0.0000e+00
      0.734      0.050     6.9989     80.886     35.772  34.013660     4.9378      7.153   255.5036 5.3283e+01     2.3868      0.720      1.044    22.5579 0.0000e+00
      0.750      0.047     6.9946     80.832     35.755  33.996327     4.9037      7.159   255.6301 5.2426e+01     2.4247      0.736      1.068    22.5550 0.0000e+00
      0.762      0.044     6.9901     80.778     35.725  33.966917     4.8856      7.164   255.9423 5.1871e+01     2.4660      0.748      1.086    22.5487 0.0000e+00
      0.769      0.041     6.9851     80.720     35.735  33.975645     4.8841      7.167   256.3529 5.1501e+01     2.4888      0.754      1.095    22.5402 0.0000e+00
      0.775      0.038     6.9800     80.660     35.735  33.974820     4.8960      7.169   256.4649 5.1076e+01     2.4259      0.760      1.102    22.5357 0.0000e+00
      0.784      0.037     6.9718     80.564     35.717  33.956949     4.9182      7.173   256.3501 5.0450e+01     2.3155      0.769      1.115    22.5339 0.0000e+00
      0.795      0.038     6.9583     80.407     35.711  33.950114     4.9326      7.177   256.4277 4.9740e+01     2.2527      0.780      1.131    22.5325 0.0000e+00
      0.806      0.040     6.9448     80.248     35.718  33.955699     4.9509      7.179   256.8008 4.9161e+01     2.2467      0.791      1.148    22.5323 0.0000e+00
      0.816      0.042     6.9367     80.153     35.723  33.960953     4.9735      7.179   257.1623 4.8744e+01     2.2739      0.801      1.162    22.5318 0.0000e+00
      0.826      0.042     6.9341     80.123     35.712  33.950124     5.0040      7.179   257.3566 4.8276e+01     2.3368      0.808      1.172    22.5310 0.0000e+00
      0.836      0.040     6.9375     80.163     35.714  33.951800     5.0532      7.177   257.4288 4.7637e+01     2.4270      0.819      1.189    22.5299 0.0000e+00
      0.849      0.036     6.9477     80.281     35.744  33.981210     5.0807      7.176   257.3472 4.7017e+01     2.4494      0.833      1.208    22.5280 0.0000e+00
      0.861      0.034     6.9626     80.455     35.751  33.988139     5.0883      7.176   257.4018 4.6630e+01     2.4254      0.845      1.226    22.5271 0.0000e+00
      0.868      0.034     6.9774     80.625     35.734  33.972068     5.1086      7.178   257.7454 4.6560e+01     2.4415      0.853      1.238    22.5274 0.0000e+00
      0.871      0.036     6.9842     80.705     35.740  33.977436     5.1321      7.178   258.1462 4.6626e+01     2.4608      0.855      1.240    22.5281 0.0000e+00
      0.875      0.040     6.9837     80.702     35.752  33.989524     5.1427      7.175   258.5477 4.6323e+01     2.4754      0.856      1.241    22.5292 0.0000e+00
      0.885      0.045     6.9852     80.719     35.753  33.991191     5.1453      7.170   258.8141 4.5426e+01     2.4959      0.865      1.253    22.5297 0.0000e+00
      0.902      0.049     6.9879     80.748     35.760  33.997600     5.1367      7.160   258.7857 4.4316e+01     2.4958      0.884      1.281    22.5296 0.0000e+00
      0.921      0.050     6.9882     80.746     35.769  34.003487     5.1124      7.150   258.7204 4.3381e+01     2.4733      0.905      1.312    22.5301 0.0000e+00
      0.938      0.049     6.9876     80.736     35.766  33.998849     5.0904      7.146   258.7999 4.2717e+01     2.4680      0.921      1.336    22.5307 0.0000e+00
      0.949      0.045     6.9868     80.722     35.775  34.005039     5.0723      7.147   258.9719 4.2324e+01     2.4926      0.933      1.352    22.5310 0.0000e+00
      0.956      0.039     6.9843     80.689     35.786  34.014817     5.0219      7.149   259.0798 4.2045e+01     2.4664      0.938      1.360    22.5301 0.0000e+00
      0.962      0.034     6.9818     80.659     35.761  33.990036     4.9407      7.150   259.1577 4.1619e+01     2.3646      0.943      1.367    22.5271 0.0000e+00
      0.970      0.031     6.9783     80.619     35.729  33.959480     4.8993      7.151   259.3974 4.1020e+01     2.2990      0.950      1.379    22.5238 0.0000e+00
      0.980      0.029     6.9721     80.546     35.733  33.962954     4.8898      7.152   259.6545 4.0460e+01     2.2837      0.961      1.394    22.5211 0.0000e+00
      0.988      0.029     6.9661     80.476     35.739  33.968515     4.8348      7.154   259.8576 4.0014e+01     2.2712      0.969      1.407    22.5190 0.0000e+00
      0.995      0.028     6.9587     80.391     35.734  33.963203     4.7581      7.156   259.9607 3.9608e+01     2.3008      0.975      1.415    22.5177 0.0000e+00
      1.002      0.026     6.9498     80.288     35.733  33.962246     4.7249      7.159   259.8684 3.9185e+01     2.3367      0.982      1.424    22.5174 0.0000e+00
      1.008      0.026     6.9424     80.204     35.726  33.956945     4.7182      7.163   259.8599 3.8731e+01     2.3079      0.988      1.433    22.5169 0.0000e+00
      1.013      0.027     6.9377     80.152     35.731  33.962619     4.7237      7.168   260.1162 3.8271e+01     2.2579      0.994      1.441    22.5166 0.0000e+00
      1.019      0.029     6.9371     80.146     35.736  33.967344     4.8187      7.171   260.4726 3.7792e+01     2.2507      0.999      1.449    22.5168 0.0000e+00
      1.026      0.031     6.9419     80.202     35.718  33.950552     4.9929      7.171   260.7279 3.7250e+01     2.2820      1.005      1.458    22.5171 0.0000e+00
      1.035      0.033     6.9514     80.313     35.717  33.950135     5.0848      7.172   260.7075 3.6624e+01     2.3015      1.014      1.471    22.5182 0.0000e+00
      1.045      0.038     6.9646     80.465     35.730  33.962308     5.0744      7.171   260.6562 3.5990e+01     2.3025      1.026      1.488    22.5195 0.0000e+00
      1.055      0.045     6.9782     80.622     35.739  33.970693     5.0326      7.161   260.9677 3.5512e+01     2.3547      1.037      1.504    22.5206 0.0000e+00
      1.063      0.053     6.9875     80.727     35.759  33.988007     4.9751      7.142   261.4624 3.5093e+01     2.4452      1.042      1.512    22.5207 0.0000e+00
      1.073      0.058     6.9921     80.778     35.753  33.981097     4.9477      7.117   261.7327 3.4290e+01     2.4802      1.048      1.521    22.5205 0.0000e+00
      1.093      0.058     6.9938     80.796     35.722  33.950656     4.9501      7.095   261.5695 3.3075e+01     2.4736      1.068      1.549    22.5211 0.0000e+00
      1.119      0.053     6.9947     80.806     35.708  33.937537     4.9493      7.087   261.2955 3.2029e+01     2.3962      1.100      1.595    22.5207 0.0000e+00
      1.140      0.048     6.9969     80.831     35.720  33.949510     4.9561      7.093   261.3457 3.1545e+01     2.2461      1.124      1.629    22.5189 0.0000e+00
      1.148      0.043     6.9983     80.848     35.740  33.968395     4.9691      7.104   261.5740 3.1587e+01     2.1843      1.130      1.639    22.5171 0.0000e+00
      1.147      0.041     6.9970     80.833     35.747  33.975313     4.9771      7.111   261.9042 3.1754e+01     2.1978      1.126      1.632    22.5161 0.0000e+00
      1.146      0.042     6.9944     80.802     35.741  33.969634     5.0620      7.111   262.3274 3.1496e+01     2.2577      1.121      1.625    22.5158 0.0000e+00
      1.155      0.047     6.9900     80.752     35.734  33.963244     5.2231      7.104   262.5606 3.0732e+01     2.3895      1.129      1.637    22.5163 0.0000e+00
      1.175      0.052     6.9831     80.673     35.733  33.961569     5.3170      7.094   262.4870 2.9758e+01     2.4794      1.151      1.670    22.5170 0.0000e+00
      1.200      0.057     6.9754     80.583     35.720  33.949388     5.3338      7.093   262.3842 2.8873e+01     2.4895      1.177      1.708    22.5167 0.0000e+00
      1.220      0.059     6.9648     80.460     35.713  33.942988     5.2878      7.100   262.5217 2.8301e+01     2.4200      1.199      1.739    22.5163 0.0000e+00
      1.232      0.058     6.9504     80.294     35.718  33.947712     5.1933      7.109   262.8590 2.7975e+01     2.3105      1.211      1.756    22.5163 0.0000e+00
      1.239      0.055     6.9373     80.142     35.713  33.942988     5.1376      7.108   263.1073 2.7620e+01     2.2640      1.214      1.761    22.5167 0.0000e+00
      1.247      0.052     6.9288     80.045     35.720  33.949387     5.1288      7.097   263.0293 2.7085e+01     2.2860      1.221      1.770    22.5165 0.0000e+00
      1.262      0.048     6.9273     80.026     35.733  33.961560     5.1335      7.094   262.8617 2.6378e+01     2.3324      1.236      1.793    22.5163 0.0000e+00
      1.282      0.046     6.9321     80.081     35.735  33.963130     5.1670      7.102   262.8880 2.5672e+01     2.3976      1.258      1.824    22.5158 0.0000e+00
      1.299      0.046     6.9403     80.174     35.740  33.968375     5.2304      7.115   263.0890 2.5308e+01     2.4632      1.278      1.853    22.5159 0.0000e+00
      1.306      0.045     6.9499     80.284     35.734  33.961466     5.2652      7.127   263.2272 2.5203e+01     2.4857      1.283      1.861    22.5168 0.0000e+00
      1.309      0.045     6.9595     80.393     35.716  33.943103     5.2659      7.137   263.2682 2.4948e+01     2.4867      1.281      1.858    22.5165 0.0000e+00
      1.317      0.045     6.9691     80.501     35.711  33.936903     5.2481      7.142   263.4984 2.4491e+01     2.4440      1.289      1.870    22.5155 0.0000e+00
      1.332      0.047     6.9781     80.602     35.726  33.950023     5.2155      7.138   263.7732 2.3972e+01     2.3364      1.306      1.895    22.5151 0.0000e+00
      1.349      0.047     6.9854     80.684     35.753  33.974689     5.1939      7.129   263.6659 2.3480e+01     2.2530      1.324      1.920    22.5147 0.0000e+00
      1.364      0.043     6.9925     80.764     35.760  33.981078     5.1802      7.128   263.4915 2.3019e+01     2.2300      1.337      1.940    22.5121 0.0000e+00
      1.378      0.037     6.9997     80.848     35.742  33.963746     5.0774      7.136   263.7295 2.2636e+01     2.2405      1.353      1.962    22.5100 0.0000e+00
      1.387      0.034     7.0062     80.923     35.734  33.955682     4.8691      7.144   264.1345 2.2536e+01     2.2276      1.366      1.980    22.5090 0.0000e+00
      1.387      0.038     7.0121     80.984     35.728  33.947089     4.7386      7.143   264.4303 2.2640e+01     2.1659      1.363      1.977    22.5068 0.0000e+00
      1.384      0.044     7.0152     81.004     35.711  33.923368     4.7230      7.134   264.4673 2.2484e+01     2.1045      1.353      1.963    22.5057 0.0000e+00
      1.393      0.047     7.0142     80.975     35.719  33.922933     4.7256      7.129   264.3233 2.1823e+01     2.1257      1.358      1.970    22.5061 0.0000e+00
      1.418      0.044     7.0103     80.922     35.743  33.941816     4.7249      7.133   264.2383 2.0937e+01     2.2387      1.388      2.013    22.5072 0.0000e+00
      1.448      0.037     7.0037     80.850     35.762  33.961125     4.7230      7.141   264.2135 2.0338e+01     2.3122      1.426      2.067    22.5053 0.0000e+00
      1.465      0.028     6.9954     80.765     35.761  33.965849     4.7116      7.147   264.2816 2.0269e+01     2.3120      1.445      2.096    22.4926 0.0000e+00
      1.461      0.021     6.9889     80.700     35.724  33.935415     4.6515      7.150   264.5464 2.0535e+01     2.2969      1.437      2.084    22.4775 0.0000e+00
      1.447      0.018     6.9865     80.672     35.699  33.910748     4.5669      7.147   264.9190 2.0775e+01     2.2824      1.417      2.056    22.4720 0.0000e+00
      1.438      0.019     6.9888     80.684     35.717  33.921673     4.5338      7.138   265.0870 2.0686e+01     2.2898      1.403      2.036    22.4756 0.0000e+00
      1.443      0.024     6.9913     80.696     35.745  33.940463     4.5365      7.133   264.9436 2.0205e+01     2.2951      1.409      2.043    22.4852 0.0000e+00
      1.464      0.029     6.9875     80.646     35.755  33.947373     4.5353      7.136   264.7335 1.9537e+01     2.2549      1.434      2.079    22.4936 0.0000e+00
      1.489      0.031     6.9805     80.570     35.747  33.941698     4.5647      7.143   264.6980 1.9030e+01     2.1999      1.465      2.124    22.4944 0.0000e+00
      1.503      0.030     6.9783     80.553     35.736  33.935354     4.6262      7.149   264.8588 1.8981e+01     2.1798      1.482      2.150    22.4829 0.0000e+00
      1.500      0.029     6.9811     80.588     35.734  33.934199     4.6537      7.153   265.2148 1.9249e+01     2.1644      1.474      2.138    22.4678 0.0000e+00
      1.489      0.031     6.9835     80.611     35.729  33.927734     4.6582      7.151   265.6463 1.9348e+01     2.1357      1.456      2.111    22.4636 0.0000e+00
      1.487      0.035     6.9852     80.622     35.726  33.920705     4.7631      7.143   265.7736 1.9010e+01     2.1996      1.451      2.104    22.4692 0.0000e+00
      1.503      0.041     6.9891     80.658     35.722  33.912725     4.9566      7.138   265.5503 1.8365e+01     2.3567      1.470      2.132    22.4773 0.0000e+00
      1.530      0.048     6.9930     80.696     35.707  33.894758     5.0686      7.138   265.4410 1.7744e+01     2.4473      1.503      2.179    22.4788 0.0000e+00
      1.554      0.053     6.9964     80.732     35.707  33.894010     5.0869      7.143   265.5711 1.7409e+01     2.4404      1.529      2.218    22.4745 0.0000e+00
      1.566      0.056     6.9979     80.750     35.717  33.903674     5.0680      7.144   265.8328 1.7349e+01     2.3960      1.540      2.233    22.4685 0.0000e+00
      1.567      0.058     6.9974     80.735     35.701  33.884572     5.0242      7.139   266.1953 1.7312e+01     2.3071      1.537      2.229    22.4614 0.0000e+00
      1.571      0.058     6.9962     80.690     35.683  33.853593     5.0078      7.128   266.4273 1.7023e+01     2.2207      1.534      2.224    22.4575 0.0000e+00
      1.587      0.057     6.9932     80.620     35.693  33.846674     5.0172      7.120   266.4005 1.6449e+01     2.2364      1.550      2.248    22.4548 0.0000e+00
      1.616      0.054     6.9880     80.542     35.721  33.864412     4.9901      7.121   266.2157 1.5844e+01     2.3144      1.585      2.300    22.4577 0.0000e+00
      1.643      0.049     6.9802     80.458     35.732  33.877495     4.9280      7.127   266.0854 1.5487e+01     2.3387      1.617      2.345    22.4575 0.0000e+00
      1.656      0.041     6.9734     80.395     35.725  33.877832     4.8917      7.135   266.1164 1.5421e+01     2.3167      1.629      2.363    22.4330 0.0000e+00
      1.656      0.031     6.9706     80.366     35.713  33.868493     4.8914      7.141   266.3315 1.5468e+01     2.2927      1.625      2.357    22.4019 0.0000e+00
      1.651      0.026     6.9693     80.336     35.678  33.828100     4.9511      7.145   266.6205 1.5461e+01     2.2619      1.618      2.345    22.3899 0.0000e+00
      1.651      0.030     6.9657     80.261     35.634  33.770534     5.0714      7.146   266.8583 1.5345e+01     2.2502      1.616      2.343    22.3977 0.0000e+00
      1.658      0.041     6.9578     80.120     35.630  33.744086     5.1427      7.143   267.1417 1.5090e+01     2.2731      1.624      2.354    22.4127 0.0000e+00
      1.673      0.054     6.9461     79.925     35.679  33.762353     5.1427      7.137   267.2941 1.4705e+01     2.2944      1.639      2.377    22.4162 0.0000e+00
      1.694      0.060     6.9318     79.708     35.746  33.800814     5.1349      7.131   267.1517 1.4269e+01     2.2934      1.660      2.408    22.4052 0.0000e+00
      1.718      0.058     6.9151     79.493     35.787  33.827985     5.1221      7.131   267.0554 1.3864e+01     2.2928      1.685      2.443    22.3861 0.0000e+00
      1.739      0.049     6.8975     79.308     35.787  33.836784     5.0981      7.136   267.2484 1.3568e+01     2.2870      1.708      2.478    22.3499 0.0000e+00
      1.752      0.037     6.8863     79.220     35.774  33.843697     5.0744      7.141   267.5058 1.3467e+01     2.2536      1.723      2.499    22.3069 0.0000e+00
      1.754      0.025     6.8847     79.238     35.761  33.848087     5.0564      7.145   267.5870 1.3519e+01     2.2556      1.723      2.498    22.2686 0.0000e+00
      1.749      0.017     6.8902     79.317     35.730  33.826372     4.9454      7.148   267.5410 1.3532e+01     2.3102      1.713      2.486    22.2458 0.0000e+00
      1.749      0.016     6.9016     79.437     35.611  33.708183     4.7239      7.148   267.6385 1.3426e+01     2.3034      1.713      2.485    22.2639 0.0000e+00
      1.753      0.022     6.9198     79.559     35.432  33.498839     4.5934      7.144   267.9919 1.3298e+01     2.2353      1.720      2.495    22.2988 0.0000e+00
      1.758      0.032     6.9395     79.582     35.418  33.391188     4.5805      7.137   268.2004 1.3189e+01     2.2184      1.724      2.501    22.3254 0.0000e+00
      1.768      0.040     6.9470     79.447     35.560  33.422692     4.5677      7.131   268.1804 1.2980e+01     2.2519      1.730      2.510    22.3360 0.0000e+00
      1.784      0.046     6.9366     79.211     35.631  33.434994     4.5404      7.129   268.2658 1.2655e+01     2.2735      1.747      2.534    22.3363 0.0000e+00
      1.803      0.051     6.9124     78.885     35.565  33.349307     4.5261      7.126   268.5445 1.2393e+01     2.2968      1.771      2.568    22.3071 0.0000e+00
      1.816      0.058     6.8782     78.421     35.456  33.212334     4.5319      7.121   268.9690 1.2265e+01     2.3207      1.784      2.587    22.1423 0.0000e+00
      1.824      0.065     6.8370     77.838     35.474  33.176149     4.5735      7.115   269.3540 1.2133e+01     2.2869      1.786      2.591    21.9492 0.0000e+00
      1.835      0.070     6.7876     77.177     35.581  33.229289     4.6524      7.108   269.5863 1.1868e+01     2.2554      1.795      2.605    21.8964 0.0000e+00
      1.855      0.072     6.7307     76.481     35.596  33.219621     4.7143      7.104   269.6272 1.1476e+01     2.2751      1.816      2.635    21.8906 0.0000e+00
      1.883      0.072     6.6759     75.841     35.570  33.186254     4.7428      7.103   269.5033 1.1060e+01     2.2802      1.845      2.677    21.8443 0.0000e+00
      1.910      0.070     6.6298     75.306     35.598  33.206939     4.8320      7.103   269.3798 1.0783e+01     2.2872      1.878      2.724    21.7529 0.0000e+00
      1.929      0.065     6.5895     74.851     35.606  33.215656     4.9932      7.099   269.3383 1.0690e+01     2.2990      1.897      2.751    21.6721 0.0000e+00
      1.937      0.061     6.5578     74.499     35.546  33.164618     5.0829      7.093   269.4311 1.0618e+01     2.3005      1.900      2.755    21.6499 0.0000e+00
      1.944      0.062     6.5386     74.259     35.486  33.097972     5.0898      7.085   269.5554 1.0479e+01     2.3048      1.904      2.763    21.6464 0.0000e+00
      1.955      0.070     6.5304     74.112     35.458  33.044969     5.0764      7.077   269.4646 1.0285e+01     2.2901      1.914      2.778    21.6325 0.0000e+00
      1.972      0.083     6.5302     74.052     35.475  33.031844     5.0036      7.069   269.2801 9.9908e+00     2.4276      1.930      2.798    21.6340 0.0000e+00
      1.997      0.096     6.5318     74.030     35.533  33.066252     4.8891      7.064   269.3893 9.6155e+00     2.7476      1.956      2.837    21.6557 0.0000e+00
      2.029      0.101     6.5294     73.978     35.561  33.079879     4.8326      7.060   269.3224 9.2156e+00     2.9241      1.988      2.885    21.6412 0.0000e+00
      2.065      0.096     6.5206     73.861     35.558  33.069570     4.8168      7.058   268.7298 8.8376e+00     2.9442      2.027      2.939    21.5902 0.0000e+00
      2.097      0.083     6.5058     73.688     35.560  33.068626     4.6613      7.057   268.3327 8.5535e+00     3.2952      2.061      2.989    21.5470 0.0000e+00
      2.119      0.068     6.4889     73.505     35.556  33.068456     4.3766      7.055   268.3077 8.4319e+00     3.9944      2.084      3.022    21.5192 0.0000e+00
      2.127      0.057     6.4764     73.369     35.552  33.067522     4.2238      7.051   268.3405 8.4506e+00     4.3788      2.090      3.032    21.5059 0.0000e+00
      2.126      0.052     6.4689     73.270     35.549  33.057339     4.2100      7.045   268.3840 8.4306e+00     4.3729      2.081      3.020    21.4929 0.0000e+00
      2.131      0.054     6.4639     73.181     35.583  33.072353     4.2008      7.038   268.4042 8.2583e+00     4.3811      2.083      3.022    21.4863 0.0000e+00
      2.147      0.060     6.4612     73.112     35.656  33.122001     4.1953      7.032   268.4133 7.9981e+00     4.4772      2.103      3.050    21.4977 0.0000e+00
      2.171      0.070     6.4595     73.059     35.704  33.149490     4.1988      7.027   268.4936 7.7272e+00     4.5584      2.128      3.087    21.5071 0.0000e+00
      2.196      0.079     6.4570     73.004     35.720  33.150640     4.1974      7.022   268.5147 7.4860e+00     4.6306      2.155      3.126    21.4964 0.0000e+00
      2.218      0.079     6.4519     72.929     35.713  33.135875     4.1045      7.014   268.2389 7.2891e+00     5.1057      2.177      3.157    21.4673 0.0000e+00
      2.237      0.069     6.4457     72.851     35.677  33.097997     3.9212      7.007   267.8254 7.1081e+00     5.9700      2.194      3.182    21.4401 0.0000e+00
      2.257      0.052     6.4410     72.804     35.647  33.073738     3.8189      7.006   267.5594 6.9346e+00     6.4750      2.212      3.210    21.4163 0.0000e+00
      2.274      0.034     6.4384     72.796     35.661  33.096633     3.8044      7.008   267.4323 6.8366e+00     6.5415      2.234      3.240    21.3960 0.0000e+00
      2.283      0.021     6.4406     72.849     35.672  33.120768     3.7369      7.009   267.4072 6.8611e+00     6.4687      2.245      3.255    21.3846 0.0000e+00
      2.278      0.013     6.4486     72.954     35.654  33.111509     3.6193      7.006   267.4276 6.9430e+00     6.3277      2.236      3.243    21.3771 0.0000e+00
      2.267      0.011     6.4570     73.046     35.655  33.111728     3.5587      7.001   267.3343 6.9780e+00     6.2704      2.220      3.220    21.3804 0.0000e+00
      2.264      0.016     6.4618     73.088     35.674  33.123411     3.5642      6.997   267.0535 6.9007e+00     6.2952      2.215      3.212    21.3978 0.0000e+00
      2.272      0.027     6.4637     73.101     35.682  33.125722     3.5764      6.992   266.7005 6.7412e+00     6.3218      2.226      3.228    21.4216 0.0000e+00
      2.287      0.046     6.4627     73.081     35.702  33.139666     3.6049      6.985   266.5933 6.5978e+00     6.6528      2.244      3.254    21.4373 0.0000e+00
      2.301      0.067     6.4606     73.039     35.738  33.164978     3.6605      6.974   266.7895 6.4698e+00     7.2768      2.256      3.271    21.4297 0.0000e+00
      2.317      0.084     6.4596     73.004     35.765  33.177694     3.6880      6.959   266.8356 6.2825e+00     7.5795      2.269      3.291    21.4175 0.0000e+00
      2.337      0.092     6.4580     72.963     35.765  33.166367     3.6808      6.948   266.5487 6.0146e+00     7.5969      2.288      3.319    21.4127 0.0000e+00
      2.367      0.092     6.4567     72.935     35.760  33.155029     3.6094      6.945   266.3326 5.6657e+00     7.8229      2.318      3.360    21.4093 0.0000e+00
      2.405      0.085     6.4583     72.948     35.777  33.167628     3.4688      6.946   266.2872 5.3412e+00     8.2066      2.362      3.425    21.3985 0.0000e+00
      2.435      0.072     6.4615     72.983     35.803  33.191670     3.3864      6.948   266.1722 5.1944e+00     8.3901      2.396      3.476    21.3767 0.0000e+00
      2.448      0.055     6.4641     73.017     35.801  33.191661     3.3764      6.951   265.9743 5.1660e+00     8.3943      2.404      3.486    21.3593 0.0000e+00
      2.451      0.035     6.4637     73.017     35.772  33.167524     3.3745      6.954   265.7879 5.1333e+00     8.4090      2.403      3.485    21.3504 0.0000e+00
      2.452      0.019     6.4587     72.963     35.756  33.153895     3.3732      6.956   265.7254 5.0914e+00     8.4159      2.405      3.488    21.3469 0.0000e+00
      2.454      0.009     6.4492     72.858     35.755  33.153895     3.3694      6.956   265.7336 5.0659e+00     8.3858      2.406      3.490    21.3474 0.0000e+00
      2.455      0.007     6.4373     72.727     35.768  33.167535     3.3663      6.956   265.7155 5.0517e+00     8.3502      2.407      3.492    21.3502 0.0000e+00
      2.456      0.007     6.4288     72.632     35.793  33.191784     3.3624      6.955   265.7641 5.0354e+00     8.2603      2.408      3.493    21.3535 0.0000e+00
      2.458      0.007     6.4260     72.604     35.793  33.193032     3.3597      6.953   265.8909 5.0183e+00     8.1228      2.410      3.496    21.3562 0.0000e+00
      2.460      0.007     6.4259     72.604     35.781  33.182629     3.3602      6.952   265.9583 4.9980e+00     8.0610      2.412      3.499    21.3578 0.0000e+00
      2.463 -9.990e-29 -9.990e-29 -9.990e-29 -9.990e-29 -9.990e-29 -9.990e-29 -9.990e-29 -9.990e-29 4.9805e+00 -9.990e-29      2.416      3.503    21.3593 0.0000e+00
      2.465 -9.990e-29 -9.990e-29 -9.990e-29 -9.990e-29 -9.990e-29 -9.990e-29 -9.990e-29 -9.990e-29 4.9698e+00 -9.990e-29      2.418      3.507    21.3600 0.0000e+00
      2.465 -9.990e-29 -9.990e-29 -9.990e-29 -9.990e-29 -9.990e-29 -9.990e-29 -9.990e-29 -9.990e-29 4.9525e+00 -9.990e-29      2.418      3.507    21.3623 0.0000e+00
      2.465 -9.990e-29 -9.990e-29 -9.990e-29 -9.990e-29 -9.990e-29 -9.990e-29 -9.990e-29 -9.990e-29 4.9402e+00 -9.990e-29      2.419      3.508    21.3652 0.0000e+00
