* Sea-Bird SBE19plus  Data File:
* FileName = C:\DATA\20180917_fcr_0002.hex
* Software version 2.6.3.104 SB_Terminal.dll
* Temperature SN = 7809
* Conductivity SN = 7809
* System UpLoad Time = Sep 17 2018 17:51:31
* <ApplicationData>
* <Seaterm232>
* <SoftwareVersion>2.6.3.104</SoftwareVersion>
* <BuildDate>30-Jun-2017</BuildDate>
* </Seaterm232>
* </ApplicationData>
* cast   2 17 Sep 2018 15:06:31 samples 503 to 1061, avg = 1, stop = mag switch
# nquan = 15
# nvalues = 446                         
# units = specified
# name 0 = depFM: Depth [fresh water, m]
# name 1 = dz/dtM: Descent Rate [m/s]
# name 2 = sbeox0Mg/L: Oxygen, SBE 43 [mg/l]
# name 3 = sbeox0PS: Oxygen, SBE 43 [% saturation]
# name 4 = specc: Specific Conductance [uS/cm]
# name 5 = c0uS/cm: Conductivity [uS/cm]
# name 6 = flECO-AFL: Fluorescence, WET Labs ECO-AFL/FL [mg/m^3]
# name 7 = ph: pH
# name 8 = orp: Oxidation Reduction Potential [mV]
# name 9 = par/sat/log: PAR/Logarithmic, Satlantic
# name 10 = turbWETntu0: Turbidity, WET Labs ECO [NTU]
# name 11 = prdM: Pressure, Strain Gauge [db]
# name 12 = prdE: Pressure, Strain Gauge [psi]
# name 13 = tv290C: Temperature [ITS-90, deg C]
# name 14 = flag:  0.000e+00
# span 0 =     -0.601,      2.733       
# span 1 =     -0.185,      0.246       
# span 2 =     4.8842,     8.1505       
# span 3 =     56.394,     94.299       
# span 4 =      2.235,     35.957       
# span 5 =   2.097787,  34.252883       
# span 6 =    -0.1901,     5.6323       
# span 7 =      6.682,      7.968       
# span 8 =   216.6608,   296.0439       
# span 9 = 3.4507e+00, 1.1637e+02       
# span 10 =    -0.2535,    12.9510      
# span 11 =     -0.589,      2.681      
# span 12 =     -0.856,      3.889      
# span 13 =    21.5067,    22.6300      
# span 14 = 0.0000e+00, 0.0000e+00      
# interval = seconds: 0.25
# start_time = Sep 17 2018 15:06:31 [Instrument's time stamp, header]
# bad_flag = -9.990e-29
# <Sensors count="9" >
#   <sensor Channel="1" >
#     <!-- Count, Temperature -->
#     <TemperatureSensor SensorID="58" >
#       <SerialNumber>7809</SerialNumber>
#       <CalibrationDate>09-Mar-18</CalibrationDate>
#       <A0>1.21093245e-003</A0>
#       <A1>2.84356597e-004</A1>
#       <A2>-1.94507398e-006</A2>
#       <A3>2.12806664e-007</A3>
#       <Slope>1.00000000</Slope>
#       <Offset>0.0000</Offset>
#     </TemperatureSensor>
#   </sensor>
#   <sensor Channel="2" >
#     <!-- Frequency 0, Conductivity -->
#     <ConductivitySensor SensorID="3" >
#       <SerialNumber>7809</SerialNumber>
#       <CalibrationDate>09-Mar-18</CalibrationDate>
#       <UseG_J>1</UseG_J>
#       <!-- Cell const and series R are applicable only for wide range sensors. -->
#       <SeriesR>0.0000</SeriesR>
#       <CellConst>2000.0000</CellConst>
#       <ConductivityType>0</ConductivityType>
#       <Coefficients equation="0" >
#         <A>0.00000000e+000</A>
#         <B>0.00000000e+000</B>
#         <C>0.00000000e+000</C>
#         <D>0.00000000e+000</D>
#         <M>0.0</M>
#         <CPcor>-9.57000000e-008</CPcor>
#       </Coefficients>
#       <Coefficients equation="1" >
#         <G>-1.00672082e+000</G>
#         <H>1.26906489e-001</H>
#         <I>-1.40584351e-004</I>
#         <J>2.47837121e-005</J>
#         <CPcor>-9.57000000e-008</CPcor>
#         <CTcor>3.2500e-006</CTcor>
#         <!-- WBOTC not applicable unless ConductivityType = 1. -->
#         <WBOTC>0.00000000e+000</WBOTC>
#       </Coefficients>
#       <Slope>1.00000000</Slope>
#       <Offset>0.00000</Offset>
#     </ConductivitySensor>
#   </sensor>
#   <sensor Channel="3" >
#     <!-- Count, Pressure, Strain Gauge -->
#     <PressureSensor SensorID="46" >
#       <SerialNumber>7809</SerialNumber>
#       <CalibrationDate>07-Mar-18</CalibrationDate>
#       <PA0>-4.08176359e-002</PA0>
#       <PA1>4.85188419e-004</PA1>
#       <PA2>-3.51168169e-012</PA2>
#       <PTEMPA0>-5.37806900e+001</PTEMPA0>
#       <PTEMPA1>5.36620721e+001</PTEMPA1>
#       <PTEMPA2>4.87214332e-002</PTEMPA2>
#       <PTCA0>5.25213435e+005</PTCA0>
#       <PTCA1>1.79532409e+000</PTCA1>
#       <PTCA2>-2.84353509e-001</PTCA2>
#       <PTCB0>2.51668750e+001</PTCB0>
#       <PTCB1>3.75000000e-004</PTCB1>
#       <PTCB2>0.00000000e+000</PTCB2>
#       <Offset>0.000000</Offset>
#     </PressureSensor>
#   </sensor>
#   <sensor Channel="4" >
#     <!-- A/D voltage 0, pH -->
#     <pH_Sensor SensorID="43" >
#       <SerialNumber>0363</SerialNumber>
#       <CalibrationDate>16-Mar-18</CalibrationDate>
#       <Slope>4.6194</Slope>
#       <Offset>2.5947</Offset>
#     </pH_Sensor>
#   </sensor>
#   <sensor Channel="5" >
#     <!-- A/D voltage 1, Oxidation Reduction Potential -->
#     <OxidationReductionPotentialSensor SensorID="41" >
#       <SerialNumber>0363</SerialNumber>
#       <CalibrationDate>16-Mar-18</CalibrationDate>
#       <B>2.499480</B>
#       <M>-0.496195</M>
#       <Offset>0.0</Offset>
#     </OxidationReductionPotentialSensor>
#   </sensor>
#   <sensor Channel="6" >
#     <!-- A/D voltage 2, Oxygen, SBE 43 -->
#     <OxygenSensor SensorID="38" >
#       <SerialNumber>0434</SerialNumber>
#       <CalibrationDate>13-Mar-18</CalibrationDate>
#       <Use2007Equation>1</Use2007Equation>
#       <CalibrationCoefficients equation="0" >
#         <!-- Coefficients for Owens-Millard equation. -->
#         <Boc>0.0000</Boc>
#         <Soc>0.0000e+000</Soc>
#         <offset>0.0000</offset>
#         <Pcor>0.00e+000</Pcor>
#         <Tcor>0.0000</Tcor>
#         <Tau>0.0</Tau>
#       </CalibrationCoefficients>
#       <CalibrationCoefficients equation="1" >
#         <!-- Coefficients for Sea-Bird equation - SBE calibration in 2007 and later. -->
#         <Soc>4.5718e-001</Soc>
#         <offset>-0.6113</offset>
#         <A>-4.0649e-003</A>
#         <B> 2.0945e-004</B>
#         <C>-3.3182e-006</C>
#         <D0> 2.5826e+000</D0>
#         <D1> 1.92634e-004</D1>
#         <D2>-4.64803e-002</D2>
#         <E> 3.6000e-002</E>
#         <Tau20> 1.2200</Tau20>
#         <H1>-3.3000e-002</H1>
#         <H2> 5.0000e+003</H2>
#         <H3> 1.4500e+003</H3>
#       </CalibrationCoefficients>
#     </OxygenSensor>
#   </sensor>
#   <sensor Channel="7" >
#     <!-- A/D voltage 3, PAR/Logarithmic, Satlantic -->
#     <PARLog_SatlanticSensor SensorID="76" >
#       <SerialNumber>1122</SerialNumber>
#       <CalibrationDate>22-Jun-2017</CalibrationDate>
#       <a0>9.6090e-001</a0>
#       <a1>8.0780e-001</a1>
#       <Im>1.3589e+000</Im>
#       <Multiplier>1.0000e+000</Multiplier>
#     </PARLog_SatlanticSensor>
#   </sensor>
#   <sensor Channel="8" >
#     <!-- A/D voltage 4, Fluorometer, WET Labs ECO-AFL/FL -->
#     <FluoroWetlabECO_AFL_FL_Sensor SensorID="20" >
#       <SerialNumber>FLNTURT-2496</SerialNumber>
#       <CalibrationDate>25-Jan-2017</CalibrationDate>
#       <ScaleFactor>5.30000000e+001</ScaleFactor>
#       <!-- Dark output -->
#       <Vblank>0.0560</Vblank>
#     </FluoroWetlabECO_AFL_FL_Sensor>
#   </sensor>
#   <sensor Channel="9" >
#     <!-- A/D voltage 5, Turbidity Meter, WET Labs, ECO-NTU -->
#     <TurbidityMeter SensorID="67" >
#       <SerialNumber>FLNTURT-2496</SerialNumber>
#       <CalibrationDate>25-Jan-2017</CalibrationDate>
#       <ScaleFactor>176.000000</ScaleFactor>
#       <!-- Dark output -->
#       <DarkVoltage>0.072000</DarkVoltage>
#     </TurbidityMeter>
#   </sensor>
# </Sensors>
# datcnv_date = Sep 17 2018 17:58:16, 7.26.7.114 [datcnv_vars = 14]
# datcnv_in = C:\DATA\20180917_fcr20.hex C:\DATA\SBE19plusV2_7809.xmlcon
# datcnv_skipover = 0
# datcnv_ox_hysteresis_correction = yes
# datcnv_ox_tau_correction = yes
# filter_date = Sep 17 2018 17:59:15, 7.26.7.114
# filter_in = C:\DATA\20180917_fcr20.cnv
# filter_low_pass_tc_A = 0.030
# filter_low_pass_tc_B = 0.150
# filter_low_pass_A_vars = prdM prdE tv290C
# filter_low_pass_B_vars = depFM dz/dtM sbeox0Mg/L sbeox0PS specc c0uS/cm flECO-AFL ph orp par/sat/log turbWETntu0
# alignctd_date = Sep 17 2018 17:59:41, 7.26.7.114
# alignctd_in = C:\DATA\20180917_fcr20.cnv
# alignctd_adv = dz/dtM 1.000, sbeox0Mg/L 1.000, sbeox0PS 1.000, specc 1.000, c0uS/cm 1.000, flECO-AFL 1.000, ph 1.000, orp 1.000, turbWETntu0 1.000                                                                                 
# file_type = ascii
*END*
     -0.600 -3.694e-08     8.0263     91.654      2.235   2.097787    -0.1851      6.682   290.1507 3.0460e+01     0.0047     -0.588     -0.853    21.9165 0.0000e+00
     -0.600 -4.064e-07     8.0283     91.678      3.465   3.251180    -0.1901      6.698   294.0244 3.0296e+01    -0.0293     -0.588     -0.853    21.9166 0.0000e+00
     -0.600      0.000     8.0292     91.688      4.560   4.279245    -0.1869      6.721   295.9962 2.9959e+01    -0.0305     -0.588     -0.853    21.9165 0.0000e+00
     -0.600     -0.000     8.0289     91.685      4.465   4.190460    -0.1825      6.733   293.9449 2.9987e+01    -0.0403     -0.588     -0.853    21.9163 0.0000e+00
     -0.600     -0.001     8.0288     91.684      3.740   3.509633    -0.1747      6.730   291.1626 3.1998e+01    -0.0562     -0.589     -0.854    21.9163 0.0000e+00
     -0.600     -0.001     8.0288     91.684      3.155   2.960467    -0.1653      6.722   290.9207 3.8076e+01    -0.0390     -0.588     -0.853    21.9164 0.0000e+00
     -0.600     -0.000     8.0285     91.680      2.796   2.624174    -0.1705      6.716   291.7083 4.8858e+01    -0.0459     -0.589     -0.854    21.9163 0.0000e+00
     -0.601      0.000     8.0282     91.677      2.583   2.424234    -0.1820      6.715   294.0605 6.1759e+01    -0.0792     -0.589     -0.854    21.9165 0.0000e+00
     -0.601      0.001     8.0272     91.671      2.470   2.318714    -0.1850      6.718   296.0439 7.1472e+01    -0.1062     -0.589     -0.855    21.9163 0.0000e+00
     -0.601      0.006     8.0235     91.669      3.189   2.997190    -0.1798      6.728   295.2119 7.5972e+01    -0.1278     -0.589     -0.854    21.9164 0.0000e+00
     -0.601      0.020     8.0121     91.675      8.384   7.900550    -0.1733      6.797   294.8414 7.8429e+01    -0.1880     -0.589     -0.854    21.9160 0.0000e+00
     -0.601      0.044     7.9945     91.691     20.027  18.908880    -0.1713      7.027   280.8962 8.2724e+01    -0.2535     -0.589     -0.855    21.9164 0.0000e+00
     -0.596      0.075     7.9780     91.708     31.047  29.358847    -0.1741      7.395   251.5297 8.9595e+01    -0.2494     -0.589     -0.856    21.9158 0.0000e+00
     -0.578      0.112     7.9644     91.705     35.252  33.385243    -0.1607      7.722   237.1262 9.5208e+01    -0.1993     -0.576     -0.834    21.9180 0.0000e+00
     -0.541      0.152     7.9525     91.690     35.720  33.876631    -0.0645      7.905   235.1161 9.8320e+01     0.1088     -0.536     -0.777    21.9957 0.0000e+00
     -0.491      0.190     7.9438     91.696     35.836  34.029898     0.8606      7.968   226.4512 1.0208e+02     3.4453     -0.485     -0.702    22.1493 0.0000e+00
     -0.432      0.221     7.9412     91.748     35.869  34.095136     2.5511      7.965   217.1943 1.0709e+02     9.5627     -0.426     -0.617    22.2705 0.0000e+00
     -0.368      0.241     7.9480     91.880     35.845  34.093820     3.4750      7.929   216.7159 1.1171e+02    12.8856     -0.362     -0.525    22.3484 0.0000e+00
     -0.300      0.246     7.9650     92.109     35.814  34.077525     3.5846      7.879   223.0751 1.1489e+02    12.9510     -0.293     -0.425    22.4164 0.0000e+00
     -0.231      0.235     7.9910     92.429     35.818  34.088693     3.8585      7.834   224.9076 1.1473e+02    10.2620     -0.226     -0.328    22.4787 0.0000e+00
     -0.163      0.208     8.0244     92.826     35.827  34.101823     4.3415      7.797   219.8584 1.1076e+02     5.2746     -0.159     -0.232    22.5279 0.0000e+00
     -0.102      0.170     8.0622     93.271     35.832  34.109253     4.6006      7.767   216.6608 1.0565e+02     2.5461     -0.093     -0.135    22.5564 0.0000e+00
     -0.060      0.127     8.1059     93.780     35.836  34.115017     4.6205      7.744   216.8758 9.5360e+01     2.2971     -0.050     -0.073    22.5721 0.0000e+00
     -0.040      0.086     8.1460     94.247     35.828  34.107994     4.6366      7.726   217.4674 8.3414e+01     2.2952     -0.033     -0.049    22.5813 0.0000e+00
     -0.036      0.052     8.1505     94.299     35.806  34.087853     4.6669      7.711   217.9634 8.2203e+01     2.2784     -0.033     -0.048    22.5876 0.0000e+00
     -0.039      0.028     8.0876     93.574     35.779  34.062041     4.6924      7.699   218.3983 8.5917e+01     2.2159     -0.039     -0.057    22.5915 0.0000e+00
     -0.039      0.016     7.9463     91.941     35.765  34.049973     4.7069      7.690   218.9406 8.8547e+01     2.1805     -0.041     -0.059    22.5938 0.0000e+00
     -0.034      0.012     7.7312     89.454     35.784  34.068980     4.7129      7.683   219.5300 8.6466e+01     2.1565     -0.034     -0.049    22.5946 0.0000e+00
     -0.026      0.012     7.4638     86.361     35.818  34.101306     4.7099      7.675   220.1036 7.6468e+01     2.1395     -0.025     -0.036    22.5947 0.0000e+00
     -0.021      0.012     7.1784     83.058     35.841  34.123238     4.7069      7.668   220.7136 6.9845e+01     2.1272     -0.019     -0.028    22.5960 0.0000e+00
     -0.019      0.011     6.9044     79.887     35.862  34.143609     4.7144      7.661   221.3135 6.8816e+01     2.1295     -0.018     -0.026    22.5975 0.0000e+00
     -0.019      0.008     6.6659     77.127     35.877  34.157051     4.7359      7.653   221.8497 6.7852e+01     2.1675     -0.019     -0.027    22.5981 0.0000e+00
     -0.019      0.005     6.4824     75.003     35.879  34.158728     4.8293      7.645   222.4643 6.7570e+01     2.1596     -0.019     -0.028    22.5987 0.0000e+00
     -0.017      0.004     6.3590     73.574     35.885  34.163888     4.9883      7.637   223.0659 6.8287e+01     2.1253     -0.016     -0.025    22.5985 0.0000e+00
     -0.015      0.005     6.2876     72.747     35.878  34.155920     5.0776      7.630   223.5309 6.9605e+01     2.1194     -0.014     -0.020    22.5980 0.0000e+00
     -0.015      0.005     6.2536     72.351     35.847  34.125896     5.0716      7.624   224.0427 7.1626e+01     2.1185     -0.015     -0.021    22.5974 0.0000e+00
     -0.014      0.005     6.2384     72.174     35.840  34.118466     4.9903      7.619   224.6083 7.2765e+01     2.1448     -0.014     -0.020    22.5970 0.0000e+00
     -0.012      0.004     6.2257     72.027     35.851  34.129599     4.8578      7.614   225.1210 7.0864e+01     2.1927     -0.011     -0.016    22.5969 0.0000e+00
     -0.011      0.002     6.2073     71.815     35.855  34.133469     4.7835      7.609   225.5962 6.7642e+01     2.2092     -0.010     -0.014    22.5953 0.0000e+00
     -0.010      0.000     6.1801     71.500     35.889  34.165264     4.7720      7.604   226.0523 6.5906e+01     2.1931     -0.011     -0.015    22.5933 0.0000e+00
     -0.010     -0.001     6.1430     71.071     35.922  34.196434     4.7379      7.598   226.4201 6.5501e+01     2.1809     -0.009     -0.013    22.5926 0.0000e+00
     -0.011      0.000     6.0988     70.560     35.918  34.192763     4.6829      7.591   226.6871 6.6544e+01     2.1838     -0.010     -0.014    22.5926 0.0000e+00
     -0.014      0.002     6.0536     70.039     35.908  34.184388     4.6590      7.584   226.9574 6.8677e+01     2.1669     -0.015     -0.021    22.5929 0.0000e+00
     -0.016      0.007     6.0130     69.569     35.881  34.158688     4.6599      7.575   227.2789 6.9675e+01     2.0988     -0.017     -0.025    22.5933 0.0000e+00
     -0.013      0.011     5.9813     69.201     35.858  34.136102     4.6574      7.563   227.6490 6.8956e+01     2.0616     -0.014     -0.021    22.5934 0.0000e+00
     -0.008      0.013     5.9624     68.979     35.890  34.165379     4.6650      7.550   227.9045 6.6918e+01     2.0836     -0.008     -0.012    22.5937 0.0000e+00
      0.000      0.013     5.9579     68.927     35.922  34.195082     4.6974      7.539   228.1314 6.5078e+01     2.0899      0.000      0.001    22.5942 0.0000e+00
      0.008      0.016     5.9665     69.027     35.904  34.177647     4.7176      7.528   228.4993 6.4573e+01     2.1070      0.010      0.015    22.5949 0.0000e+00
      0.010      0.021     5.9864     69.256     35.869  34.145123     4.7157      7.515   228.9108 6.4593e+01     2.1384      0.015      0.022    22.5949 0.0000e+00
      0.005      0.023     6.0140     69.575     35.843  34.119424     4.7024      7.505   229.4078 6.4199e+01     2.1636      0.003      0.004    22.5920 0.0000e+00
      0.006      0.023     6.0435     69.916     35.844  34.120996     4.6756      7.499   229.9482 6.3464e+01     2.1985     -0.003     -0.004    22.5902 0.0000e+00
      0.021      0.022     6.0674     70.193     35.889  34.164131     4.6583      7.493   230.2825 6.3069e+01     2.1944      0.020      0.029    22.5916 0.0000e+00
      0.040      0.020     6.0789     70.327     35.923  34.196343     4.6589      7.485   230.3520 6.3260e+01     2.1445      0.046      0.065    22.5917 0.0000e+00
      0.047      0.019     6.0768     70.303     35.919  34.192873     4.6458      7.476   230.4441 6.3419e+01     2.1131      0.049      0.072    22.5903 0.0000e+00
      0.043      0.015     6.0659     70.176     35.911  34.185700     4.6013      7.469   230.6223 6.3036e+01     2.1209      0.042      0.061    22.5908 0.0000e+00
      0.038      0.009     6.0490     69.980     35.898  34.173130     4.5722      7.466   230.7853 6.1476e+01     2.1468      0.035      0.051    22.5917 0.0000e+00
      0.039      0.004     6.0215     69.662     35.893  34.167925     4.5778      7.462   231.1243 5.8754e+01     2.1513      0.036      0.052    22.5914 0.0000e+00
      0.044      0.004     5.9820     69.204     35.913  34.186283     4.5680      7.457   231.5385 5.7639e+01     2.1462      0.043      0.063    22.5915 0.0000e+00
      0.050      0.005     5.9355     68.667     35.932  34.204551     4.5367      7.452   231.8357 5.8341e+01     2.1452      0.051      0.073    22.5921 0.0000e+00
      0.051      0.006     5.8902     68.145     35.924  34.198247     4.5213      7.449   232.1366 5.9563e+01     2.1392      0.050      0.072    22.5917 0.0000e+00
      0.049      0.005     5.8536     67.723     35.898  34.173579     4.5291      7.447   232.4230 6.0686e+01     2.1651      0.047      0.068    22.5905 0.0000e+00
      0.049      0.004     5.8244     67.386     35.883  34.160355     4.5937      7.444   232.7180 6.1138e+01     2.1837      0.047      0.069    22.5906 0.0000e+00
      0.050      0.005     5.7985     67.088     35.888  34.165400     4.7056      7.439   233.0355 6.1506e+01     2.1512      0.049      0.071    22.5914 0.0000e+00
      0.051      0.007     5.7768     66.836     35.894  34.171060     4.7697      7.434   233.3362 6.0752e+01     2.1379      0.049      0.071    22.5918 0.0000e+00
      0.053      0.007     5.7613     66.654     35.890  34.165275     4.7797      7.428   233.6871 5.9484e+01     2.1751      0.051      0.073    22.5930 0.0000e+00
      0.058      0.005     5.7504     66.527     35.884  34.158970     4.7811      7.423   233.9223 5.7992e+01     2.2042      0.056      0.081    22.5944 0.0000e+00
      0.063      0.002     5.7448     66.463     35.883  34.158335     4.7505      7.421   234.1153 5.6272e+01     2.1850      0.064      0.092    22.5958 0.0000e+00
      0.063      0.000     5.7495     66.519     35.881  34.157595     4.6845      7.419   234.4713 5.5651e+01     2.1566      0.064      0.093    22.5956 0.0000e+00
      0.058      0.000     5.7653     66.703     35.872  34.150031     4.6448      7.415   234.9582 5.5595e+01     2.1355      0.057      0.082    22.5919 0.0000e+00
      0.053     -0.001     5.7878     66.963     35.852  34.130398     4.6469      7.410   235.5286 5.6680e+01     2.1126      0.050      0.072    22.5898 0.0000e+00
      0.052     -0.003     5.8077     67.192     35.832  34.110766     4.6553      7.406   235.9472 5.8457e+01     2.1236      0.050      0.072    22.5914 0.0000e+00
      0.056     -0.003     5.8151     67.277     35.824  34.103221     4.6538      7.402   236.1472 5.9565e+01     2.1467      0.055      0.079    22.5934 0.0000e+00
      0.059     -0.001     5.8077     67.192     35.823  34.102690     4.6478      7.398   236.3122 6.0485e+01     2.1473      0.061      0.088    22.5949 0.0000e+00
      0.059      0.001     5.7886     66.969     35.825  34.104347     4.6473      7.394   236.5649 6.0708e+01     2.1628      0.060      0.086    22.5939 0.0000e+00
      0.054      0.001     5.7598     66.635     35.845  34.123249     4.6386      7.391   236.9658 6.0560e+01     2.1809      0.051      0.074    22.5919 0.0000e+00
      0.051      0.001     5.7258     66.239     35.865  34.140677     4.6165      7.388   237.3745 6.0522e+01     2.1529      0.047      0.068    22.5930 0.0000e+00
      0.053      0.002     5.6908     65.832     35.850  34.124509     4.6001      7.384   237.5480 5.9008e+01     2.1298      0.051      0.074    22.5929 0.0000e+00
      0.058      0.005     5.6567     65.439     35.843  34.118318     4.5872      7.378   237.6008 5.6538e+01     2.1452      0.058      0.084    22.5927 0.0000e+00
      0.061      0.009     5.6259     65.085     35.853  34.129336     4.5715      7.373   237.9277 5.5679e+01     2.1560      0.061      0.088    22.5926 0.0000e+00
      0.061      0.010     5.6004     64.791     35.853  34.130698     4.5573      7.367   238.4034 5.5938e+01     2.1688      0.060      0.086    22.5889 0.0000e+00
      0.062      0.010     5.5804     64.561     35.857  34.134788     4.5439      7.361   238.6200 5.5599e+01     2.1782      0.059      0.086    22.5871 0.0000e+00
      0.065      0.010     5.5670     64.406     35.837  34.115268     4.5285      7.357   238.6530 5.5969e+01     2.1468      0.064      0.092    22.5887 0.0000e+00
      0.069      0.009     5.5611     64.338     35.805  34.085242     4.5093      7.355   238.8029 5.6864e+01     2.1256      0.070      0.100    22.5909 0.0000e+00
      0.073      0.008     5.5598     64.321     35.810  34.089331     4.4859      7.354   239.0562 5.6944e+01     2.1355      0.072      0.104    22.5927 0.0000e+00
      0.075      0.006     5.5592     64.313     35.824  34.101191     4.4669      7.353   239.2206 5.6842e+01     2.1435      0.074      0.108    22.5929 0.0000e+00
      0.076      0.004     5.5571     64.288     35.825  34.101597     4.4534      7.352   239.4128 5.7448e+01     2.1620      0.076      0.110    22.5928 0.0000e+00
      0.075      0.003     5.5509     64.216     35.818  34.094241     4.4529      7.352   239.6599 5.7613e+01     2.1756      0.073      0.106    22.5929 0.0000e+00
      0.074      0.001     5.5407     64.097     35.799  34.075763     4.4794      7.351   239.7990 5.7394e+01     2.1551      0.072      0.104    22.5914 0.0000e+00
      0.075     -0.002     5.5277     63.943     35.793  34.068731     4.5154      7.350   239.9769 5.8279e+01     2.1286      0.073      0.106    22.5900 0.0000e+00
      0.077     -0.004     5.5092     63.728     35.799  34.072735     4.5289      7.349   240.3478 5.8829e+01     2.1297      0.074      0.109    22.5892 0.0000e+00
      0.078     -0.004     5.4838     63.433     35.787  34.060655     4.5149      7.346   240.7558 5.8788e+01     2.1369      0.077      0.114    22.5886 0.0000e+00
      0.074     -0.004     5.4562     63.113     35.776  34.049712     4.4924      7.343   241.0383 5.8934e+01     2.1553      0.074      0.107    22.5882 0.0000e+00
      0.069     -0.006     5.4286     62.793     35.795  34.067458     4.4775      7.340   241.2681 5.9151e+01     2.1683      0.066      0.095    22.5862 0.0000e+00
      0.067     -0.010     5.4011     62.473     35.814  34.084677     4.4734      7.338   241.5555 5.9131e+01     2.1723      0.065      0.094    22.5839 0.0000e+00
      0.068     -0.015     5.3744     62.164     35.796  34.067345     4.4796      7.333   241.8464 5.9451e+01     2.2047      0.067      0.097    22.5828 0.0000e+00
      0.069     -0.019     5.3474     61.851     35.776  34.048451     4.5150      7.328   242.1180 6.1245e+01     2.1934      0.068      0.099    22.5824 0.0000e+00
      0.064     -0.022     5.3195     61.525     35.775  34.046786     4.5704      7.322   242.4295 6.2993e+01     2.1577      0.065      0.096    22.5820 0.0000e+00
      0.052     -0.024     5.2925     61.210     35.778  34.047202     4.5989      7.316   242.6876 6.4580e+01     2.1693      0.052      0.075    22.5808 0.0000e+00
      0.038     -0.024     5.2703     60.950     35.787  34.053477     4.6015      7.311   242.8299 6.4972e+01     2.1823      0.034      0.050    22.5810 0.0000e+00
      0.031     -0.021     5.2499     60.711     35.795  34.059147     4.6020      7.308   242.9444 6.3028e+01     2.1922      0.027      0.040    22.5812 0.0000e+00
      0.031     -0.015     5.2248     60.417     35.790  34.052232     4.6045      7.306   243.1265 6.3740e+01     2.1982      0.031      0.046    22.5784 0.0000e+00
      0.030     -0.007     5.1994     60.121     35.771  34.033387     4.5957      7.305   243.3960 6.6657e+01     2.1937      0.031      0.046    22.5756 0.0000e+00
      0.026     -0.000     5.1785     59.878     35.761  34.021838     4.5786      7.304   243.6220 6.7221e+01     2.1981      0.024      0.035    22.5725 0.0000e+00
      0.026      0.004     5.1596     59.657     35.781  34.039624     4.6090      7.302   243.8807 6.6460e+01     2.1904      0.024      0.035    22.5690 0.0000e+00
      0.030      0.008     5.1391     59.419     35.801  34.057887     4.6787      7.299   244.2014 6.6237e+01     2.1617      0.029      0.043    22.5667 0.0000e+00
      0.034      0.011     5.1154     59.142     35.796  34.052103     4.7130      7.297   244.4018 6.6084e+01     2.1561      0.034      0.050    22.5651 0.0000e+00
      0.038      0.013     5.0899     58.847     35.777  34.033200     4.7118      7.296   244.5833 6.5123e+01     2.1841      0.037      0.053    22.5633 0.0000e+00
      0.041      0.013     5.0647     58.554     35.764  34.019880     4.7098      7.294   244.7603 6.4090e+01     2.1943      0.039      0.056    22.5610 0.0000e+00
      0.046      0.011     5.0382     58.247     35.762  34.018092     4.6789      7.292   244.8220 6.3895e+01     2.1574      0.044      0.064    22.5595 0.0000e+00
      0.051      0.007     5.0089     57.908     35.756  34.011578     4.6239      7.289   244.8984 6.4469e+01     2.1351      0.051      0.073    22.5586 0.0000e+00
      0.053      0.004     4.9804     57.577     35.749  34.004640     4.5969      7.287   245.0823 6.4690e+01     2.1682      0.054      0.078    22.5574 0.0000e+00
      0.051      0.000     4.9540     57.271     35.744  33.997720     4.5907      7.287   245.2381 6.3938e+01     2.1920      0.051      0.073    22.5560 0.0000e+00
      0.048     -0.010     4.9280     56.967     35.739  33.991425     4.5952      7.287   245.3191 6.3969e+01     2.1786      0.046      0.068    22.5553 0.0000e+00
      0.047     -0.029     4.9050     56.691     35.747  33.992040     4.5967      7.286   245.3740 6.4466e+01     2.1592      0.045      0.066    22.5551 0.0000e+00
      0.046     -0.054     4.8883     56.472     35.779  34.005152     4.5894      7.282   245.5582 6.4497e+01     2.1406      0.047      0.068    22.5548 0.0000e+00
      0.040     -0.078     4.8842     56.394     35.818  34.022903     4.5889      7.278   245.9976 6.6626e+01     2.1362      0.045      0.066    22.5527 0.0000e+00
      0.018     -0.093     4.9004     56.560     35.826  34.016090     4.5733      7.273   246.3844 7.3536e+01     2.1667      0.026      0.038    22.5520 0.0000e+00
     -0.026     -0.098     4.9395     56.999     35.803  33.986265     4.5483      7.268   246.5344 8.3829e+01     2.1745     -0.020     -0.030    22.5467 0.0000e+00
     -0.079     -0.095     5.0045     57.744     35.800  33.979866     4.5437      7.265   246.6069 9.0238e+01     2.1381     -0.086     -0.125    22.5183 0.0000e+00
     -0.111     -0.084     5.0893     58.722     35.824  34.002234     4.5447      7.262   246.7453 8.9508e+01     2.1233     -0.122     -0.179    22.4836 0.0000e+00
     -0.114     -0.067     5.1774     59.741     35.823  34.002650     4.5242      7.260   246.9176 8.6457e+01     2.1485     -0.112     -0.163    22.4650 0.0000e+00
     -0.111     -0.047     5.2572     60.664     35.803  33.984892     4.4889      7.258   247.0553 8.4927e+01     2.1681     -0.104     -0.149    22.4551 0.0000e+00
     -0.118     -0.033     5.3196     61.388     35.793  33.978075     4.4662      7.258   247.2053 8.5514e+01     2.1772     -0.114     -0.165    22.4515 0.0000e+00
     -0.131     -0.031     5.3566     61.823     35.794  33.983754     4.4620      7.259   247.2692 8.6799e+01     2.1981     -0.129     -0.186    22.4522 0.0000e+00
     -0.141     -0.036     5.3695     61.979     35.796  33.990048     4.4928      7.259   247.2250 8.7366e+01     2.2074     -0.140     -0.204    22.4536 0.0000e+00
     -0.149     -0.036     5.3630     61.910     35.792  33.990662     4.5542      7.258   247.1871 8.7314e+01     2.1975     -0.145     -0.212    22.4551 0.0000e+00
     -0.158     -0.030     5.3433     61.690     35.788  33.991182     4.5882      7.255   247.2412 8.6995e+01     2.1701     -0.151     -0.221    22.4589 0.0000e+00
     -0.172     -0.022     5.3197     61.425     35.788  33.996340     4.5827      7.249   247.5354 8.6777e+01     2.1501     -0.170     -0.248    22.4660 0.0000e+00
     -0.181     -0.017     5.2985     61.189     35.775  33.989515     4.5787      7.243   247.9913 8.6829e+01     2.1391     -0.184     -0.267    22.4732 0.0000e+00
     -0.178     -0.016     5.2833     61.024     35.751  33.972191     4.6048      7.241   248.2790 8.6983e+01     2.1287     -0.175     -0.255    22.4783 0.0000e+00
     -0.171     -0.015     5.2766     60.955     35.751  33.977436     4.6406      7.241   248.3470 8.7260e+01     2.1465     -0.164     -0.239    22.4835 0.0000e+00
     -0.171     -0.011     5.2743     60.935     35.760  33.989418     4.6621      7.241   248.4691 8.7689e+01     2.1714     -0.162     -0.236    22.4909 0.0000e+00
     -0.182     -0.005     5.2699     60.891     35.756  33.990043     4.6628      7.237   248.8095 8.8190e+01     2.1850     -0.177     -0.256    22.4982 0.0000e+00
     -0.196     -0.000     5.2623     60.812     35.745  33.984998     4.6498      7.231   249.1920 8.8350e+01     2.2199     -0.197     -0.286    22.5068 0.0000e+00
     -0.199      0.005     5.2551     60.736     35.746  33.991934     4.6422      7.225   249.3943 8.8233e+01     2.2881     -0.200     -0.292    22.5154 0.0000e+00
     -0.188      0.010     5.2506     60.690     35.762  34.010403     4.6446      7.224   249.4487 8.7686e+01     2.3380     -0.187     -0.271    22.5190 0.0000e+00
     -0.173      0.013     5.2462     60.645     35.767  34.017756     4.6597      7.228   249.4195 8.6632e+01     2.3346     -0.167     -0.242    22.5231 0.0000e+00
     -0.163      0.013     5.2373     60.548     35.763  34.017332     4.6687      7.232   249.3001 8.6176e+01     2.2775     -0.155     -0.224    22.5334 0.0000e+00
     -0.164      0.009     5.2223     60.378     35.748  34.005272     4.6616      7.234   249.2096 8.5934e+01     2.1966     -0.158     -0.229    22.5420 0.0000e+00
     -0.172      0.005     5.2050     60.182     35.738  33.998987     4.6563      7.234   249.3566 8.6002e+01     2.1504     -0.169     -0.245    22.5451 0.0000e+00
     -0.178      0.003     5.1909     60.024     35.741  34.004856     4.6504      7.232   249.6152 8.6967e+01     2.1459     -0.177     -0.257    22.5502 0.0000e+00
     -0.177      0.007     5.1825     59.930     35.747  34.012721     4.6276      7.227   249.8415 8.7336e+01     2.1424     -0.176     -0.255    22.5552 0.0000e+00
     -0.170      0.016     5.1797     59.900     35.764  34.030563     4.5929      7.222   250.1134 8.6506e+01     2.1399     -0.168     -0.243    22.5575 0.0000e+00
     -0.161      0.028     5.1829     59.940     35.762  34.030041     4.5791      7.218   250.2355 8.5411e+01     2.1764     -0.157     -0.227    22.5609 0.0000e+00
     -0.155      0.037     5.1971     60.107     35.735  34.006415     4.5894      7.214   250.2002 8.5360e+01     2.2175     -0.152     -0.220    22.5660 0.0000e+00
     -0.148      0.040     5.2225     60.403     35.726  33.998966     4.6262      7.213   250.2022 8.8330e+01     2.2095     -0.149     -0.216    22.5692 0.0000e+00
     -0.134      0.038     5.2510     60.734     35.730  34.003501     4.6841      7.213   250.2605 9.3765e+01     2.1706     -0.133     -0.193    22.5701 0.0000e+00
     -0.116      0.033     5.2743     61.008     35.722  33.997721     4.7096      7.216   250.4736 9.8117e+01     2.1444     -0.110     -0.159    22.5737 0.0000e+00
     -0.104      0.025     5.2868     61.154     35.715  33.992608     4.7050      7.217   250.8002 9.9662e+01     2.1367     -0.099     -0.142    22.5762 0.0000e+00
     -0.100      0.015     5.2846     61.129     35.727  34.005207     4.7021      7.217   251.0267 9.9161e+01     2.1384     -0.097     -0.140    22.5757 0.0000e+00
     -0.101      0.005     5.2685     60.943     35.746  34.023014     4.6473      7.215   251.1465 9.8120e+01     2.1340     -0.098     -0.143    22.5785 0.0000e+00
     -0.106     -0.004     5.2417     60.631     35.741  34.017349     4.5382      7.211   251.3030 9.7785e+01     2.1140     -0.105     -0.153    22.5826 0.0000e+00
     -0.110     -0.010     5.2079     60.239     35.725  34.000236     4.4765      7.211   251.3698 9.8349e+01     2.1110     -0.110     -0.160    22.5850 0.0000e+00
     -0.111     -0.009     5.1739     59.844     35.733  34.006655     4.4716      7.212   251.2666 9.8733e+01     2.1276     -0.109     -0.157    22.5848 0.0000e+00
     -0.113     -0.002     5.1441     59.499     35.759  34.031438     4.5157      7.212   251.2589 9.8646e+01     2.1930     -0.108     -0.157    22.5836 0.0000e+00
     -0.118      0.012     5.1234     59.260     35.773  34.045818     4.5956      7.212   251.3625 9.9151e+01     2.2919     -0.115     -0.167    22.5829 0.0000e+00
     -0.121      0.028     5.1191     59.213     35.780  34.053484     4.6384      7.211   251.4871 1.0026e+02     2.3159     -0.121     -0.177    22.5809 0.0000e+00
     -0.114      0.046     5.1322     59.366     35.786  34.060623     4.6473      7.208   251.6466 1.0164e+02     2.2995     -0.117     -0.170    22.5797 0.0000e+00
     -0.095      0.065     5.1569     59.654     35.793  34.068613     4.6380      7.204   251.8283 1.0276e+02     2.3075     -0.094     -0.138    22.5794 0.0000e+00
     -0.069      0.082     5.1852     59.983     35.811  34.086571     4.6189      7.198   252.1362 1.0313e+02     2.2908     -0.066     -0.097    22.5805 0.0000e+00
     -0.042      0.096     5.2107     60.281     35.810  34.087205     4.6096      7.191   252.4433 9.8144e+01     2.2508     -0.042     -0.060    22.5824 0.0000e+00
     -0.017      0.104     5.2325     60.535     35.797  34.076280     4.5986      7.185   252.4447 8.6674e+01     2.2501     -0.016     -0.023    22.5844 0.0000e+00
      0.009      0.105     5.2497     60.733     35.802  34.081515     4.6334      7.183   252.1531 7.6887e+01     2.2829      0.009      0.012    22.5859 0.0000e+00
      0.038      0.101     5.2579     60.827     35.809  34.086975     4.7267      7.183   251.8430 7.1087e+01     2.3116      0.036      0.052    22.5865 0.0000e+00
      0.068      0.096     5.2566     60.811     35.800  34.078777     4.7800      7.186   251.7925 6.7743e+01     2.3220      0.069      0.099    22.5897 0.0000e+00
      0.094      0.091     5.2486     60.721     35.765  34.045919     4.7818      7.188   251.8864 6.6454e+01     2.3175      0.094      0.136    22.5928 0.0000e+00
      0.114      0.085     5.2357     60.572     35.724  34.007279     4.7669      7.187   251.9463 6.5520e+01     2.2877      0.113      0.164    22.5914 0.0000e+00
      0.131      0.073     5.2232     60.429     35.708  33.992683     4.7377      7.185   252.1722 6.3955e+01     2.2057      0.128      0.186    22.5898 0.0000e+00
      0.150      0.055     5.2164     60.349     35.713  33.996468     4.7223      7.184   252.4663 6.1915e+01     2.1495      0.145      0.210    22.5899 0.0000e+00
      0.170      0.032     5.2125     60.300     35.709  33.989529     4.7197      7.185   252.5777 6.0216e+01     2.1580      0.169      0.247    22.5912 0.0000e+00
      0.183      0.005     5.2065     60.220     35.697  33.972301     4.7059      7.188   252.5717 5.9858e+01     2.1563      0.186      0.270    22.5924 0.0000e+00
      0.181     -0.020     5.1959     60.085     35.712  33.978711     4.6196      7.190   252.5664 6.1306e+01     2.1583      0.182      0.264    22.5920 0.0000e+00
      0.166     -0.037     5.1825     59.921     35.743  34.003504     4.4759      7.191   252.6855 6.4165e+01     2.1833      0.166      0.241    22.5932 0.0000e+00
      0.141     -0.041     5.1740     59.821     35.760  34.017989     4.4023      7.192   252.8932 6.7515e+01     2.1828      0.140      0.204    22.5901 0.0000e+00
      0.115     -0.030     5.1792     59.886     35.766  34.026814     4.3994      7.188   253.0989 7.0020e+01     2.1834      0.109      0.159    22.5788 0.0000e+00
      0.100     -0.009     5.2022     60.159     35.782  34.046685     4.4409      7.183   253.1937 6.9805e+01     2.2214      0.091      0.132    22.5665 0.0000e+00
      0.104      0.014     5.2403     60.608     35.798  34.067711     4.5193      7.180   253.0936 6.7055e+01     2.2749      0.096      0.138    22.5585 0.0000e+00
      0.124      0.033     5.2874     61.162     35.817  34.090488     4.5649      7.179   253.1790 6.4089e+01     2.3127      0.119      0.173    22.5573 0.0000e+00
      0.151      0.048     5.3465     61.857     35.853  34.131543     4.5790      7.179   253.6234 6.2109e+01     2.3124      0.152      0.219    22.5617 0.0000e+00
      0.170      0.059     5.4497     63.063     35.900  34.183000     4.5705      7.177   254.0785 6.1523e+01     2.2409      0.172      0.250    22.5695 0.0000e+00
      0.175      0.064     5.6407     65.283     35.915  34.204527     4.5359      7.174   254.2944 6.1397e+01     2.1499      0.172      0.250    22.5772 0.0000e+00
      0.178      0.057     5.9132     68.445     35.907  34.201282     4.5185      7.173   254.3403 6.0531e+01     2.1270      0.168      0.244    22.5841 0.0000e+00
      0.195      0.036     6.2162     71.956     35.912  34.207286     4.5169      7.173   254.3758 5.8646e+01     2.1470      0.184      0.267    22.5930 0.0000e+00
      0.225      0.001     6.5097     75.356     35.918  34.213610     4.4604      7.174   254.4659 5.7025e+01     2.1790      0.223      0.324    22.6044 0.0000e+00
      0.247     -0.044     6.7720     78.392     35.918  34.214226     4.3512      7.176   254.6548 5.7734e+01     2.1775      0.255      0.370    22.6139 0.0000e+00
      0.236     -0.096     6.9860     80.869     35.919  34.214737     4.2903      7.177   254.8535 6.1845e+01     2.1595      0.246      0.356    22.6194 0.0000e+00
      0.190     -0.145     7.1399     82.651     35.924  34.219791     4.2754      7.177   255.0614 7.0033e+01     2.1453      0.194      0.281    22.6224 0.0000e+00
      0.121     -0.178     7.2254     83.640     35.916  34.211813     4.2903      7.176   255.3610 8.2449e+01     2.1273      0.119      0.172    22.6233 0.0000e+00
      0.048     -0.185     7.2470     83.890     35.885  34.181792     4.3503      7.172   255.5510 9.5870e+01     2.1559      0.043      0.061    22.6230 0.0000e+00
     -0.012     -0.164     7.2253     83.640     35.876  34.174398     4.3851      7.168   255.5517 1.0491e+02     2.1849     -0.017     -0.025    22.6226 0.0000e+00
     -0.053     -0.126     7.1807     83.125     35.887  34.185936     4.3895      7.167   255.6277 1.0790e+02     2.1730     -0.059     -0.086    22.6223 0.0000e+00
     -0.073     -0.084     7.1274     82.509     35.896  34.194264     4.4590      7.166   255.7812 1.0736e+02     2.1647     -0.078     -0.114    22.6223 0.0000e+00
     -0.075     -0.050     7.0752     81.904     35.914  34.211572     4.5815      7.166   255.7729 1.0677e+02     2.1765     -0.075     -0.108    22.6226 0.0000e+00
     -0.071     -0.030     7.0292     81.372     35.906  34.204652     4.6399      7.168   255.6991 1.0671e+02     2.1937     -0.069     -0.100    22.6232 0.0000e+00
     -0.070     -0.020     6.9913     80.934     35.875  34.174116     4.6414      7.172   255.6633 1.0651e+02     2.1898     -0.067     -0.097    22.6239 0.0000e+00
     -0.075     -0.017     6.9612     80.586     35.860  34.159956     4.6452      7.175   255.5979 1.0664e+02     2.1598     -0.070     -0.102    22.6245 0.0000e+00
     -0.087     -0.016     6.9368     80.303     35.860  34.160477     4.6392      7.177   255.5977 1.0728e+02     2.1356     -0.086     -0.124    22.6247 0.0000e+00
     -0.098     -0.012     6.9160     80.063     35.881  34.180412     4.6155      7.177   255.6609 1.0797e+02     2.1407     -0.100     -0.144    22.6250 0.0000e+00
     -0.103     -0.006     6.8988     79.863     35.912  34.210438     4.5982      7.176   255.7593 1.0791e+02     2.1608     -0.103     -0.149    22.6251 0.0000e+00
     -0.100      0.000     6.8843     79.696     35.907  34.205923     4.5955      7.175   255.9275 1.0728e+02     2.1648     -0.100     -0.145    22.6250 0.0000e+00
     -0.092      0.006     6.8733     79.570     35.889  34.189339     4.6376      7.176   256.0600 1.0633e+02     2.1590     -0.089     -0.129    22.6251 0.0000e+00
     -0.085      0.009     6.8658     79.484     35.900  34.200481     4.7304      7.177   256.2427 1.0591e+02     2.1521     -0.080     -0.117    22.6254 0.0000e+00
     -0.084      0.010     6.8608     79.426     35.914  34.213601     4.7806      7.178   256.5013 1.0674e+02     2.1429     -0.081     -0.119    22.6255 0.0000e+00
     -0.086      0.010     6.8585     79.400     35.922  34.220937     4.7757      7.179   256.6057 1.0694e+02     2.1388     -0.085     -0.122    22.6256 0.0000e+00
     -0.087      0.010     6.8582     79.396     35.927  34.225669     4.7539      7.177   256.6450 1.0639e+02     2.1331     -0.086     -0.125    22.6260 0.0000e+00
     -0.084      0.010     6.8577     79.392     35.907  34.207297     4.7279      7.176   256.7177 1.0672e+02     2.1347     -0.084     -0.122    22.6263 0.0000e+00
     -0.077      0.009     6.8562     79.373     35.889  34.189359     4.7193      7.178   256.7973 1.0737e+02     2.1580     -0.075     -0.109    22.6266 0.0000e+00
     -0.071      0.007     6.8543     79.351     35.899  34.199336     4.7135      7.180   257.0053 1.0772e+02     2.1711     -0.068     -0.100    22.6271 0.0000e+00
     -0.069      0.004     6.8526     79.331     35.901  34.200889     4.6946      7.181   257.2537 1.0775e+02     2.1402     -0.067     -0.096    22.6275 0.0000e+00
     -0.070      0.000     6.8510     79.313     35.909  34.208129     4.6661      7.180   257.3902 1.0778e+02     2.0900     -0.066     -0.097    22.6272 0.0000e+00
     -0.075     -0.002     6.8493     79.293     35.924  34.223360     4.6531      7.177   257.5380 1.0806e+02     2.0820     -0.075     -0.108    22.6267 0.0000e+00
     -0.078     -0.003     6.8494     79.294     35.894  34.194497     4.6576      7.172   257.7498 1.0832e+02     2.1355     -0.077     -0.112    22.6262 0.0000e+00
     -0.078     -0.003     6.8533     79.340     35.875  34.176741     4.6555      7.167   257.8868 1.0852e+02     2.1885     -0.076     -0.110    22.6262 0.0000e+00
     -0.077     -0.002     6.8590     79.406     35.899  34.199222     4.6648      7.165   257.9036 1.0863e+02     2.2026     -0.077     -0.111    22.6263 0.0000e+00
     -0.076     -0.001     6.8619     79.439     35.913  34.212237     4.6965      7.167   257.8670 1.0881e+02     2.1842     -0.073     -0.107    22.6262 0.0000e+00
     -0.075     -0.001     6.8604     79.421     35.908  34.207069     4.7168      7.170   257.8737 1.0893e+02     2.1491     -0.072     -0.106    22.6266 0.0000e+00
     -0.076     -0.001     6.8569     79.381     35.901  34.200251     4.7178      7.173   258.0707 1.0884e+02     2.1447     -0.074     -0.108    22.6270 0.0000e+00
     -0.078     -0.001     6.8544     79.352     35.893  34.193324     4.7449      7.173   258.4425 1.0878e+02     2.1614     -0.077     -0.111    22.6270 0.0000e+00
     -0.079      0.000     6.8552     79.361     35.887  34.186830     4.7968      7.173   258.6699 1.0874e+02     2.1678     -0.079     -0.114    22.6269 0.0000e+00
     -0.078      0.002     6.8573     79.385     35.886  34.185250     4.8204      7.172   258.6683 1.0874e+02     2.1612     -0.078     -0.112    22.6268 0.0000e+00
     -0.077      0.003     6.8568     79.379     35.874  34.174223     4.8190      7.171   258.7676 1.0891e+02     2.1423     -0.076     -0.110    22.6268 0.0000e+00
     -0.075      0.003     6.8549     79.357     35.880  34.180541     4.8170      7.171   258.9251 1.0904e+02     2.1227     -0.073     -0.106    22.6267 0.0000e+00
     -0.073      0.002     6.8554     79.363     35.899  34.198124     4.8149      7.171   258.9376 1.0913e+02     2.1075     -0.071     -0.104    22.6264 0.0000e+00
     -0.073      0.001     6.8608     79.426     35.897  34.196263     4.8121      7.173   259.0037 1.0925e+02     2.1110     -0.071     -0.103    22.6261 0.0000e+00
     -0.073     -0.001     6.8689     79.519     35.923  34.221550     4.8103      7.175   259.1228 1.0950e+02     2.1345     -0.070     -0.102    22.6260 0.0000e+00
     -0.074     -0.003     6.8752     79.592     35.953  34.249805     4.8114      7.177   259.1727 1.0971e+02     2.1480     -0.072     -0.105    22.6260 0.0000e+00
     -0.076     -0.003     6.8799     79.646     35.922  34.220299     4.8159      7.178   259.2625 1.0958e+02     2.1519     -0.076     -0.109    22.6261 0.0000e+00
     -0.078     -0.002     6.8844     79.698     35.882  34.182394     4.8199      7.177   259.4343 1.0943e+02     2.1514     -0.076     -0.111    22.6263 0.0000e+00
     -0.079     -0.001     6.8872     79.731     35.872  34.172603     4.8226      7.176   259.6157 1.0942e+02     2.1407     -0.078     -0.113    22.6264 0.0000e+00
     -0.078      0.001     6.8872     79.731     35.864  34.165429     4.7741      7.175   259.8208 1.0946e+02     2.1453     -0.077     -0.111    22.6262 0.0000e+00
     -0.077      0.003     6.8839     79.693     35.858  34.159165     4.6568      7.172   260.0216 1.0963e+02     2.1468     -0.075     -0.109    22.6263 0.0000e+00
     -0.076      0.003     6.8778     79.621     35.859  34.160395     4.5814      7.171   260.0650 1.0996e+02     2.1579     -0.075     -0.109    22.6262 0.0000e+00
     -0.075      0.003     6.8699     79.530     35.881  34.180291     4.5791      7.171   260.0868 1.1018e+02     2.1880     -0.072     -0.105    22.6263 0.0000e+00
     -0.074      0.003     6.8623     79.442     35.911  34.209177     4.6565      7.171   260.1990 1.1030e+02     2.2059     -0.071     -0.104    22.6263 0.0000e+00
     -0.075      0.003     6.8567     79.378     35.893  34.192065     4.8002      7.171   260.3033 1.1038e+02     2.2216     -0.073     -0.106    22.6261 0.0000e+00
     -0.075      0.001     6.8534     79.339     35.863  34.163942     4.8822      7.172   260.4015 1.1040e+02     2.2251     -0.074     -0.108    22.6258 0.0000e+00
     -0.072     -0.003     6.8506     79.307     35.887  34.186737     4.8944      7.174   260.4398 1.1044e+02     2.2181     -0.071     -0.105    22.6251 0.0000e+00
     -0.069     -0.008     6.8478     79.274     35.916  34.213600     4.8934      7.175   260.5079 1.1064e+02     2.1974     -0.065     -0.095    22.6250 0.0000e+00
     -0.071     -0.012     6.8476     79.272     35.938  34.234670     4.8608      7.175   260.6238 1.1102e+02     2.1580     -0.068     -0.098    22.6252 0.0000e+00
     -0.078     -0.014     6.8519     79.322     35.955  34.250942     4.8127      7.174   260.6359 1.1136e+02     2.1389     -0.077     -0.111    22.6257 0.0000e+00
     -0.087     -0.014     6.8581     79.394     35.922  34.219790     4.7890      7.173   260.7397 1.1173e+02     2.1497     -0.084     -0.123    22.6258 0.0000e+00
     -0.093     -0.012     6.8630     79.450     35.875  34.175605     4.7769      7.173   261.0191 1.1191e+02     2.1664     -0.094     -0.136    22.6258 0.0000e+00
     -0.096     -0.007     6.8676     79.503     35.860  34.161330     4.7312      7.173   261.1745 1.1183e+02     2.1578     -0.095     -0.138    22.6259 0.0000e+00
     -0.095     -0.002     6.8705     79.537     35.874  34.174231     4.6502      7.173   261.0704 1.1197e+02     2.1371     -0.092     -0.134    22.6257 0.0000e+00
     -0.092      0.002     6.8712     79.544     35.906  34.204550     4.5967      7.173   261.0501 1.1222e+02     2.1601     -0.092     -0.132    22.6257 0.0000e+00
     -0.089      0.005     6.8740     79.577     35.911  34.210323     4.5811      7.172   261.2736 1.1244e+02     2.1917     -0.086     -0.125    22.6258 0.0000e+00
     -0.087      0.005     6.8773     79.616     35.880  34.180515     4.6082      7.170   261.4496 1.1285e+02     2.1830     -0.083     -0.121    22.6259 0.0000e+00
     -0.087      0.005     6.8763     79.605     35.860  34.161736     4.6762      7.170   261.6297 1.1316e+02     2.1776     -0.086     -0.124    22.6256 0.0000e+00
     -0.088      0.004     6.8737     79.575     35.873  34.173824     4.7147      7.170   261.8157 1.1324e+02     2.1878     -0.088     -0.128    22.6254 0.0000e+00
     -0.088      0.003     6.8739     79.577     35.900  34.199638     4.7240      7.171   261.8065 1.1348e+02     2.1528     -0.086     -0.125    22.6253 0.0000e+00
     -0.085      0.000     6.8761     79.602     35.921  34.219773     4.7427      7.172   261.6909 1.1363e+02     2.0904     -0.083     -0.120    22.6256 0.0000e+00
     -0.082     -0.002     6.8763     79.604     35.928  34.226716     4.7652      7.172   261.6221 1.1357e+02     2.0741     -0.080     -0.115    22.6261 0.0000e+00
     -0.081     -0.004     6.8707     79.539     35.922  34.220068     4.7847      7.172   261.7496 1.1391e+02     2.1091     -0.078     -0.113    22.6263 0.0000e+00
     -0.085     -0.004     6.8630     79.450     35.904  34.202903     4.7952      7.171   262.0276 1.1433e+02     2.1462     -0.082     -0.120    22.6264 0.0000e+00
     -0.091     -0.003     6.8598     79.412     35.912  34.209734     4.7913      7.170   262.1438 1.1439e+02     2.1270     -0.091     -0.131    22.6264 0.0000e+00
     -0.095     -0.002     6.8616     79.432     35.942  34.239140     4.7375      7.168   262.1219 1.1449e+02     2.0908     -0.094     -0.137    22.6260 0.0000e+00
     -0.094      0.001     6.8663     79.487     35.944  34.240866     4.6412      7.166   262.2787 1.1466e+02     2.1047     -0.094     -0.135    22.6255 0.0000e+00
     -0.090      0.004     6.8665     79.490     35.933  34.230605     4.5914      7.164   262.4915 1.1490e+02     2.1421     -0.087     -0.126    22.6250 0.0000e+00
     -0.085      0.005     6.8568     79.379     35.945  34.242105     4.5957      7.162   262.5439 1.1531e+02     2.1467     -0.082     -0.119    22.6248 0.0000e+00
     -0.083      0.005     6.8405     79.190     35.957  34.252883     4.6286      7.162   262.5677 1.1550e+02     2.1298     -0.082     -0.119    22.6249 0.0000e+00
     -0.083      0.003     6.8202     78.955     35.937  34.233880     4.6760      7.163   262.6076 1.1576e+02     2.1503     -0.082     -0.119    22.6250 0.0000e+00
     -0.083      0.001     6.7989     78.708     35.904  34.202902     4.7009      7.164   262.5963 1.1600e+02     2.1819     -0.081     -0.117    22.6253 0.0000e+00
     -0.084      0.000     6.7835     78.530     35.897  34.195921     4.7093      7.165   262.6026 1.1556e+02     2.1765     -0.082     -0.118    22.6254 0.0000e+00
     -0.085      0.003     6.7798     78.487     35.915  34.212984     4.7034      7.168   262.6836 1.1568e+02     2.1459     -0.083     -0.121    22.6258 0.0000e+00
     -0.086      0.008     6.7879     78.582     35.921  34.218649     4.6749      7.169   262.7157 1.1637e+02     2.1173     -0.085     -0.123    22.6261 0.0000e+00
     -0.086      0.016     6.8044     78.772     35.902  34.200899     4.6509      7.169   262.7324 1.1630e+02     2.1052     -0.085     -0.124    22.6259 0.0000e+00
     -0.082      0.028     6.8248     79.008     35.889  34.188934     4.6517      7.167   262.8862 1.1607e+02     2.1219     -0.082     -0.120    22.6260 0.0000e+00
     -0.073      0.043     6.8451     79.243     35.902  34.201013     4.7299      7.162   262.9403 1.1613e+02     2.1669     -0.072     -0.104    22.6261 0.0000e+00
     -0.060      0.058     6.8624     79.445     35.921  34.219906     4.8712      7.155   262.7841 1.1633e+02     2.1907     -0.060     -0.087    22.6258 0.0000e+00
     -0.043      0.071     6.8756     79.600     35.927  34.226816     4.9450      7.149   262.6321 1.1497e+02     2.1967     -0.046     -0.066    22.6256 0.0000e+00
     -0.020      0.081     6.8840     79.698     35.920  34.221038     4.9511      7.144   262.5651 1.0902e+02     2.2391     -0.020     -0.030    22.6258 0.0000e+00
      0.005      0.085     6.8872     79.736     35.912  34.213564     4.9996      7.141   262.6621 9.9289e+01     2.2756      0.006      0.008    22.6262 0.0000e+00
      0.031      0.085     6.8875     79.739     35.898  34.199977     5.0901      7.140   262.7728 9.0563e+01     2.2724      0.029      0.043    22.6274 0.0000e+00
      0.056      0.080     6.8891     79.759     35.881  34.183785     5.1357      7.138   262.7857 8.6006e+01     2.2613      0.057      0.083    22.6284 0.0000e+00
      0.076      0.072     6.8921     79.794     35.906  34.208339     5.1376      7.137   262.8182 8.4834e+01     2.2628      0.077      0.113    22.6290 0.0000e+00
      0.090      0.064     6.8931     79.805     35.943  34.242785     5.1127      7.136   262.8206 8.3730e+01     2.2913      0.088      0.128    22.6295 0.0000e+00
      0.103      0.059     6.8925     79.799     35.918  34.219167     5.0549      7.136   262.9010 8.1315e+01     2.2998      0.101      0.147    22.6295 0.0000e+00
      0.115      0.057     6.8900     79.769     35.873  34.176850     5.0183      7.136   263.1015 7.9212e+01     2.2745      0.113      0.164    22.6297 0.0000e+00
      0.127      0.060     6.8851     79.712     35.872  34.175756     5.0098      7.135   263.2659 7.7734e+01     2.2603      0.122      0.178    22.6298 0.0000e+00
      0.142      0.067     6.8794     79.646     35.904  34.205938     4.9984      7.133   263.4259 7.6195e+01     2.2507      0.139      0.201    22.6297 0.0000e+00
      0.160      0.075     6.8733     79.574     35.924  34.224183     4.9446      7.131   263.7457 7.4358e+01     2.2493      0.157      0.227    22.6299 0.0000e+00
      0.179      0.083     6.8674     79.506     35.905  34.205809     4.8467      7.129   264.2078 7.1930e+01     2.2743      0.173      0.251    22.6300 0.0000e+00
      0.203      0.089     6.8620     79.442     35.872  34.174325     4.7889      7.127   264.6249 6.8799e+01     2.3087      0.197      0.284    22.6298 0.0000e+00
      0.230      0.092     6.8564     79.377     35.858  34.161103     4.7790      7.126   265.1759 6.5688e+01     2.3294      0.226      0.328    22.6294 0.0000e+00
      0.256      0.092     6.8497     79.298     35.871  34.172974     4.7905      7.127   265.8792 6.3148e+01     2.3113      0.252      0.365    22.6287 0.0000e+00
      0.280      0.093     6.8410     79.197     35.891  34.190817     4.8179      7.131   266.4173 6.1103e+01     2.2726      0.276      0.400    22.6283 0.0000e+00
      0.301      0.094     6.8316     79.087     35.886  34.186292     4.8259      7.135   266.7782 5.9526e+01     2.2590      0.297      0.431    22.6284 0.0000e+00
      0.321      0.094     6.8247     79.006     35.881  34.181777     4.8224      7.137   267.0585 5.7927e+01     2.2678      0.313      0.454    22.6278 0.0000e+00
      0.344      0.092     6.8213     78.969     35.900  34.199744     4.8132      7.137   267.3972 5.5885e+01     2.2870      0.335      0.486    22.6274 0.0000e+00
      0.372      0.087     6.8196     78.951     35.913  34.212977     4.7976      7.139   267.7758 5.3634e+01     2.3087      0.364      0.529    22.6275 0.0000e+00
      0.400      0.081     6.8210     78.969     35.914  34.214748     4.7984      7.143   268.1089 5.1831e+01     2.3170      0.394      0.573    22.6267 0.0000e+00
      0.423      0.076     6.8288     79.059     35.921  34.221156     4.7954      7.145   268.4997 5.0853e+01     2.3260      0.418      0.607    22.6252 0.0000e+00
      0.437      0.073     6.8393     79.182     35.927  34.226941     4.7242      7.146   268.9733 5.0388e+01     2.3257      0.432      0.625    22.6264 0.0000e+00
      0.446      0.072     6.8487     79.290     35.920  34.221169     4.5993      7.146   269.4469 4.9698e+01     2.2827      0.436      0.633    22.6284 0.0000e+00
      0.460      0.074     6.8586     79.405     35.913  34.214884     4.5348      7.143   269.7529 4.8429e+01     2.2646      0.448      0.649    22.6293 0.0000e+00
      0.480      0.077     6.8697     79.534     35.913  34.214467     4.5421      7.138   269.8332 4.6811e+01     2.2897      0.470      0.681    22.6296 0.0000e+00
      0.506      0.076     6.8794     79.646     35.915  34.216123     4.5414      7.138   269.8151 4.5005e+01     2.2817      0.494      0.718    22.6293 0.0000e+00
      0.534      0.071     6.8875     79.740     35.935  34.234912     4.4885      7.140   269.9642 4.3388e+01     2.2282      0.525      0.761    22.6290 0.0000e+00
      0.558      0.066     6.8948     79.824     35.952  34.251079     4.4172      7.140   270.5175 4.2538e+01     2.1612      0.551      0.800    22.6289 0.0000e+00
      0.570      0.067     6.8991     79.872     35.921  34.221044     4.3959      7.136   271.4286 4.2443e+01     2.1132      0.563      0.817    22.6293 0.0000e+00
      0.572      0.079     6.9007     79.891     35.888  34.189353     4.4056      7.128   272.2906 4.2470e+01     2.1051      0.561      0.814    22.6294 0.0000e+00
      0.576      0.101     6.9011     79.895     35.884  34.185491     4.4343      7.121   272.5074 4.1629e+01     2.2157      0.557      0.808    22.6292 0.0000e+00
      0.597      0.126     6.8978     79.854     35.874  34.174349     4.4858      7.118   272.2432 3.9361e+01     2.4123      0.575      0.835    22.6292 0.0000e+00
      0.642      0.143     6.8899     79.758     35.884  34.181674     4.5132      7.118   272.0222 3.6202e+01     2.4998      0.622      0.903    22.6288 0.0000e+00
      0.705      0.143     6.8786     79.623     35.916  34.210534     4.5262      7.121   271.8141 3.2910e+01     2.4799      0.688      0.999    22.6286 0.0000e+00
      0.768      0.125     6.8678     79.497     35.911  34.205695     4.5697      7.125   271.7052 3.0553e+01     2.3846      0.764      1.107    22.6291 0.0000e+00
      0.808      0.095     6.8611     79.422     35.890  34.186687     4.6252      7.127   271.9107 3.0037e+01     2.2327      0.807      1.169    22.6277 0.0000e+00
      0.814      0.062     6.8583     79.392     35.872  34.171267     4.6554      7.128   272.1479 3.0748e+01     2.1691      0.805      1.167    22.6226 0.0000e+00
      0.801      0.034     6.8586     79.396     35.846  34.146285     4.6591      7.128   272.1649 3.1575e+01     2.1656      0.785      1.138    22.6186 0.0000e+00
      0.789      0.019     6.8587     79.395     35.840  34.138703     4.5967      7.128   272.1159 3.1823e+01     2.1900      0.769      1.113    22.6194 0.0000e+00
      0.791      0.018     6.8562     79.363     35.845  34.143113     4.4798      7.131   272.1566 3.1317e+01     2.2507      0.769      1.117    22.6221 0.0000e+00
      0.806      0.030     6.8536     79.330     35.839  34.136083     4.4132      7.133   272.3995 3.0547e+01     2.2589      0.789      1.145    22.6239 0.0000e+00
      0.823      0.048     6.8533     79.324     35.821  34.117228     4.3971      7.133   272.8157 3.0067e+01     2.2580      0.811      1.176    22.6242 0.0000e+00
      0.835      0.065     6.8544     79.334     35.811  34.105678     4.4041      7.132   273.1442 2.9796e+01     2.3323      0.820      1.190    22.6225 0.0000e+00
      0.845      0.075     6.8569     79.359     35.831  34.123473     4.4431      7.129   273.2742 2.9237e+01     2.4244      0.826      1.197    22.6202 0.0000e+00
      0.864      0.077     6.8622     79.419     35.851  34.141833     4.4647      7.127   273.2696 2.8212e+01     2.4869      0.843      1.223    22.6184 0.0000e+00
      0.893      0.075     6.8675     79.479     35.847  34.137110     4.4550      7.127   273.1751 2.6997e+01     2.5077      0.874      1.268    22.6168 0.0000e+00
      0.923      0.072     6.8687     79.492     35.839  34.129880     4.4535      7.130   273.1640 2.6112e+01     2.4316      0.909      1.319    22.6148 0.0000e+00
      0.944      0.070     6.8660     79.461     35.827  34.117925     4.4646      7.131   273.3068 2.5865e+01     2.3301      0.933      1.354    22.6124 0.0000e+00
      0.952      0.068     6.8614     79.408     35.828  34.119601     4.4696      7.130   273.5250 2.5893e+01     2.2874      0.936      1.358    22.6108 0.0000e+00
      0.957      0.067     6.8567     79.355     35.859  34.150148     4.4682      7.126   273.8238 2.5644e+01     2.2808      0.936      1.357    22.6099 0.0000e+00
      0.970      0.069     6.8538     79.325     35.878  34.169675     4.4666      7.121   274.0793 2.4994e+01     2.2815      0.948      1.375    22.6097 0.0000e+00
      0.994      0.072     6.8533     79.322     35.872  34.165151     4.4590      7.118   274.0334 2.4154e+01     2.2658      0.973      1.410    22.6098 0.0000e+00
      1.022      0.072     6.8550     79.346     35.865  34.158969     4.4600      7.117   273.8716 2.3372e+01     2.2740      1.002      1.454    22.6098 0.0000e+00
      1.049      0.065     6.8598     79.402     35.864  34.158459     4.4688      7.118   273.8443 2.2713e+01     2.2893      1.029      1.493    22.6103 0.0000e+00
      1.069      0.050     6.8658     79.472     35.864  34.158981     4.4643      7.121   273.8752 2.2329e+01     2.2677      1.053      1.527    22.6127 0.0000e+00
      1.078      0.032     6.8707     79.527     35.871  34.165277     4.4605      7.124   273.9865 2.2352e+01     2.2261      1.062      1.541    22.6154 0.0000e+00
      1.077      0.016     6.8735     79.558     35.877  34.171061     4.4686      7.126   274.0714 2.2529e+01     2.1825      1.056      1.533    22.6172 0.0000e+00
      1.072      0.005     6.8739     79.563     35.870  34.165392     4.4708      7.128   274.0409 2.2703e+01     2.1676      1.051      1.523    22.6184 0.0000e+00
      1.067     -0.001     6.8730     79.553     35.865  34.160252     4.4590      7.129   274.0485 2.2823e+01     2.1679      1.045      1.516    22.6185 0.0000e+00
      1.067     -0.003     6.8704     79.523     35.878  34.172433     4.4644      7.130   274.1635 2.2758e+01     2.1555      1.045      1.515    22.6178 0.0000e+00
      1.071     -0.006     6.8662     79.474     35.892  34.185647     4.4990      7.132   274.2270 2.2636e+01     2.1409      1.051      1.523    22.6170 0.0000e+00
      1.074     -0.009     6.8630     79.436     35.901  34.192992     4.5290      7.134   274.2133 2.2626e+01     2.1437      1.054      1.529    22.6173 0.0000e+00
      1.073     -0.011     6.8620     79.424     35.906  34.197716     4.5408      7.134   274.3418 2.2810e+01     2.1590      1.054      1.529    22.6175 0.0000e+00
      1.066     -0.011     6.8626     79.432     35.886  34.179247     4.6054      7.134   274.4899 2.3207e+01     2.1725      1.049      1.521    22.6175 0.0000e+00
      1.055     -0.008     6.8640     79.449     35.866  34.160241     4.7409      7.133   274.4557 2.3504e+01     2.1846      1.032      1.498    22.6172 0.0000e+00
      1.049      0.000     6.8661     79.474     35.864  34.158461     4.8274      7.132   274.5307 2.3454e+01     2.1834      1.025      1.485    22.6166 0.0000e+00
      1.052      0.014     6.8669     79.483     35.863  34.157732     4.8421      7.128   274.8803 2.3246e+01     2.1584      1.031      1.495    22.6166 0.0000e+00
      1.058      0.032     6.8615     79.421     35.856  34.151417     4.8184      7.121   275.2418 2.3059e+01     2.1877      1.038      1.506    22.6168 0.0000e+00
      1.067      0.053     6.8498     79.282     35.851  34.145632     4.7614      7.115   275.3730 2.2776e+01     2.2631      1.045      1.515    22.6170 0.0000e+00
      1.082      0.073     6.8357     79.117     35.858  34.151292     4.7234      7.112   275.3489 2.2289e+01     2.2759      1.058      1.535    22.6173 0.0000e+00
      1.104      0.089     6.8245     78.986     35.864  34.156337     4.7169      7.109   275.6384 2.1638e+01     2.2814      1.081      1.567    22.6179 0.0000e+00
      1.133      0.106     6.8200     78.932     35.851  34.143113     4.7190      7.104   276.3779 2.0873e+01     2.2991      1.110      1.609    22.6179 0.0000e+00
      1.165      0.126     6.8206     78.938     35.826  34.118436     4.6855      7.098   276.9772 2.0069e+01     2.2763      1.142      1.657    22.6163 0.0000e+00
      1.196      0.146     6.8250     78.987     35.820  34.112027     4.6149      7.093   277.0341 1.9305e+01     2.2499      1.174      1.703    22.6142 0.0000e+00
      1.229      0.161     6.8319     79.065     35.839  34.129141     4.5819      7.091   276.8080 1.8464e+01     2.2546      1.202      1.743    22.6133 0.0000e+00
      1.272      0.163     6.8369     79.122     35.845  34.134801     4.5891      7.094   276.5667 1.7299e+01     2.2720      1.240      1.798    22.6127 0.0000e+00
      1.329      0.146     6.8381     79.136     35.827  34.116947     4.6377      7.099   276.3536 1.6025e+01     2.2472      1.303      1.889    22.6113 0.0000e+00
      1.388      0.115     6.8355     79.105     35.813  34.103827     4.7289      7.103   276.2960 1.5153e+01     2.1682      1.368      1.984    22.6100 0.0000e+00
      1.428      0.077     6.8300     79.042     35.813  34.103203     4.7815      7.106   276.4720 1.4897e+01     2.1406      1.412      2.048    22.6092 0.0000e+00
      1.437      0.042     6.8241     78.974     35.819  34.109394     4.7773      7.106   276.9329 1.5280e+01     2.1881      1.423      2.063    22.6085 0.0000e+00
      1.416      0.020     6.8190     78.915     35.825  34.115169     4.7431      7.103   277.3952 1.5981e+01     2.1940      1.391      2.016    22.6081 0.0000e+00
      1.389      0.017     6.8176     78.899     35.819  34.109502     4.6990      7.100   277.4157 1.6387e+01     2.1504      1.353      1.963    22.6083 0.0000e+00
      1.379      0.031     6.8204     78.929     35.814  34.104400     4.6755      7.098   277.1797 1.6156e+01     2.1185      1.342      1.947    22.6084 0.0000e+00
      1.397      0.054     6.8260     78.993     35.828  34.116999     4.6710      7.098   276.9517 1.5407e+01     2.1137      1.363      1.977    22.6086 0.0000e+00
      1.436      0.076     6.8338     79.083     35.847  34.134795     4.7269      7.100   276.8088 1.4566e+01     2.1234      1.410      2.045    22.6088 0.0000e+00
      1.477      0.089     6.8393     79.147     35.841  34.129016     4.8545      7.103   276.8294 1.3961e+01     2.1439      1.454      2.108    22.6085 0.0000e+00
      1.505      0.090     6.8426     79.184     35.822  34.110644     4.9371      7.104   277.0288 1.3651e+01     2.1780      1.481      2.148    22.6072 0.0000e+00
      1.520      0.084     6.8477     79.244     35.814  34.103204     4.9450      7.103   277.3272 1.3517e+01     2.2000      1.493      2.166    22.6062 0.0000e+00
      1.528      0.078     6.8539     79.316     35.813  34.102579     4.8942      7.100   277.5116 1.3354e+01     2.1962      1.495      2.169    22.6061 0.0000e+00
      1.540      0.076     6.8588     79.372     35.814  34.103089     4.7918      7.099   277.5370 1.3039e+01     2.1935      1.506      2.185    22.6062 0.0000e+00
      1.562      0.076     6.8618     79.405     35.821  34.109374     4.7267      7.100   277.4627 1.2587e+01     2.1990      1.529      2.217    22.6064 0.0000e+00
      1.590      0.079     6.8644     79.432     35.828  34.115044     4.7135      7.102   277.3881 1.2146e+01     2.1706      1.559      2.261    22.6067 0.0000e+00
      1.617      0.080     6.8687     79.481     35.822  34.108124     4.7149      7.105   277.4093 1.1844e+01     2.1246      1.590      2.305    22.6068 0.0000e+00
      1.637      0.080     6.8741     79.542     35.802  34.089231     4.7901      7.107   277.4611 1.1639e+01     2.1306      1.609      2.332    22.6067 0.0000e+00
      1.651      0.078     6.8765     79.570     35.789  34.077162     4.9335      7.107   277.5837 1.1449e+01     2.1819      1.619      2.348    22.6052 0.0000e+00
      1.666      0.078     6.8749     79.551     35.803  34.089231     5.0061      7.105   277.7738 1.1220e+01     2.1957      1.632      2.367    22.6029 0.0000e+00
      1.684      0.079     6.8709     79.505     35.823  34.108126     5.0055      7.103   277.8667 1.0936e+01     2.1748      1.650      2.393    22.6021 0.0000e+00
      1.707      0.080     6.8648     79.433     35.831  34.115055     5.0273      7.101   277.8462 1.0609e+01     2.1733      1.671      2.424    22.6022 0.0000e+00
      1.733      0.077     6.8573     79.345     35.826  34.109489     5.0676      7.101   277.7836 1.0298e+01     2.1783      1.700      2.465    22.6022 0.0000e+00
      1.758      0.069     6.8510     79.271     35.821  34.104348     5.0883      7.101   277.7124 1.0065e+01     2.1746      1.727      2.505    22.6022 0.0000e+00
      1.777      0.058     6.8483     79.240     35.833  34.116417     5.0844      7.103   277.6742 9.9205e+00     2.1590      1.746      2.532    22.6016 0.0000e+00
      1.787      0.047     6.8498     79.256     35.846  34.128382     5.0752      7.107   277.7511 9.8606e+00     2.1419      1.756      2.546    22.6005 0.0000e+00
      1.792      0.041     6.8559     79.327     35.839  34.121972     5.0790      7.110   277.9539 9.8378e+00     2.1207      1.758      2.550    22.5995 0.0000e+00
      1.795      0.042     6.8654     79.437     35.819  34.102433     5.0847      7.110   278.2334 9.7849e+00     2.1166      1.759      2.552    22.5987 0.0000e+00
      1.801      0.052     6.8734     79.529     35.799  34.082696     5.0891      7.108   278.6351 9.6813e+00     2.1535      1.764      2.559    22.5984 0.0000e+00
      1.814      0.068     6.8766     79.563     35.791  34.073874     5.1410      7.103   279.0256 9.4937e+00     2.2007      1.775      2.575    22.5987 0.0000e+00
      1.834      0.085     6.8742     79.528     35.779  34.059287     5.2250      7.098   279.2546 9.1918e+00     2.2590      1.797      2.606    22.5989 0.0000e+00
      1.862      0.100     6.8673     79.436     35.757  34.033349     5.2591      7.095   279.4248 8.8324e+00     2.3090      1.826      2.648    22.5992 0.0000e+00
      1.894      0.109     6.8578     79.316     35.743  34.014329     5.2685      7.093   279.4489 8.4708e+00     2.3168      1.858      2.694    22.5990 0.0000e+00
      1.928      0.110     6.8483     79.197     35.753  34.019863     5.3667      7.093   279.2886 8.1331e+00     2.2924      1.892      2.744    22.5974 0.0000e+00
      1.960      0.105     6.8404     79.101     35.773  34.036738     5.5359      7.093   279.2927 7.8549e+00     2.2594      1.924      2.791    22.5931 0.0000e+00
      1.986      0.096     6.8357     79.045     35.764  34.027808     5.6229      7.094   279.4125 7.6596e+00     2.2531      1.951      2.829    22.5845 0.0000e+00
      2.007      0.086     6.8352     79.040     35.709  33.975404     5.6286      7.094   279.3600 7.5315e+00     2.2776      1.969      2.855    22.5761 0.0000e+00
      2.024      0.079     6.8397     79.088     35.643  33.911263     5.6323      7.095   279.3474 7.4123e+00     2.3109      1.985      2.879    22.5707 0.0000e+00
      2.041      0.075     6.8486     79.181     35.623  33.887443     5.6034      7.097   279.5175 7.2910e+00     2.3189      2.003      2.905    22.5667 0.0000e+00
      2.058      0.075     6.8596     79.292     35.622  33.877933     5.5462      7.098   279.6958 7.1676e+00     2.2833      2.018      2.926    22.5662 0.0000e+00
      2.076      0.077     6.8696     79.390     35.612  33.859796     5.5188      7.098   279.6971 7.0014e+00     2.2467      2.034      2.951    22.5668 0.0000e+00
      2.098      0.080     6.8775     79.468     35.617  33.858691     5.5218      7.099   279.5334 6.8076e+00     2.2428      2.057      2.984    22.5669 0.0000e+00
      2.121      0.083     6.8839     79.532     35.561  33.801035     5.4991      7.100   279.5228 6.6347e+00     2.2678      2.080      3.017    22.5609 0.0000e+00
      2.143      0.086     6.8865     79.548     35.364  33.607286     5.4378      7.100   279.8278 6.4729e+00     2.3042      2.102      3.048    22.5467 0.0000e+00
      2.164      0.090     6.8841     79.487     35.051  33.294538     5.3955      7.097   280.2094 6.3027e+00     2.3166      2.123      3.080    22.5343 0.0000e+00
      2.184      0.094     6.8804     79.361     34.719  32.941296     5.3830      7.093   280.4366 6.1205e+00     2.2955      2.141      3.106    22.5257 0.0000e+00
      2.207      0.097     6.8800     79.209     34.538  32.702472     5.3329      7.088   280.5102 5.9058e+00     2.2932      2.161      3.136    22.5192 0.0000e+00
      2.235      0.097     6.8848     79.069     34.555  32.629820     5.2494      7.085   280.4964 5.6830e+00     2.3201      2.191      3.178    22.5161 0.0000e+00
      2.265      0.093     6.8926     78.973     34.649  32.634357     5.2095      7.084   280.4425 5.4985e+00     2.3150      2.221      3.222    22.5004 0.0000e+00
      2.293      0.087     6.8998     78.924     34.709  32.630187     5.2086      7.085   280.4611 5.3523e+00     2.2926      2.251      3.264    22.4515 0.0000e+00
      2.316      0.082     6.9020     78.857     34.699  32.579317     5.2477      7.086   280.6350 5.2489e+00     2.3537      2.274      3.298    22.3509 0.0000e+00
      2.331      0.078     6.8941     78.664     34.694  32.527336     5.3331      7.086   280.9963 5.1799e+00     2.4739      2.287      3.317    22.2062 0.0000e+00
      2.343      0.080     6.8704     78.269     34.736  32.509719     5.3865      7.085   281.3010 5.1109e+00     2.5255      2.297      3.332    22.0713 0.0000e+00
      2.357      0.086     6.8265     77.656     34.775  32.493258     5.3875      7.084   281.3942 5.0214e+00     2.5196      2.309      3.350    21.9882 0.0000e+00
      2.378      0.094     6.7650     76.875     34.775  32.455250     5.3643      7.081   281.4351 4.8755e+00     2.5248      2.328      3.376    21.9454 0.0000e+00
      2.409      0.099     6.6935     76.005     34.779  32.431192     5.3357      7.078   281.3648 4.6735e+00     2.5278      2.361      3.424    21.8800 0.0000e+00
      2.444      0.099     6.6175     75.104     34.825  32.456389     5.3266      7.076   281.2331 4.4917e+00     2.5251      2.399      3.479    21.7855 0.0000e+00
      2.476      0.092     6.5421     74.242     34.882  32.505832     5.3273      7.076   281.1330 4.3696e+00     2.5228      2.432      3.526    21.7052 0.0000e+00
      2.500      0.079     6.4743     73.494     34.886  32.520898     5.3169      7.076   281.0154 4.2965e+00     2.4993      2.456      3.563    21.6554 0.0000e+00
      2.515      0.065     6.4173     72.883     34.857  32.511543     5.2373      7.076   280.9299 4.2607e+00     2.4252      2.470      3.582    21.6170 0.0000e+00
      2.524      0.056     6.3755     72.443     34.847  32.519766     5.0995      7.075   280.9594 4.2220e+00     2.3289      2.474      3.589    21.5856 0.0000e+00
      2.532      0.055     6.3527     72.197     34.812  32.493321     5.0212      7.071   281.0274 4.1709e+00     2.2807      2.482      3.601    21.5815 0.0000e+00
      2.541      0.062     6.3454     72.084     34.777  32.445856     4.9979      7.064   280.9779 4.1194e+00     2.2999      2.490      3.611    21.6022 0.0000e+00
      2.554      0.074     6.3490     72.063     34.819  32.453954     4.9279      7.056   280.8764 4.0401e+00     2.5914      2.501      3.627    21.6314 0.0000e+00
      2.576      0.084     6.3595     72.119     34.863  32.464163     4.8096      7.048   280.8335 3.9161e+00     3.0893      2.524      3.661    21.6594 0.0000e+00
      2.606      0.088     6.3696     72.192     34.861  32.442217     4.7436      7.042   280.8037 3.7623e+00     3.3147      2.555      3.706    21.6792 0.0000e+00
      2.638      0.085     6.3737     72.222     34.871  32.442626     4.7177      7.039   280.6885 3.6202e+00     3.3327      2.588      3.754    21.6535 0.0000e+00
      2.666      0.076     6.3703     72.191     34.896  32.469098     4.4868      7.038   280.4731 3.5377e+00     3.7039      2.618      3.797    21.5961 0.0000e+00
      2.683      0.062     6.3583     72.076     34.926  32.508255     4.0660      7.036   280.3498 3.5130e+00     4.3849      2.635      3.822    21.5477 0.0000e+00
      2.691      0.047     6.3413     71.902     34.945  32.535004     3.8389      7.034   280.4026 3.4940e+00     4.7615      2.640      3.828    21.5193 0.0000e+00
      2.696      0.033     6.3250     71.734     34.940  32.538477     3.8177      7.031   280.5089 3.4653e+00     4.8695      2.643      3.832    21.5067 0.0000e+00
      2.702      0.023     6.3115     71.604     34.940  32.550262     3.7362      7.029   280.6034 3.4510e+00     5.4163      2.650      3.844    21.5127 0.0000e+00
      2.708      0.016     6.3038     71.534     34.931  32.550490     3.5795      7.028   280.5980 3.4544e+00     6.3677      2.657      3.854    21.5365 0.0000e+00
      2.712      0.013     6.3038     71.539     34.918  32.541244     3.4955      7.027   280.5295 3.4623e+00     6.9114      2.660      3.858    21.5464 0.0000e+00
      2.715      0.010     6.3093     71.601     34.945  32.565495     3.5011      7.024   280.4637 3.4687e+00     6.9853      2.662      3.861    21.5554 0.0000e+00
      2.716      0.006     6.3198     71.719     34.971  32.589651     3.5092      7.021   280.4043 3.4697e+00     6.9568      2.663      3.862    21.5788 0.0000e+00
      2.716      0.004     6.3348     71.890     34.960  32.579261     3.5015      7.019   280.4134 3.4692e+00     6.9327      2.663      3.862    21.5915 0.0000e+00
      2.717      0.003     6.3478     72.039     34.946  32.566903     3.4995      7.017   280.4015 3.4720e+00     6.9378      2.664      3.864    21.5924 0.0000e+00
      2.718      0.002     6.3554     72.126     34.946  32.567255     3.5036      7.015   280.3470 3.4622e+00     6.9579      2.665      3.866    21.5902 0.0000e+00
      2.719      0.002     6.3622     72.201     34.964  32.583519     3.4960      7.013   280.3564 3.4507e+00     7.0234      2.666      3.867    21.5886 0.0000e+00
      2.719      0.002     6.3684     72.271     35.021  32.636515     3.3803      7.011   280.3433 3.4686e+00     7.2413      2.666      3.867    21.5893 0.0000e+00
      2.719      0.001     6.3700     72.302     35.082  32.699930     3.1709      7.009   280.2744 3.5007e+00     7.5783      2.666      3.867    21.5911 0.0000e+00
      2.719      0.001     6.3665     72.301     35.077  32.715150     3.0689      7.009   280.2121 3.5137e+00     7.7713      2.667      3.868    21.5927 0.0000e+00
      2.719      0.001     6.3622     72.300     35.028  32.693535     3.0655      7.007   280.1928 3.5178e+00     7.8054      2.667      3.868    21.5918 0.0000e+00
      2.719      0.002     6.3623     72.330     35.012  32.692669     3.1024      7.005   280.2980 3.5208e+00     7.6852      2.667      3.869    21.5879 0.0000e+00
      2.719      0.002     6.3690     72.405     35.026  32.704695     3.1834      7.005   280.4515 3.5142e+00     7.4474      2.666      3.868    21.5911 0.0000e+00
      2.720      0.002     6.3767     72.482     35.039  32.711913     3.2273      7.004   280.5013 3.5182e+00     7.3406      2.667      3.868    21.6243 0.0000e+00
      2.721      0.003     6.3797     72.521     35.041  32.716417     3.2284      7.001   280.4695 3.5266e+00     7.3709      2.669      3.871    21.6688 0.0000e+00
      2.723      0.003     6.3805     72.534     35.017  32.695648     3.1524      6.999   280.4111 3.5134e+00     7.5997      2.670      3.873    21.6919 0.0000e+00
      2.723      0.004     6.3838     72.548     34.983  32.651339     3.0062      6.998   280.3115 3.4923e+00     8.0015      2.670      3.873    21.6844 0.0000e+00
      2.724      0.004     6.3900     72.585     34.973  32.625259     2.9215      6.997   280.2110 3.5049e+00     8.2002      2.671      3.874    21.6643 0.0000e+00
      2.725      0.004     6.3974     72.638     34.998  32.634342     2.9190      6.996   280.2286 3.5422e+00     8.2015      2.672      3.876    21.6771 0.0000e+00
      2.726      0.004     6.4038     72.673     35.018  32.634122     3.0307      6.996   280.3524 3.5668e+00     8.1093      2.673      3.877    21.6938 0.0000e+00
      2.727      0.005     6.4088     72.691     35.026  32.622566     3.2157      6.994   280.4177 3.5826e+00     7.9098      2.674      3.878    21.6634 0.0000e+00
      2.728      0.005     6.4111     72.701     35.034  32.621611     3.2994      6.993   280.4160 3.5793e+00     7.8024      2.675      3.881    21.6355 0.0000e+00
      2.730 -9.990e-29 -9.990e-29 -9.990e-29 -9.990e-29 -9.990e-29 -9.990e-29 -9.990e-29 -9.990e-29 3.5604e+00 -9.990e-29      2.677      3.883    21.6232 0.0000e+00
      2.731 -9.990e-29 -9.990e-29 -9.990e-29 -9.990e-29 -9.990e-29 -9.990e-29 -9.990e-29 -9.990e-29 3.5516e+00 -9.990e-29      2.678      3.885    21.5923 0.0000e+00
      2.733 -9.990e-29 -9.990e-29 -9.990e-29 -9.990e-29 -9.990e-29 -9.990e-29 -9.990e-29 -9.990e-29 3.5455e+00 -9.990e-29      2.680      3.888    21.5573 0.0000e+00
      2.733 -9.990e-29 -9.990e-29 -9.990e-29 -9.990e-29 -9.990e-29 -9.990e-29 -9.990e-29 -9.990e-29 3.5400e+00 -9.990e-29      2.681      3.889    21.5419 0.0000e+00
