* Sea-Bird SBE19plus  Data File:
* FileName = C:\DATA\092418_fcr_0005.hex
* Software version 2.6.3.104
* Temperature SN = 7809
* Conductivity SN = 7809
* System UpLoad Time = Sep 24 2018 16:49:21
* <ApplicationData>
* <Seaterm232>
* <SoftwareVersion>2.6.3.104</SoftwareVersion>
* <BuildDate>30-Jun-2017</BuildDate>
* </Seaterm232>
* </ApplicationData>
* <InstrumentState>
* <HardwareData DeviceType='SBE19plus' SerialNumber='01907809'>
*
*    <Manufacturer>Sea-Bird Electronics, Inc.</Manufacturer>
*
*    <FirmwareVersion>3.1.8</FirmwareVersion>
*
*    <FirmwareDate>Mar  9 2016 16:22:29</FirmwareDate>
*
*    <CommandSetVersion>1.4</CommandSetVersion>
*
*    <PCBAssembly PCBSerialNum='120721' AssemblyNum='41054J'/>
*
*    <PCBAssembly PCBSerialNum='120715' AssemblyNum='41967A'/>
*
*    <PCBAssembly PCBSerialNum='116699' AssemblyNum='41606'/>
*
*    <PCBAssembly PCBSerialNum='120719' AssemblyNum='41059D'/>
*
*    <MfgDate>28-Apr-2017</MfgDate>
*
*    <InternalSensors>
*
*       <Sensor id='Main Temperature'>
*
*          <type>temperature0</type>
*
*          <SerialNumber>01907809</SerialNumber>
*
*       </Sensor>
*
*       <Sensor id='Main Conductivity'>
*
*          <type>conductivity-0</type>
*
*          <SerialNumber>01907809</SerialNumber>
*
*       </Sensor>
*
*       <Sensor id='Main Pressure'>
*
*          <type>strain-0</type>
*
*          <SerialNumber>10586018</SerialNumber>
*
*       </Sensor>
*
*    </InternalSensors>
*
*    <ExternalSensors>
*
*       <Sensor id='volt 0'>
*
*          <type>pH</type>
*
*          <SerialNumber>27-0363</SerialNumber>
*
*       </Sensor>
*
*       <Sensor id='volt 1'>
*
*          <type>ORP</type>
*
*          <SerialNumber>27-0363</SerialNumber>
*
*       </Sensor>
*
*       <Sensor id='volt 2'>
*
*          <type>OXY</type>
*
*          <SerialNumber>43-0434</SerialNumber>
*
*       </Sensor>
*
*       <Sensor id='volt 3'>
*
*          <type>PAR</type>
*
*          <SerialNumber>1122</SerialNumber>
*
*       </Sensor>
*
*       <Sensor id='volt 4'>
*
*          <type>ECO AFL/FL</type>
*
*          <SerialNumber>FLNTURT-2496</SerialNumber>
*
*       </Sensor>
*
*       <Sensor id='volt 5'>
*
*          <type>ECO-NTU</type>
*
*          <SerialNumber>FLNTURT-2496</SerialNumber>
*
*       </Sensor>
*
*       <Sensor id='serial'>
*
*          <type>not assigned</type>
*
*          <SerialNumber>not assigned</SerialNumber>
*
*       </Sensor>
*
*    </ExternalSensors>
*
* </HardwareData>
* <StatusData DeviceType='SBE19plus' SerialNumber='01907809'>
*
*    <DateTime>2018-09-24T20:47:01</DateTime>
*
*    <LoggingState>not logging</LoggingState>
*
*    <EventSummary numEvents='0'/>
*
*    <Power>
*
*       <vMain>12.8</vMain>
*
*       <vLith>8.5</vLith>
*
*       <iMain>63.2</iMain>
*
*       <iPump>43.8</iPump>
*
*       <iExt01>14.3</iExt01>
*
*       <iExt2345>44.7</iExt2345>
*
*    </Power>
*
*    <MemorySummary>
*
*       <Bytes>110745</Bytes>
*
*       <Samples>4815</Samples>
*
*       <SamplesFree>2855973</SamplesFree>
*
*       <SampleLength>23</SampleLength>
*
*       <Profiles>5</Profiles>
*
*    </MemorySummary>
*
* </StatusData>
* <ConfigurationData DeviceType='SBE19plus' SerialNumber='01907809'>
*
*    <ProfileMode>
*
*       <ScansToAverage>1</ScansToAverage>
*
*       <MinimumCondFreq>5</MinimumCondFreq>
*
*       <PumpDelay>45</PumpDelay>
*
*       <AutoRun>no</AutoRun>
*
*       <IgnoreSwitch>no</IgnoreSwitch>
*
*    </ProfileMode>
*
*    <Battery>
*
*       <Type>alkaline</Type>
*
*       <CutOff>7.5</CutOff>
*
*    </Battery>
*
*    <DataChannels>
*
*       <ExtVolt0>yes</ExtVolt0>
*
*       <ExtVolt1>yes</ExtVolt1>
*
*       <ExtVolt2>yes</ExtVolt2>
*
*       <ExtVolt3>yes</ExtVolt3>
*
*       <ExtVolt4>yes</ExtVolt4>
*
*       <ExtVolt5>yes</ExtVolt5>
*
*       <SBE38>no</SBE38>
*
*       <WETLABS>no</WETLABS>
*
*       <OPTODE>no</OPTODE>
*
*       <SBE63>no</SBE63>
*
*       <SeaFET>no</SeaFET>
*
*       <GTD>no</GTD>
*
*    </DataChannels>
*
*    <EchoCharacters>yes</EchoCharacters>
*
*    <OutputExecutedTag>yes</OutputExecutedTag>
*
*    <OutputFormat>raw HEX</OutputFormat>
*
* </ConfigurationData>
* <CalibrationCoefficients DeviceType='SBE19plus' SerialNumber='01907809'>
*
*    <Calibration format='TEMP1' id='Main Temperature'>
*
*       <SerialNum>01907809</SerialNum>
*
*       <CalDate>09-Mar-18</CalDate>
*
*       <TA0>1.210932e-03</TA0>
*
*       <TA1>2.843566e-04</TA1>
*
*       <TA2>-1.945074e-06</TA2>
*
*       <TA3>2.128067e-07</TA3>
*
*       <TOFFSET>0.000000e+00</TOFFSET>
*
*    </Calibration>
*
*    <Calibration format='WBCOND0' id='Main Conductivity'>
*
*       <SerialNum>01907809</SerialNum>
*
*       <CalDate>09-Mar-18</CalDate>
*
*       <G>-1.006721e+00</G>
*
*       <H>1.269065e-01</H>
*
*       <I>-1.405844e-04</I>
*
*       <J>2.478371e-05</J>
*
*       <CPCOR>-9.570000e-08</CPCOR>
*
*       <CTCOR>3.250000e-06</CTCOR>
*
*       <CSLOPE>1.000000e+00</CSLOPE>
*
*    </Calibration>
*
*    <Calibration format='STRAIN0' id='Main Pressure'>
*
*       <SerialNum>10586018</SerialNum>
*
*       <CalDate>07-Mar-18</CalDate>
*
*       <PA0>-4.081764e-02</PA0>
*
*       <PA1>4.851884e-04</PA1>
*
*       <PA2>-3.511682e-12</PA2>
*
*       <PTCA0>5.252134e+05</PTCA0>
*
*       <PTCA1>1.795324e+00</PTCA1>
*
*       <PTCA2>-2.843535e-01</PTCA2>
*
*       <PTCB0>2.516687e+01</PTCB0>
*
*       <PTCB1>3.750000e-04</PTCB1>
*
*       <PTCB2>0.000000e+00</PTCB2>
*
*       <PTEMPA0>-5.378069e+01</PTEMPA0>
*
*       <PTEMPA1>5.366207e+01</PTEMPA1>
*
*       <PTEMPA2>4.872143e-02</PTEMPA2>
*
*       <POFFSET>5.000000e-01</POFFSET>
*
*       <PRANGE>1.600000e+02</PRANGE>
*
*    </Calibration>
*
*    <Calibration format='VOLT0' id='Volt 0'>
*
*       <OFFSET>-4.920000e-02</OFFSET>
*
*       <SLOPE>1.248122e+00</SLOPE>
*
*    </Calibration>
*
*    <Calibration format='VOLT0' id='Volt 1'>
*
*       <OFFSET>-4.784000e-02</OFFSET>
*
*       <SLOPE>1.248871e+00</SLOPE>
*
*    </Calibration>
*
*    <Calibration format='VOLT0' id='Volt 2'>
*
*       <OFFSET>-4.864632e-02</OFFSET>
*
*       <SLOPE>1.248714e+00</SLOPE>
*
*    </Calibration>
*
*    <Calibration format='VOLT0' id='Volt 3'>
*
*       <OFFSET>-4.743790e-02</OFFSET>
*
*       <SLOPE>1.248571e+00</SLOPE>
*
*    </Calibration>
*
*    <Calibration format='VOLT0' id='Volt 4'>
*
*       <OFFSET>-4.671263e-02</OFFSET>
*
*       <SLOPE>1.248951e+00</SLOPE>
*
*    </Calibration>
*
*    <Calibration format='VOLT0' id='Volt 5'>
*
*       <OFFSET>-4.871053e-02</OFFSET>
*
*       <SLOPE>1.249136e+00</SLOPE>
*
*    </Calibration>
*
*    <Calibration format='FREQ0' id='external frequency channel'>
*
*       <EXTFREQSF>1.000014e+00</EXTFREQSF>
*
*    </Calibration>
*
* </CalibrationCoefficients>
* <EventCounters DeviceType='SBE19plus' SerialNumber='01907809'>
*
*    <EventSummary numEvents='0'/>
*
* </EventCounters></InstrumentState>
* <Headers>
*
* cast   5 24 Sep 2018 17:47:13 samples 3875 to 4815, avg = 1, stop = mag switch
*
# nquan = 17
# nvalues = 768                         
# units = specified
# name 0 = depFM: Depth [fresh water, m]
# name 1 = tv290C: Temperature [ITS-90, deg C]
# name 2 = sbeox0Mg/L: Oxygen, SBE 43 [mg/l]
# name 3 = sbeox0PS: Oxygen, SBE 43 [% saturation]
# name 4 = c0uS/cm: Conductivity [uS/cm]
# name 5 = specc: Specific Conductance [uS/cm]
# name 6 = ph: pH
# name 7 = orp: Oxidation Reduction Potential [mV]
# name 8 = flECO-AFL: Fluorescence, WET Labs ECO-AFL/FL [mg/m^3]
# name 9 = turbWETntu0: Turbidity, WET Labs ECO [NTU]
# name 10 = sal00: Salinity, Practical [PSU]
# name 11 = dz/dtM: Descent Rate [m/s]
# name 12 = prdM: Pressure, Strain Gauge [db]
# name 13 = prdE: Pressure, Strain Gauge [psi]
# name 14 = scan: Scan Count
# name 15 = par/sat/log: PAR/Logarithmic, Satlantic
# name 16 = flag:  0.000e+00
# span 0 =     -0.502,      9.809       
# span 1 =    12.8542,    22.0365       
# span 2 =     0.0103,     9.2819       
# span 3 =      0.115,    102.429       
# span 4 =  -0.521462, 148.581431       
# span 5 =      0.041,    196.209       
# span 6 =      6.358,      7.815       
# span 7 =    98.0005,  1240.2295       
# span 8 =    -0.2062,     7.2665       
# span 9 =    -0.3317,    40.2207       
# span 10 =     0.0089,     0.0929      
# span 11 =     -0.004,      0.198      
# span 12 =     -0.492,      9.618      
# span 13 =     -0.713,     13.950      
# span 14 =          1,        768      
# span 15 = 1.2348e-01, 1.8224e+02      
# span 16 = 0.0000e+00, 0.0000e+00      
# interval = seconds: 0.25
# start_time = Sep 24 2018 17:47:13 [Instrument's time stamp, header]
# bad_flag = -9.990e-29
# <Sensors count="9" >
#   <sensor Channel="1" >
#     <!-- Count, Temperature -->
#     <TemperatureSensor SensorID="58" >
#       <SerialNumber>7809</SerialNumber>
#       <CalibrationDate>09-Mar-18</CalibrationDate>
#       <A0>1.21093245e-003</A0>
#       <A1>2.84356597e-004</A1>
#       <A2>-1.94507398e-006</A2>
#       <A3>2.12806664e-007</A3>
#       <Slope>1.00000000</Slope>
#       <Offset>0.0000</Offset>
#     </TemperatureSensor>
#   </sensor>
#   <sensor Channel="2" >
#     <!-- Frequency 0, Conductivity -->
#     <ConductivitySensor SensorID="3" >
#       <SerialNumber>7809</SerialNumber>
#       <CalibrationDate>09-Mar-18</CalibrationDate>
#       <UseG_J>1</UseG_J>
#       <!-- Cell const and series R are applicable only for wide range sensors. -->
#       <SeriesR>0.0000</SeriesR>
#       <CellConst>2000.0000</CellConst>
#       <ConductivityType>0</ConductivityType>
#       <Coefficients equation="0" >
#         <A>0.00000000e+000</A>
#         <B>0.00000000e+000</B>
#         <C>0.00000000e+000</C>
#         <D>0.00000000e+000</D>
#         <M>0.0</M>
#         <CPcor>-9.57000000e-008</CPcor>
#       </Coefficients>
#       <Coefficients equation="1" >
#         <G>-1.00672082e+000</G>
#         <H>1.26906489e-001</H>
#         <I>-1.40584351e-004</I>
#         <J>2.47837121e-005</J>
#         <CPcor>-9.57000000e-008</CPcor>
#         <CTcor>3.2500e-006</CTcor>
#         <!-- WBOTC not applicable unless ConductivityType = 1. -->
#         <WBOTC>0.00000000e+000</WBOTC>
#       </Coefficients>
#       <Slope>1.00000000</Slope>
#       <Offset>0.00000</Offset>
#     </ConductivitySensor>
#   </sensor>
#   <sensor Channel="3" >
#     <!-- Count, Pressure, Strain Gauge -->
#     <PressureSensor SensorID="46" >
#       <SerialNumber>7809</SerialNumber>
#       <CalibrationDate>07-Mar-18</CalibrationDate>
#       <PA0>-4.08176359e-002</PA0>
#       <PA1>4.85188419e-004</PA1>
#       <PA2>-3.51168169e-012</PA2>
#       <PTEMPA0>-5.37806900e+001</PTEMPA0>
#       <PTEMPA1>5.36620721e+001</PTEMPA1>
#       <PTEMPA2>4.87214332e-002</PTEMPA2>
#       <PTCA0>5.25213435e+005</PTCA0>
#       <PTCA1>1.79532409e+000</PTCA1>
#       <PTCA2>-2.84353509e-001</PTCA2>
#       <PTCB0>2.51668750e+001</PTCB0>
#       <PTCB1>3.75000000e-004</PTCB1>
#       <PTCB2>0.00000000e+000</PTCB2>
#       <Offset>0.000000</Offset>
#     </PressureSensor>
#   </sensor>
#   <sensor Channel="4" >
#     <!-- A/D voltage 0, pH -->
#     <pH_Sensor SensorID="43" >
#       <SerialNumber>0363</SerialNumber>
#       <CalibrationDate>16-Mar-18</CalibrationDate>
#       <Slope>4.6194</Slope>
#       <Offset>2.5947</Offset>
#     </pH_Sensor>
#   </sensor>
#   <sensor Channel="5" >
#     <!-- A/D voltage 1, Oxidation Reduction Potential -->
#     <OxidationReductionPotentialSensor SensorID="41" >
#       <SerialNumber>0363</SerialNumber>
#       <CalibrationDate>16-Mar-18</CalibrationDate>
#       <B>2.499480</B>
#       <M>-0.496195</M>
#       <Offset>0.0</Offset>
#     </OxidationReductionPotentialSensor>
#   </sensor>
#   <sensor Channel="6" >
#     <!-- A/D voltage 2, Oxygen, SBE 43 -->
#     <OxygenSensor SensorID="38" >
#       <SerialNumber>0434</SerialNumber>
#       <CalibrationDate>13-Mar-18</CalibrationDate>
#       <Use2007Equation>1</Use2007Equation>
#       <CalibrationCoefficients equation="0" >
#         <!-- Coefficients for Owens-Millard equation. -->
#         <Boc>0.0000</Boc>
#         <Soc>0.0000e+000</Soc>
#         <offset>0.0000</offset>
#         <Pcor>0.00e+000</Pcor>
#         <Tcor>0.0000</Tcor>
#         <Tau>0.0</Tau>
#       </CalibrationCoefficients>
#       <CalibrationCoefficients equation="1" >
#         <!-- Coefficients for Sea-Bird equation - SBE calibration in 2007 and later. -->
#         <Soc>4.5718e-001</Soc>
#         <offset>-0.6113</offset>
#         <A>-4.0649e-003</A>
#         <B> 2.0945e-004</B>
#         <C>-3.3182e-006</C>
#         <D0> 2.5826e+000</D0>
#         <D1> 1.92634e-004</D1>
#         <D2>-4.64803e-002</D2>
#         <E> 3.6000e-002</E>
#         <Tau20> 1.2200</Tau20>
#         <H1>-3.3000e-002</H1>
#         <H2> 5.0000e+003</H2>
#         <H3> 1.4500e+003</H3>
#       </CalibrationCoefficients>
#     </OxygenSensor>
#   </sensor>
#   <sensor Channel="7" >
#     <!-- A/D voltage 3, PAR/Logarithmic, Satlantic -->
#     <PARLog_SatlanticSensor SensorID="76" >
#       <SerialNumber>1122</SerialNumber>
#       <CalibrationDate>22-Jun-2017</CalibrationDate>
#       <a0>9.6090e-001</a0>
#       <a1>8.0780e-001</a1>
#       <Im>1.3589e+000</Im>
#       <Multiplier>1.0000e+000</Multiplier>
#     </PARLog_SatlanticSensor>
#   </sensor>
#   <sensor Channel="8" >
#     <!-- A/D voltage 4, Fluorometer, WET Labs ECO-AFL/FL -->
#     <FluoroWetlabECO_AFL_FL_Sensor SensorID="20" >
#       <SerialNumber>FLNTURT-2496</SerialNumber>
#       <CalibrationDate>25-Jan-2017</CalibrationDate>
#       <ScaleFactor>5.30000000e+001</ScaleFactor>
#       <!-- Dark output -->
#       <Vblank>0.0560</Vblank>
#     </FluoroWetlabECO_AFL_FL_Sensor>
#   </sensor>
#   <sensor Channel="9" >
#     <!-- A/D voltage 5, Turbidity Meter, WET Labs, ECO-NTU -->
#     <TurbidityMeter SensorID="67" >
#       <SerialNumber>FLNTURT-2496</SerialNumber>
#       <CalibrationDate>25-Jan-2017</CalibrationDate>
#       <ScaleFactor>176.000000</ScaleFactor>
#       <!-- Dark output -->
#       <DarkVoltage>0.072000</DarkVoltage>
#     </TurbidityMeter>
#   </sensor>
# </Sensors>
# datcnv_date = Sep 24 2018 16:53:17, 7.26.7.114 [datcnv_vars = 16]
# datcnv_in = C:\DATA\092418_fcr50.hex C:\DATA\SBE19plusV2_7809.xmlcon
# datcnv_skipover = 0
# datcnv_ox_hysteresis_correction = yes
# datcnv_ox_tau_correction = yes
# filter_date = Sep 24 2018 16:53:35, 7.26.7.114
# filter_in = C:\DATA\092418_fcr50.cnv
# filter_low_pass_tc_A = 0.030
# filter_low_pass_tc_B = 0.150
# filter_low_pass_A_vars = tv290C c0uS/cm par/sat/log
# filter_low_pass_B_vars = prdM prdE
# alignctd_date = Sep 24 2018 16:53:52, 7.26.7.114
# alignctd_in = C:\DATA\092418_fcr50.cnv
# alignctd_adv = tv290C 0.500, sbeox0Mg/L 3.000, sbeox0PS 3.000                                                                                                                                                                      
# file_type = ascii
*END*
     -0.501    17.5300     9.2656     96.928   1.248877      1.485      6.441  1240.2295    -0.1819    -0.0497     0.0090 -2.105e-16     -0.492     -0.713          1 1.6780e+02 0.0000e+00
     -0.501    17.5298     9.2645     96.917   0.723154      0.861      6.437  1240.2295    -0.1941     0.0040     0.0089 -1.053e-16     -0.492     -0.713          2 1.6312e+02 0.0000e+00
     -0.501    17.5290     9.2627     96.899   0.178871      0.173      6.437  1240.2295    -0.1860    -0.1169     0.0090      0.000     -0.492     -0.713          3 1.5272e+02 0.0000e+00
     -0.501    17.5272     9.2581     96.850   0.120205      0.173      6.442  1240.2295    -0.1738    -0.0229     0.0090      0.000     -0.492     -0.713          4 1.5327e+02 0.0000e+00
     -0.502    17.5259     9.2544     96.809   0.736949      0.796      6.438  1240.2295    -0.1698    -0.0095     0.0089 -1.936e-12     -0.492     -0.713          5 1.5661e+02 0.0000e+00
     -0.501    17.5258     9.2514     96.774   0.743646      1.025      6.439  1240.2295    -0.1738     0.0577     0.0089      0.000     -0.492     -0.713          6 1.5579e+02 0.0000e+00
     -0.502    17.5263     9.2530     96.789   0.259908      0.107      6.435  1240.2295    -0.1738    -0.0229     0.0090     -0.000     -0.492     -0.713          7 1.5239e+02 0.0000e+00
     -0.501    17.5265     9.2563     96.822   0.391535      0.665      6.435  1240.2295    -0.1941    -0.1303     0.0089     -0.000     -0.492     -0.713          8 1.4598e+02 0.0000e+00
     -0.502    17.5268     9.2657     96.921   0.372585      0.238      6.435  1240.2295    -0.1860    -0.2109     0.0089     -0.000     -0.492     -0.713          9 1.4166e+02 0.0000e+00
     -0.501    17.5270     9.2729     96.998   0.135456      0.369      6.437  1240.2295    -0.2062    -0.2243     0.0089     -0.000     -0.492     -0.713         10 1.3857e+02 0.0000e+00
     -0.501    17.5273     9.2745     97.016   0.420177      0.238      6.440  1240.2295    -0.1779    -0.2243     0.0089     -0.000     -0.492     -0.713         11 1.3871e+02 0.0000e+00
     -0.501    17.5274     9.2819     97.094   0.610395      1.025      6.437  1240.2295    -0.1779    -0.1974     0.0089      0.000     -0.492     -0.713         12 1.4149e+02 0.0000e+00
     -0.501    17.5274     9.2807     97.081   0.490873      0.238      6.436  1240.2295    -0.2021    -0.2243     0.0089      0.000     -0.491     -0.712         13 1.5081e+02 0.0000e+00
     -0.501    17.5272     9.2798     97.071   0.983425      1.485      6.437  1240.2295    -0.1698    -0.2914     0.0090      0.000     -0.491     -0.712         14 1.6812e+02 0.0000e+00
     -0.501    17.5263     9.2764     97.036   0.559960      0.402      6.439  1240.2295    -0.1941    -0.2109     0.0089      0.000     -0.491     -0.713         15 1.8037e+02 0.0000e+00
     -0.501    17.5245     9.2726     96.996   0.248075      0.468      6.441  1240.2295    -0.1860    -0.2243     0.0089      0.000     -0.491     -0.713         16 1.8224e+02 0.0000e+00
     -0.501    17.5234     9.2661     96.928   0.305705      0.238      6.438  1240.2295    -0.1981    -0.2646     0.0089      0.000     -0.491     -0.713         17 1.7979e+02 0.0000e+00
     -0.501    17.5229     9.2649     96.916  -0.044675      0.041      6.460  1240.2295    -0.1981    -0.1974     0.0091     -0.000     -0.491     -0.712         18 1.7861e+02 0.0000e+00
     -0.500    17.5235     9.2274     96.928   0.121594      0.041      6.453  1240.2295    -0.1496    -0.1974     0.0091      0.000     -0.491     -0.712         19 1.7867e+02 0.0000e+00
     -0.501    17.5235     9.0341     97.031   0.483672      0.665      6.448  1240.2295    -0.1738    -0.1706     0.0089      0.000     -0.491     -0.712         20 1.7380e+02 0.0000e+00
     -0.501    17.5252     8.8726     97.111   0.304099      0.304      6.445  1240.2295    -0.1819    -0.1974     0.0089      0.000     -0.491     -0.712         21 1.3935e+02 0.0000e+00
     -0.500    17.5236     8.7813     97.178   0.197033      0.238      6.447  1240.2295    -0.1819    -0.1437     0.0089      0.000     -0.491     -0.712         22 9.9344e+01 0.0000e+00
     -0.500    17.5264     8.7292     97.306   0.172816      0.238      6.445  1240.2295    -0.1658    -0.2109     0.0089      0.000     -0.491     -0.712         23 9.0630e+01 0.0000e+00
     -0.500    17.5217     8.6752     97.420   0.275026      0.238      6.444  1240.2295    -0.1779    -0.2377     0.0089      0.000     -0.491     -0.712         24 8.9958e+01 0.0000e+00
     -0.500    17.5293     8.6378     97.518   0.129048      0.304      6.443  1240.2295    -0.1860    -0.1706     0.0089      0.000     -0.491     -0.712         25 9.1302e+01 0.0000e+00
     -0.500    17.5168     8.6284     97.701   0.354483      0.173      6.444  1240.2295    -0.1658    -0.2243     0.0090      0.000     -0.490     -0.711         26 1.0090e+02 0.0000e+00
     -0.500    17.5372     8.6321     97.927  -0.064736      0.304      6.444  1240.2295    -0.1577    -0.3049     0.0089      0.000     -0.490     -0.711         27 1.1186e+02 0.0000e+00
     -0.499    17.5043     8.6346     98.070   0.591546      0.107      6.443  1240.2295    -0.2062    -0.1572     0.0090      0.001     -0.490     -0.711         28 1.1842e+02 0.0000e+00
     -0.500    17.7708     8.6468     98.305  -0.521462      0.304      6.444  1240.2295    -0.1941    -0.2512     0.0089      0.000     -0.486     -0.706         29 1.2407e+02 0.0000e+00
     -0.494    18.7846     8.6623     98.557   1.438808      0.238      6.444  1240.2295    -0.1779    -0.1706     0.0089      0.002     -0.464     -0.673         30 1.3410e+02 0.0000e+00
     -0.419    19.7569     8.6896     98.875  13.878749     17.514      6.595  1240.2295    -0.1698    -0.1706     0.0144      0.023     -0.409     -0.593         31 1.4468e+02 0.0000e+00
     -0.342    20.2928     8.7221     99.282  25.052481     27.596      7.050   299.0982    -0.2021    -0.0900     0.0188      0.058     -0.341     -0.495         32 1.5171e+02 0.0000e+00
     -0.285    20.6829     8.7535     99.683  32.335902     37.101      7.468   289.1039    -0.1819    -0.3317     0.0230      0.098     -0.284     -0.412         33 1.5663e+02 0.0000e+00
     -0.242    21.0430     8.7848    100.018  33.894803     36.800      7.708   285.5832    -0.1253    11.1894     0.0231      0.136     -0.236     -0.343         34 1.6141e+02 0.0000e+00
     -0.192    21.3240     8.8294    100.382  33.340953     36.870      7.812   288.5360    -0.1091    11.1492     0.0232      0.169     -0.192     -0.278         35 1.6762e+02 0.0000e+00
     -0.151    21.4737     8.8693    100.709  34.033240     36.720      7.815   293.1925    -0.1132    11.0955     0.0233      0.193     -0.157     -0.228         36 1.7035e+02 0.0000e+00
     -0.139    21.5729     8.9222    101.286  33.715172     36.534      7.782   294.0632    -0.1132    11.2566     0.0233      0.198     -0.137     -0.200         37 1.7166e+02 0.0000e+00
     -0.128    21.6322     8.9321    101.438  33.825624     36.294      7.729   297.2810     3.5544    40.2207     0.0232      0.181     -0.127     -0.184         38 1.7456e+02 0.0000e+00
     -0.120    21.6849     8.9957    102.200  33.628810     36.158      7.658   301.3696     3.5382    40.2207     0.0232      0.145     -0.120     -0.175         39 1.7323e+02 0.0000e+00
     -0.123    21.7209     9.0168    102.429  33.663504     36.052      7.594   293.7225     3.5382    40.1804     0.0231      0.108     -0.114     -0.165         40 1.7423e+02 0.0000e+00
     -0.104    21.7294     8.9297    101.457  33.663795     36.072      7.537   288.0817     3.5665    40.1804     0.0232      0.081     -0.094     -0.137         41 1.7848e+02 0.0000e+00
     -0.059    21.7459     8.7178     99.100  33.687734     36.042      7.549   295.4639     3.4857     1.9510     0.0232      0.070     -0.062     -0.090         42 1.7839e+02 0.0000e+00
     -0.029    21.7702     8.3876     95.404  33.426111     35.769      7.548   293.8739     3.4654     2.0182     0.0231      0.066     -0.033     -0.048         43 1.7774e+02 0.0000e+00
     -0.012    21.7558     8.0085     91.149  33.218345     35.515      7.547   293.6468     3.4816     1.9376     0.0230      0.068     -0.014     -0.020         44 1.7713e+02 0.0000e+00
      0.000    21.6850     7.6116     86.675  33.204917     35.498      7.477   292.3596     3.4937     1.9645     0.0230      0.075     -0.004     -0.005         45 1.7476e+02 0.0000e+00
     -0.000    21.6206     7.2268     82.326  33.205579     35.507      7.460   284.9774     3.4573     1.8705     0.0230      0.077      0.005      0.007         46 1.7323e+02 0.0000e+00
      0.016    21.6078     6.8884     78.491  33.158222     35.503      7.478   284.9774     3.4978     1.8436     0.0229      0.076      0.022      0.032         47 1.7707e+02 0.0000e+00
      0.056    21.6282     6.6314     75.584  33.204568     35.612      7.501   287.3246     3.4857     1.9645     0.0230      0.080      0.047      0.068         48 1.7054e+02 0.0000e+00
      0.070    21.6465     6.4432     73.456  33.147927     35.561      7.470   287.0217     3.4654     2.0182     0.0229      0.075      0.059      0.085         49 1.5144e+02 0.0000e+00
      0.052    21.6432     6.3367     72.250  33.288028     35.666      7.466   287.2489     3.4937     1.9107     0.0230      0.058      0.054      0.079         50 1.4970e+02 0.0000e+00
      0.049    21.6513     6.2833     71.640  33.652960     36.100      7.458   288.1953     3.4654     1.8705     0.0232      0.046      0.050      0.072         51 1.5245e+02 0.0000e+00
      0.051    21.6775     6.2578     71.337  33.761346     36.164      7.451   288.0817     3.4857     1.8570     0.0232      0.036      0.050      0.073         52 1.5080e+02 0.0000e+00
      0.053    21.7084     6.2461     71.188  33.805553     36.247      7.443   287.8167     3.4654     1.9645     0.0232      0.028      0.053      0.077         53 1.5125e+02 0.0000e+00
      0.058    21.7407     6.2368     71.075  33.894493     36.287      7.435   289.1039     3.5018     1.8705     0.0233      0.020      0.055      0.081         54 1.5010e+02 0.0000e+00
      0.059    21.7670     6.2111     70.782  33.887893     36.292      7.427   290.1639     3.4331     1.9510     0.0233      0.009      0.056      0.081         55 1.4952e+02 0.0000e+00
      0.056    21.7866     6.2043     70.703  33.754442     36.088      7.421   289.5203     3.4210     1.8839     0.0232     -0.001      0.055      0.080         56 1.4821e+02 0.0000e+00
      0.055    21.8010     6.2018     70.673  33.675036     36.008      7.411   288.7632     3.4290     1.8973     0.0232     -0.001      0.053      0.078         57 1.4732e+02 0.0000e+00
      0.054    21.8155     6.2119     70.785  33.690148     35.993      7.401   288.6496     3.4169     1.9510     0.0232      0.003      0.053      0.078         58 1.4705e+02 0.0000e+00
      0.055    21.8278     6.2273     70.955  33.676317     35.982      7.394   288.5360     3.5018     1.7765     0.0232      0.002      0.054      0.079         59 1.4681e+02 0.0000e+00
      0.057    21.8331     6.2652     71.381  33.751552     36.030      7.389   289.1039     3.5018     1.5616     0.0232      0.001      0.056      0.081         60 1.4653e+02 0.0000e+00
      0.059    21.8318     6.3114     71.904  33.833757     36.140      7.375   289.7475     3.5059     1.7362     0.0232      0.001      0.058      0.084         61 1.4637e+02 0.0000e+00
      0.060    21.8232     6.3483     72.321  33.840909     36.106      7.370   290.5046     3.4937     1.6959     0.0232      0.001      0.059      0.086         62 1.4624e+02 0.0000e+00
      0.060    21.8123     6.3887     72.781  33.979892     36.286      7.364   291.2617     3.4210     1.9376     0.0233      0.002      0.059      0.086         63 1.4612e+02 0.0000e+00
      0.061    21.8070     6.4120     73.049  34.164939     36.472      7.361   290.8832     3.4129     1.8973     0.0234      0.003      0.059      0.086         64 1.4627e+02 0.0000e+00
      0.060    21.8064     6.4290     73.245  34.292706     36.630      7.361   290.0125     3.4129     1.9107     0.0234      0.004      0.059      0.086         65 1.4700e+02 0.0000e+00
      0.061    21.8058     6.4317     73.275  34.473324     36.813      7.362   290.0125     3.4129     1.8436     0.0235      0.003      0.060      0.087         66 1.4755e+02 0.0000e+00
      0.062    21.8044     6.4263     73.215  34.711231     37.082      7.359   290.8453     3.5018     1.6556     0.0236      0.003      0.060      0.088         67 1.4777e+02 0.0000e+00
      0.062    21.8024     6.4147     73.088  34.945649     37.321      7.355   290.4289     3.5018     1.7630     0.0237      0.002      0.060      0.088         68 1.4826e+02 0.0000e+00
      0.061    21.7985     6.4000     72.926  35.100958     37.502      7.353   290.3910     3.4897     1.6959     0.0238      0.001      0.060      0.087         69 1.4851e+02 0.0000e+00
      0.061    21.7943     6.3906     72.823  35.111094     37.503      7.349   290.8832     3.4452     1.6959     0.0238      0.001      0.060      0.087         70 1.4870e+02 0.0000e+00
      0.061    21.7915     6.3831     72.740  35.110980     37.506      7.350   291.7160     3.4897     1.7899     0.0238      0.000      0.059      0.086         71 1.4895e+02 0.0000e+00
      0.061    21.7893     6.3832     72.741  35.130759     37.539      7.346   292.7760     3.2794     1.6959     0.0238      0.000      0.059      0.086         72 1.4874e+02 0.0000e+00
      0.061    21.7891     6.3913     72.836  35.056824     37.452      7.342   292.7760     3.2875     1.6556     0.0238      0.000      0.060      0.087         73 1.4837e+02 0.0000e+00
      0.061    21.7909     6.4001     72.929  34.995391     37.394      7.333   293.0789     3.3077     1.7362     0.0237     -0.000      0.060      0.087         74 1.4838e+02 0.0000e+00
      0.061    21.7923     6.3979     72.881  34.940297     37.335      7.331   293.2303     3.2794     1.6825     0.0237     -0.000      0.059      0.085         75 1.4808e+02 0.0000e+00
      0.058    21.7922     6.4012     72.894  34.888131     37.273      7.325   291.4510     3.5423     1.7093     0.0237     -0.001      0.057      0.082         76 1.4779e+02 0.0000e+00
      0.056    21.7931     6.3871     72.716  34.882368     37.272      7.322   290.5425     3.5423     1.7496     0.0237     -0.002      0.056      0.081         77 1.4801e+02 0.0000e+00
      0.056    21.7967     6.3704     72.518  34.947469     37.332      7.323   290.7317     3.5544     1.7093     0.0237     -0.003      0.056      0.081         78 1.4798e+02 0.0000e+00
      0.058    21.8003     6.3465     72.235  35.103686     37.511      7.327   290.9210     3.5544     1.7496     0.0238     -0.003      0.057      0.082         79 1.4816e+02 0.0000e+00
      0.060    21.8034     6.3175     71.897  35.370076     37.776      7.326   291.2239     3.5301     1.9376     0.0239     -0.002      0.058      0.084         80 1.4798e+02 0.0000e+00
      0.061    21.8049     6.2842     71.500  35.713281     38.162      7.327   290.8453     3.5099     1.9645     0.0241     -0.001      0.059      0.086         81 1.4785e+02 0.0000e+00
      0.062    21.8048     6.2467     71.056  36.129817     38.577      7.326   290.8075     3.5423     2.0450     0.0242      0.001      0.061      0.089         82 1.4807e+02 0.0000e+00
      0.064    21.8063     6.2123     70.651  36.512584     39.024      7.328   290.5046     3.5463     1.8436     0.0244      0.003      0.063      0.091         83 1.4824e+02 0.0000e+00
      0.065    21.8016     6.1643     70.098  36.749543     39.233      7.324   290.2775     3.4857     1.7228     0.0245      0.005      0.064      0.093         84 1.4830e+02 0.0000e+00
      0.066    21.7856     6.1215     69.608  36.873003     39.411      7.321   290.7317     3.4573     1.6959     0.0246      0.005      0.064      0.093         85 1.4825e+02 0.0000e+00
      0.066    21.7674     6.0784     69.118  36.863154     39.355      7.316   290.8832     3.4937     1.7362     0.0246      0.005      0.064      0.093         86 1.4826e+02 0.0000e+00
      0.064    21.7559     6.0350     68.624  36.880443     39.428      7.310   290.3153     3.4857     1.7228     0.0246      0.004      0.063      0.091         87 1.4794e+02 0.0000e+00
      0.061    21.7493     5.9966     68.185  36.792176     39.324      7.300   289.8989     3.4735     1.7362     0.0245      0.002      0.061      0.089         88 1.4761e+02 0.0000e+00
      0.062    21.7423     5.9512     67.662  36.676410     39.214      7.298   289.8989     3.4816     1.6422     0.0245      0.000      0.061      0.089         89 1.4760e+02 0.0000e+00
      0.063    21.7353     5.9044     67.126  36.668600     39.219      7.294   289.2175     3.4573     1.6556     0.0245     -0.001      0.062      0.090         90 1.4783e+02 0.0000e+00
      0.065    21.7239     5.8687     66.715  36.594282     39.136      7.286   289.9746     3.4614     1.7228     0.0245     -0.001      0.064      0.092         91 1.4779e+02 0.0000e+00
      0.066    21.7106     5.8291     66.254  36.531624     39.082      7.282   289.8232     3.4573     1.7899     0.0244     -0.000      0.064      0.093         92 1.4769e+02 0.0000e+00
      0.065    21.7011     5.7823     65.710  36.479645     39.032      7.275   290.3910     3.6070     1.7630     0.0244     -0.000      0.063      0.092         93 1.4774e+02 0.0000e+00
      0.064    21.6955     5.7309     65.113  36.481019     39.043      7.267   290.5803     3.6070     1.6690     0.0244      0.000      0.063      0.092         94 1.4780e+02 0.0000e+00
      0.064    21.6932     5.6925     64.665  36.440943     39.021      7.259   290.0882     3.6393     1.6556     0.0244      0.001      0.063      0.092         95 1.4770e+02 0.0000e+00
      0.064    21.6928     5.6388     64.042  36.381226     38.936      7.250   289.8232     3.6150     1.6690     0.0244      0.001      0.063      0.092         96 1.4776e+02 0.0000e+00
      0.065    21.6930     5.5970     63.555  36.407040     38.997      7.242   289.8989     3.6070     1.7899     0.0244      0.001      0.064      0.093         97 1.4815e+02 0.0000e+00
      0.066    21.6906     5.5514     63.025  36.379160     38.938      7.235   289.9746     3.6110     1.6422     0.0244      0.000      0.065      0.095         98 1.4794e+02 0.0000e+00
      0.066    21.6862     5.5079     62.519  36.297286     38.878      7.234   290.0503     3.6231     1.7496     0.0243      0.000      0.065      0.095         99 1.4791e+02 0.0000e+00
      0.066    21.6830     5.4640     62.010  36.271659     38.820      7.233   289.6339     3.6272     1.7630     0.0243      0.001      0.066      0.096        100 1.4852e+02 0.0000e+00
      0.070    21.6784     5.4247     61.552  36.262761     38.854      7.237   290.4667     3.6393     1.9645     0.0243      0.002      0.069      0.099        101 1.4866e+02 0.0000e+00
      0.073    21.6706     5.3871     61.115  36.130408     38.677      7.236   290.0882     3.6191     1.8705     0.0243      0.004      0.071      0.102        102 1.4869e+02 0.0000e+00
      0.073    21.6613     5.3542     60.732  36.050804     38.621      7.234   290.6182     3.6110     1.9645     0.0242      0.005      0.071      0.103        103 1.4863e+02 0.0000e+00
      0.073    21.6513     5.3231     60.369  36.005922     38.567      7.230   290.1639     3.6231     1.8570     0.0242      0.005      0.072      0.104        104 1.4881e+02 0.0000e+00
      0.073    21.6413     5.2965     60.057  35.948997     38.515      7.225   290.3910     3.7081     1.7899     0.0242      0.005      0.072      0.104        105 1.4912e+02 0.0000e+00
      0.074    21.6311     5.2510     59.532  35.943698     38.523      7.213   291.1482     3.6959     1.7496     0.0242      0.004      0.072      0.105        106 1.4906e+02 0.0000e+00
      0.074    21.6208     5.2352     59.344  35.893887     38.472      7.198   291.2239     3.6757     1.7899     0.0242      0.004      0.072      0.105        107 1.4942e+02 0.0000e+00
      0.074    21.6109     5.2116     59.067  35.892358     38.480      7.179   291.0725     3.6717     1.6959     0.0242      0.003      0.073      0.105        108 1.4966e+02 0.0000e+00
      0.075    21.6014     5.1894     58.806  35.945606     38.548      7.166   291.2996     3.5544     1.7362     0.0242      0.002      0.073      0.106        109 1.4959e+02 0.0000e+00
      0.074    21.5916     5.1667     58.540  35.886943     38.497      7.157   291.6025     3.5746     1.7630     0.0242      0.001      0.073      0.106        110 1.4991e+02 0.0000e+00
      0.074    21.5822     5.1397     58.225  35.846734     38.445      7.154   291.6025     3.5544     1.6959     0.0241      0.001      0.072      0.105        111 1.4987e+02 0.0000e+00
      0.074    21.5732     5.1218     58.013  35.847356     38.483      7.152   292.2839     3.5706     1.7496     0.0241      0.000      0.072      0.105        112 1.4968e+02 0.0000e+00
      0.074    21.5645     5.1012     57.769  35.797200     38.400      7.153   292.0946     3.5342     1.6825     0.0241      0.000      0.073      0.105        113 1.4990e+02 0.0000e+00
      0.074    21.5559     5.0889     57.620  35.701550     38.348      7.152   292.3975     3.3724     1.8167     0.0241      0.000      0.073      0.105        114 1.4962e+02 0.0000e+00
      0.073    21.5471     5.0703     57.408  35.669812     38.265      7.153   291.4510     3.3967     1.7630     0.0240     -0.000      0.073      0.105        115 1.4947e+02 0.0000e+00
      0.074    21.5397     5.0619     57.305  35.688410     38.362      7.151   291.9432     3.4412     1.8033     0.0241     -0.000      0.073      0.105        116 1.4964e+02 0.0000e+00
      0.073    21.5318     5.0639     57.317  35.619093     38.219      7.146   291.2239     3.4331     1.7362     0.0240     -0.000      0.072      0.104        117 1.4969e+02 0.0000e+00
      0.073    21.5233     5.0706     57.397  35.607789     38.285      7.139   291.4510     3.5544     1.7362     0.0240     -0.000      0.072      0.104        118 1.4924e+02 0.0000e+00
      0.073    21.5151     5.0770     57.468  35.494874     38.112      7.129   291.5267     3.5463     1.7630     0.0240     -0.000      0.072      0.104        119 1.4944e+02 0.0000e+00
      0.074    21.5072     5.0909     57.624  35.463038     38.119      7.123   291.4889     3.5746     1.7765     0.0240     -0.000      0.072      0.105        120 1.4894e+02 0.0000e+00
      0.074    21.4994     5.1051     57.784  35.528781     38.185      7.121   291.0725     3.5544     1.6825     0.0240     -0.000      0.072      0.105        121 1.4933e+02 0.0000e+00
      0.074    21.4912     5.1170     57.903  35.413061     38.072      7.113   291.3753     3.4735     1.9242     0.0239     -0.000      0.072      0.105        122 1.4811e+02 0.0000e+00
      0.074    21.4811     5.1293     58.035  35.429104     38.078      7.111   291.0346     3.4857     1.9376     0.0239      0.000      0.074      0.107        123 1.5040e+02 0.0000e+00
      0.078    21.4731     5.1270     58.007  35.568136     38.265      7.116   289.2932     3.4937     1.7630     0.0240      0.001      0.079      0.114        124 1.3979e+02 0.0000e+00
      0.088    21.4717     5.1222     57.942  35.803546     38.484      7.124   289.0660     3.4857     1.9107     0.0241      0.005      0.087      0.126        125 1.1743e+02 0.0000e+00
      0.101    21.4644     5.1092     57.786  35.907258     38.671      7.144   289.4446     3.4735     1.9107     0.0242      0.011      0.097      0.141        126 1.1735e+02 0.0000e+00
      0.108    21.4562     5.1006     57.682  35.676340     38.341      7.145   289.6717     3.4654     1.8973     0.0240      0.016      0.105      0.153        127 1.1662e+02 0.0000e+00
      0.113    21.4585     5.0812     57.469  35.764681     38.498      7.131   289.0660     3.4654     1.8839     0.0241      0.021      0.113      0.163        128 1.1532e+02 0.0000e+00
      0.124    21.4579     5.0716     57.373  35.856637     38.595      7.134   288.6117     3.4937     1.8973     0.0242      0.027      0.122      0.176        129 1.1436e+02 0.0000e+00
      0.133    21.4571     5.0739     57.391  35.799171     38.502      7.130   287.6653     3.7485     1.7362     0.0241      0.031      0.132      0.191        130 1.0721e+02 0.0000e+00
      0.146    21.4553     5.0781     57.431  35.865855     38.624      7.141   286.0753     3.7849     1.7899     0.0242      0.035      0.142      0.207        131 1.0894e+02 0.0000e+00
      0.157    21.4425     5.0784     57.429  35.803307     38.504      7.147   285.8482     3.7364     1.7899     0.0241      0.037      0.152      0.221        132 1.0801e+02 0.0000e+00
      0.163    21.4358     5.0823     57.467  35.610087     38.354      7.122   285.9996     3.7242     1.6690     0.0241      0.037      0.158      0.230        133 1.0716e+02 0.0000e+00
      0.164    21.4336     5.0787     57.418  35.335207     38.005      7.086   285.3939     3.7444     1.7362     0.0239      0.035      0.163      0.236        134 1.0810e+02 0.0000e+00
      0.170    21.4242     5.0666     57.275  35.344629     38.070      7.061   284.2960     3.6110     1.8436     0.0239      0.033      0.170      0.246        135 1.0560e+02 0.0000e+00
      0.184    21.4155     5.0690     57.302  35.479731     38.192      7.067   284.6367     3.6272     1.7630     0.0240      0.033      0.180      0.261        136 1.0484e+02 0.0000e+00
      0.194    21.4103     5.0515     57.101  35.463655     38.200      7.081   284.1446     3.6070     1.7362     0.0240      0.032      0.192      0.279        137 1.0332e+02 0.0000e+00
      0.210    21.4167     5.0346     56.898  35.542587     38.267      7.101   284.1446     3.6150     1.6959     0.0240      0.034      0.207      0.300        138 9.9254e+01 0.0000e+00
      0.229    21.4263     5.0167     56.682  35.767062     38.543      7.123   284.4853     3.5584     2.0182     0.0241      0.038      0.224      0.325        139 9.7756e+01 0.0000e+00
      0.245    21.4206     5.0041     56.536  35.718147     38.478      7.144   285.0153     3.5544     1.9107     0.0241      0.044      0.238      0.345        140 9.8061e+01 0.0000e+00
      0.253    21.4126     4.9886     56.354  35.484825     38.198      7.118   284.8260     3.5665     1.9510     0.0240      0.049      0.248      0.359        141 9.6238e+01 0.0000e+00
      0.260    21.4081     4.9861     56.318  35.404948     38.143      7.109   285.0910     3.5382     1.9376     0.0240      0.052      0.256      0.371        142 9.6107e+01 0.0000e+00
      0.269    21.4027     4.9724     56.160  35.372686     38.089      7.113   284.7882     3.6757     1.9376     0.0239      0.051      0.263      0.382        143 9.6877e+01 0.0000e+00
      0.275    21.3958     4.9643     56.068  35.406346     38.153      7.109   284.3339     3.6797     2.0047     0.0240      0.047      0.271      0.393        144 9.4247e+01 0.0000e+00
      0.286    21.3904     4.9583     55.990  35.422376     38.157      7.123   285.0532     3.6757     2.0584     0.0240      0.043      0.281      0.407        145 9.3340e+01 0.0000e+00
      0.298    21.3901     4.9581     55.976  35.352741     38.103      7.116   286.1889     3.6717     1.8839     0.0239      0.039      0.291      0.421        146 9.3959e+01 0.0000e+00
      0.304    21.3870     4.9635     56.046  35.255748     37.987      7.117   285.4696     3.5342     1.8570     0.0239      0.035      0.300      0.434        147 9.2873e+01 0.0000e+00
      0.314    21.3755     4.9810     56.230  35.305823     38.047      7.143   285.3939     3.5625     1.9645     0.0239      0.034      0.311      0.450        148 8.9580e+01 0.0000e+00
      0.333    21.3640     5.0171     56.629  35.468372     38.231      7.147   286.3782     3.5665     1.9779     0.0240      0.038      0.327      0.473        149 8.8122e+01 0.0000e+00
      0.351    21.3599     5.0851     57.379  35.350036     38.119      7.138   285.0910     3.5503     1.9510     0.0239      0.042      0.342      0.495        150 8.8483e+01 0.0000e+00
      0.359    21.3540     5.1871     58.529  35.275146     38.009      7.144   285.4317     3.5989     1.9510     0.0239      0.045      0.353      0.512        151 8.6439e+01 0.0000e+00
      0.372    21.3474     5.3028     59.837  35.383630     38.193      7.158   287.7032     3.5908     1.8705     0.0240      0.048      0.365      0.530        152 8.4551e+01 0.0000e+00
      0.388    21.3443     5.4124     61.094  35.333664     38.077      7.129   286.6810     3.6110     2.0450     0.0239      0.051      0.379      0.550        153 8.4077e+01 0.0000e+00
      0.400    21.3440     5.5177     62.360  35.070413     37.872      7.116   286.8324     3.6110     1.9376     0.0238      0.052      0.393      0.569        154 8.3278e+01 0.0000e+00
      0.413    21.3333     5.6207     63.616  35.177409     37.874      7.136   286.6432     3.6231     1.8839     0.0238      0.054      0.409      0.594        155 8.1038e+01 0.0000e+00
      0.442    21.3260     5.7171     64.737  35.556407     38.447      7.155   286.6810     3.6757     1.9242     0.0241      0.058      0.432      0.627        156 7.7708e+01 0.0000e+00
      0.468    21.3301     5.7810     65.514  35.162257     37.882      7.132   286.6053     3.6878     2.0047     0.0238      0.062      0.452      0.655        157 7.5613e+01 0.0000e+00
      0.469    21.3220     5.7992     65.765  34.748543     37.529      7.133   287.3624     3.6676     1.8570     0.0237      0.063      0.462      0.670        158 7.6268e+01 0.0000e+00
      0.478    21.3094     5.7950     65.727  35.092571     37.823      7.147   287.0217     3.6919     1.9510     0.0238      0.063      0.472      0.685        159 7.5742e+01 0.0000e+00
      0.501    21.2974     5.7589     65.336  35.356924     38.226      7.156   288.5739     4.0801     1.7362     0.0240      0.064      0.489      0.710        160 7.3969e+01 0.0000e+00
      0.518    21.2945     5.7141     64.875  35.042368     37.780      7.138   287.9303     4.0679     1.7228     0.0238      0.064      0.504      0.732        161 7.2654e+01 0.0000e+00
      0.522    21.2979     5.6598     64.252  34.861231     37.672      7.139   287.2489     4.0882     1.7362     0.0237      0.061      0.514      0.747        162 7.2140e+01 0.0000e+00
      0.536    21.3140     5.5954     63.489  35.196805     37.974      7.149   287.2110     4.0841     1.7496     0.0238      0.056      0.532      0.771        163 7.0517e+01 0.0000e+00
      0.570    21.3796     5.5470     62.896  35.603454     38.486      7.164   287.5896     4.2135     1.9242     0.0241      0.056      0.562      0.815        164 6.6380e+01 0.0000e+00
      0.614    21.4494     5.4952     62.280  35.808391     38.623      7.172   287.8167     4.1892     1.8436     0.0241      0.067      0.600      0.870        165 6.3196e+01 0.0000e+00
      0.651    21.4793     5.4614     61.865  35.861153     38.690      7.168   288.4603     4.2054     1.9376     0.0242      0.085      0.634      0.920        166 6.1545e+01 0.0000e+00
      0.674    21.5171     5.4428     61.630  35.597083     38.297      7.153   288.8389     4.1933     2.0047     0.0240      0.096      0.657      0.953        167 6.0298e+01 0.0000e+00
      0.683    21.5542     5.4358     61.538  35.098960     37.766      7.135   288.2332     4.2014     1.9913     0.0238      0.100      0.672      0.975        168 5.9126e+01 0.0000e+00
      0.699    21.5600     5.4369     61.532  35.235406     37.822      7.141   287.1732     4.2175     1.9645     0.0238      0.102      0.692      1.004        169 5.7081e+01 0.0000e+00
      0.739    21.5779     5.4532     61.701  35.664525     38.364      7.149   288.7632     4.1771     1.9510     0.0241      0.108      0.720      1.045        170 5.5088e+01 0.0000e+00
      0.765    21.6101     5.4642     61.916  35.276702     37.848      7.144   288.2332     4.1609     1.9107     0.0239      0.106      0.744      1.080        171 5.4870e+01 0.0000e+00
      0.772    21.6095     5.5371     62.979  34.946938     37.506      7.147   287.8925     4.1245     1.8705     0.0237      0.095      0.759      1.100        172 5.4168e+01 0.0000e+00
      0.788    21.5805     5.7301     65.354  35.096199     37.656      7.151   288.5360     4.1165     1.9242     0.0238      0.085      0.773      1.120        173 5.3162e+01 0.0000e+00
      0.803    21.5472     5.9997     68.531  34.942651     37.480      7.153   289.1039     4.1286     1.8436     0.0237      0.078      0.786      1.139        174 5.2783e+01 0.0000e+00
      0.810    21.5217     6.3431     72.512  34.782142     37.321      7.151   286.8324     4.1245     1.9242     0.0237      0.073      0.798      1.156        175 5.1756e+01 0.0000e+00
      0.827    21.4964     6.6489     76.039  34.999393     37.590      7.153   287.4382     4.1326     1.8570     0.0238      0.069      0.813      1.178        176 5.0623e+01 0.0000e+00
      0.849    21.4759     6.9292     79.260  35.087500     37.729      7.149   288.2332     3.9224     1.9645     0.0238      0.064      0.829      1.202        177 5.0022e+01 0.0000e+00
      0.857    21.4653     7.1574     81.880  34.850449     37.450      7.135   288.0060     3.9507     1.9913     0.0237      0.056      0.841      1.220        178 4.9243e+01 0.0000e+00
      0.869    21.4492     7.3109     83.641  34.879211     37.526      7.138   288.3467     3.8941     1.9376     0.0237      0.053      0.852      1.236        179 4.8416e+01 0.0000e+00
      0.883    21.4368     7.3877     84.525  34.933086     37.595      7.128   288.9525     3.9264     1.8167     0.0237      0.054      0.862      1.250        180 4.8447e+01 0.0000e+00
      0.884    21.5171     7.4084     84.767  34.902037     37.548      7.112   287.4760     4.1852     1.7496     0.0237      0.050      0.868      1.259        181 4.8168e+01 0.0000e+00
      0.891    21.7027     7.3640     84.261  34.650945     37.347      7.118   287.5139     4.2054     1.8033     0.0236      0.046      0.874      1.268        182 4.7335e+01 0.0000e+00
      0.899    21.8495     7.3050     83.589  34.207579     36.716      7.118   287.7032     4.2256     1.7630     0.0234      0.042      0.883      1.280        183 4.6801e+01 0.0000e+00
      0.909    21.9254     7.2431     82.883  34.178531     36.623      7.119   287.7032     4.1852     1.6422     0.0234      0.037      0.893      1.295        184 4.6199e+01 0.0000e+00
      0.922    21.9687     7.1813     82.178  34.182865     36.452      7.125   287.9303     4.2499     1.8167     0.0234      0.034      0.904      1.311        185 4.5669e+01 0.0000e+00
      0.932    21.9891     7.1284     81.574  34.202120     36.451      7.124   287.9682     4.2903     1.6690     0.0234      0.035      0.914      1.326        186 4.4940e+01 0.0000e+00
      0.942    22.0001     7.0830     81.056  34.302809     36.508      7.127   287.5517     4.2822     1.8167     0.0234      0.035      0.925      1.342        187 4.4055e+01 0.0000e+00
      0.958    22.0058     7.0576     80.765  34.294788     36.491      7.129   288.0439     4.2661     1.7093     0.0234      0.038      0.937      1.359        188 4.3834e+01 0.0000e+00
      0.965    22.0096     7.0345     80.500  34.212092     36.394      7.128   287.7032     4.0032     1.6690     0.0234      0.041      0.947      1.372        189 4.3392e+01 0.0000e+00
      0.973    22.0126     7.0295     80.440  34.227779     36.389      7.126   287.8167     3.9871     1.7899     0.0234      0.042      0.954      1.382        190 4.2780e+01 0.0000e+00
      0.978    22.0154     7.0185     80.314  34.275261     36.476      7.128   287.1353     4.0194     1.7899     0.0234      0.040      0.959      1.390        191 4.3313e+01 0.0000e+00
      0.982    22.0171     7.0179     80.308  34.241967     36.384      7.129   287.9682     4.0032     1.7899     0.0234      0.037      0.964      1.399        192 4.3055e+01 0.0000e+00
      0.990    22.0189     7.0135     80.264  34.269211     36.471      7.129   288.6117     4.2701     1.7093     0.0234      0.033      0.971      1.409        193 4.1615e+01 0.0000e+00
      1.000    22.0204     7.0081     80.209  34.241355     36.381      7.129   288.9525     4.2580     1.6422     0.0234      0.031      0.979      1.419        194 4.2136e+01 0.0000e+00
      1.002    22.0215     7.0015     80.135  34.276632     36.469      7.127   288.4225     4.2459     1.6959     0.0234      0.028      0.984      1.427        195 4.2406e+01 0.0000e+00
      1.006    22.0224     6.9905     80.011  34.225309     36.378      7.126   287.9682     4.2499     1.8167     0.0234      0.024      0.991      1.437        196 4.0839e+01 0.0000e+00
      1.023    22.0233     6.9781     79.871  34.216259     36.377      7.128   288.4603     4.2459     1.7093     0.0234      0.026      1.003      1.454        197 4.0041e+01 0.0000e+00
      1.037    22.0234     6.9634     79.702  34.287894     36.466      7.122   289.4825     4.4480     1.9645     0.0234      0.030      1.015      1.472        198 3.9917e+01 0.0000e+00
      1.043    22.0226     6.9590     79.652  34.225127     36.376      7.114   289.2553     4.4561     1.9107     0.0234      0.033      1.025      1.486        199 3.9694e+01 0.0000e+00
      1.054    22.0215     6.9603     79.668  34.205404     36.376      7.113   289.1039     4.4399     1.9510     0.0234      0.036      1.035      1.501        200 3.8932e+01 0.0000e+00
      1.069    22.0209     6.9678     79.753  34.223472     36.376      7.112   290.0882     4.4723     1.9376     0.0234      0.039      1.046      1.517        201 3.8673e+01 0.0000e+00
      1.076    22.0212     6.9775     79.864  34.202642     36.378      7.105   288.4603     4.2135     1.5616     0.0234      0.040      1.058      1.534        202 3.8333e+01 0.0000e+00
      1.092    22.0249     6.9851     79.954  34.231327     36.378      7.107   288.6117     4.1690     1.6153     0.0234      0.044      1.074      1.558        203 3.6839e+01 0.0000e+00
      1.120    22.0294     6.9999     80.124  34.276743     36.467      7.102   289.8989     4.1973     1.6959     0.0234      0.050      1.093      1.585        204 3.6611e+01 0.0000e+00
      1.129    22.0309     7.0124     80.268  34.235092     36.375      7.093   289.2932     4.1812     1.6422     0.0234      0.052      1.107      1.605        205 3.6406e+01 0.0000e+00
      1.139    22.0323     7.0217     80.375  34.194192     36.371      7.100   289.0660     4.7351     1.9510     0.0234      0.054      1.120      1.625        206 3.5377e+01 0.0000e+00
      1.162    22.0334     7.0244     80.405  34.179358     36.311      7.102   290.0882     4.7311     1.9510     0.0234      0.058      1.136      1.648        207 3.5296e+01 0.0000e+00
      1.173    22.0335     7.0175     80.327  34.194239     36.369      7.093   289.2932     4.7190     1.9107     0.0234      0.060      1.149      1.667        208 3.4910e+01 0.0000e+00
      1.180    22.0338     7.0124     80.268  34.175673     36.309      7.098   289.2175     4.7149     1.9107     0.0234      0.059      1.161      1.684        209 3.4107e+01 0.0000e+00
      1.201    22.0336     7.0017     80.146  34.232119     36.398      7.097   289.4067     4.3874     1.7362     0.0234      0.059      1.175      1.704        210 3.4352e+01 0.0000e+00
      1.209    22.0328     6.9926     80.041  34.301930     36.457      7.088   288.7253     4.3955     1.7496     0.0234      0.056      1.186      1.720        211 3.4171e+01 0.0000e+00
      1.219    22.0333     6.9848     79.951  34.296386     36.457      7.095   289.3310     4.3753     1.8033     0.0234      0.051      1.199      1.740        212 3.3029e+01 0.0000e+00
      1.244    22.0347     6.9770     79.861  34.298330     36.458      7.092   290.0125     4.3712     1.6959     0.0234      0.054      1.217      1.765        213 3.2653e+01 0.0000e+00
      1.258    22.0357     6.9723     79.807  34.210545     36.368      7.084   289.4067     4.3308     1.7630     0.0234      0.055      1.233      1.788        214 3.2295e+01 0.0000e+00
      1.269    22.0364     6.9762     79.852  34.227698     36.367      7.082   288.9525     4.3146     1.7765     0.0234      0.054      1.246      1.808        215 3.1567e+01 0.0000e+00
      1.287    22.0363     6.9844     79.945  34.276983     36.456      7.084   289.2175     4.3429     1.7362     0.0234      0.057      1.261      1.828        216 3.1295e+01 0.0000e+00
      1.299    22.0362     6.9940     80.056  34.178865     36.307      7.075   289.2553     4.3267     1.7630     0.0234      0.058      1.273      1.846        217 3.1057e+01 0.0000e+00
      1.306    22.0365     7.0017     80.144  34.201523     36.366      7.082   288.7632     4.3146     1.6556     0.0234      0.056      1.286      1.864        218 3.0095e+01 0.0000e+00
      1.330    22.0365     7.0053     80.183  34.308100     36.455      7.087   290.0125     4.3914     1.7362     0.0234      0.058      1.302      1.889        219 2.9690e+01 0.0000e+00
      1.345    22.0364     7.0090     80.226  34.283482     36.455      7.074   289.3310     4.4116     1.6422     0.0234      0.058      1.316      1.909        220 2.9689e+01 0.0000e+00
      1.350    22.0362     7.0115     80.255  34.232158     36.366      7.075   289.0282     4.3995     1.7362     0.0234      0.054      1.327      1.925        221 2.8808e+01 0.0000e+00
      1.369    22.0355     7.0084     80.220  34.283003     36.455      7.080   289.1039     4.3753     1.6422     0.0234      0.054      1.340      1.944        222 2.8582e+01 0.0000e+00
      1.380    22.0349     7.0132     80.274  34.309175     36.455      7.073   289.1039     4.3874     1.6690     0.0234      0.054      1.351      1.960        223 2.8512e+01 0.0000e+00
      1.385    22.0351     7.0093     80.229  34.288555     36.456      7.073   288.4603     4.4036     1.8436     0.0234      0.051      1.361      1.973        224 2.7705e+01 0.0000e+00
      1.399    22.0355     7.0138     80.279  34.308664     36.456      7.077   288.8010     4.4036     1.6959     0.0234      0.050      1.373      1.992        225 2.7245e+01 0.0000e+00
      1.417    22.0352     7.0167     80.313  34.284151     36.456      7.080   289.5960     4.3591     1.6690     0.0234      0.050      1.388      2.014        226 2.6933e+01 0.0000e+00
      1.430    22.0351     7.0235     80.391  34.230092     36.367      7.076   289.3689     4.5410     1.9107     0.0234      0.048      1.401      2.032        227 2.6546e+01 0.0000e+00
      1.438    22.0348     7.0329     80.498  34.286970     36.456      7.065   288.5360     4.4885     1.9107     0.0234      0.048      1.410      2.045        228 2.6535e+01 0.0000e+00
      1.445    22.0340     7.0426     80.609  34.302335     36.456      7.066   288.4225     4.5249     1.9645     0.0234      0.047      1.419      2.058        229 2.6296e+01 0.0000e+00
      1.457    22.0339     7.0460     80.648  34.299938     36.456      7.066   288.5739     4.5168     2.0316     0.0234      0.045      1.430      2.074        230 2.5769e+01 0.0000e+00
      1.473    22.0343     7.0514     80.708  34.289953     36.457      7.068   289.6717     4.5815     1.8973     0.0234      0.046      1.443      2.093        231 2.5645e+01 0.0000e+00
      1.482    22.0345     7.0519     80.713  34.225795     36.368      7.065   288.6875     4.5774     1.9107     0.0234      0.046      1.455      2.110        232 2.5418e+01 0.0000e+00
      1.495    22.0340     7.0586     80.788  34.290815     36.457      7.070   289.3310     4.6017     1.9779     0.0234      0.045      1.467      2.127        233 2.4969e+01 0.0000e+00
      1.509    22.0336     7.0601     80.805  34.357316     36.516      7.072   288.5739     4.5855     1.9779     0.0235      0.044      1.479      2.145        234 2.4779e+01 0.0000e+00
      1.520    22.0335     7.0576     80.777  34.350628     36.516      7.076   289.0282     4.7109     1.8705     0.0235      0.046      1.491      2.163        235 2.4501e+01 0.0000e+00
      1.533    22.0334     7.0452     80.637  34.299141     36.457      7.082   289.4067     4.6947     1.8570     0.0234      0.048      1.504      2.181        236 2.3974e+01 0.0000e+00
      1.547    22.0334     7.0404     80.584  34.302769     36.457      7.087   289.3689     4.6866     1.8973     0.0234      0.049      1.515      2.198        237 2.3877e+01 0.0000e+00
      1.555    22.0332     7.0374     80.551  34.346113     36.517      7.088   289.2553     4.7230     1.8705     0.0235      0.048      1.525      2.212        238 2.3865e+01 0.0000e+00
      1.564    22.0332     7.0306     80.471  34.334168     36.487      7.086   290.6182     4.6017     1.8033     0.0234      0.046      1.534      2.225        239 2.3460e+01 0.0000e+00
      1.573    22.0327     7.0324     80.491  34.347290     36.517      7.080   289.8989     4.5855     1.9107     0.0235      0.045      1.542      2.236        240 2.3462e+01 0.0000e+00
      1.576    22.0322     7.0289     80.450  34.300127     36.458      7.076   289.6717     4.5734     1.8302     0.0234      0.041      1.549      2.246        241 2.3332e+01 0.0000e+00
      1.588    22.0316     7.0291     80.450  34.303895     36.458      7.080   289.2553     4.5693     1.9376     0.0234      0.038      1.559      2.261        242 2.2763e+01 0.0000e+00
      1.605    22.0305     7.0266     80.420  34.342600     36.518      7.083   289.1796     4.5693     1.9913     0.0235      0.038      1.573      2.281        243 2.2421e+01 0.0000e+00
      1.619    22.0300     7.0202     80.345  34.370582     36.518      7.085   290.3532     4.7513     1.9242     0.0235      0.039      1.586      2.300        244 2.2257e+01 0.0000e+00
      1.628    22.0308     7.0108     80.234  34.358041     36.549      7.088   290.2396     4.7837     1.8839     0.0235      0.040      1.598      2.318        245 2.1854e+01 0.0000e+00
      1.644    22.0323     7.0044     80.159  34.239585     36.371      7.090   290.0882     4.7715     1.8436     0.0234      0.043      1.613      2.339        246 2.1310e+01 0.0000e+00
      1.663    22.0334     7.0054     80.171  34.280750     36.459      7.089   290.9210     4.7756     1.8167     0.0234      0.049      1.627      2.360        247 2.1170e+01 0.0000e+00
      1.670    22.0337     7.0092     80.214  34.366122     36.518      7.074   289.9746     4.6543     2.0316     0.0235      0.051      1.637      2.375        248 2.0968e+01 0.0000e+00
      1.675    22.0334     7.0164     80.298  34.340933     36.517      7.061   289.3310     4.6624     1.9242     0.0235      0.051      1.645      2.385        249 2.0637e+01 0.0000e+00
      1.687    22.0325     7.0252     80.398  34.312097     36.457      7.060   289.8232     4.6502     1.9107     0.0234      0.049      1.654      2.399        250 2.0528e+01 0.0000e+00
      1.697    22.0318     7.0316     80.472  34.313039     36.487      7.055   290.3153     4.6704     1.9107     0.0234      0.045      1.664      2.414        251 2.0261e+01 0.0000e+00
      1.708    22.0308     7.0339     80.498  34.310104     36.458      7.063   290.2396     4.7028     1.9510     0.0234      0.043      1.676      2.430        252 1.9878e+01 0.0000e+00
      1.722    22.0294     7.0306     80.460  34.286094     36.459      7.067   290.5803     4.7311     1.9779     0.0234      0.043      1.689      2.449        253 1.9678e+01 0.0000e+00
      1.735    22.0278     7.0265     80.412  34.313263     36.459      7.070   290.5425     4.6987     1.9242     0.0234      0.042      1.701      2.468        254 1.9467e+01 0.0000e+00
      1.748    22.0259     7.0237     80.381  34.335606     36.520      7.072   290.6182     4.7149     1.9376     0.0235      0.042      1.713      2.484        255 1.9207e+01 0.0000e+00
      1.756    22.0250     7.0289     80.439  34.317605     36.462      7.077   290.3910     4.7190     2.0450     0.0234      0.045      1.723      2.498        256 1.9062e+01 0.0000e+00
      1.766    22.0251     7.0278     80.427  34.365322     36.552      7.078   290.3153     4.6947     1.9913     0.0235      0.046      1.733      2.513        257 1.8970e+01 0.0000e+00
      1.779    22.0254     7.0307     80.460  34.365191     36.523      7.081   290.5803     4.7351     1.9645     0.0235      0.045      1.745      2.532        258 1.8640e+01 0.0000e+00
      1.795    22.0261     7.0313     80.467  34.347424     36.523      7.083   290.6182     4.6947     1.8436     0.0235      0.047      1.759      2.552        259 1.8310e+01 0.0000e+00
      1.807    22.0261     7.0246     80.391  34.357776     36.523      7.077   290.6939     4.7109     1.9376     0.0235      0.047      1.770      2.567        260 1.8291e+01 0.0000e+00
      1.812    22.0260     7.0255     80.401  34.352309     36.522      7.067   290.5803     4.5330     1.9376     0.0235      0.045      1.780      2.580        261 1.8129e+01 0.0000e+00
      1.825    22.0262     7.0290     80.440  34.413541     36.582      7.061   290.2775     4.5613     1.9242     0.0235      0.045      1.792      2.599        262 1.7684e+01 0.0000e+00
      1.847    22.0256     7.0344     80.501  34.370543     36.552      7.055   290.2017     4.5249     1.9779     0.0235      0.047      1.807      2.621        263 1.7468e+01 0.0000e+00
      1.854    22.0255     7.0473     80.647  34.316850     36.463      7.036   289.7853     4.5087     1.9376     0.0234      0.048      1.817      2.635        264 1.7485e+01 0.0000e+00
      1.857    22.0255     7.0524     80.705  34.391393     36.582      7.034   289.5582     4.5410     1.9107     0.0235      0.046      1.822      2.643        265 1.7303e+01 0.0000e+00
      1.865    22.0252     7.0651     80.850  34.366745     36.523      7.042   290.1639     4.5330     2.0182     0.0235      0.043      1.828      2.652        266 1.7185e+01 0.0000e+00
      1.870    22.0250     7.0721     80.931  34.347523     36.523      7.047   290.0125     4.5289     1.9645     0.0235      0.039      1.835      2.662        267 1.7084e+01 0.0000e+00
      1.881    22.0250     7.0765     80.979  34.385659     36.553      7.060   289.2932     4.5451     1.9376     0.0235      0.037      1.845      2.676        268 1.6721e+01 0.0000e+00
      1.895    22.0252     7.0717     80.919  34.348943     36.523      7.063   290.2396     4.1165     1.6153     0.0235      0.036      1.855      2.691        269 1.6662e+01 0.0000e+00
      1.899    22.0253     7.0668     80.859  34.363559     36.523      7.057   289.3310     4.1165     1.7228     0.0235      0.033      1.862      2.702        270 1.6718e+01 0.0000e+00
      1.905    22.0250     7.0547     80.717  34.397126     36.582      7.058   289.1796     4.1407     1.7496     0.0235      0.030      1.870      2.712        271 1.6394e+01 0.0000e+00
      1.917    22.0243     7.0478     80.638  34.366482     36.523      7.062   290.3153     4.1448     1.7630     0.0235      0.032      1.880      2.728        272 1.6112e+01 0.0000e+00
      1.931    22.0236     7.0305     80.438  34.342382     36.523      7.072   289.7475     4.4480     1.8302     0.0235      0.035      1.894      2.747        273 1.5906e+01 0.0000e+00
      1.947    22.0231     7.0223     80.347  34.338149     36.494      7.076   289.4067     4.4521     1.9913     0.0234      0.039      1.908      2.767        274 1.5649e+01 0.0000e+00
      1.960    22.0228     6.9933     80.018  34.401406     36.584      7.076   289.3310     4.4642     1.9376     0.0235      0.043      1.921      2.787        275 1.5469e+01 0.0000e+00
      1.971    22.0228     6.9707     79.761  34.411941     36.584      7.078   290.1260     4.4844     1.9376     0.0235      0.044      1.931      2.802        276 1.5409e+01 0.0000e+00
      1.978    22.0230     6.9466     79.488  34.354695     36.525      7.075   289.6717     4.6583     1.6422     0.0235      0.045      1.940      2.815        277 1.5311e+01 0.0000e+00
      1.988    22.0213     6.9260     79.251  34.354024     36.525      7.080   289.7475     4.6381     1.7228     0.0235      0.046      1.951      2.831        278 1.4965e+01 0.0000e+00
      2.006    22.0182     6.9084     79.046  34.353464     36.525      7.080   289.9746     4.6502     1.5885     0.0235      0.048      1.966      2.853        279 1.4724e+01 0.0000e+00
      2.021    22.0160     6.8889     78.819  34.385048     36.556      7.084   289.8989     4.6300     1.7093     0.0235      0.049      1.981      2.874        280 1.4552e+01 0.0000e+00
      2.034    22.0143     6.8771     78.679  34.403688     36.588      7.087   289.8610     4.7230     1.9107     0.0235      0.049      1.995      2.894        281 1.4227e+01 0.0000e+00
      2.049    22.0133     6.8529     78.398  34.359924     36.530      7.084   290.5803     4.7149     1.9645     0.0235      0.050      2.009      2.914        282 1.4078e+01 0.0000e+00
      2.061    22.0127     6.8319     78.135  34.350543     36.532      7.080   289.9367     4.7109     1.9107     0.0235      0.051      2.021      2.932        283 1.3937e+01 0.0000e+00
      2.074    22.0141     6.8088     77.841  34.356051     36.532      7.079   290.0125     4.6987     1.9107     0.0235      0.053      2.032      2.948        284 1.3785e+01 0.0000e+00
      2.084    22.0161     6.7642     77.319  34.353072     36.533      7.069   289.7853     4.7311     1.9510     0.0235      0.054      2.042      2.962        285 1.3720e+01 0.0000e+00
      2.089    22.0175     6.6721     76.255  34.383907     36.562      7.059   290.0125     4.5410     1.9107     0.0235      0.050      2.051      2.974        286 1.3623e+01 0.0000e+00
      2.101    22.0189     6.5150     74.436  34.406644     36.590      7.052   290.2396     4.5046     2.0047     0.0235      0.046      2.061      2.989        287 1.3500e+01 0.0000e+00
      2.114    22.0180     6.3353     72.365  34.354431     36.529      7.050   289.8989     4.5127     1.8167     0.0235      0.044      2.075      3.009        288 1.3256e+01 0.0000e+00
      2.132    22.0156     6.1195     69.879  34.359916     36.528      7.056   289.7475     4.5168     1.8705     0.0235      0.045      2.089      3.029        289 1.3093e+01 0.0000e+00
      2.143    22.0124     5.8759     67.073  34.459132     36.648      7.052   290.0125     4.2620     1.9913     0.0235      0.045      2.099      3.044        290 1.3061e+01 0.0000e+00
      2.145    22.0101     5.5511     63.343  34.408898     36.590      7.047   289.3689     4.2418     1.9376     0.0235      0.043      2.105      3.053        291 1.3008e+01 0.0000e+00
      2.152    22.0067     5.1680     58.958  34.333463     36.503      7.056   290.0882     4.2822     1.9645     0.0234      0.041      2.115      3.067        292 1.2777e+01 0.0000e+00
      2.173    21.9919     4.7219     53.857  34.404728     36.594      7.062   290.5803     4.2661     1.9242     0.0235      0.043      2.132      3.093        293 1.2430e+01 0.0000e+00
      2.197    21.9729     4.2407     48.354  34.468492     36.656      7.058   290.6560     4.6219     1.8705     0.0235      0.048      2.153      3.124        294 1.2223e+01 0.0000e+00
      2.218    21.9641     3.7988     43.302  34.461707     36.668      7.060   289.7475     4.5855     1.9913     0.0235      0.053      2.176      3.158        295 1.1885e+01 0.0000e+00
      2.246    21.9553     3.3840     38.563  34.472492     36.683      7.055   289.9746     4.5774     1.8705     0.0235      0.060      2.201      3.193        296 1.1502e+01 0.0000e+00
      2.270    21.9401     3.0024     34.212  34.514392     36.749      7.044   290.0882     4.5693     1.9107     0.0235      0.069      2.223      3.226        297 1.1302e+01 0.0000e+00
      2.286    21.9265     2.7268     31.067  34.557851     36.786      7.033   290.3910     4.5006     1.8973     0.0235      0.077      2.241      3.251        298 1.1153e+01 0.0000e+00
      2.300    21.9118     2.5397     28.916  34.566695     36.828      7.031   290.5425     4.5087     1.9645     0.0236      0.083      2.256      3.271        299 1.1042e+01 0.0000e+00
      2.314    21.8930     2.4284     27.627  34.592362     36.838      7.032   290.8453     4.4925     2.0316     0.0236      0.083      2.273      3.296        300 1.0825e+01 0.0000e+00
      2.339    21.8745     2.3707     26.954  34.614886     36.909      7.030   291.0346     4.5087     1.7899     0.0236      0.080      2.293      3.326        301 1.0578e+01 0.0000e+00
      2.361    21.8623     2.3285     26.462  34.597985     36.864      7.024   291.0346     4.5087     1.9376     0.0236      0.077      2.314      3.356        302 1.0443e+01 0.0000e+00
      2.378    21.8513     2.2578     25.648  34.643060     36.969      7.023   290.8075     4.0679     1.8839     0.0236      0.075      2.333      3.383        303 1.0229e+01 0.0000e+00
      2.399    21.8353     2.1934     24.906  34.647771     36.948      7.018   291.1103     4.0720     1.9645     0.0236      0.073      2.351      3.409        304 1.0039e+01 0.0000e+00
      2.414    21.8185     2.1142     24.001  34.621787     36.957      7.012   291.7917     4.0801     1.9913     0.0236      0.073      2.365      3.430        305 9.9847e+00 0.0000e+00
      2.421    21.8052     1.9909     22.598  34.586433     36.910      7.005   291.1482     4.0477     1.9779     0.0236      0.071      2.376      3.447        306 9.8430e+00 0.0000e+00
      2.437    21.8009     1.8341     20.814  34.573148     36.923      7.001   291.4132     3.9628     1.7093     0.0236      0.069      2.391      3.468        307 9.6420e+00 0.0000e+00
      2.458    21.7914     1.6521     18.748  34.638327     36.993      6.999   291.8675     3.9426     1.6690     0.0236      0.067      2.409      3.494        308 9.5063e+00 0.0000e+00
      2.475    21.7593     1.4585     16.550  34.653608     37.027      6.986   290.6939     3.9305     1.7630     0.0236      0.064      2.427      3.520        309 9.3565e+00 0.0000e+00
      2.491    21.7195     1.3078     14.834  34.643104     37.004      6.983   291.0346     3.9709     1.7093     0.0236      0.062      2.444      3.545        310 9.1450e+00 0.0000e+00
      2.512    21.6875     1.1904     13.498  34.621750     37.030      6.976   291.5267     4.1448     1.7899     0.0236      0.064      2.463      3.573        311 8.9887e+00 0.0000e+00
      2.531    21.6632     1.1161     12.653  34.531914     36.942      6.967   291.8296     4.1488     1.6690     0.0235      0.065      2.483      3.601        312 8.8255e+00 0.0000e+00
      2.551    21.6404     1.0782     12.225  34.517667     36.967      6.956   292.0946     4.1690     1.7496     0.0235      0.069      2.503      3.631        313 8.5254e+00 0.0000e+00
      2.577    21.6201     1.0610     12.031  34.580182     37.046      6.942   292.3217     4.1326     1.7362     0.0236      0.075      2.525      3.664        314 8.2698e+00 0.0000e+00
      2.599    21.6073     1.0507     11.914  34.661725     37.154      6.926   292.4353     4.2701     1.9913     0.0236      0.078      2.545      3.693        315 8.1968e+00 0.0000e+00
      2.611    21.5987     1.0647     12.071  34.683109     37.200      6.912   292.3596     4.2620     1.9242     0.0236      0.078      2.560      3.713        316 8.0991e+00 0.0000e+00
      2.623    21.5905     1.0819     12.267  34.701862     37.211      6.903   292.4353     4.2499     1.9107     0.0236      0.077      2.571      3.729        317 7.9588e+00 0.0000e+00
      2.631    21.5882     1.0884     12.334  34.757021     37.307      6.888   292.6625     4.2782     1.9376     0.0237      0.072      2.581      3.743        318 7.9347e+00 0.0000e+00
      2.640    21.5842     1.0960     12.413  34.644127     37.164      6.878   293.0032     3.6231     1.6959     0.0236      0.065      2.592      3.759        319 7.8475e+00 0.0000e+00
      2.659    21.5667     1.0953     12.399  34.634763     37.166      6.870   293.1546     3.6191     1.7228     0.0236      0.060      2.609      3.784        320 7.5816e+00 0.0000e+00
      2.682    21.5474     1.0748     12.161  34.709362     37.258      6.860   293.2682     3.6029     1.6153     0.0236      0.057      2.627      3.809        321 7.4831e+00 0.0000e+00
      2.693    21.5396     1.0568     11.952  34.699577     37.243      6.841   293.6089     3.5948     1.6422     0.0236      0.054      2.639      3.828        322 7.5414e+00 0.0000e+00
      2.699    21.5463     1.0702     12.099  34.676605     37.258      6.826   293.3439     3.3967     1.9376     0.0236      0.052      2.649      3.842        323 7.4333e+00 0.0000e+00
      2.711    21.5522     1.1218     12.679  34.648988     37.205      6.813   293.7603     3.3441     1.9779     0.0236      0.052      2.660      3.858        324 7.2547e+00 0.0000e+00
      2.729    21.5438     1.2387     13.995  34.674636     37.259      6.809   293.7982     3.3482     1.9645     0.0236      0.054      2.674      3.878        325 7.2261e+00 0.0000e+00
      2.740    21.5401     1.4374     16.234  34.644685     37.195      6.793   294.3660     3.3603     2.0316     0.0236      0.054      2.684      3.893        326 7.2631e+00 0.0000e+00
      2.742    21.5392     1.6603     18.745  34.656603     37.231      6.774   294.5932     3.3522     1.9510     0.0236      0.050      2.693      3.906        327 7.1429e+00 0.0000e+00
      2.758    21.5158     1.9043     21.492  34.689462     37.265      6.770   294.4039     2.7457     1.9645     0.0236      0.046      2.708      3.928        328 6.9861e+00 0.0000e+00
      2.785    21.4850     2.1433     24.179  34.574139     37.144      6.768   294.9339     2.7133     1.9376     0.0236      0.047      2.729      3.958        329 6.8393e+00 0.0000e+00
      2.805    21.4603     2.3577     26.587  34.473902     37.044      6.757   295.0096     2.7052     1.8973     0.0235      0.053      2.749      3.987        330 6.7906e+00 0.0000e+00
      2.818    21.4365     2.5725     29.001  34.399023     37.008      6.748   294.5553     2.7093     1.9242     0.0235      0.058      2.767      4.013        331 6.6867e+00 0.0000e+00
      2.842    21.4143     2.8508     32.134  34.222493     36.817      6.741   294.5932     2.3170     2.1659     0.0234      0.063      2.788      4.043        332 6.4450e+00 0.0000e+00
      2.870    21.3957     3.1569     35.578  34.011511     36.625      6.731   296.2968     2.2645     2.1390     0.0233      0.070      2.811      4.077        333 6.3470e+00 0.0000e+00
      2.886    21.3790     3.4806     39.220  33.890541     36.493      6.723   295.6153     2.2645     2.0853     0.0233      0.077      2.830      4.104        334 6.2210e+00 0.0000e+00
      2.900    21.3607     3.7979     42.788  33.868902     36.507      6.717   295.7668     2.2604     2.1390     0.0233      0.080      2.847      4.129        335 6.0563e+00 0.0000e+00
      2.923    21.3422     4.0682     45.820  33.890173     36.520      6.708   295.3125     2.5920     2.1390     0.0233      0.080      2.872      4.165        336 5.8645e+00 0.0000e+00
      2.963    21.3244     4.2819     48.222  33.804766     36.474      6.704   295.6910     2.6041     2.2196     0.0232      0.083      2.904      4.212        337 5.6572e+00 0.0000e+00
      2.998    21.3074     4.4308     49.895  33.648990     36.278      6.688   296.9782     2.5799     2.1659     0.0232      0.092      2.934      4.257        338 5.5890e+00 0.0000e+00
      3.015    21.2865     4.5406     51.122  33.431626     36.111      6.679   296.4482     2.5799     2.1122     0.0231      0.097      2.959      4.292        339 5.4020e+00 0.0000e+00
      3.043    21.2635     4.5813     51.573  32.889086     35.490      6.681   296.9782     2.1836     2.2464     0.0228      0.100      2.982      4.325        340 5.2329e+00 0.0000e+00
      3.064    21.2499     4.5983     51.761  32.515260     35.114      6.675   296.7889     2.2240     2.2867     0.0227      0.101      3.000      4.352        341 5.2209e+00 0.0000e+00
      3.071    21.2421     4.5930     51.699  32.562418     35.192      6.672   296.5996     2.2079     2.2867     0.0227      0.099      3.012      4.370        342 5.1483e+00 0.0000e+00
      3.083    21.2324     4.5895     51.646  32.563524     35.202      6.679   296.6753     2.1998     2.2464     0.0227      0.093      3.024      4.386        343 5.0681e+00 0.0000e+00
      3.099    21.2249     4.5802     51.534  32.513890     35.148      6.681   296.7510     3.3886     2.4344     0.0227      0.082      3.038      4.405        344 5.0277e+00 0.0000e+00
      3.109    21.2160     4.5742     51.467  32.564882     35.216      6.677   296.6375     3.4048     2.4210     0.0227      0.069      3.049      4.422        345 4.9482e+00 0.0000e+00
      3.120    21.2029     4.5690     51.411  32.440763     35.101      6.679   296.9782     3.4412     2.5956     0.0226      0.059      3.059      4.436        346 4.8679e+00 0.0000e+00
      3.129    21.1967     4.5572     51.284  32.164252     34.774      6.677   296.9782     3.4250     2.5687     0.0225      0.053      3.068      4.450        347 4.8569e+00 0.0000e+00
      3.138    21.1925     4.5420     51.117  32.197320     34.845      6.679   297.0160     3.4371     2.5016     0.0225      0.046      3.077      4.463        348 4.7658e+00 0.0000e+00
      3.147    21.1828     4.5192     50.863  32.251348     34.910      6.681   296.7510     3.9305     2.5016     0.0225      0.042      3.087      4.477        349 4.6982e+00 0.0000e+00
      3.158    21.1750     4.4898     50.531  32.215629     34.853      6.684   296.5618     3.9345     2.4479     0.0225      0.042      3.097      4.492        350 4.6728e+00 0.0000e+00
      3.169    21.1725     4.4414     49.990  32.271426     34.951      6.685   296.3346     3.9345     2.5016     0.0226      0.040      3.107      4.506        351 4.6659e+00 0.0000e+00
      3.176    21.1692     4.3900     49.403  32.270873     34.926      6.688   296.1832     3.9628     2.5016     0.0225      0.038      3.117      4.521        352 4.6323e+00 0.0000e+00
      3.192    21.1570     4.3284     48.697  32.186667     34.868      6.693   296.4103     3.6919     2.6761     0.0225      0.039      3.131      4.541        353 4.5227e+00 0.0000e+00
      3.211    21.1492     4.2689     48.013  32.168649     34.809      6.693   296.5996     3.6717     2.7164     0.0225      0.043      3.147      4.564        354 4.4626e+00 0.0000e+00
      3.224    21.1497     4.1998     47.204  32.293300     35.001      6.692   296.9782     3.6555     2.7164     0.0226      0.046      3.162      4.585        355 4.4212e+00 0.0000e+00
      3.239    21.1527     4.0986     46.036  32.268772     34.946      6.688   296.9782     3.6838     2.6761     0.0225      0.050      3.177      4.606        356 4.3521e+00 0.0000e+00
      3.255    21.1579     3.9503     44.347  32.288136     34.976      6.689   296.0696     3.6312     2.6761     0.0226      0.053      3.191      4.627        357 4.2665e+00 0.0000e+00
      3.266    21.1630     3.7528     42.112  32.447122     35.155      6.685   296.4482     3.6393     2.6493     0.0226      0.055      3.202      4.644        358 4.2326e+00 0.0000e+00
      3.274    21.1637     3.5289     39.588  32.397103     35.091      6.684   296.3346     3.5948     2.7433     0.0226      0.055      3.211      4.657        359 4.2058e+00 0.0000e+00
      3.282    21.1637     3.3066     37.086  32.320727     34.996      6.683   296.2968     3.6312     2.6761     0.0226      0.053      3.219      4.668        360 4.1926e+00 0.0000e+00
      3.291    21.1670     3.1214     35.000  32.453208     35.146      6.684   296.7510     3.5059     2.6761     0.0226      0.048      3.229      4.683        361 4.1436e+00 0.0000e+00
      3.306    21.1582     2.9838     33.450  32.558421     35.269      6.687   296.9403     3.4978     2.6761     0.0227      0.045      3.242      4.702        362 4.0558e+00 0.0000e+00
      3.321    21.1451     2.9034     32.545  32.634593     35.325      6.686   296.4103     3.4937     2.7701     0.0227      0.044      3.255      4.721        363 4.0343e+00 0.0000e+00
      3.331    21.1289     2.8813     32.294  32.862528     35.605      6.687   296.3346     3.4897     2.6761     0.0228      0.043      3.267      4.739        364 3.9600e+00 0.0000e+00
      3.346    21.0957     2.8916     32.406  33.164385     35.918      6.684   296.8268     3.5706     2.7298     0.0229      0.044      3.282      4.761        365 3.8896e+00 0.0000e+00
      3.365    21.0613     2.9262     32.790  33.445117     36.263      6.685   296.5239     3.5625     2.6627     0.0231      0.048      3.302      4.789        366 3.8163e+00 0.0000e+00
      3.391    21.0336     2.9528     33.088  33.521430     36.351      6.680   296.5618     3.5625     2.7701     0.0231      0.056      3.324      4.821        367 3.6592e+00 0.0000e+00
      3.414    21.0120     2.9485     33.038  33.514253     36.377      6.674   296.8268     3.5423     2.7164     0.0231      0.063      3.344      4.851        368 3.6183e+00 0.0000e+00
      3.426    20.9977     2.9181     32.698  33.483719     36.369      6.661   296.4860     3.5706     2.7567     0.0231      0.068      3.358      4.871        369 3.6344e+00 0.0000e+00
      3.432    20.9863     2.8680     32.137  33.470475     36.356      6.651   295.8803     3.0489     2.9447     0.0231      0.067      3.369      4.886        370 3.5692e+00 0.0000e+00
      3.449    20.9735     2.8063     31.446  33.441779     36.367      6.650   296.1453     3.0328     2.8507     0.0231      0.067      3.384      4.907        371 3.4615e+00 0.0000e+00
      3.470    20.9622     2.7495     30.809  33.549094     36.437      6.644   295.9939     3.0449     2.9178     0.0231      0.068      3.401      4.932        372 3.3728e+00 0.0000e+00
      3.483    20.9567     2.6908     30.150  33.692792     36.690      6.630   296.3346     3.0368     2.8910     0.0232      0.065      3.414      4.952        373 3.3516e+00 0.0000e+00
      3.491    20.9519     2.6166     29.316  33.618817     36.517      6.619   295.7668     2.7254     3.6161     0.0231      0.060      3.427      4.971        374 3.2902e+00 0.0000e+00
      3.514    20.9452     2.5493     28.560  33.819092     36.825      6.622   297.3189     2.7416     3.6027     0.0233      0.057      3.447      4.999        375 3.1827e+00 0.0000e+00
      3.540    20.9411     2.4837     27.820  34.007011     36.981      6.621   297.2053     2.6769     3.5624     0.0233      0.060      3.468      5.030        376 3.1281e+00 0.0000e+00
      3.554    20.9398     2.4096     26.989  33.918756     36.926      6.608   297.0539     2.7214     3.4684     0.0233      0.065      3.483      5.052        377 3.0687e+00 0.0000e+00
      3.561    20.9388     2.3350     26.151  33.899271     36.868      6.606   296.9025     2.6486     3.6027     0.0233      0.065      3.491      5.063        378 3.0362e+00 0.0000e+00
      3.564    20.9384     2.2352     25.031  33.971951     36.991      6.603   296.7510     2.6729     3.5221     0.0233      0.060      3.496      5.070        379 3.0581e+00 0.0000e+00
      3.569    20.9384     2.1224     23.766  34.035898     37.022      6.605   297.9246     2.6324     3.5758     0.0233      0.054      3.503      5.080        380 3.0090e+00 0.0000e+00
      3.583    20.9389     2.0118     22.527  34.086593     37.114      6.611   297.5082     2.6527     3.5490     0.0234      0.049      3.516      5.099        381 2.8912e+00 0.0000e+00
      3.605    20.9388     1.8712     20.951  34.175766     37.174      6.617   298.1896     2.4667     3.9786     0.0234      0.048      3.530      5.120        382 2.8717e+00 0.0000e+00
      3.610    20.9362     1.7110     19.157  34.280795     37.326      6.609   297.3189     2.4667     3.9518     0.0235      0.042      3.538      5.132        383 2.9429e+00 0.0000e+00
      3.608    20.9331     1.5600     17.466  34.311758     37.326      6.611   297.8111     2.4505     3.8444     0.0235      0.036      3.544      5.140        384 2.8791e+00 0.0000e+00
      3.625    20.9277     1.3980     15.652  34.404139     37.450      6.615   298.1139     2.4545     3.9384     0.0235      0.036      3.558      5.160        385 2.7592e+00 0.0000e+00
      3.650    20.9200     1.2426     13.911  34.669990     37.726      6.611   298.4546     2.0704     4.7843     0.0236      0.042      3.575      5.185        386 2.7336e+00 0.0000e+00
      3.659    20.9164     1.1296     12.646  34.751985     37.852      6.596   297.8868     2.0219     4.7575     0.0237      0.046      3.587      5.203        387 2.7387e+00 0.0000e+00
      3.664    20.9138     1.0488     11.741  34.657981     37.707      6.597   298.5303     2.0866     4.8112     0.0236      0.047      3.597      5.217        388 2.6960e+00 0.0000e+00
      3.682    20.9083     1.0063     11.263  34.994579     38.105      6.602   298.5303     2.0623     4.8246     0.0238      0.047      3.610      5.236        389 2.6222e+00 0.0000e+00
      3.698    20.9051     1.0116     11.322  35.341441     38.503      6.599   298.8332     2.0704     4.7172     0.0240      0.048      3.623      5.255        390 2.6468e+00 0.0000e+00
      3.702    20.9030     1.0437     11.681  35.264324     38.386      6.591   298.4546     2.1229     5.3886     0.0239      0.050      3.633      5.270        391 2.5911e+00 0.0000e+00
      3.716    20.8986     1.0944     12.250  35.357469     38.510      6.594   298.1139     2.1310     5.1737     0.0240      0.051      3.644      5.287        392 2.5012e+00 0.0000e+00
      3.731    20.8966     1.1630     13.018  35.522105     38.695      6.589   298.4546     2.1472     5.2946     0.0240      0.049      3.656      5.303        393 2.5155e+00 0.0000e+00
      3.734    20.8976     1.2286     13.752  35.415335     38.577      6.586   297.9625     2.1593     5.2140     0.0240      0.044      3.665      5.315        394 2.4752e+00 0.0000e+00
      3.745    20.8964     1.2837     14.368  35.431030     38.578      6.587   298.1518     2.2604     5.4020     0.0240      0.044      3.676      5.332        395 2.4083e+00 0.0000e+00
      3.768    20.8917     1.3229     14.806  35.502573     38.699      6.586   298.5303     2.2645     5.4826     0.0240      0.046      3.693      5.357        396 2.3233e+00 0.0000e+00
      3.784    20.8896     1.3537     15.151  35.385616     38.518      6.577   298.7575     2.2766     5.5094     0.0240      0.047      3.707      5.377        397 2.3267e+00 0.0000e+00
      3.787    20.8881     1.3674     15.305  35.398634     38.583      6.571   297.3568     2.2806     5.4154     0.0240      0.047      3.718      5.394        398 2.3056e+00 0.0000e+00
      3.809    20.8809     1.3697     15.329  35.367742     38.524      6.570   297.8868     2.1917     5.6840     0.0240      0.051      3.733      5.415        399 2.1986e+00 0.0000e+00
      3.826    20.8767     1.3573     15.190  35.246115     38.403      6.559   297.9625     2.1836     5.6706     0.0239      0.053      3.742      5.427        400 2.2123e+00 0.0000e+00
      3.810    20.8796     1.3347     14.935  35.253421     38.409      6.557   298.6818     2.1998     5.7646     0.0239      0.048      3.735      5.417        401 2.2787e+00 0.0000e+00
      3.789    20.8831     1.3027     14.571  35.299337     38.473      6.557   298.4546     2.1998     5.6571     0.0239      0.036      3.722      5.399        402 2.3481e+00 0.0000e+00
      3.789    20.8851     1.2601     14.090  35.307606     38.471      6.558   298.0382     2.0178     4.8783     0.0239      0.022      3.719      5.395        403 2.3235e+00 0.0000e+00
      3.799    20.8838     1.2084     13.510  35.243130     38.407      6.558   297.9625     1.9935     4.8112     0.0239      0.009      3.725      5.403        404 2.2484e+00 0.0000e+00
      3.807    20.8803     1.1282     12.610  35.260944     38.405      6.555   298.1518     2.0057     4.8112     0.0239      0.003      3.731      5.411        405 2.2431e+00 0.0000e+00
      3.807    20.8792     1.0360     11.577  35.344751     38.528      6.553   297.6218     1.9895     4.8783     0.0240      0.000      3.734      5.415        406 2.2527e+00 0.0000e+00
      3.808    20.8819     0.9480     10.590  35.376096     38.531      6.551   298.1518     2.0502     5.1334     0.0240     -0.004      3.737      5.419        407 2.2557e+00 0.0000e+00
      3.815    20.8813     0.8327      9.296  35.340569     38.532      6.551   298.0382     2.0946     5.0395     0.0240      0.000      3.743      5.428        408 2.2281e+00 0.0000e+00
      3.824    20.8756     0.7277      8.119  35.388965     38.530      6.552   297.6218     2.0744     4.9320     0.0240      0.012      3.753      5.444        409 2.1442e+00 0.0000e+00
      3.844    20.8737     0.6126      6.830  35.434500     38.652      6.550   297.9625     2.0380     5.1334     0.0240      0.023      3.773      5.472        410 2.0449e+00 0.0000e+00
      3.875    20.8654     0.5012      5.585  35.343218     38.475      6.548   298.0003     2.0502     4.9320     0.0239      0.034      3.798      5.509        411 1.9557e+00 0.0000e+00
      3.901    20.8462     0.3911      4.355  35.828806     39.054      6.543   298.0761     1.7914     6.2748     0.0242      0.046      3.822      5.543        412 1.8919e+00 0.0000e+00
      3.917    20.8315     0.2791      3.107  36.164821     39.458      6.532   297.8489     1.8197     6.3151     0.0243      0.058      3.838      5.568        413 1.8658e+00 0.0000e+00
      3.924    20.8227     0.1885      2.098  36.052079     39.261      6.525   297.3946     1.7873     6.3017     0.0242      0.067      3.852      5.588        414 1.7883e+00 0.0000e+00
      3.946    20.8092     0.1131      1.258  36.295368     39.639      6.520   298.6061     1.7954     6.3017     0.0244      0.073      3.870      5.614        415 1.7152e+00 0.0000e+00
      3.970    20.7983     0.0621      0.691  36.959457     40.257      6.520   298.1139     2.1432     6.1271     0.0247      0.078      3.894      5.648        416 1.6674e+00 0.0000e+00
      3.999    20.7827     0.0284      0.316  37.212838     40.726      6.520   298.1518     2.1310     6.1137     0.0248      0.081      3.921      5.687        417 1.5813e+00 0.0000e+00
      4.029    20.7480     0.0103      0.115  38.590186     41.896      6.517   298.9089     2.1108     6.1405     0.0253      0.084      3.947      5.724        418 1.4837e+00 0.0000e+00
      4.046    20.7137     0.0109      0.121  40.910985     44.961      6.509   298.2275     2.0946     6.1137     0.0266      0.083      3.968      5.754        419 1.4184e+00 0.0000e+00
      4.063    20.6820     0.0180      0.200  42.037319     45.670      6.507   299.2496     1.9935     6.2883     0.0269      0.085      3.988      5.783        420 1.3760e+00 0.0000e+00
      4.091    20.6514     0.0358      0.397  43.833782     48.149      6.506   299.3253     1.9855     6.3420     0.0280      0.090      4.009      5.814        421 1.3468e+00 0.0000e+00
      4.107    20.6282     0.0510      0.566  44.787140     48.917      6.496   299.5525     2.0016     6.2614     0.0283      0.092      4.027      5.840        422 1.3277e+00 0.0000e+00
      4.121    20.6061     0.0652      0.723  44.648626     48.950      6.494   298.6061     2.0016     6.3151     0.0283      0.087      4.042      5.861        423 1.2652e+00 0.0000e+00
      4.137    20.5867     0.0800      0.887  44.896313     49.159      6.485   299.0225     2.2685     5.9123     0.0284      0.081      4.055      5.881        424 1.2424e+00 0.0000e+00
      4.146    20.5772     0.0913      1.011  45.013003     49.367      6.477   300.0446     2.2847     5.9526     0.0284      0.072      4.067      5.899        425 1.2373e+00 0.0000e+00
      4.160    20.5699     0.1009      1.117  44.978171     49.326      6.472   299.7418     2.2685     5.9794     0.0284      0.065      4.083      5.922        426 1.1480e+00 0.0000e+00
      4.187    20.5542     0.1096      1.213  45.088034     49.429      6.462   300.1203     2.2483     5.8988     0.0285      0.065      4.104      5.952        427 1.1104e+00 0.0000e+00
      4.205    20.5338     0.1169      1.293  45.558753     50.019      6.453   300.8018     2.8225     5.3617     0.0287      0.064      4.122      5.978        428 1.0911e+00 0.0000e+00
      4.217    20.5047     0.1175      1.299  45.905676     50.344      6.445   301.0289     2.8670     5.4691     0.0289      0.062      4.138      6.002        429 1.0208e+00 0.0000e+00
      4.239    20.4733     0.1234      1.363  46.436692     51.010      6.437   300.7261     2.8508     5.4289     0.0291      0.065      4.155      6.027        430 1.0104e+00 0.0000e+00
      4.253    20.4508     0.1305      1.441  46.826721     51.443      6.429   300.3096     2.8427     5.4557     0.0293      0.067      4.170      6.048        431 1.0062e+00 0.0000e+00
      4.264    20.4253     0.1281      1.414  47.022714     51.694      6.427   299.9689     2.8184     5.3886     0.0294      0.067      4.183      6.067        432 9.4617e-01 0.0000e+00
      4.281    20.3953     0.1318      1.456  47.379794     52.119      6.427   299.8175     3.5423     5.4020     0.0296      0.067      4.197      6.087        433 8.9489e-01 0.0000e+00
      4.292    20.3697     0.1301      1.438  47.658397     52.456      6.423   299.2496     3.5625     5.4960     0.0297      0.063      4.210      6.107        434 8.8448e-01 0.0000e+00
      4.307    20.3407     0.1261      1.393  48.219158     53.077      6.423   297.0160     3.5746     5.4826     0.0300      0.059      4.224      6.128        435 8.6732e-01 0.0000e+00
      4.325    20.3142     0.1264      1.397  49.056087     54.092      6.420   297.6218     3.5584     5.5094     0.0304      0.058      4.238      6.148        436 8.5113e-01 0.0000e+00
      4.332    20.2949     0.1297      1.434  49.287820     54.343      6.414   298.5303     3.8294     5.4289     0.0305      0.056      4.250      6.164        437 8.5652e-01 0.0000e+00
      4.346    20.2693     0.1267      1.400  49.295960     54.375      6.413   298.8332     3.8374     5.4154     0.0305      0.053      4.263      6.183        438 8.3759e-01 0.0000e+00
      4.365    20.2446     0.1249      1.379  49.698901     54.860      6.416   297.2432     3.8011     5.4154     0.0307      0.054      4.278      6.205        439 8.1085e-01 0.0000e+00
      4.376    20.2240     0.1278      1.409  49.854816     55.078      6.413   296.6375     3.8253     5.4557     0.0308      0.054      4.294      6.228        440 7.9679e-01 0.0000e+00
      4.399    20.2031     0.1315      1.447  49.903272     55.107      6.417   295.9939     4.6704     5.2274     0.0308      0.056      4.313      6.256        441 7.5537e-01 0.0000e+00
      4.420    20.1942     0.1324      1.455  50.321243     55.658      6.414   296.1832     4.6745     5.2812     0.0310      0.060      4.330      6.280        442 7.4271e-01 0.0000e+00
      4.424    20.2026     0.1338      1.470  50.106342     55.436      6.407   295.9182     4.6381     5.2006     0.0309      0.060      4.342      6.298        443 7.4120e-01 0.0000e+00
      4.441    20.2173     0.1327      1.456  49.814570     55.045      6.407   293.9496     4.6421     5.2140     0.0308      0.060      4.356      6.318        444 6.9373e-01 0.0000e+00
      4.460    20.2238     0.1301      1.426  50.239161     55.623      6.404   293.0789     5.2608     5.2946     0.0310      0.063      4.371      6.340        445 6.7153e-01 0.0000e+00
      4.469    20.2355     0.1318      1.444  50.201211     55.481      6.403   292.7003     5.2729     5.2543     0.0310      0.061      4.386      6.362        446 6.7460e-01 0.0000e+00
      4.491    20.2495     0.1311      1.436  49.980507     55.256      6.404   292.2460     5.2770     5.2006     0.0309      0.061      4.404      6.387        447 6.6296e-01 0.0000e+00
      4.510    20.2295     0.1327      1.451  49.949905     55.213      6.400   291.9810     5.3053     5.2946     0.0309      0.062      4.422      6.413        448 6.5422e-01 0.0000e+00
      4.524    20.1801     0.1305      1.424  50.447045     55.686      6.400   291.9810     5.8431     4.7172     0.0311      0.061      4.439      6.438        449 6.5729e-01 0.0000e+00
      4.548    20.1097     0.1340      1.460  51.498804     56.981      6.403   290.9589     5.8310     4.8112     0.0316      0.064      4.458      6.466        450 6.3961e-01 0.0000e+00
      4.564    20.0234     0.1353      1.473  51.905908     57.413      6.404   290.1260     5.8390     4.8380     0.0318      0.069      4.476      6.493        451 5.9979e-01 0.0000e+00
      4.582    19.9489     0.1341      1.459  52.700842     58.372      6.408   288.7632     5.8512     4.8649     0.0322      0.070      4.494      6.518        452 5.6361e-01 0.0000e+00
      4.602    19.9023     0.1392      1.514  53.507562     59.509      6.403   289.4446     7.0400     4.5292     0.0327      0.071      4.510      6.541        453 5.2160e-01 0.0000e+00
      4.609    19.8603     0.1332      1.447  53.425117     59.329      6.403   289.1796     7.0157     4.5560     0.0326      0.070      4.522      6.559        454 5.4007e-01 0.0000e+00
      4.624    19.8204     0.1361      1.477  53.872125     60.043      6.409   288.6875     7.0077     4.6366     0.0328      0.067      4.533      6.574        455 5.5738e-01 0.0000e+00
      4.633    19.8028     0.1353      1.466  54.109017     60.286      6.407   288.0060     7.0279     4.6500     0.0329      0.062      4.542      6.588        456 5.1526e-01 0.0000e+00
      4.637    19.7742     0.1324      1.433  53.872461     60.093      6.409   289.4446     7.0117     4.5560     0.0328      0.055      4.552      6.603        457 5.0753e-01 0.0000e+00
      4.660    19.7056     0.1335      1.443  54.433713     60.707      6.417   288.2710     6.5063     4.3949     0.0331      0.052      4.571      6.630        458 4.7949e-01 0.0000e+00
      4.687    19.6203     0.1325      1.432  55.369854     61.870      6.417   287.7032     6.5224     4.3815     0.0336      0.054      4.594      6.663        459 4.5262e-01 0.0000e+00
      4.706    19.5467     0.1332      1.439  55.913631     62.497      6.417   286.5674     6.5224     4.3681     0.0339      0.057      4.614      6.693        460 4.4274e-01 0.0000e+00
      4.725    19.4948     0.1292      1.395  56.221092     63.026      6.414   287.3246     6.4941     4.3815     0.0341      0.061      4.631      6.717        461 4.5231e-01 0.0000e+00
      4.738    19.4667     0.1309      1.411  56.442007     63.317      6.410   287.3624     7.0966     3.7235     0.0342      0.066      4.645      6.737        462 4.5940e-01 0.0000e+00
      4.746    19.4305     0.1273      1.372  56.440353     63.455      6.408   288.0439     7.1168     3.7907     0.0342      0.067      4.656      6.753        463 4.0749e-01 0.0000e+00
      4.760    19.3676     0.1295      1.394  56.668523     63.651      6.409   286.7189     7.1007     3.7369     0.0343      0.068      4.670      6.773        464 4.1293e-01 0.0000e+00
      4.780    19.3038     0.1312      1.410  57.286282     64.520      6.408   286.4539     7.1007     3.7772     0.0347      0.067      4.686      6.797        465 4.0768e-01 0.0000e+00
      4.795    19.2419     0.1310      1.407  57.542048     64.803      6.407   286.1132     7.1896     3.5087     0.0348      0.062      4.703      6.822        466 4.1355e-01 0.0000e+00
      4.814    19.1764     0.1289      1.384  57.716013     65.148      6.405   285.6210     7.2341     3.6295     0.0349      0.059      4.721      6.847        467 4.3146e-01 0.0000e+00
      4.833    19.1281     0.1248      1.340  57.782410     65.303      6.406   284.7124     7.2381     3.5758     0.0350      0.060      4.737      6.871        468 3.7843e-01 0.0000e+00
      4.846    19.1065     0.1315      1.411  57.637614     65.210      6.403   283.9932     7.2665     3.6161     0.0349      0.061      4.750      6.889        469 3.8049e-01 0.0000e+00
      4.850    19.0922     0.1246      1.335  57.658733     65.346      6.399   283.9174     6.7893     3.2804     0.0349      0.060      4.758      6.900        470 4.0059e-01 0.0000e+00
      4.858    19.0580     0.1232      1.320  57.578020     65.249      6.399   283.5767     6.8257     3.3878     0.0349      0.058      4.768      6.915        471 3.7520e-01 0.0000e+00
      4.879    18.9980     0.1289      1.380  57.945918     65.684      6.400   283.2360     6.8540     3.4281     0.0351      0.056      4.784      6.938        472 3.5970e-01 0.0000e+00
      4.898    18.9466     0.1207      1.293  58.447938     66.367      6.398   281.1917     6.8217     3.3341     0.0354      0.054      4.800      6.962        473 3.7399e-01 0.0000e+00
      4.905    18.9090     0.1240      1.327  58.437860     66.366      6.397   281.1539     5.9037     3.3878     0.0353      0.052      4.812      6.979        474 3.4213e-01 0.0000e+00
      4.919    18.8679     0.1239      1.325  58.374180     66.443      6.396   281.9867     5.8997     3.4281     0.0354      0.050      4.825      6.998        475 3.4559e-01 0.0000e+00
      4.937    18.8311     0.1243      1.330  58.289694     66.339      6.394   282.6682     5.8835     3.3341     0.0353      0.052      4.840      7.019        476 3.4876e-01 0.0000e+00
      4.947    18.8088     0.1199      1.283  58.246121     66.402      6.390   281.0781     5.9037     3.3878     0.0353      0.053      4.854      7.038        477 3.4601e-01 0.0000e+00
      4.962    18.7972     0.1223      1.307  58.220597     66.394      6.388   282.5546     5.8795     3.1327     0.0353      0.056      4.869      7.061        478 3.4992e-01 0.0000e+00
      4.986    18.7660     0.1186      1.267  58.202717     66.429      6.391   282.5167     5.1476     3.1864     0.0353      0.058      4.889      7.090        479 3.1170e-01 0.0000e+00
      5.006    18.7085     0.1163      1.242  58.327773     66.572      6.389   282.3653     5.1476     3.0924     0.0354      0.060      4.909      7.119        480 3.2160e-01 0.0000e+00
      5.024    18.6596     0.1219      1.302  58.569744     66.907      6.388   282.3274     5.1152     3.1864     0.0355      0.063      4.926      7.143        481 3.2649e-01 0.0000e+00
      5.038    18.6492     0.1157      1.233  58.673606     67.125      6.384   280.9646     5.1193     3.1193     0.0356      0.067      4.937      7.161        482 3.2506e-01 0.0000e+00
      5.040    18.6656     0.1202      1.279  58.584556     67.072      6.384   280.3210     3.1500     3.0521     0.0356      0.064      4.945      7.173        483 3.0389e-01 0.0000e+00
      5.051    18.6564     0.1198      1.272  58.561832     67.088      6.385   280.1696     3.1783     3.1461     0.0356      0.060      4.956      7.188        484 2.9747e-01 0.0000e+00
      5.071    18.6215     0.1220      1.293  58.701896     67.189      6.384   279.0339     3.1662     3.0790     0.0356      0.059      4.972      7.211        485 3.2305e-01 0.0000e+00
      5.086    18.5960     0.1226      1.298  58.885321     67.459      6.388   278.5796     3.1581     3.1864     0.0357      0.056      4.986      7.231        486 2.9967e-01 0.0000e+00
      5.095    18.5924     0.1276      1.350  58.957110     67.549      6.385   278.3146     2.8346     3.1730     0.0358      0.051      4.995      7.245        487 2.9072e-01 0.0000e+00
      5.099    18.5772     0.1251      1.323  58.850119     67.521      6.383   277.8224     2.8629     3.1193     0.0357      0.047      5.002      7.255        488 3.1344e-01 0.0000e+00
      5.109    18.5253     0.1300      1.373  58.988796     67.594      6.386   278.0874     2.8589     3.1730     0.0358      0.044      5.012      7.269        489 2.8280e-01 0.0000e+00
      5.123    18.5125     0.1267      1.337  59.378397     68.189      6.386   277.9739     2.8508     3.1730     0.0360      0.044      5.025      7.288        490 2.8696e-01 0.0000e+00
      5.139    18.5256     0.1310      1.382  59.196687     67.957      6.389   277.3681     2.6082     2.9178     0.0359      0.046      5.041      7.311        491 3.0091e-01 0.0000e+00
      5.160    18.4576     0.1267      1.335  59.214957     68.039      6.389   276.4974     2.5799     2.8507     0.0359      0.048      5.061      7.341        492 2.5909e-01 0.0000e+00
      5.185    18.3358     0.1235      1.299  59.830772     68.721      6.389   277.0653     2.5718     2.8641     0.0362      0.052      5.082      7.371        493 2.6103e-01 0.0000e+00
      5.200    18.2325     0.1243      1.307  60.419811     69.506      6.387   276.1946     2.6082     2.9178     0.0366      0.057      5.100      7.397        494 2.4823e-01 0.0000e+00
      5.218    18.1523     0.1251      1.316  60.768420     70.126      6.385   275.5510     2.7335     2.8776     0.0368      0.064      5.117      7.422        495 2.6125e-01 0.0000e+00
      5.235    18.0992     0.1255      1.319  60.970850     70.484      6.379   274.9074     2.7497     2.9178     0.0369      0.070      5.132      7.444        496 2.8459e-01 0.0000e+00
      5.246    18.0583     0.1229      1.291  61.029141     70.748      6.378   274.7181     2.7335     2.8641     0.0370      0.071      5.147      7.465        497 2.2202e-01 0.0000e+00
      5.266    18.0132     0.1246      1.308  61.705609     71.482      6.378   274.4910     2.7174     2.9044     0.0373      0.070      5.164      7.489        498 2.1975e-01 0.0000e+00
      5.283    17.9830     0.1206      1.266  63.395749     73.694      6.379   273.6581     2.8265     2.8373     0.0383      0.069      5.181      7.514        499 2.4632e-01 0.0000e+00
      5.299    17.9517     0.1213      1.273  63.885390     74.261      6.377   273.5067     2.8387     2.8776     0.0385      0.066      5.198      7.540        500 2.3974e-01 0.0000e+00
      5.322    17.9011     0.1210      1.268  63.680056     74.020      6.376   273.1660     2.8508     2.9313     0.0384      0.066      5.217      7.567        501 2.3093e-01 0.0000e+00
      5.337    17.8473     0.1167      1.221  63.948310     74.495      6.372   272.5224     2.8468     2.9984     0.0386      0.067      5.235      7.592        502 2.2683e-01 0.0000e+00
      5.355    17.8008     0.1195      1.249  63.551587     74.031      6.371   272.1817     2.8427     2.9850     0.0384      0.068      5.251      7.616        503 2.0470e-01 0.0000e+00
      5.372    17.7894     0.1232      1.286  62.926437     73.436      6.364   271.6517     3.1379     2.9581     0.0381      0.069      5.265      7.636        504 1.9713e-01 0.0000e+00
      5.378    17.7936     0.1214      1.266  62.855293     73.388      6.364   271.8031     3.1622     2.8507     0.0381      0.067      5.276      7.652        505 1.9870e-01 0.0000e+00
      5.394    17.7635     0.1173      1.224  62.957083     73.603      6.364   271.3488     3.1783     2.8238     0.0382      0.064      5.289      7.670        506 1.8937e-01 0.0000e+00
      5.408    17.7244     0.1219      1.270  62.710680     73.233      6.365   271.6138     3.1743     3.0253     0.0380      0.061      5.303      7.690        507 2.0123e-01 0.0000e+00
      5.418    17.7014     0.1191      1.241  62.449186     73.025      6.366   270.5538     2.9115     2.9447     0.0379      0.057      5.315      7.708        508 1.9672e-01 0.0000e+00
      5.433    17.6974     0.1211      1.261  62.391584     72.994      6.365   269.7588     2.9034     2.8507     0.0379      0.053      5.327      7.726        509 1.9540e-01 0.0000e+00
      5.443    17.6774     0.1177      1.224  62.455714     73.131      6.368   268.8881     2.8953     2.8507     0.0379      0.051      5.341      7.747        510 1.8334e-01 0.0000e+00
      5.464    17.5988     0.1158      1.204  62.369397     73.041      6.368   268.3960     2.8993     2.9447     0.0379      0.051      5.359      7.772        511 1.7810e-01 0.0000e+00
      5.484    17.5156     0.1167      1.211  62.231737     72.873      6.366   268.0553     2.9236     2.9581     0.0378      0.054      5.376      7.797        512 1.6699e-01 0.0000e+00
      5.496    17.4611     0.1172      1.216  62.300381     73.145      6.361   266.8438     2.9357     2.9715     0.0379      0.057      5.391      7.819        513 1.5858e-01 0.0000e+00
      5.514    17.4196     0.1172      1.216  62.343421     73.287      6.360   266.3517     2.9398     3.0118     0.0380      0.059      5.405      7.840        514 1.8657e-01 0.0000e+00
      5.523    17.3931     0.1107      1.148  62.445519     73.545      6.358   265.8217     2.9115     2.8776     0.0381      0.060      5.417      7.857        515 2.0214e-01 0.0000e+00
      5.535    17.3625     0.1189      1.233  62.500051     73.651      6.362   264.9888     2.9681     2.8641     0.0381      0.059      5.430      7.876        516 1.7512e-01 0.0000e+00
      5.556    17.3297     0.1165      1.207  62.691366     73.927      6.365   264.2317     2.9721     2.9044     0.0382      0.060      5.445      7.897        517 1.7834e-01 0.0000e+00
      5.564    17.3135     0.1129      1.168  62.771723     74.112      6.362   263.1717     2.9842     2.9447     0.0383      0.058      5.455      7.912        518 1.7503e-01 0.0000e+00
      5.568    17.2866     0.1199      1.239  62.726753     74.040      6.363   263.2095     3.0085     2.9581     0.0382      0.052      5.465      7.926        519 1.6153e-01 0.0000e+00
      5.587    17.2441     0.1202      1.240  63.103738     74.594      6.367   262.3767     2.9195     2.9984     0.0385      0.050      5.480      7.949        520 1.6495e-01 0.0000e+00
      5.608    17.2039     0.1187      1.223  63.371747     74.907      6.367   261.1274     2.9074     2.9178     0.0386      0.051      5.502      7.980        521 1.5122e-01 0.0000e+00
      5.638    17.1583     0.1168      1.202  63.462406     75.116      6.369   260.5217     2.9115     2.8373     0.0387      0.057      5.528      8.018        522 1.7594e-01 0.0000e+00
      5.666    17.1310     0.1189      1.224  63.584934     75.319      6.368   259.4995     2.9115     2.9447     0.0388      0.066      5.550      8.050        523 1.8593e-01 0.0000e+00
      5.673    17.1163     0.1183      1.217  63.516295     75.335      6.367   258.1745     3.0368     2.5956     0.0388      0.070      5.565      8.071        524 1.5541e-01 0.0000e+00
      5.688    17.0896     0.1147      1.180  63.488463     75.319      6.366   257.4174     3.0692     2.5553     0.0387      0.072      5.578      8.091        525 1.5653e-01 0.0000e+00
      5.705    17.0810     0.1191      1.225  63.560198     75.473      6.364   256.4331     3.0247     2.4747     0.0388      0.075      5.593      8.111        526 1.5781e-01 0.0000e+00
      5.713    17.0560     0.1183      1.214  63.545839     75.461      6.364   255.7516     3.0489     2.5150     0.0388      0.074      5.605      8.130        527 1.3213e-01 0.0000e+00
      5.730    16.9893     0.1207      1.237  63.565749     75.539      6.367   254.5781     3.0409     2.4747     0.0388      0.068      5.619      8.150        528 1.2449e-01 0.0000e+00
      5.746    16.9248     0.1222      1.252  63.594834     75.582      6.369   253.6316     3.1015     2.5419     0.0388      0.062      5.635      8.173        529 1.3137e-01 0.0000e+00
      5.762    16.8664     0.1187      1.215  63.628468     75.773      6.376   252.6473     3.1217     2.5553     0.0389      0.057      5.651      8.196        530 1.3410e-01 0.0000e+00
      5.779    16.8072     0.1179      1.206  63.642741     75.887      6.376   252.1173     3.1258     2.6090     0.0389      0.056      5.668      8.220        531 1.2750e-01 0.0000e+00
      5.797    16.7559     0.1162      1.188  63.161339     75.460      6.377   251.0573     3.1015     2.5419     0.0387      0.060      5.684      8.244        532 1.2431e-01 0.0000e+00
      5.812    16.7273     0.1165      1.191  62.415981     74.594      6.379   249.8838     3.0853     2.5016     0.0383      0.061      5.699      8.267        533 1.2726e-01 0.0000e+00
      5.826    16.7262     0.1177      1.202  62.135091     74.420      6.383   249.3538     3.1055     2.5687     0.0382      0.062      5.714      8.287        534 1.3221e-01 0.0000e+00
      5.840    16.7242     0.1152      1.176  61.996339     74.269      6.383   248.4831     3.0651     2.5284     0.0381      0.063      5.729      8.309        535 1.2645e-01 0.0000e+00
      5.860    16.6795     0.1134      1.157  61.727453     73.970      6.384   247.8395     3.0975     2.4613     0.0380      0.063      5.746      8.334        536 1.2593e-01 0.0000e+00
      5.878    16.6080     0.1132      1.155  61.489716     73.668      6.381   246.8552     3.0975     2.6896     0.0379      0.064      5.763      8.358        537 1.4636e-01 0.0000e+00
      5.889    16.5506     0.1163      1.185  61.371606     73.615      6.385   245.5680     3.0934     2.6224     0.0378      0.063      5.776      8.377        538 1.4418e-01 0.0000e+00
      5.902    16.5069     0.1148      1.169  61.339934     73.709      6.386   245.4545     3.0853     2.7298     0.0379      0.061      5.790      8.397        539 1.2776e-01 0.0000e+00
      5.920    16.4751     0.1135      1.155  61.321310     73.777      6.384   244.1673     3.1177     2.6090     0.0379      0.061      5.804      8.417        540 1.2367e-01 0.0000e+00
      5.930    16.4608     0.1113      1.130  61.305745     73.854      6.387   242.8802     3.1258     2.5150     0.0379      0.059      5.814      8.432        541 1.3737e-01 0.0000e+00
      5.935    16.4433     0.1131      1.149  61.329645     73.912      6.386   241.6309     3.1015     2.5419     0.0379      0.056      5.823      8.446        542 1.4838e-01 0.0000e+00
      5.949    16.4067     0.1183      1.200  61.261896     73.903      6.387   241.4416     3.1258     2.5016     0.0379      0.052      5.835      8.464        543 1.2925e-01 0.0000e+00
      5.967    16.3689     0.1128      1.143  61.033720     73.595      6.388   240.1166     3.0934     2.4479     0.0377      0.050      5.850      8.484        544 1.2348e-01 0.0000e+00
      5.978    16.3478     0.1134      1.150  60.930614     73.594      6.387   239.3216     3.1662     2.5150     0.0377      0.048      5.863      8.504        545 1.2691e-01 0.0000e+00
      5.991    16.3410     0.1141      1.155  60.974493     73.661      6.387   237.1259     3.1622     2.4613     0.0378      0.049      5.878      8.525        546 1.2490e-01 0.0000e+00
      6.011    16.3248     0.1149      1.164  61.097926     73.902      6.387   236.7094     3.1662     2.4881     0.0379      0.051      5.896      8.551        547 1.2607e-01 0.0000e+00
      6.033    16.2812     0.1149      1.163  61.222463     74.015      6.388   235.9144     3.1824     2.5687     0.0379      0.055      5.915      8.579        548 1.2530e-01 0.0000e+00
      6.049    16.2233     0.1145      1.158  61.175872     74.043      6.386   234.9302     3.2309     2.2733     0.0379      0.060      5.932      8.605        549 1.2592e-01 0.0000e+00
      6.067    16.1660     0.1139      1.151  61.363799     74.258      6.383   233.7944     3.2390     2.2599     0.0380      0.065      5.950      8.631        550 1.2559e-01 0.0000e+00
      6.088    16.1234     0.1164      1.175  61.909225     75.143      6.381   232.3937     3.2228     2.1659     0.0384      0.068      5.968      8.656        551 1.2592e-01 0.0000e+00
      6.100    16.0956     0.1119      1.129  62.189868     75.486      6.377   232.0530     3.2228     2.2733     0.0385      0.069      5.983      8.678        552 1.2565e-01 0.0000e+00
      6.117    16.0589     0.1121      1.132  62.499454     76.008      6.374   231.7501     3.2390     2.2464     0.0387      0.070      6.000      8.701        553 1.2567e-01 0.0000e+00
      6.137    16.0238     0.1121      1.131  62.800999     76.397      6.377   231.1823     3.3118     2.5150     0.0389      0.070      6.016      8.725        554 1.2572e-01 0.0000e+00
      6.147    16.0027     0.1117      1.127  62.854068     76.535      6.374   228.8351     3.2996     2.5419     0.0389      0.067      6.030      8.746        555 1.2572e-01 0.0000e+00
      6.164    15.9792     0.1110      1.119  62.997713     76.772      6.375   229.2894     3.2916     2.5553     0.0390      0.065      6.045      8.769        556 1.2563e-01 0.0000e+00
      6.183    15.9601     0.1115      1.124  63.038046     76.878      6.375   229.0623     3.2916     2.4344     0.0391      0.064      6.061      8.792        557 1.2565e-01 0.0000e+00
      6.196    15.9466     0.1099      1.108  63.160283     77.025      6.374   227.3587     3.1743     2.2733     0.0391      0.063      6.075      8.811        558 1.2572e-01 0.0000e+00
      6.207    15.9159     0.1096      1.103  63.380195     77.403      6.378   226.3366     3.1702     2.2867     0.0393      0.060      6.088      8.830        559 1.2562e-01 0.0000e+00
      6.222    15.8691     0.1098      1.105  63.298971     77.256      6.378   226.2230     3.1622     2.3807     0.0392      0.060      6.102      8.850        560 1.2548e-01 0.0000e+00
      6.237    15.8335     0.1076      1.081  63.528676     77.622      6.379   225.6173     3.1743     2.3941     0.0394      0.058      6.114      8.868        561 1.2579e-01 0.0000e+00
      6.243    15.8169     0.1110      1.115  63.658651     77.918      6.376   224.7087     3.1177     2.2062     0.0395      0.054      6.121      8.878        562 1.2535e-01 0.0000e+00
      6.245    15.8110     0.1097      1.101  63.582749     77.781      6.378   223.8001     3.0772     2.0584     0.0394      0.050      6.129      8.888        563 1.2599e-01 0.0000e+00
      6.261    15.8090     0.1068      1.072  63.890466     78.325      6.377   223.1187     3.1096     2.2330     0.0396      0.046      6.141      8.906        564 1.2518e-01 0.0000e+00
      6.278    15.8010     0.1070      1.073  64.285527     78.681      6.379   222.5887     3.1339     2.2330     0.0398      0.044      6.155      8.927        565 1.2664e-01 0.0000e+00
      6.289    15.7838     0.1079      1.081  65.110766     79.814      6.380   222.3237     3.1379     2.0987     0.0403      0.044      6.167      8.944        566 1.2426e-01 0.0000e+00
      6.298    15.7581     0.1105      1.107  65.685116     80.483      6.380   221.7180     3.1177     2.1659     0.0406      0.043      6.179      8.961        567 1.2810e-01 0.0000e+00
      6.314    15.7251     0.1080      1.081  66.243966     81.167      6.381   220.7337     3.0853     2.0853     0.0409      0.044      6.195      8.985        568 1.3802e-01 0.0000e+00
      6.341    15.6906     0.1108      1.108  66.494523     81.667      6.378   220.6958     3.0853     2.2196     0.0411      0.050      6.216      9.016        569 1.2806e-01 0.0000e+00
      6.358    15.6621     0.1086      1.086  66.294133     81.250      6.372   220.8851     3.0449     2.1659     0.0409      0.057      6.234      9.042        570 1.2426e-01 0.0000e+00
      6.370    15.6284     0.1125      1.125  66.018116     81.287      6.369   220.0523     3.0570     2.1524     0.0409      0.062      6.251      9.066        571 1.2650e-01 0.0000e+00
      6.395    15.5851     0.1118      1.116  65.263788     80.068      6.366   219.1058     3.0328     2.0719     0.0404      0.065      6.272      9.097        572 1.2532e-01 0.0000e+00
      6.422    15.5486     0.1089      1.087  65.331924     80.514      6.361   219.2194     3.0247     2.1927     0.0406      0.071      6.295      9.129        573 1.2584e-01 0.0000e+00
      6.438    15.5196     0.1051      1.049  65.695718     80.842      6.360   218.4623     3.0206     1.9779     0.0407      0.076      6.316      9.159        574 1.2579e-01 0.0000e+00
      6.460    15.4955     0.1043      1.041  66.058604     81.502      6.362   217.7430     3.0409     1.8705     0.0410      0.080      6.336      9.189        575 1.2517e-01 0.0000e+00
      6.484    15.4761     0.1063      1.060  66.662551     82.216      6.361   217.3265     3.0570     2.0047     0.0413      0.082      6.358      9.222        576 1.2651e-01 0.0000e+00
      6.505    15.4510     0.1060      1.057  67.082824     82.853      6.364   216.2665     3.0328     2.0584     0.0416      0.082      6.380      9.253        577 1.2433e-01 0.0000e+00
      6.528    15.4242     0.1092      1.089  67.288166     83.099      6.366   215.5472     3.0409     1.9645     0.0417      0.085      6.400      9.282        578 1.2789e-01 0.0000e+00
      6.544    15.4083     0.1086      1.082  67.268465     83.151      6.362   214.6765     2.9721     1.8570     0.0417      0.086      6.417      9.307        579 1.3761e-01 0.0000e+00
      6.559    15.3896     0.1063      1.059  67.285595     83.207      6.365   213.3137     2.9640     1.9107     0.0417      0.082      6.434      9.331        580 1.2788e-01 0.0000e+00
      6.580    15.3542     0.1047      1.042  67.415400     83.412      6.365   212.6701     2.9600     1.9107     0.0418      0.079      6.452      9.358        581 1.2422e-01 0.0000e+00
      6.599    15.3225     0.1123      1.117  67.522819     83.589      6.368   211.6479     2.9762     1.9107     0.0419      0.078      6.471      9.386        582 1.2662e-01 0.0000e+00
      6.618    15.3064     0.1036      1.031  67.538105     83.663      6.369   210.8529     3.0570     2.0182     0.0419      0.076      6.488      9.411        583 1.2514e-01 0.0000e+00
      6.632    15.2880     0.1052      1.048  67.574639     83.799      6.364   209.3387     3.0692     1.9645     0.0419      0.072      6.503      9.432        584 1.2598e-01 0.0000e+00
      6.642    15.2598     0.1018      1.014  67.536791     83.761      6.371   208.6194     3.0570     1.9376     0.0419      0.068      6.517      9.452        585 1.2553e-01 0.0000e+00
      6.664    15.2467     0.1012      1.008  67.704048     84.009      6.372   207.4079     3.0287     1.8973     0.0420      0.067      6.534      9.477        586 1.2578e-01 0.0000e+00
      6.680    15.2477     0.1019      1.015  67.782391     84.206      6.368   206.7265     3.0611     1.7496     0.0421      0.066      6.551      9.503        587 1.2565e-01 0.0000e+00
      6.698    15.2276     0.1008      1.003  67.795786     84.168      6.372   205.8558     3.0449     1.8570     0.0421      0.066      6.569      9.528        588 1.2572e-01 0.0000e+00
      6.719    15.2068     0.1047      1.041  67.954746     84.472      6.378   204.7958     3.0530     1.6959     0.0422      0.066      6.586      9.553        589 1.2558e-01 0.0000e+00
      6.731    15.1954     0.0995      0.988  67.941049     84.380      6.377   203.9629     3.0489     1.8167     0.0422      0.066      6.601      9.575        590 1.2573e-01 0.0000e+00
      6.746    15.1759     0.0989      0.982  67.991082     84.596      6.379   203.1679     3.0489     1.9645     0.0422      0.065      6.616      9.595        591 1.2572e-01 0.0000e+00
      6.762    15.1629     0.1030      1.022  68.100441     84.654      6.382   202.3351     3.0125     2.0182     0.0423      0.066      6.628      9.614        592 1.2581e-01 0.0000e+00
      6.769    15.1670     0.1017      1.009  68.191151     84.906      6.384   201.4643     3.0328     1.9645     0.0424      0.063      6.637      9.626        593 1.2582e-01 0.0000e+00
      6.772    15.1775     0.1055      1.046  68.086157     84.724      6.387   200.5558     3.0409     1.9242     0.0423      0.056      6.642      9.633        594 1.2572e-01 0.0000e+00
      6.779    15.1782     0.1061      1.051  68.023169     84.681      6.389   199.5336     3.0328     1.6959     0.0423      0.049      6.648      9.642        595 1.2576e-01 0.0000e+00
      6.787    15.1816     0.1080      1.069  68.061591     84.692      6.392   198.8143     3.0530     1.7630     0.0423      0.042      6.657      9.654        596 1.2564e-01 0.0000e+00
      6.797    15.1792     0.1044      1.033  68.127456     84.761      6.396   198.5493     3.0449     1.7630     0.0423      0.036      6.669      9.672        597 1.2561e-01 0.0000e+00
      6.816    15.1480     0.1058      1.046  68.446212     85.173      6.397   196.7700     3.0570     1.7630     0.0425      0.036      6.686      9.697        598 1.2580e-01 0.0000e+00
      6.840    15.0968     0.1081      1.068  68.645228     85.417      6.396   196.5050     3.0570     1.9376     0.0426      0.040      6.709      9.730        599 1.2569e-01 0.0000e+00
      6.868    15.0396     0.1027      1.014  68.919538     85.803      6.398   196.3158     3.0328     1.9645     0.0428      0.049      6.732      9.765        600 1.2566e-01 0.0000e+00
      6.886    15.0099     0.1076      1.062  69.233753     86.362      6.393   195.6343     3.0409     1.9913     0.0430      0.059      6.750      9.790        601 1.2569e-01 0.0000e+00
      6.893    15.0081     0.1022      1.008  69.056348     86.211      6.392   193.4386     3.0692     1.9913     0.0429      0.066      6.762      9.807        602 1.2565e-01 0.0000e+00
      6.907    15.0050     0.1034      1.020  69.080944     86.307      6.392   192.9465     3.0368     1.9376     0.0429      0.070      6.774      9.825        603 1.2576e-01 0.0000e+00
      6.921    14.9855     0.1012      0.998  69.470547     86.836      6.395   192.4543     2.9883     2.0182     0.0432      0.070      6.788      9.847        604 1.2570e-01 0.0000e+00
      6.939    14.9529     0.1044      1.029  69.759835     87.157      6.398   191.4700     2.9721     2.0182     0.0433      0.068      6.807      9.874        605 1.2560e-01 0.0000e+00
      6.966    14.9224     0.1023      1.008  70.236084     87.829      6.399   189.6529     2.9640     1.9779     0.0436      0.067      6.831      9.908        606 1.2566e-01 0.0000e+00
      6.991    14.8888     0.1013      0.999  70.749573     88.534      6.398   189.4636     2.9923     1.9645     0.0439      0.068      6.856      9.943        607 1.2575e-01 0.0000e+00
      7.016    14.8546     0.1059      1.043  70.844004     88.739      6.397   188.8957     2.9802     1.7362     0.0440      0.071      6.880      9.977        608 1.2579e-01 0.0000e+00
      7.038    14.8265     0.1047      1.031  70.831640     88.745      6.399   187.8357     2.9842     1.7093     0.0440      0.078      6.901     10.009        609 1.2576e-01 0.0000e+00
      7.058    14.7985     0.1079      1.062  70.883833     88.962      6.398   187.3436     2.9559     1.6959     0.0441      0.084      6.921     10.039        610 1.2574e-01 0.0000e+00
      7.079    14.7717     0.1037      1.020  70.719663     88.743      6.399   186.3593     2.9802     1.6690     0.0440      0.088      6.944     10.072        611 1.2571e-01 0.0000e+00
      7.109    14.7521     0.1023      1.006  70.560611     88.665      6.400   185.8672     2.9802     1.8705     0.0439      0.092      6.968     10.106        612 1.2562e-01 0.0000e+00
      7.127    14.7410     0.1044      1.026  70.457883     88.549      6.396   185.2236     2.9721     2.0047     0.0439      0.091      6.985     10.131        613 1.2567e-01 0.0000e+00
      7.130    14.7331     0.1030      1.012  70.491009     88.663      6.394   184.3907     2.9721     1.9913     0.0439      0.084      6.995     10.146        614 1.2577e-01 0.0000e+00
      7.145    14.7278     0.1034      1.015  70.489696     88.688      6.398   183.5200     2.9842     1.9913     0.0439      0.078      7.008     10.164        615 1.2567e-01 0.0000e+00
      7.162    14.7266     0.1014      0.995  70.370402     88.529      6.398   184.0500     2.9802     1.6153     0.0439      0.072      7.022     10.184        616 1.2569e-01 0.0000e+00
      7.171    14.7119     0.0990      0.971  70.372085     88.577      6.400   183.1036     3.0125     1.7093     0.0439      0.065      7.037     10.206        617 1.2566e-01 0.0000e+00
      7.196    14.6813     0.0942      0.924  70.012251     88.120      6.403   181.8164     2.9721     1.7093     0.0437      0.062      7.058     10.236        618 1.2565e-01 0.0000e+00
      7.224    14.6552     0.1038      1.017  69.689260     87.694      6.403   182.5736     2.9600     1.7765     0.0435      0.063      7.081     10.271        619 1.2576e-01 0.0000e+00
      7.241    14.6347     0.0965      0.945  69.645106     87.799      6.406   181.5893     2.9802     1.6959     0.0435      0.064      7.102     10.301        620 1.2569e-01 0.0000e+00
      7.262    14.6117     0.0961      0.942  69.591880     87.679      6.409   180.5293     2.9964     1.6288     0.0434      0.070      7.123     10.331        621 1.2585e-01 0.0000e+00
      7.288    14.5896     0.0987      0.966  69.755524     88.043      6.408   179.9614     2.9923     1.7496     0.0436      0.078      7.145     10.363        622 1.2586e-01 0.0000e+00
      7.307    14.5698     0.1049      1.027  69.738565     87.988      6.412   179.5829     2.9762     1.6422     0.0436      0.082      7.165     10.392        623 1.2571e-01 0.0000e+00
      7.326    14.5527     0.1026      1.004  69.523882     87.825      6.411   179.0907     2.9802     1.9107     0.0435      0.084      7.183     10.419        624 1.2569e-01 0.0000e+00
      7.342    14.5420     0.1050      1.027  69.398833     87.656      6.412   178.1821     2.9964     1.9376     0.0434      0.084      7.201     10.444        625 1.2561e-01 0.0000e+00
      7.361    14.5278     0.1038      1.016  69.478285     87.837      6.415   177.0464     2.9923     1.9645     0.0435      0.081      7.220     10.471        626 1.2580e-01 0.0000e+00
      7.384    14.5048     0.1045      1.022  69.543854     87.930      6.414   176.7057     2.9883     2.0182     0.0435      0.078      7.239     10.498        627 1.2576e-01 0.0000e+00
      7.397    14.4850     0.1066      1.042  69.376663     87.749      6.417   175.9486     2.9721     1.9242     0.0434      0.077      7.254     10.520        628 1.2561e-01 0.0000e+00
      7.409    14.4673     0.1017      0.994  69.448698     87.872      6.416   175.4943     3.0611     1.7496     0.0435      0.072      7.268     10.540        629 1.2571e-01 0.0000e+00
      7.426    14.4480     0.0968      0.946  69.691897     88.271      6.420   173.8286     3.0368     1.7228     0.0436      0.068      7.283     10.563        630 1.2578e-01 0.0000e+00
      7.445    14.4295     0.0999      0.977  69.371114     87.883      6.422   173.2607     3.0651     1.7093     0.0435      0.067      7.302     10.591        631 1.2576e-01 0.0000e+00
      7.468    14.4127     0.0931      0.909  69.313172     87.786      6.423   172.8821     3.0247     1.7228     0.0434      0.068      7.322     10.621        632 1.2574e-01 0.0000e+00
      7.488    14.4030     0.0927      0.906  69.912571     88.712      6.422   171.5571     2.9842     1.7765     0.0438      0.069      7.340     10.646        633 1.2564e-01 0.0000e+00
      7.497    14.3887     0.0934      0.912  69.813540     88.540      6.422   171.1785     2.9883     1.6556     0.0437      0.068      7.353     10.664        634 1.2553e-01 0.0000e+00
      7.510    14.3690     0.0943      0.920  69.614676     88.311      6.425   170.8378     2.9681     1.7496     0.0436      0.066      7.365     10.682        635 1.2553e-01 0.0000e+00
      7.525    14.3514     0.0957      0.934  69.565886     88.344      6.428   170.2321     2.9883     1.8302     0.0436      0.065      7.380     10.703        636 1.2562e-01 0.0000e+00
      7.540    14.3393     0.1022      0.997  69.785147     88.531      6.427   169.1343     2.9802     1.7899     0.0437      0.064      7.394     10.723        637 1.2578e-01 0.0000e+00
      7.552    14.3327     0.0982      0.959  69.906298     88.960      6.427   168.7178     2.9964     1.9242     0.0439      0.060      7.405     10.740        638 1.2567e-01 0.0000e+00
      7.560    14.3229     0.0997      0.973  70.187566     88.990      6.430   168.0742     2.9883     1.6959     0.0439      0.055      7.415     10.755        639 1.2568e-01 0.0000e+00
      7.572    14.3209     0.1010      0.986  71.514850     91.101      6.431   167.6957     2.9923     1.7765     0.0449      0.050      7.426     10.770        640 1.2591e-01 0.0000e+00
      7.583    14.3215     0.0975      0.951  72.354618     91.840      6.430   167.0142     2.9964     1.6556     0.0452      0.048      7.440     10.790        641 1.2587e-01 0.0000e+00
      7.605    14.3065     0.0962      0.938  73.807309     93.907      6.427   166.4464     2.9883     1.7630     0.0461      0.050      7.460     10.820        642 1.2568e-01 0.0000e+00
      7.633    14.2866     0.0987      0.963  75.709326     96.256      6.428   166.1435     3.0085     1.8436     0.0472      0.055      7.482     10.851        643 1.2570e-01 0.0000e+00
      7.648    14.2726     0.1011      0.986  75.901013     96.613      6.426   165.8407     2.9559     1.7899     0.0474      0.059      7.499     10.876        644 1.2573e-01 0.0000e+00
      7.660    14.2643     0.0969      0.944  75.678641     96.201      6.424   165.3485     3.0409     1.7765     0.0472      0.062      7.512     10.895        645 1.2569e-01 0.0000e+00
      7.672    14.2664     0.0955      0.930  75.926650     96.767      6.422   164.7050     3.0368     1.7362     0.0474      0.064      7.523     10.911        646 1.2578e-01 0.0000e+00
      7.680    14.2691     0.0912      0.888  75.503235     96.077      6.427   163.9478     3.0247     1.7093     0.0471      0.064      7.532     10.924        647 1.2574e-01 0.0000e+00
      7.690    14.2620     0.0988      0.961  75.165468     95.713      6.427   163.6450     3.0409     1.7362     0.0469      0.060      7.540     10.936        648 1.2566e-01 0.0000e+00
      7.696    14.2525     0.1002      0.975  75.158298     95.707      6.428   163.3799     3.0611     1.5616     0.0469      0.054      7.549     10.949        649 1.2570e-01 0.0000e+00
      7.711    14.2471     0.0935      0.910  74.709804     95.118      6.428   162.3199     3.0409     1.4542     0.0467      0.047      7.562     10.969        650 1.2570e-01 0.0000e+00
      7.728    14.2400     0.0896      0.871  74.445808     94.821      6.428   161.6764     3.0570     1.5348     0.0465      0.043      7.577     10.989        651 1.2573e-01 0.0000e+00
      7.737    14.2306     0.0971      0.944  74.714219     95.154      6.429   161.2221     3.0692     1.5348     0.0467      0.043      7.588     11.006        652 1.2575e-01 0.0000e+00
      7.748    14.2295     0.1039      1.010  74.702657     95.243      6.430   160.8435     3.0328     1.6153     0.0467      0.043      7.598     11.021        653 1.2578e-01 0.0000e+00
      7.759    14.2155     0.1030      1.001  74.044190     94.303      6.432   159.8971     2.9519     1.4810     0.0463      0.044      7.609     11.036        654 1.2580e-01 0.0000e+00
      7.771    14.1836     0.1031      1.001  73.721023     93.984      6.431   159.4428     2.9842     1.4676     0.0461      0.046      7.619     11.051        655 1.2567e-01 0.0000e+00
      7.778    14.1636     0.1007      0.977  73.708212     93.943      6.432   159.0264     2.9964     1.5213     0.0461      0.045      7.627     11.063        656 1.2565e-01 0.0000e+00
      7.786    14.1444     0.0996      0.967  73.822427     94.204      6.434   159.5185     2.9802     1.5079     0.0462      0.044      7.637     11.076        657 1.2579e-01 0.0000e+00
      7.800    14.1210     0.1042      1.011  74.024633     94.498      6.435   158.3828     3.0570     1.6959     0.0463      0.041      7.648     11.093        658 1.2565e-01 0.0000e+00
      7.811    14.1067     0.0983      0.954  74.080610     94.617      6.437   157.4742     3.0247     1.6959     0.0464      0.040      7.661     11.111        659 1.2558e-01 0.0000e+00
      7.825    14.0920     0.0927      0.900  74.228232     94.853      6.438   158.4206     3.0409     1.7899     0.0465      0.042      7.676     11.134        660 1.2571e-01 0.0000e+00
      7.848    14.0729     0.0984      0.955  74.762130     95.567      6.439   158.0421     3.0287     1.6556     0.0468      0.046      7.695     11.161        661 1.2570e-01 0.0000e+00
      7.866    14.0570     0.0910      0.883  75.139734     96.140      6.441   156.4899     2.9883     1.6690     0.0471      0.051      7.712     11.185        662 1.2572e-01 0.0000e+00
      7.876    14.0473     0.0911      0.882  75.154994     96.117      6.443   156.8685     2.9883     1.6422     0.0470      0.055      7.724     11.202        663 1.2568e-01 0.0000e+00
      7.885    14.0396     0.0945      0.915  75.218622     96.335      6.442   157.1335     3.0085     1.7630     0.0471      0.057      7.734     11.216        664 1.2564e-01 0.0000e+00
      7.895    14.0285     0.0963      0.933  75.268585     96.323      6.447   157.0578     2.9883     1.7228     0.0471      0.056      7.745     11.233        665 1.2567e-01 0.0000e+00
      7.913    14.0151     0.0948      0.918  75.449434     96.664      6.451   155.6949     3.0449     1.7093     0.0473      0.056      7.760     11.255        666 1.2564e-01 0.0000e+00
      7.931    14.0068     0.0970      0.939  75.647349     96.871      6.450   155.3542     3.0368     1.6959     0.0474      0.056      7.776     11.278        667 1.2565e-01 0.0000e+00
      7.943    13.9967     0.0993      0.961  75.616644     96.941      6.448   155.3542     3.0489     1.6690     0.0474      0.054      7.790     11.299        668 1.2574e-01 0.0000e+00
      7.959    13.9798     0.0968      0.937  75.636246     96.890      6.448   154.7106     3.0570     1.7362     0.0474      0.053      7.805     11.320        669 1.2569e-01 0.0000e+00
      7.974    13.9698     0.0931      0.901  75.801271     97.236      6.446   152.9692     2.9842     1.6959     0.0475      0.054      7.819     11.340        670 1.2569e-01 0.0000e+00
      7.985    13.9626     0.0925      0.895  75.797617     97.173      6.448   153.1585     2.9883     1.7228     0.0475      0.056      7.834     11.363        671 1.2580e-01 0.0000e+00
      8.008    13.9460     0.0925      0.894  75.997424     97.520      6.448   152.5906     2.9802     1.7362     0.0476      0.060      7.853     11.391        672 1.2572e-01 0.0000e+00
      8.031    13.9253     0.0911      0.881  76.236144     97.825      6.445   152.1363     2.9721     1.7093     0.0478      0.063      7.875     11.422        673 1.2571e-01 0.0000e+00
      8.053    13.9074     0.0956      0.924  76.451531     98.119      6.446   149.8271     2.9762     1.6690     0.0479      0.067      7.897     11.454        674 1.2587e-01 0.0000e+00
      8.076    13.8998     0.0916      0.885  76.888428     98.783      6.448   149.6756     2.9762     1.7496     0.0482      0.071      7.916     11.481        675 1.2575e-01 0.0000e+00
      8.085    13.8974     0.0967      0.934  76.851497     98.757      6.442   149.5242     2.9883     1.8167     0.0482      0.073      7.931     11.502        676 1.2563e-01 0.0000e+00
      8.101    13.8813     0.0975      0.941  76.854138     98.741      6.447   147.4799     3.0247     1.7630     0.0482      0.074      7.948     11.528        677 1.2581e-01 0.0000e+00
      8.131    13.8615     0.0910      0.879  77.360669     99.465      6.444   147.4042     3.3643     1.7899     0.0485      0.077      7.969     11.558        678 1.2587e-01 0.0000e+00
      8.145    13.8527     0.0961      0.927  77.499088     99.651      6.443   147.2906     3.3482     1.6153     0.0486      0.077      7.984     11.580        679 1.2565e-01 0.0000e+00
      8.148    13.8505     0.0906      0.874  77.424890     99.595      6.445   145.9656     3.3441     1.6556     0.0485      0.071      7.992     11.592        680 1.2566e-01 0.0000e+00
      8.158    13.8454     0.0934      0.901  77.363864     99.580      6.447   145.1706     3.3603     1.7899     0.0485      0.064      8.003     11.609        681 1.2582e-01 0.0000e+00
      8.180    13.8266     0.0892      0.860  77.545324     99.731      6.450   144.7920     3.3684     1.6556     0.0486      0.060      8.021     11.634        682 1.2572e-01 0.0000e+00
      8.200    13.8056     0.0922      0.888  78.060972    100.535      6.452   144.8678     3.1702     1.7630     0.0490      0.060      8.039     11.659        683 1.2564e-01 0.0000e+00
      8.211    13.7918     0.0903      0.870  78.208199    100.658      6.453   143.7320     3.1702     1.7765     0.0490      0.060      8.051     11.678        684 1.2565e-01 0.0000e+00
      8.220    13.7822     0.0930      0.896  78.253750    100.856      6.455   143.5427     3.1541     1.7228     0.0491      0.056      8.061     11.693        685 1.2562e-01 0.0000e+00
      8.231    13.7768     0.1001      0.964  78.360963    100.965      6.459   144.0349     3.1743     1.7362     0.0491      0.052      8.072     11.708        686 1.2577e-01 0.0000e+00
      8.244    13.7716     0.0982      0.946  78.372007    101.061      6.461   142.5206     3.1622     1.7630     0.0492      0.052      8.086     11.727        687 1.2580e-01 0.0000e+00
      8.260    13.7603     0.0964      0.929  78.477790    101.148      6.462   142.2556     3.1622     1.7630     0.0492      0.054      8.102     11.751        688 1.2565e-01 0.0000e+00
      8.281    13.7468     0.0963      0.928  78.912930    101.775      6.462   141.0820     3.1460     1.7630     0.0495      0.055      8.123     11.782        689 1.2572e-01 0.0000e+00
      8.309    13.7362     0.0951      0.916  79.376050    102.383      6.462   141.6877     3.1662     1.7496     0.0498      0.058      8.148     11.818        690 1.2564e-01 0.0000e+00
      8.336    13.7220     0.0951      0.916  79.268694    102.311      6.465   141.1199     3.1622     1.7362     0.0497      0.065      8.173     11.853        691 1.2561e-01 0.0000e+00
      8.356    13.7055     0.0937      0.903  79.343774    102.338      6.465   140.3627     3.1702     1.6825     0.0497      0.073      8.193     11.883        692 1.2565e-01 0.0000e+00
      8.374    13.6923     0.0935      0.900  79.906824    103.244      6.467   140.1735     3.1622     1.6959     0.0501      0.080      8.210     11.908        693 1.2574e-01 0.0000e+00
      8.389    13.6819     0.0919      0.885  80.113629    103.433      6.470   139.2270     3.1905     1.7362     0.0502      0.083      8.225     11.928        694 1.2573e-01 0.0000e+00
      8.398    13.6750     0.0901      0.867  80.156482    103.612      6.470   138.5456     3.1905     1.8436     0.0503      0.081      8.235     11.943        695 1.2567e-01 0.0000e+00
      8.404    13.6716     0.0923      0.889  80.269649    103.713      6.472   137.6370     3.1824     1.7630     0.0503      0.073      8.242     11.954        696 1.2575e-01 0.0000e+00
      8.411    13.6673     0.0901      0.867  80.418672    103.985      6.473   136.9177     3.1905     1.7630     0.0505      0.063      8.249     11.965        697 1.2561e-01 0.0000e+00
      8.423    13.6601     0.0935      0.900  80.684425    104.284      6.475   136.2363     3.2066     1.7228     0.0506      0.052      8.259     11.979        698 1.2569e-01 0.0000e+00
      8.432    13.6532     0.0924      0.888  80.979303    104.729      6.476   134.7599     3.1379     1.4676     0.0508      0.044      8.270     11.994        699 1.2588e-01 0.0000e+00
      8.444    13.6465     0.0924      0.888  81.151539    104.931      6.478   134.7977     3.1864     1.4945     0.0509      0.040      8.281     12.011        700 1.2578e-01 0.0000e+00
      8.457    13.6400     0.0901      0.865  81.213224    105.058      6.479   134.4949     3.1460     1.5482     0.0509      0.038      8.293     12.028        701 1.2573e-01 0.0000e+00
      8.468    13.6373     0.0942      0.905  81.288981    105.149      6.482   133.2077     3.1945     1.4542     0.0510      0.039      8.306     12.047        702 1.2568e-01 0.0000e+00
      8.484    13.6380     0.0948      0.910  81.265350    105.167      6.482   132.4884     3.1783     1.7630     0.0510      0.042      8.321     12.069        703 1.2572e-01 0.0000e+00
      8.505    13.6394     0.0971      0.932  81.420996    105.319      6.483   132.2613     3.1824     1.7496     0.0511      0.048      8.338     12.094        704 1.2576e-01 0.0000e+00
      8.518    13.6389     0.0950      0.911  81.689810    105.752      6.486   131.6556     3.1986     1.7630     0.0513      0.052      8.354     12.116        705 1.2571e-01 0.0000e+00
      8.532    13.6284     0.0977      0.938  81.792878    105.784      6.487   131.2770     3.1824     1.7362     0.0513      0.055      8.369     12.138        706 1.2587e-01 0.0000e+00
      8.553    13.6088     0.0903      0.866  82.333168    106.547      6.485   130.4441     3.1783     1.6959     0.0516      0.059      8.387     12.164        707 1.2586e-01 0.0000e+00
      8.571    13.5940     0.0898      0.861  82.890255    107.300      6.483   130.0277     3.2309     1.8167     0.0520      0.063      8.405     12.190        708 1.2560e-01 0.0000e+00
      8.588    13.5794     0.0882      0.846  82.883263    107.321      6.487   129.1949     3.2511     1.7362     0.0520      0.065      8.425     12.219        709 1.2568e-01 0.0000e+00
      8.615    13.5594     0.0909      0.871  83.204003    107.759      6.486   129.4220     3.2511     1.7093     0.0522      0.070      8.448     12.253        710 1.2581e-01 0.0000e+00
      8.640    13.5405     0.0902      0.865  83.858648    108.708      6.483   129.0813     3.2228     1.7093     0.0526      0.074      8.472     12.288        711 1.2563e-01 0.0000e+00
      8.662    13.5234     0.0879      0.843  84.298286    109.274      6.485   128.3620     3.3765     1.7630     0.0528      0.078      8.493     12.318        712 1.2573e-01 0.0000e+00
      8.679    13.5107     0.0898      0.862  84.916387    110.162      6.485   127.9077     3.3360     1.7362     0.0532      0.082      8.510     12.342        713 1.2570e-01 0.0000e+00
      8.690    13.5002     0.0852      0.818  84.932756    110.285      6.486   126.7341     3.3805     1.6422     0.0533      0.081      8.525     12.365        714 1.2561e-01 0.0000e+00
      8.714    13.4854     0.0882      0.846  85.467178    110.794      6.487   126.0527     3.3846     1.7362     0.0535      0.080      8.545     12.393        715 1.2571e-01 0.0000e+00
      8.735    13.4725     0.0892      0.856  86.659659    112.752      6.486   125.5984     3.3846     1.6959     0.0544      0.080      8.563     12.420        716 1.2570e-01 0.0000e+00
      8.745    13.4636     0.0897      0.860  87.165366    113.015      6.488   124.4248     3.3886     1.7362     0.0545      0.076      8.578     12.441        717 1.2562e-01 0.0000e+00
      8.762    13.4514     0.0953      0.913  87.751766    114.254      6.489   124.0084     3.3805     1.6959     0.0551      0.071      8.593     12.464        718 1.2560e-01 0.0000e+00
      8.781    13.4364     0.0910      0.871  90.152427    116.830      6.491   123.7434     3.4007     1.7765     0.0562      0.068      8.611     12.489        719 1.2582e-01 0.0000e+00
      8.799    13.4309     0.0930      0.890  91.166127    119.127      6.496   122.6834     3.3118     1.9510     0.0573      0.067      8.629     12.516        720 1.2575e-01 0.0000e+00
      8.820    13.4418     0.0895      0.856  97.286428    125.335      6.496   121.4720     3.3077     1.8839     0.0601      0.069      8.648     12.543        721 1.2568e-01 0.0000e+00
      8.836    13.4598     0.0970      0.927 110.503331    145.056      6.499   121.0555     3.2916     1.9107     0.0692      0.070      8.664     12.568        722 1.2571e-01 0.0000e+00
      8.852    13.4758     0.0948      0.904 119.983700    154.940      6.504   120.1848     3.3118     1.9510     0.0738      0.068      8.679     12.589        723 1.2572e-01 0.0000e+00
      8.863    13.4853     0.1014      0.967 124.279398    162.860      6.500   119.5413     3.2956     2.0182     0.0775      0.067      8.691     12.605        724 1.2593e-01 0.0000e+00
      8.869    13.4862     0.0967      0.922 123.264248    159.070      6.503   119.4655     3.2916     1.9107     0.0757      0.064      8.701     12.620        725 1.2570e-01 0.0000e+00
      8.887    13.4756     0.0999      0.952 125.029627    163.116      6.506   118.4812     3.2996     2.0182     0.0776      0.060      8.720     12.648        726 1.2569e-01 0.0000e+00
      8.921    13.4438     0.1007      0.959 127.563737    165.372      6.506   118.4812     3.2956     2.0182     0.0787      0.062      8.748     12.688        727 1.2584e-01 0.0000e+00
      8.954    13.4051     0.0983      0.935 125.889849    163.886      6.503   116.7398     3.3037     1.7630     0.0780      0.068      8.777     12.730        728 1.2581e-01 0.0000e+00
      8.975    13.3820     0.0981      0.933 123.865593    160.843      6.498   116.3612     3.3077     1.7630     0.0766      0.074      8.800     12.763        729 1.2590e-01 0.0000e+00
      8.991    13.3625     0.0980      0.932 122.218431    159.258      6.499   115.0362     3.3037     1.6825     0.0758      0.080      8.817     12.787        730 1.2570e-01 0.0000e+00
      9.004    13.3283     0.0947      0.900 120.850312    157.336      6.500   114.0520     3.3279     1.7362     0.0749      0.083      8.832     12.810        731 1.2559e-01 0.0000e+00
      9.024    13.2765     0.0967      0.919 118.390185    154.384      6.508   114.9605     3.3441     2.0853     0.0735      0.086      8.851     12.837        732 1.2571e-01 0.0000e+00
      9.049    13.2310     0.0971      0.923 116.166851    151.405      6.513   114.4305     3.3846     2.1927     0.0721      0.087      8.872     12.867        733 1.2572e-01 0.0000e+00
      9.065    13.2044     0.0980      0.931 115.666095    151.102      6.523   113.4462     3.3441     2.0584     0.0720      0.083      8.891     12.894        734 1.2567e-01 0.0000e+00
      9.083    13.1759     0.0985      0.935 115.410294    150.989      6.531   114.4305     3.3603     2.0853     0.0719      0.076      8.911     12.924        735 1.2560e-01 0.0000e+00
      9.113    13.1447     0.0944      0.896 114.103213    149.256      6.544   112.9541     3.3805     2.1390     0.0711      0.075      8.935     12.960        736 1.2555e-01 0.0000e+00
      9.137    13.1157     0.0913      0.867 113.213640    148.301      6.555   115.7934     3.3522     2.1122     0.0706      0.079      8.960     12.996        737 1.2571e-01 0.0000e+00
      9.161    13.0868     0.0971      0.922 113.688836    148.903      6.563   114.2034     3.3360     2.1659     0.0709      0.084      8.984     13.030        738 1.2568e-01 0.0000e+00
      9.184    13.0706     0.0977      0.927 115.000606    150.964      6.576   112.9162     3.3603     2.1524     0.0718      0.088      9.005     13.061        739 1.2564e-01 0.0000e+00
      9.202    13.0637     0.0897      0.851 115.690100    151.782      6.583   111.5155     3.4493     2.0450     0.0722      0.089      9.029     13.095        740 1.2585e-01 0.0000e+00
      9.238    13.0536     0.0894      0.847 118.041705    154.940      6.592   110.8719     3.4169     1.8167     0.0737      0.092      9.060     13.140        741 1.2585e-01 0.0000e+00
      9.274    13.0441     0.0917      0.869 121.931279    160.277      6.602   110.5312     3.4210     1.9376     0.0762      0.100      9.092     13.186        742 1.2576e-01 0.0000e+00
      9.298    13.0320     0.0939      0.889 122.881567    161.500      6.609   109.3955     3.4250     1.8973     0.0767      0.104      9.119     13.226        743 1.2573e-01 0.0000e+00
      9.326    13.0134     0.0958      0.907 124.781865    163.680      6.618   108.1084     3.4250     1.9376     0.0777      0.106      9.145     13.264        744 1.2563e-01 0.0000e+00
      9.353    12.9978     0.0969      0.918 129.337766    170.374      6.622   108.5626     3.8374     2.3002     0.0808      0.108      9.169     13.298        745 1.2566e-01 0.0000e+00
      9.367    12.9887     0.0960      0.909 129.486309    170.238      6.627   106.9348     3.7889     2.2599     0.0808      0.107      9.191     13.331        746 1.2576e-01 0.0000e+00
      9.401    12.9835     0.0979      0.927 132.731102    174.187      6.632   107.5784     3.7970     2.2733     0.0826      0.108      9.221     13.375        747 1.2577e-01 0.0000e+00
      9.442    12.9798     0.0991      0.938 139.754329    184.617      6.639   106.4805     3.8172     2.3270     0.0875      0.110      9.256     13.425        748 1.2564e-01 0.0000e+00
      9.472    12.9689     0.0957      0.907 142.951747    187.528      6.648   106.3291     4.3955     2.4076     0.0888      0.110      9.286     13.469        749 1.2561e-01 0.0000e+00
      9.494    12.9483     0.0912      0.863 146.251450    193.092      6.650   106.0262     4.3753     2.4881     0.0915      0.110      9.311     13.504        750 1.2577e-01 0.0000e+00
      9.518    12.9262     0.0901      0.854 146.769923    192.964      6.658   105.4962     4.3874     2.5150     0.0914      0.111      9.339     13.544        751 1.2578e-01 0.0000e+00
      9.556    12.9064     0.0920      0.871 145.407583    191.735      6.662   105.2691     4.4116     2.5016     0.0908      0.114      9.375     13.596        752 1.2577e-01 0.0000e+00
      9.604    12.8875     0.0892      0.844 145.382308    191.516      6.671   104.5119     4.3550     2.6090     0.0907      0.122      9.418     13.659        753 1.2570e-01 0.0000e+00
      9.649    12.8745     0.0898      0.850 145.459491    191.947      6.677   104.4741     4.3267     2.5821     0.0909      0.131      9.458     13.718        754 1.2568e-01 0.0000e+00
      9.681    12.8696     0.0877      0.830 146.414932    193.084      6.688   104.3226     4.3469     2.5687     0.0914      0.135      9.492     13.768        755 1.2586e-01 0.0000e+00
      9.709    12.8654     0.0911      0.862 146.847377    194.039      6.700   103.7169     4.3267     2.5419     0.0919      0.137      9.521     13.809        756 1.2580e-01 0.0000e+00
      9.736    12.8635 -9.990e-29 -9.990e-29 146.203660    192.840      6.713   103.7926     4.5815     2.6493     0.0913      0.139      9.545     13.844        757 1.2571e-01 0.0000e+00
      9.755    12.8671 -9.990e-29 -9.990e-29 146.888009    194.011      6.723   103.3762     4.5977     2.6896     0.0918      0.136      9.564     13.871        758 1.2567e-01 0.0000e+00
      9.766    12.8696 -9.990e-29 -9.990e-29 147.934173    195.359      6.732   102.6569     4.5774     2.7433     0.0925      0.125      9.575     13.888        759 1.2571e-01 0.0000e+00
      9.771    12.8709 -9.990e-29 -9.990e-29 148.003271    195.374      6.741   102.2405     4.5977     2.7164     0.0925      0.106      9.583     13.898        760 1.2580e-01 0.0000e+00
      9.778    12.8709 -9.990e-29 -9.990e-29 148.561594    196.143      6.751   101.1805     4.5734     2.4613     0.0928      0.083      9.589     13.908        761 1.2570e-01 0.0000e+00
      9.786    12.8698 -9.990e-29 -9.990e-29 148.581431    196.209      6.759   101.9376     4.5936     2.5553     0.0929      0.065      9.597     13.918        762 1.2581e-01 0.0000e+00
      9.793    12.8678 -9.990e-29 -9.990e-29 148.276822    195.653      6.764   100.3855     4.6138     2.4479     0.0926      0.051      9.604     13.928        763 1.2583e-01 0.0000e+00
      9.799    12.8594 -9.990e-29 -9.990e-29 147.926652    195.437      6.770   101.2562     4.5613     2.4210     0.0925      0.040      9.609     13.936        764 1.2562e-01 0.0000e+00
      9.803    12.8542 -9.990e-29 -9.990e-29 146.899756    193.811      6.782   101.0291     4.3186     2.4613     0.0918      0.031      9.613     13.942        765 1.2572e-01 0.0000e+00
      9.806    12.8551 -9.990e-29 -9.990e-29 146.483029    193.523      6.786   101.2562     4.3348     2.5284     0.0916      0.025      9.616     13.946        766 1.2578e-01 0.0000e+00
      9.807 -9.990e-29 -9.990e-29 -9.990e-29 146.775205    193.773      6.791    99.1741     4.3267     2.5553     0.0917      0.022      9.618     13.949        767 1.2566e-01 0.0000e+00
      9.809 -9.990e-29 -9.990e-29 -9.990e-29 146.923843    194.137      6.797    98.0005     4.3065     2.4747     0.0919      0.019      9.618     13.950        768 1.2562e-01 0.0000e+00
