* Sea-Bird SBE19plus  Data File:
* FileName = C:\R\Reservoirs\Data\DataNotYetUploadedToEDI\Raw_CTD\RawDownloads\100724_fcr50_S7809_0003.hex
* Software version 2.8.0.119
* Temperature SN = 7809
* Conductivity SN = 7809
* System UpLoad Time = Oct 24 2024 12:50:42
* <ApplicationData>
* <Seaterm232>
* <SoftwareVersion>2.8.0.119</SoftwareVersion>
* <BuildDate>07-Nov-2018</BuildDate>
* </Seaterm232>
* </ApplicationData>
* <InstrumentState>
* <HardwareData DeviceType='SBE19plus' SerialNumber='01907809'>
*
*    <Manufacturer>Sea-Bird Electronics, Inc.</Manufacturer>
*
*    <FirmwareVersion>3.1.8</FirmwareVersion>
*
*    <FirmwareDate>Mar  9 2016 16:22:29</FirmwareDate>
*
*    <CommandSetVersion>1.4</CommandSetVersion>
*
*    <PCBAssembly PCBSerialNum='120721' AssemblyNum='41054J'/>
*
*    <PCBAssembly PCBSerialNum='120715' AssemblyNum='41967A'/>
*
*    <PCBAssembly PCBSerialNum='116699' AssemblyNum='41606'/>
*
*    <PCBAssembly PCBSerialNum='120719' AssemblyNum='41059D'/>
*
*    <MfgDate>28-Apr-2017</MfgDate>
*
*    <InternalSensors>
*
*       <Sensor id='Main Temperature'>
*
*          <type>temperature0</type>
*
*          <SerialNumber>01907809</SerialNumber>
*
*       </Sensor>
*
*       <Sensor id='Main Conductivity'>
*
*          <type>conductivity-0</type>
*
*          <SerialNumber>01907809</SerialNumber>
*
*       </Sensor>
*
*       <Sensor id='Main Pressure'>
*
*          <type>strain-0</type>
*
*          <SerialNumber>10586018</SerialNumber>
*
*       </Sensor>
*
*    </InternalSensors>
*
*    <ExternalSensors>
*
*       <Sensor id='volt 0'>
*
*          <type>pH</type>
*
*          <SerialNumber>27-0363</SerialNumber>
*
*       </Sensor>
*
*       <Sensor id='volt 1'>
*
*          <type>ORP</type>
*
*          <SerialNumber>27-0363</SerialNumber>
*
*       </Sensor>
*
*       <Sensor id='volt 2'>
*
*          <type>OXY</type>
*
*          <SerialNumber>43-0434</SerialNumber>
*
*       </Sensor>
*
*       <Sensor id='volt 3'>
*
*          <type>PAR</type>
*
*          <SerialNumber>1122</SerialNumber>
*
*       </Sensor>
*
*       <Sensor id='volt 4'>
*
*          <type>ECO AFL/FL</type>
*
*          <SerialNumber>FLNTURT-2496</SerialNumber>
*
*       </Sensor>
*
*       <Sensor id='volt 5'>
*
*          <type>ECO-NTU</type>
*
*          <SerialNumber>FLNTURT-2496</SerialNumber>
*
*       </Sensor>
*
*       <Sensor id='serial'>
*
*          <type>not assigned</type>
*
*          <SerialNumber>not assigned</SerialNumber>
*
*       </Sensor>
*
*    </ExternalSensors>
*
* </HardwareData>
* <StatusData DeviceType='SBE19plus' SerialNumber='01907809'>
*
*    <DateTime>2024-10-24T12:49:18</DateTime>
*
*    <LoggingState>not logging</LoggingState>
*
*    <EventSummary numEvents='0'/>
*
*    <Power>
*
*       <vMain>13.8</vMain>
*
*       <vLith>8.3</vLith>
*
*       <iMain>63.0</iMain>
*
*       <iPump>41.3</iPump>
*
*       <iExt01>18.9</iExt01>
*
*       <iExt2345>35.6</iExt2345>
*
*    </Power>
*
*    <MemorySummary>
*
*       <Bytes>96784</Bytes>
*
*       <Samples>4208</Samples>
*
*       <SamplesFree>2856580</SamplesFree>
*
*       <SampleLength>23</SampleLength>
*
*       <Profiles>9</Profiles>
*
*    </MemorySummary>
*
* </StatusData>
* <ConfigurationData DeviceType='SBE19plus' SerialNumber='01907809'>
*
*    <ProfileMode>
*
*       <ScansToAverage>1</ScansToAverage>
*
*       <MinimumCondFreq>0</MinimumCondFreq>
*
*       <PumpDelay>45</PumpDelay>
*
*       <AutoRun>no</AutoRun>
*
*       <IgnoreSwitch>no</IgnoreSwitch>
*
*    </ProfileMode>
*
*    <Battery>
*
*       <Type>alkaline</Type>
*
*       <CutOff>7.5</CutOff>
*
*    </Battery>
*
*    <DataChannels>
*
*       <ExtVolt0>yes</ExtVolt0>
*
*       <ExtVolt1>yes</ExtVolt1>
*
*       <ExtVolt2>yes</ExtVolt2>
*
*       <ExtVolt3>yes</ExtVolt3>
*
*       <ExtVolt4>yes</ExtVolt4>
*
*       <ExtVolt5>yes</ExtVolt5>
*
*       <SBE38>no</SBE38>
*
*       <WETLABS>no</WETLABS>
*
*       <OPTODE>no</OPTODE>
*
*       <SBE63>no</SBE63>
*
*       <SeaFET>no</SeaFET>
*
*       <GTD>no</GTD>
*
*    </DataChannels>
*
*    <EchoCharacters>yes</EchoCharacters>
*
*    <OutputExecutedTag>yes</OutputExecutedTag>
*
*    <OutputFormat>raw HEX</OutputFormat>
*
* </ConfigurationData>
* <CalibrationCoefficients DeviceType='SBE19plus' SerialNumber='01907809'>
*
*    <Calibration format='TEMP1' id='Main Temperature'>
*
*       <SerialNum>01907809</SerialNum>
*
*       <CalDate>31-Jan-23</CalDate>
*
*       <TA0>1.218232e-03</TA0>
*
*       <TA1>2.815090e-04</TA1>
*
*       <TA2>-1.578887e-06</TA2>
*
*       <TA3>1.972343e-07</TA3>
*
*       <TOFFSET>0.000000e+00</TOFFSET>
*
*    </Calibration>
*
*    <Calibration format='WBCOND0' id='Main Conductivity'>
*
*       <SerialNum>01907809</SerialNum>
*
*       <CalDate>31-Jan-23</CalDate>
*
*       <G>-1.005652e+00</G>
*
*       <H>1.267963e-01</H>
*
*       <I>-1.561708e-04</I>
*
*       <J>2.645944e-05</J>
*
*       <CPCOR>-9.570000e-08</CPCOR>
*
*       <CTCOR>3.250000e-06</CTCOR>
*
*       <CSLOPE>1.000000e+00</CSLOPE>
*
*    </Calibration>
*
*    <Calibration format='STRAIN0' id='Main Pressure'>
*
*       <SerialNum>10586018</SerialNum>
*
*       <CalDate>20-Jan-23</CalDate>
*
*       <PA0>4.416439e-02</PA0>
*
*       <PA1>4.850502e-04</PA1>
*
*       <PA2>-3.090426e-12</PA2>
*
*       <PTCA0>5.254757e+05</PTCA0>
*
*       <PTCA1>1.050255e+01</PTCA1>
*
*       <PTCA2>-2.922435e-01</PTCA2>
*
*       <PTCB0>2.516687e+01</PTCB0>
*
*       <PTCB1>3.750000e-04</PTCB1>
*
*       <PTCB2>0.000000e+00</PTCB2>
*
*       <PTEMPA0>-5.470820e+01</PTEMPA0>
*
*       <PTEMPA1>5.485421e+01</PTEMPA1>
*
*       <PTEMPA2>-3.446578e-01</PTEMPA2>
*
*       <POFFSET>8.500000e-01</POFFSET>
*
*       <PRANGE>1.600000e+02</PRANGE>
*
*    </Calibration>
*
*    <Calibration format='VOLT0' id='Volt 0'>
*
*       <OFFSET>-4.920000e-02</OFFSET>
*
*       <SLOPE>1.248122e+00</SLOPE>
*
*    </Calibration>
*
*    <Calibration format='VOLT0' id='Volt 1'>
*
*       <OFFSET>-4.784000e-02</OFFSET>
*
*       <SLOPE>1.248871e+00</SLOPE>
*
*    </Calibration>
*
*    <Calibration format='VOLT0' id='Volt 2'>
*
*       <OFFSET>-4.864632e-02</OFFSET>
*
*       <SLOPE>1.248714e+00</SLOPE>
*
*    </Calibration>
*
*    <Calibration format='VOLT0' id='Volt 3'>
*
*       <OFFSET>-4.743790e-02</OFFSET>
*
*       <SLOPE>1.248571e+00</SLOPE>
*
*    </Calibration>
*
*    <Calibration format='VOLT0' id='Volt 4'>
*
*       <OFFSET>-4.671263e-02</OFFSET>
*
*       <SLOPE>1.248951e+00</SLOPE>
*
*    </Calibration>
*
*    <Calibration format='VOLT0' id='Volt 5'>
*
*       <OFFSET>-4.871053e-02</OFFSET>
*
*       <SLOPE>1.249136e+00</SLOPE>
*
*    </Calibration>
*
*    <Calibration format='FREQ0' id='external frequency channel'>
*
*       <EXTFREQSF>1.000014e+00</EXTFREQSF>
*
*    </Calibration>
*
* </CalibrationCoefficients>
* <EventCounters DeviceType='SBE19plus' SerialNumber='01907809'>
*
*    <EventSummary numEvents='0'/>
*
* </EventCounters></InstrumentState>
* <Headers>
*
* cast   3 15 Oct 2024 12:24:16 samples 1658 to 1891, avg = 1, stop = low batt
*
# nquan = 15
# nvalues = 234                         
# units = specified
# name 0 = depFM: Depth [fresh water, m]
# name 1 = dz/dtM: Descent Rate [m/s]
# name 2 = sbeox0Mg/L: Oxygen, SBE 43 [mg/l]
# name 3 = sbeox0PS: Oxygen, SBE 43 [% saturation]
# name 4 = specc: Specific Conductance [uS/cm]
# name 5 = c0uS/cm: Conductivity [uS/cm]
# name 6 = flECO-AFL: Fluorescence, WET Labs ECO-AFL/FL [mg/m^3]
# name 7 = ph: pH
# name 8 = orp: Oxidation Reduction Potential [mV]
# name 9 = par/sat/log: PAR/Logarithmic, Satlantic
# name 10 = turbWETntu0: Turbidity, WET Labs ECO [NTU]
# name 11 = prdM: Pressure, Strain Gauge [db]
# name 12 = prdE: Pressure, Strain Gauge [psi]
# name 13 = tv290C: Temperature [ITS-90, deg C]
# name 14 = flag:  0.000e+00
# span 0 =     -0.671,      0.611       
# span 1 =     -0.008,      0.155       
# span 2 =     5.3397,    10.6681       
# span 3 =     54.009,    101.625       
# span 4 =      1.148,     43.987       
# span 5 =   0.803935,  34.848238       
# span 6 =    -0.1070,     4.1621       
# span 7 =     -2.558,      7.688       
# span 8 =    45.1552,  1196.6989       
# span 9 = 2.6928e+01, 1.5481e+02       
# span 10 =     0.8812,     3.7552      
# span 11 =     -0.658,      0.600      
# span 12 =     -0.956,      0.870      
# span 13 =    10.0038,    16.8086      
# span 14 = 0.0000e+00, 0.0000e+00      
# interval = seconds: 0.25
# start_time = Oct 15 2024 12:24:16 [Instrument's time stamp, header]
# bad_flag = -9.990e-29
# <Sensors count="9" >
#   <sensor Channel="1" >
#     <!-- Count, Temperature -->
#     <TemperatureSensor SensorID="58" >
#       <SerialNumber>7809</SerialNumber>
#       <CalibrationDate>31-Jan-23</CalibrationDate>
#       <A0>1.21823180e-003</A0>
#       <A1>2.81508993e-004</A1>
#       <A2>-1.57888696e-006</A2>
#       <A3>1.97234302e-007</A3>
#       <Slope>1.00000000</Slope>
#       <Offset>0.0000</Offset>
#     </TemperatureSensor>
#   </sensor>
#   <sensor Channel="2" >
#     <!-- Frequency 0, Conductivity -->
#     <ConductivitySensor SensorID="3" >
#       <SerialNumber>7809</SerialNumber>
#       <CalibrationDate>31-Jan-23</CalibrationDate>
#       <UseG_J>1</UseG_J>
#       <!-- Cell const and series R are applicable only for wide range sensors. -->
#       <SeriesR>0.0000</SeriesR>
#       <CellConst>2000.0000</CellConst>
#       <ConductivityType>0</ConductivityType>
#       <Coefficients equation="0" >
#         <A>0.00000000e+000</A>
#         <B>0.00000000e+000</B>
#         <C>0.00000000e+000</C>
#         <D>0.00000000e+000</D>
#         <M>0.0</M>
#         <CPcor>-9.57000000e-008</CPcor>
#       </Coefficients>
#       <Coefficients equation="1" >
#         <G>-1.00565232e+000</G>
#         <H>1.26796307e-001</H>
#         <I>-1.56170788e-004</I>
#         <J>2.64594368e-005</J>
#         <CPcor>-9.57000000e-008</CPcor>
#         <CTcor>3.2500e-006</CTcor>
#         <!-- WBOTC not applicable unless ConductivityType = 1. -->
#         <WBOTC>0.00000000e+000</WBOTC>
#       </Coefficients>
#       <Slope>1.00000000</Slope>
#       <Offset>0.00000</Offset>
#     </ConductivitySensor>
#   </sensor>
#   <sensor Channel="3" >
#     <!-- Count, Pressure, Strain Gauge -->
#     <PressureSensor SensorID="46" >
#       <SerialNumber>7809</SerialNumber>
#       <CalibrationDate>20-Jan-23</CalibrationDate>
#       <PA0>4.41643944e-002</PA0>
#       <PA1>4.85050239e-004</PA1>
#       <PA2>-3.09042623e-012</PA2>
#       <PTEMPA0>-5.47081996e+001</PTEMPA0>
#       <PTEMPA1>5.48542136e+001</PTEMPA1>
#       <PTEMPA2>-3.44657813e-001</PTEMPA2>
#       <PTCA0>5.25475731e+005</PTCA0>
#       <PTCA1>1.05025484e+001</PTCA1>
#       <PTCA2>-2.92243463e-001</PTCA2>
#       <PTCB0>2.51668750e+001</PTCB0>
#       <PTCB1>3.75000000e-004</PTCB1>
#       <PTCB2>0.00000000e+000</PTCB2>
#       <Offset>0.000000</Offset>
#     </PressureSensor>
#   </sensor>
#   <sensor Channel="4" >
#     <!-- A/D voltage 0, Oxygen, SBE 43 -->
#     <OxygenSensor SensorID="38" >
#       <SerialNumber>0434</SerialNumber>
#       <CalibrationDate>18-Feb-23</CalibrationDate>
#       <Use2007Equation>1</Use2007Equation>
#       <CalibrationCoefficients equation="0" >
#         <!-- Coefficients for Owens-Millard equation. -->
#         <Boc>0.0000</Boc>
#         <Soc>0.0000e+000</Soc>
#         <offset>0.0000</offset>
#         <Pcor>0.00e+000</Pcor>
#         <Tcor>0.0000</Tcor>
#         <Tau>0.0</Tau>
#       </CalibrationCoefficients>
#       <CalibrationCoefficients equation="1" >
#         <!-- Coefficients for Sea-Bird equation - SBE calibration in 2007 and later. -->
#         <Soc>5.1878e-001</Soc>
#         <offset>-0.5046</offset>
#         <A>-4.2788e-003</A>
#         <B> 1.5372e-004</B>
#         <C>-2.1853e-006</C>
#         <D0> 2.5826e+000</D0>
#         <D1> 1.92634e-004</D1>
#         <D2>-4.64803e-002</D2>
#         <E> 3.6000e-002</E>
#         <Tau20> 0.9900</Tau20>
#         <H1>-3.3000e-002</H1>
#         <H2> 5.0000e+003</H2>
#         <H3> 1.4500e+003</H3>
#       </CalibrationCoefficients>
#     </OxygenSensor>
#   </sensor>
#   <sensor Channel="5" >
#     <!-- A/D voltage 1, PAR/Logarithmic, Satlantic -->
#     <PARLog_SatlanticSensor SensorID="76" >
#       <SerialNumber>1122</SerialNumber>
#       <CalibrationDate>08-Sep-2021</CalibrationDate>
#       <a0>9.6751e-001</a0>
#       <a1>8.0992e-001</a1>
#       <Im>1.3589e+000</Im>
#       <Multiplier>1.0000e+000</Multiplier>
#     </PARLog_SatlanticSensor>
#   </sensor>
#   <sensor Channel="6" >
#     <!-- A/D voltage 2, pH -->
#     <pH_Sensor SensorID="43" >
#       <SerialNumber>0363</SerialNumber>
#       <CalibrationDate>28-Feb-23</CalibrationDate>
#       <Slope>4.7364</Slope>
#       <Offset>2.5433</Offset>
#     </pH_Sensor>
#   </sensor>
#   <sensor Channel="7" >
#     <!-- A/D voltage 3, Oxidation Reduction Potential -->
#     <OxidationReductionPotentialSensor SensorID="41" >
#       <SerialNumber>0363</SerialNumber>
#       <CalibrationDate>28-Feb-23</CalibrationDate>
#       <B>2.499480</B>
#       <M>-0.496195</M>
#       <Offset>0.0</Offset>
#     </OxidationReductionPotentialSensor>
#   </sensor>
#   <sensor Channel="8" >
#     <!-- A/D voltage 4, Fluorometer, WET Labs ECO-AFL/FL -->
#     <FluoroWetlabECO_AFL_FL_Sensor SensorID="20" >
#       <SerialNumber>FLNTURT-2496</SerialNumber>
#       <CalibrationDate>02-Sep-2021</CalibrationDate>
#       <ScaleFactor>4.80000000e+001</ScaleFactor>
#       <!-- Dark output -->
#       <Vblank>0.0550</Vblank>
#     </FluoroWetlabECO_AFL_FL_Sensor>
#   </sensor>
#   <sensor Channel="9" >
#     <!-- A/D voltage 5, Turbidity Meter, WET Labs, ECO-NTU -->
#     <TurbidityMeter SensorID="67" >
#       <SerialNumber>FLNTURT--2496</SerialNumber>
#       <CalibrationDate>02-Sep-2021</CalibrationDate>
#       <ScaleFactor>197.000000</ScaleFactor>
#       <!-- Dark output -->
#       <DarkVoltage>0.070000</DarkVoltage>
#     </TurbidityMeter>
#   </sensor>
# </Sensors>
# datcnv_date = Oct 24 2024 13:19:38, 7.26.7.129 [datcnv_vars = 14]
# datcnv_in = C:\R\Reservoirs\Data\DataNotYetUploadedToEDI\Raw_CTD\RawDownloads\101524_fcr10_S7809003.hex C:\R\Reservoirs\Data\DataNotYetUploadedToEDI\Raw_CTD\RawDownloads\SBE19plusV2_7809_start20230701.xmlcon
# datcnv_skipover = 0
# datcnv_ox_hysteresis_correction = yes
# datcnv_ox_tau_correction = yes
# filter_date = Oct 24 2024 13:20:26, 7.26.7.129
# filter_in = C:\R\Reservoirs\Data\DataNotYetUploadedToEDI\Raw_CTD\RawDownloads\101524_fcr10_S7809003.cnv
# filter_low_pass_tc_A = 0.030
# filter_low_pass_tc_B = 0.150
# filter_low_pass_A_vars = sbeox0Mg/L prdM prdE tv290C
# filter_low_pass_B_vars = depFM dz/dtM sbeox0PS specc c0uS/cm flECO-AFL ph orp par/sat/log turbWETntu0
# alignctd_date = Oct 24 2024 13:21:05, 7.26.7.129
# alignctd_in = C:\R\Reservoirs\Data\DataNotYetUploadedToEDI\Raw_CTD\RawDownloads\101524_fcr10_S7809003.cnv
# alignctd_adv = dz/dtM 1.000, sbeox0PS 1.000, specc 1.000, c0uS/cm 1.000, flECO-AFL 1.000, ph 1.000, orp 1.000, turbWETntu0 1.000                                                                                                   
# file_type = ascii
*END*
     -0.671      0.000    10.4862     93.911      1.285   0.899678    -0.0944     -2.558   900.0078 9.8565e+01     0.9705     -0.658     -0.954    10.0038 0.0000e+00
     -0.670      0.000    10.4664     93.346      1.280   0.895686    -0.0760     -2.557   900.0529 9.2778e+01     1.0379     -0.657     -0.953    10.0039 0.0000e+00
     -0.670      0.001    10.5242     93.040      1.235   0.864286    -0.0790     -2.556   901.1229 8.8342e+01     1.0439     -0.657     -0.953    10.0042 0.0000e+00
     -0.670      0.001    10.6681     92.975      1.196   0.836731    -0.0975     -2.544   903.9109 8.5353e+01     1.0082     -0.658     -0.954    10.0044 0.0000e+00
     -0.670      0.000    10.6175     92.883      1.256   0.879228    -0.1070     -2.419   905.3696 8.2343e+01     1.0509     -0.657     -0.952    10.0049 0.0000e+00
     -0.670 1.8474e-08    10.5120     92.688      1.335   0.934722    -0.1027     -1.876   891.3138 8.1030e+01     1.0816     -0.657     -0.952    10.0053 0.0000e+00
     -0.670 2.0321e-07    10.4919     92.494      1.339   0.937630    -0.0952     -0.771   744.4602 8.1299e+01     1.0028     -0.657     -0.952    10.0058 0.0000e+00
     -0.670 2.0321e-07    10.4966     92.514      1.305   0.914390    -0.0917      0.614   353.1673 7.9799e+01     0.9869     -0.657     -0.953    10.0062 0.0000e+00
     -0.670 1.8474e-08    10.4884     92.798      1.295   0.907093    -0.0849      1.816    45.1552 7.7519e+01     1.0606     -0.657     -0.953    10.0068 0.0000e+00
     -0.670 1.6794e-09    10.4614     93.038      1.303   0.912749    -0.0719      2.447   114.0255 7.8855e+01     1.0731     -0.657     -0.953    10.0074 0.0000e+00
     -0.670 1.5268e-10    10.4305     93.052      1.313   0.919425    -0.0750      2.581   285.4725 8.3485e+01     1.0011     -0.657     -0.952    10.0077 0.0000e+00
     -0.670 1.3942e-11    10.4223     92.955      1.320   0.924479    -0.0897      2.564   384.1560 8.8584e+01     0.9078     -0.657     -0.953    10.0080 0.0000e+00
     -0.670 1.9441e-12    10.4786     92.932      1.300   0.910507    -0.0917      2.474   496.2796 9.3153e+01     0.9019     -0.657     -0.953    10.0086 0.0000e+00
     -0.670 7.6206e-12    10.5117     92.994      1.252   0.877175    -0.0823      2.285   617.3687 9.6529e+01     0.9637     -0.657     -0.953    10.0090 0.0000e+00
     -0.670 8.2575e-11    10.5057     93.004      1.197   0.838179    -0.0758      2.132   681.5419 9.6832e+01     0.9723     -0.657     -0.953    10.0094 0.0000e+00
     -0.670 9.0821e-10    10.4859     92.973      1.170   0.819058    -0.0794      2.146   684.4575 9.6245e+01     0.9718     -0.658     -0.954    10.0096 0.0000e+00
     -0.670 9.9903e-09    10.4799     92.945      1.194   0.836008    -0.0842      2.301   671.4637 9.7459e+01     1.0252     -0.657     -0.953    10.0095 0.0000e+00
     -0.670 1.0989e-07    10.5017     92.924      1.218   0.853103    -0.0924      2.540   657.7952 9.9604e+01     1.0034     -0.657     -0.953    10.0096 0.0000e+00
     -0.670      0.000    10.4961     92.926      1.193   0.835728    -0.1034      2.831   646.1015 1.0163e+02     0.9138     -0.658     -0.954    10.0095 0.0000e+00
     -0.670      0.000    10.4910     92.901      1.165   0.815945    -0.1013      3.171   649.3267 1.0303e+02     0.9319     -0.657     -0.953    10.0098 0.0000e+00
     -0.670      0.000    10.4908     92.826      1.148   0.803935    -0.0921      3.791   794.2736 1.0690e+02     0.9490     -0.657     -0.953    10.0096 0.0000e+00
     -0.671      0.002    10.4828     92.804      1.166   0.817201    -0.0925      4.875  1069.4210 1.1460e+02     0.8812     -0.658     -0.954    10.0100 0.0000e+00
     -0.671      0.008    10.4894     92.960      1.298   0.913000    -0.0895      5.941  1196.6989 1.2204e+02     0.8979     -0.658     -0.954    10.0091 0.0000e+00
     -0.671      0.020    10.4865     93.159      2.025   1.455499    -0.0135      6.527   928.2443 1.2875e+02     1.0142     -0.658     -0.954    10.0101 0.0000e+00
     -0.670      0.037    10.4764     93.175      8.140   6.046318     0.8012      6.791   411.3624 1.3549e+02     1.6729     -0.658     -0.956    10.0083 0.0000e+00
     -0.664      0.057    10.4605     93.038     22.999  17.385970     2.2873      6.951   128.2349 1.3974e+02     2.8504     -0.657     -0.953    10.0112 0.0000e+00
     -0.646      0.079    10.4888     92.887     37.627  28.908083     3.0814      7.055   102.3278 1.4139e+02     3.4310     -0.638     -0.925    10.0065 0.0000e+00
     -0.618      0.102    10.5202     92.805     43.567  34.024195     3.1531      7.129   100.5313 1.4305e+02     3.4668     -0.606     -0.879    10.0276 0.0000e+00
     -0.586      0.123    10.3376     92.838     43.987  34.848238     3.3036      7.187   101.4372 1.4670e+02     3.5563     -0.575     -0.835    10.7642 0.0000e+00
     -0.551      0.138     9.9785     92.956     43.457  34.811648     3.5527      7.235   102.8699 1.5107e+02     3.5571     -0.540     -0.785    12.2086 0.0000e+00
     -0.513      0.147     9.7134     93.125     42.979  34.724309     3.6770      7.272   104.0014 1.5400e+02     3.4773     -0.502     -0.729    13.3239 0.0000e+00
     -0.473      0.150     9.5431     93.309     42.637  34.680852     3.6832      7.300   104.3636 1.5481e+02     3.4796     -0.464     -0.674    14.0725 0.0000e+00
     -0.431      0.151     9.4239     93.397     42.406  34.667181     3.6605      7.322   104.5817 1.5393e+02     3.5501     -0.424     -0.614    14.6691 0.0000e+00
     -0.389      0.154     9.3565     93.446     42.207  34.622662     3.6185      7.338   105.6920 1.5219e+02     3.6122     -0.381     -0.552    15.0816 0.0000e+00
     -0.352      0.155     9.3004     93.552     41.989  34.523402     3.5836      7.350   107.2915 1.4943e+02     3.5810     -0.342     -0.496    15.4196 0.0000e+00
     -0.320      0.153     9.2776     93.693     41.779  34.418822     3.5548      7.360   108.6927 1.4274e+02     3.4802     -0.317     -0.460    15.6901 0.0000e+00
     -0.280      0.144     9.2387     93.852     41.644  34.373430     3.5032      7.368   109.9855 1.3142e+02     3.4866     -0.280     -0.407    15.8966 0.0000e+00
     -0.233      0.131     9.2124     94.046     41.550  34.355334     3.4347      7.374   111.3071 1.2162e+02     3.6243     -0.223     -0.324    16.0287 0.0000e+00
     -0.192      0.115     9.2114     94.310     41.463  34.326989     3.4082      7.380   112.7132 1.1642e+02     3.7443     -0.183     -0.264    16.1096 0.0000e+00
     -0.165      0.096     9.2097     94.620     41.394  34.284553     3.4081      7.385   114.1667 1.0792e+02     3.7425     -0.157     -0.229    16.1839 0.0000e+00
     -0.150      0.075     9.2093     94.942     41.343  34.222928     3.3994      7.387   115.6314 9.3879e+01     3.6711     -0.144     -0.209    16.2717 0.0000e+00
     -0.141      0.054     9.2103     95.231     41.276  34.152875     3.3947      7.388   117.0868 8.3529e+01     3.5985     -0.139     -0.201    16.3430 0.0000e+00
     -0.132      0.039     9.2282     95.445     41.241  34.135428     3.3942      7.390   118.2557 7.9297e+01     3.5480     -0.130     -0.189    16.4015 0.0000e+00
     -0.122      0.029     9.2524     95.593     41.306  34.202332     3.4016      7.394   119.1808 7.7948e+01     3.5727     -0.118     -0.171    16.4323 0.0000e+00
     -0.113      0.023     9.2961     95.703     41.378  34.263922     3.4091      7.399   120.2703 7.7404e+01     3.5557     -0.109     -0.158    16.3793 0.0000e+00
     -0.109      0.019     9.3330     95.759     41.358  34.245655     3.4256      7.404   121.4493 7.7201e+01     3.4791     -0.106     -0.153    16.3476 0.0000e+00
     -0.107      0.014     9.3452     95.744     41.271  34.171797     3.4686      7.408   122.5078 7.7192e+01     3.5001     -0.104     -0.152    16.3873 0.0000e+00
     -0.106      0.009     9.3545     95.684     41.224  34.132264     3.5125      7.412   123.5183 7.6830e+01     3.5701     -0.104     -0.152    16.4047 0.0000e+00
     -0.103      0.004     9.3674     95.607     41.232  34.148332     3.5323      7.417   124.5467 7.6690e+01     3.6087     -0.101     -0.146    16.3990 0.0000e+00
     -0.101      0.003     9.3746     95.525     41.241  34.175751     3.4995      7.422   125.4780 7.6997e+01     3.5570     -0.098     -0.142    16.3970 0.0000e+00
     -0.101      0.004     9.3715     95.434     41.260  34.210025     3.4317      7.427   126.3466 7.7445e+01     3.4911     -0.097     -0.141    16.3964 0.0000e+00
     -0.103      0.005     9.3662     95.338     41.290  34.245533     3.4039      7.432   127.2194 7.7755e+01     3.5299     -0.101     -0.147    16.3894 0.0000e+00
     -0.105      0.006     9.3566     95.304     41.337  34.287858     3.4130      7.436   128.1155 7.7919e+01     3.5473     -0.105     -0.153    16.3996 0.0000e+00
     -0.102      0.006     9.3414     95.546     41.400  34.341099     3.4254      7.438   129.1796 7.7195e+01     3.4967     -0.102     -0.148    16.4319 0.0000e+00
     -0.096      0.005     9.3298     96.716     41.444  34.381698     3.4371      7.440   130.1913 7.5655e+01     3.4644     -0.093     -0.136    16.4571 0.0000e+00
     -0.091      0.004     9.3130     99.091     41.453  34.398058     3.4384      7.443   131.0552 7.5030e+01     3.4989     -0.088     -0.128    16.4686 0.0000e+00
     -0.091      0.002     9.3093    101.301     41.456  34.412035     3.4411      7.447   131.9675 7.6110e+01     3.5722     -0.087     -0.127    16.4704 0.0000e+00
     -0.094     -0.001     9.3080    101.625     41.454  34.423808     3.4619      7.449   132.7900 7.7301e+01     3.6333     -0.092     -0.133    16.4684 0.0000e+00
     -0.098     -0.002     9.3848     99.746     41.425  34.413530     3.4892      7.453   133.4291 7.7669e+01     3.6912     -0.097     -0.140    16.4735 0.0000e+00
     -0.100     -0.002     9.6815     96.136     41.412  34.414672     3.5043      7.458   134.0163 7.7832e+01     3.7253     -0.099     -0.143    16.4862 0.0000e+00
     -0.099     -0.001     9.9772     91.331     41.427  34.437635     3.5123      7.462   134.6412 7.7696e+01     3.7379     -0.097     -0.141    16.4995 0.0000e+00
     -0.097      0.001     9.9990     86.074     41.417  34.437405     3.5270      7.466   135.3062 7.7026e+01     3.7079     -0.094     -0.137    16.5163 0.0000e+00
     -0.095      0.003     9.7884     80.943     41.382  34.411901     3.5321      7.469   136.0341 7.6262e+01     3.6005     -0.093     -0.135    16.5346 0.0000e+00
     -0.095      0.003     9.4245     76.263     41.347  34.383061     3.5165      7.474   136.7306 7.6433e+01     3.4988     -0.093     -0.135    16.5493 0.0000e+00
     -0.095      0.002     8.9196     72.558     41.304  34.342485     3.5045      7.479   137.3611 7.7228e+01     3.4346     -0.093     -0.136    16.5616 0.0000e+00
     -0.095      0.000     8.3836     70.250     41.267  34.301971     3.5030      7.482   138.0641 7.7459e+01     3.4051     -0.094     -0.137    16.5713 0.0000e+00
     -0.094      0.000     7.8822     69.175     41.244  34.273879     3.5070      7.485   138.7778 7.7445e+01     3.4501     -0.093     -0.135    16.5763 0.0000e+00
     -0.094      0.001     7.4017     68.850     41.225  34.256592     3.5112      7.489   139.4512 7.7635e+01     3.5002     -0.091     -0.133    16.5767 0.0000e+00
     -0.095      0.004     7.0203     68.871     41.177  34.219849     3.5033      7.492   140.0112 7.7650e+01     3.4984     -0.092     -0.133    16.5724 0.0000e+00
     -0.095      0.006     6.8080     68.986     41.088  34.146859     3.5033      7.494   140.5589 7.7013e+01     3.5305     -0.094     -0.137    16.5572 0.0000e+00
     -0.094      0.006     6.7262     69.069     41.076  34.135417     3.5201      7.497   141.2554 7.6154e+01     3.5814     -0.094     -0.136    16.5413 0.0000e+00
     -0.090      0.007     6.7068     69.098     41.164  34.208394     3.5316      7.499   141.8930 7.6164e+01     3.5663     -0.088     -0.128    16.5420 0.0000e+00
     -0.085      0.009     6.7161     69.058     41.233  34.267873     3.5258      7.501   142.5030 7.7008e+01     3.5189     -0.081     -0.118    16.5508 0.0000e+00
     -0.085      0.012     6.7314     68.891     41.252  34.283568     3.5077      7.502   143.2105 7.7579e+01     3.4872     -0.082     -0.119    16.5519 0.0000e+00
     -0.085      0.014     6.7407     68.617     41.239  34.271267     3.5127      7.505   143.7367 7.7159e+01     3.5249     -0.085     -0.123    16.5455 0.0000e+00
     -0.082      0.014     6.7419     68.324     41.212  34.246029     3.5363      7.507   144.1334 7.5575e+01     3.5994     -0.082     -0.120    16.5464 0.0000e+00
     -0.076      0.014     6.7425     68.074     41.200  34.232199     3.5435      7.507   144.7377 7.3365e+01     3.6021     -0.075     -0.109    16.5512 0.0000e+00
     -0.069      0.013     6.7248     67.959     41.200  34.230943     3.5340      7.509   145.4502 7.1751e+01     3.5575     -0.067     -0.097    16.5504 0.0000e+00
     -0.064      0.011     6.6936     68.052     41.199  34.230828     3.5130      7.512   146.0363 7.1414e+01     3.5373     -0.061     -0.089    16.5482 0.0000e+00
     -0.062      0.009     6.6651     68.321     41.194  34.230818     3.5049      7.514   146.4902 7.2096e+01     3.5630     -0.059     -0.086    16.5449 0.0000e+00
     -0.063      0.007     6.6378     68.714     41.188  34.230826     3.5199      7.515   146.9806 7.3044e+01     3.5950     -0.062     -0.090    16.5397 0.0000e+00
     -0.064      0.007     6.6227     69.177     41.183  34.230930     3.5279      7.516   147.4914 7.3123e+01     3.5480     -0.065     -0.094    16.5360 0.0000e+00
     -0.064      0.008     6.6345     69.609     41.180  34.232073     3.5429      7.516   147.9347 7.2135e+01     3.4391     -0.064     -0.092    16.5378 0.0000e+00
     -0.060      0.009     6.6621     69.948     41.191  34.244657     3.5854      7.517   148.3825 7.0948e+01     3.4051     -0.059     -0.085    16.5444 0.0000e+00
     -0.055      0.009     6.6991     70.180     41.201  34.256192     3.6257      7.518   149.0343 7.0036e+01     3.4787     -0.054     -0.078    16.5508 0.0000e+00
     -0.050      0.008     6.7498     70.316     41.182  34.244657     3.6465      7.519   149.8792 6.9731e+01     3.5782     -0.048     -0.070    16.5557 0.0000e+00
     -0.048      0.005     6.7921     70.360     41.162  34.232081     3.6374      7.520   150.5096 6.9612e+01     3.6179     -0.046     -0.067    16.5608 0.0000e+00
     -0.049      0.000     6.8255     70.282     41.154  34.231041     3.5659      7.522   150.9784 6.9894e+01     3.5489     -0.048     -0.069    16.5639 0.0000e+00
     -0.050     -0.003     6.8469     70.087     41.149  34.232089     3.4565      7.523   151.5033 7.1397e+01     3.4609     -0.049     -0.071    16.5675 0.0000e+00
     -0.053     -0.004     6.8582     69.821     41.161  34.244753     3.4045      7.524   151.7794 7.2823e+01     3.4759     -0.051     -0.074    16.5733 0.0000e+00
     -0.056     -0.002     6.8647     69.534     41.174  34.257276     3.4117      7.525   151.9079 7.3513e+01     3.5593     -0.055     -0.080    16.5784 0.0000e+00
     -0.057      0.003     6.8550     69.220     41.179  34.256609     3.4359      7.527   152.1964 7.4036e+01     3.5471     -0.057     -0.083    16.5860 0.0000e+00
     -0.057      0.008     6.8338     68.895     41.175  34.236685     3.4724      7.528   152.5150 7.3896e+01     3.4653     -0.057     -0.083    16.5931 0.0000e+00
     -0.054      0.013     6.8044     68.622     41.165  34.206704     3.4936      7.529   152.9205 7.3024e+01     3.4588     -0.054     -0.079    16.5944 0.0000e+00
     -0.047      0.015     6.7775     68.377     41.178  34.211306     3.5019      7.530   153.3999 7.1389e+01     3.5025     -0.046     -0.067    16.5972 0.0000e+00
     -0.038      0.015     6.7475     68.153     41.187  34.228872     3.4983      7.531   153.8371 6.9213e+01     3.5153     -0.036     -0.052    16.5993 0.0000e+00
     -0.033      0.013     6.7134     67.998     41.167  34.228765     3.4668      7.533   154.3341 6.8304e+01     3.4769     -0.031     -0.045    16.5744 0.0000e+00
     -0.032      0.008     6.6960     67.907     41.128  34.210033     3.4373      7.533   154.8500 6.9014e+01     3.4823     -0.031     -0.044    16.5359 0.0000e+00
     -0.033      0.003     6.6737     67.840     41.095  34.192742     3.4406      7.534   155.3423 6.9504e+01     3.5463     -0.032     -0.046    16.5276 0.0000e+00
     -0.033     -0.002     6.6454     67.760     41.108  34.210044     3.4566      7.535   155.8983 6.9284e+01     3.5676     -0.033     -0.047    16.5472 0.0000e+00
     -0.034     -0.006     6.6284     67.636     41.125  34.228904     3.4644      7.537   156.4968 6.9302e+01     3.5349     -0.033     -0.047    16.5703 0.0000e+00
     -0.035     -0.008     6.6184     67.461     41.120  34.230447     3.4679      7.539   156.9853 6.9949e+01     3.4919     -0.035     -0.049    16.5876 0.0000e+00
     -0.038     -0.008     6.6116     67.271     41.112  34.228708     3.4658      7.541   157.4173 7.0917e+01     3.4920     -0.039     -0.055    16.5989 0.0000e+00
     -0.041     -0.008     6.6038     67.103     41.084  34.207885     3.4886      7.542   157.8485 7.1913e+01     3.5367     -0.041     -0.059    16.6058 0.0000e+00
     -0.044     -0.007     6.5919     66.964     41.040  34.169018     3.5366      7.544   158.2401 7.2837e+01     3.5193     -0.043     -0.062    16.6119 0.0000e+00
     -0.046     -0.005     6.5716     66.858     41.012  34.139446     3.5636      7.545   158.7112 7.3311e+01     3.4520     -0.046     -0.065    16.6190 0.0000e+00
     -0.048      0.000     6.5508     66.742     40.978  34.104105     3.5734      7.545   159.2426 7.3269e+01     3.4412     -0.047     -0.069    16.6258 0.0000e+00
     -0.048      0.004     6.5344     66.567     40.932  34.058926     3.5715      7.546   159.7601 7.2801e+01     3.4566     -0.048     -0.070    16.6295 0.0000e+00
     -0.046      0.006     6.5203     66.358     40.922  34.037295     3.5733      7.547   160.2368 7.1624e+01     3.4677     -0.046     -0.066    16.6260 0.0000e+00
     -0.042      0.008     6.5127     66.134     40.946  34.032886     3.5791      7.550   160.5318 7.0437e+01     3.4732     -0.041     -0.060    16.6170 0.0000e+00
     -0.037      0.008     6.5065     65.878     40.951  34.005591     3.5662      7.552   160.6603 7.0154e+01     3.4537     -0.036     -0.052    16.6085 0.0000e+00
     -0.035      0.008     6.4868     65.542     40.928  33.961009     3.5516      7.553   160.8437 7.0490e+01     3.4374     -0.033     -0.047    16.6025 0.0000e+00
     -0.035      0.007     6.4686     65.128     40.917  33.937937     3.5433      7.555   161.1148 7.1038e+01     3.4477     -0.033     -0.049    16.5901 0.0000e+00
     -0.035      0.007     6.4511     64.722     40.899  33.916943     3.5329      7.557   161.4433 7.1255e+01     3.4762     -0.035     -0.051    16.5573 0.0000e+00
     -0.034      0.007     6.4343     64.342     40.881  33.897509     3.5175      7.558   161.8043 7.0622e+01     3.4735     -0.035     -0.050    16.5129 0.0000e+00
     -0.032      0.007     6.4079     63.973     40.884  33.893290     3.5067      7.559   162.1238 6.9697e+01     3.4153     -0.031     -0.045    16.4789 0.0000e+00
     -0.027      0.007     6.3627     63.625     40.862  33.865925     3.5026      7.560   162.4671 6.9173e+01     3.4216     -0.026     -0.038    16.4629 0.0000e+00
     -0.024      0.006     6.3250     63.282     40.820  33.820399     3.4929      7.561   162.8581 6.8959e+01     3.5153     -0.023     -0.032    16.4596 0.0000e+00
     -0.023      0.004     6.2893     62.928     40.793  33.786938     3.4806      7.563   163.2366 6.8889e+01     3.5569     -0.022     -0.031    16.4573 0.0000e+00
     -0.023      0.002     6.2527     62.575     40.796  33.778554     3.4700      7.565   163.6883 6.9064e+01     3.5158     -0.023     -0.033    16.4482 0.0000e+00
     -0.024      0.000     6.2215     62.227     40.813  33.782469     3.4641      7.566   164.1036 6.9240e+01     3.4615     -0.023     -0.033    16.4350 0.0000e+00
     -0.025      0.000     6.1908     61.880     40.809  33.770809     3.4769      7.568   164.2145 6.9117e+01     3.4808     -0.024     -0.034    16.4219 0.0000e+00
     -0.025      0.003     6.1566     61.534     40.812  33.764455     3.5002      7.569   164.3404 6.9106e+01     3.5440     -0.025     -0.036    16.4088 0.0000e+00
     -0.025      0.008     6.1240     61.205     40.828  33.769083     3.5119      7.569   164.7654 6.9181e+01     3.5770     -0.025     -0.036    16.3956 0.0000e+00
     -0.024      0.015     6.0917     60.906     40.831  33.763317     3.4939      7.569   165.2242 6.8756e+01     3.5727     -0.023     -0.034    16.3830 0.0000e+00
     -0.021      0.022     6.0593     60.639     40.829  33.758165     3.4578      7.568   165.6715 6.7431e+01     3.5262     -0.021     -0.032    16.3719 0.0000e+00
     -0.014      0.027     6.0261     60.413     40.837  33.770227     3.4490      7.567   166.1296 6.4638e+01     3.4927     -0.017     -0.025    16.3618 0.0000e+00
     -0.001      0.028     5.9940     60.197     40.841  33.782281     3.4630      7.567   166.4616 6.1508e+01     3.5097     -0.001     -0.002    16.3520 0.0000e+00
      0.011      0.027     5.9676     59.944     40.826  33.777031     3.4688      7.566   166.8452 5.9595e+01     3.5270      0.013      0.019    16.3383 0.0000e+00
      0.018      0.023     5.9407     59.663     40.813  33.770198     3.5022      7.566   167.3262 5.8549e+01     3.4968      0.019      0.028    16.3317 0.0000e+00
      0.022      0.017     5.9184     59.368     40.804  33.763115     3.5755      7.567   167.7180 5.8202e+01     3.4865      0.022      0.032    16.3435 0.0000e+00
      0.024      0.012     5.8985     59.053     40.802  33.754837     3.6316      7.569   168.0551 5.8130e+01     3.5387      0.023      0.034    16.3571 0.0000e+00
      0.024      0.007     5.8715     58.733     40.792  33.733546     3.6560      7.570   168.3036 5.7586e+01     3.5813      0.024      0.035    16.3652 0.0000e+00
      0.025      0.005     5.8419     58.417     40.771  33.696003     3.6629      7.571   168.4862 5.7004e+01     3.5576      0.024      0.035    16.3696 0.0000e+00
      0.027      0.005     5.8152     58.099     40.781  33.681546     3.6639      7.573   168.8007 5.6919e+01     3.4913      0.026      0.038    16.3700 0.0000e+00
      0.028      0.008     5.7831     57.813     40.814  33.685609     3.6691      7.575   169.1804 5.7155e+01     3.4624      0.028      0.040    16.3647 0.0000e+00
      0.028      0.014     5.7536     57.588     40.834  33.681664     3.6757      7.575   169.6357 5.7192e+01     3.4820      0.028      0.040    16.3479 0.0000e+00
      0.029      0.022     5.7271     57.407     40.875  33.697255     3.6429      7.575   171.4663 5.6762e+01     3.4889      0.030      0.041    16.3209 0.0000e+00
      0.034      0.030     5.6978     57.261     40.951  33.747213     3.5564      7.575   173.2457 5.5612e+01     3.4779      0.032      0.046    16.2912 0.0000e+00
      0.044      0.036     5.6711     57.166     40.994  33.778137     3.4949      7.575   172.3942 5.3345e+01     3.5197      0.040      0.057    16.2626 0.0000e+00
      0.061      0.041     5.6535     57.105     40.972  33.753924     3.4902      7.575   171.3229 5.0444e+01     3.5499      0.060      0.087    16.2389 0.0000e+00
      0.076      0.045     5.6392     57.037     40.934  33.708228     3.5085      7.575   171.3914 4.7919e+01     3.5017      0.078      0.112    16.2144 0.0000e+00
      0.086      0.049     5.6253     56.963     40.909  33.669719     3.5244      7.575   171.5875 4.6113e+01     3.4488      0.084      0.122    16.1946 0.0000e+00
      0.093      0.051     5.6172     56.916     40.929  33.668957     3.5238      7.574   171.8881 4.4663e+01     3.4224      0.089      0.129    16.1961 0.0000e+00
      0.105      0.054     5.6132     56.874     40.979  33.698984     3.5178      7.573   172.1861 4.3579e+01     3.4905      0.100      0.146    16.1933 0.0000e+00
      0.121      0.058     5.6098     56.807     41.009  33.715542     3.5360      7.573   172.5237 4.3219e+01     3.5895      0.118      0.172    16.1716 0.0000e+00
      0.138      0.061     5.6018     56.708     41.050  33.742266     3.5687      7.573   172.8717 4.3475e+01     3.5601      0.135      0.196    16.1471 0.0000e+00
      0.156      0.061     5.6027     56.572     41.087  33.768314     3.5792      7.573   173.2106 4.4118e+01     3.4771      0.154      0.223    16.1246 0.0000e+00
      0.174      0.057     5.6011     56.416     41.101  33.776701     3.5726      7.574   173.6965 4.4667e+01     3.4734      0.172      0.247    16.1103 0.0000e+00
      0.190      0.050     5.5947     56.259     41.112  33.780231     3.5719      7.574   174.1867 4.5082e+01     3.5154      0.188      0.271    16.1040 0.0000e+00
      0.202      0.042     5.5873     56.086     41.080  33.747531     3.6121      7.575   174.4911 4.5669e+01     3.5410      0.200      0.290    16.0942 0.0000e+00
      0.210      0.033     5.5732     55.874     41.028  33.698548     3.6752      7.577   174.8825 4.6004e+01     3.5438      0.206      0.298    16.0881 0.0000e+00
      0.216      0.025     5.5574     55.654     41.036  33.695527     3.7030      7.577   175.3920 4.6105e+01     3.5143      0.212      0.307    16.0884 0.0000e+00
      0.221      0.019     5.5426     55.446     41.071  33.710997     3.7073      7.577   175.6609 4.6361e+01     3.4931      0.218      0.316    16.0807 0.0000e+00
      0.224      0.015     5.5294     55.239     41.072  33.695246     3.7520      7.578   175.8955 4.6726e+01     3.5262      0.220      0.320    16.0708 0.0000e+00
      0.226      0.012     5.5069     55.051     41.092  33.695387     3.8437      7.580   176.3363 4.7094e+01     3.6074      0.222      0.322    16.0649 0.0000e+00
      0.229      0.010     5.4848     54.896     41.132  33.712690     3.8834      7.580   176.6886 4.7506e+01     3.5866      0.225      0.326    16.0553 0.0000e+00
      0.231      0.009     5.4688     54.767     41.152  33.714099     3.8659      7.581   176.8857 4.7981e+01     3.4459      0.227      0.330    16.0377 0.0000e+00
      0.233      0.008     5.4484     54.659     41.167  33.712410     3.8317      7.583   177.1705 4.8289e+01     3.4420      0.228      0.330    16.0165 0.0000e+00
      0.236      0.008     5.4326     54.567     41.162  33.692247     3.7779      7.586   177.6365 4.8379e+01     3.6084      0.231      0.335    15.9962 0.0000e+00
      0.240      0.008     5.4196     54.478     41.144  33.660631     3.7565      7.586   178.1324 4.8518e+01     3.7502      0.236      0.342    15.9765 0.0000e+00
      0.241      0.009     5.4091     54.387     41.145  33.647331     3.7569      7.587   178.6065 4.8769e+01     3.7552      0.237      0.344    15.9587 0.0000e+00
      0.241      0.011     5.4003     54.312     41.172  33.658308     3.7576      7.589   178.9802 4.8852e+01     3.6355      0.235      0.341    15.9431 0.0000e+00
      0.241      0.015     5.3935     54.250     41.196  33.666461     3.7816      7.591   179.4680 4.8527e+01     3.5325      0.236      0.342    15.9238 0.0000e+00
      0.246      0.023     5.3887     54.198     41.231  33.682447     3.8057      7.591   180.3746 4.7931e+01     3.5348      0.241      0.349    15.9012 0.0000e+00
      0.253      0.033     5.3797     54.184     41.296  33.724691     3.8159      7.590   181.2511 4.7325e+01     3.5609      0.249      0.361    15.8830 0.0000e+00
      0.260      0.044     5.3743     54.224     41.314  33.733105     3.7968      7.590   181.8066 4.6534e+01     3.5399      0.254      0.368    15.8721 0.0000e+00
      0.271      0.054     5.3707     54.319     41.293  33.720715     3.7493      7.590   182.1872 4.4915e+01     3.4854      0.260      0.377    15.8570 0.0000e+00
      0.291      0.061     5.3650     54.455     41.334  33.765228     3.7331      7.589   182.5835 4.2693e+01     3.4836      0.284      0.412    15.8423 0.0000e+00
      0.313      0.063     5.3653     54.575     41.395  33.827216     3.7502      7.589   183.0699 4.0990e+01     3.5518      0.310      0.449    15.8278 0.0000e+00
      0.331      0.063     5.3709     54.645     41.392  33.835769     3.7561      7.589   183.5079 3.9794e+01     3.5592      0.325      0.471    15.8131 0.0000e+00
      0.347      0.059     5.3784     54.654     41.348  33.805219     3.7719      7.590   183.9229 3.8841e+01     3.5039      0.342      0.495    15.8257 0.0000e+00
      0.361      0.055     5.3932     54.546     41.318  33.775065     3.8169      7.590   184.4733 3.8498e+01     3.4987      0.357      0.518    15.8422 0.0000e+00
      0.371      0.056     5.4056     54.338     41.348  33.788399     3.8582      7.590   185.0862 3.8449e+01     3.5297      0.363      0.528    15.8528 0.0000e+00
      0.379      0.061     5.4080     54.153     41.420  33.839526     3.8886      7.589   185.5687 3.8234e+01     3.5717      0.370      0.538    15.8728 0.0000e+00
      0.389      0.064     5.4127     54.045     41.466  33.885681     3.9758      7.589   186.0048 3.7505e+01     3.6658      0.378      0.548    15.8807 0.0000e+00
      0.411      0.064     5.4031     54.009     41.616  34.029232     4.1053      7.590   186.4880 3.6060e+01     3.7443      0.397      0.576    15.8708 0.0000e+00
      0.441      0.060     5.3773     54.138     41.903  34.306308     4.1475      7.590   186.8510 3.4748e+01     3.7350      0.437      0.634    15.8536 0.0000e+00
      0.463      0.053     5.3596     54.771     42.009  34.507667     4.1367      7.590   187.1240 3.4192e+01     3.7240      0.461      0.668    15.8368 0.0000e+00
      0.472      0.043     5.3496     56.505     41.848  34.560598     4.1497      7.591   187.4656 3.4088e+01     3.6803      0.464      0.674    15.8486 0.0000e+00
      0.474      0.034     5.3397     59.830     41.639  34.565853     4.1555      7.593   187.7983 3.4196e+01     3.5478      0.466      0.676    15.8825 0.0000e+00
      0.474      0.029     5.3406     64.600     41.502  34.571422     4.1485      7.594   188.1348 3.4209e+01     3.4550      0.463      0.673    15.8958 0.0000e+00
      0.476      0.029     5.3657     70.047     41.412  34.564636     4.1397      7.597   188.5234 3.3702e+01     3.4455      0.464      0.674    16.0215 0.0000e+00
      0.486      0.032     5.4796     75.281     41.350  34.547331     4.1411      7.598   188.8830 3.2756e+01     3.4677      0.474      0.686    16.3040 0.0000e+00
      0.501      0.033     5.7844     79.726     41.338  34.552573     4.1567      7.599   189.2126 3.1903e+01     3.4846      0.491      0.712    16.5342 0.0000e+00
      0.516      0.032     6.2621     83.079     41.344  34.564585     4.1621      7.602   189.4974 3.1456e+01     3.4788      0.509      0.737    16.6653 0.0000e+00
      0.525      0.027     6.8177     85.184     41.340  34.565676     4.1386      7.605   189.6595 3.1364e+01     3.4653      0.517      0.749    16.7426 0.0000e+00
      0.528      0.019     7.3369     86.034     41.337  34.565775     4.0227      7.606   189.7959 3.1462e+01     3.4931      0.518      0.751    16.7765 0.0000e+00
      0.528      0.011     7.7755     85.802     41.335  34.565784     3.8266      7.607   190.0284 3.1597e+01     3.5754      0.518      0.751    16.7922 0.0000e+00
      0.528      0.005     8.1060     84.905     41.335  34.565784     3.7150      7.610   190.3193 3.1670e+01     3.6055      0.518      0.752    16.7982 0.0000e+00
      0.529      0.002     8.3080     83.770     41.336  34.565774     3.6978      7.613   190.6459 3.1690e+01     3.5496      0.519      0.753    16.8037 0.0000e+00
      0.529      0.001     8.3882     82.685     41.337  34.565660     3.6931      7.616   190.9656 3.1720e+01     3.4804      0.519      0.753    16.8066 0.0000e+00
      0.529      0.002     8.3459     81.797     41.340  34.564412     3.7746      7.619   191.2592 3.1712e+01     3.4867      0.520      0.753    16.8075 0.0000e+00
      0.529      0.003     8.2449     81.112     41.330  34.550685     3.9424      7.620   191.5286 3.1656e+01     3.5575      0.519      0.753    16.8086 0.0000e+00
      0.529      0.004     8.1252     80.574     41.306  34.526565     4.0402      7.623   191.8138 3.1559e+01     3.5505      0.519      0.753    16.8077 0.0000e+00
      0.530      0.005     8.0149     80.172     41.307  34.526565     4.0424      7.625   192.1271 3.1343e+01     3.4706      0.520      0.754    16.8054 0.0000e+00
      0.533      0.005     7.9300     79.894     41.336  34.550685     4.0355      7.626   192.3916 3.1070e+01     3.4796      0.522      0.758    16.8024 0.0000e+00
      0.536      0.005     7.8678     79.677     41.351  34.564414     4.0484      7.629   192.6022 3.0923e+01     3.5911      0.527      0.764    16.7945 0.0000e+00
      0.538      0.005     7.8170     79.505     41.353  34.565662     4.0564      7.632   192.8668 3.0959e+01     3.6233      0.528      0.765    16.7872 0.0000e+00
      0.537      0.005     7.7760     79.360     41.354  34.565775     4.0572      7.635   193.2681 3.1053e+01     3.5273      0.526      0.763    16.7874 0.0000e+00
      0.537      0.006     7.7548     79.218     41.356  34.565776     4.0414      7.636   193.5820 3.1094e+01     3.3858      0.527      0.764    16.7885 0.0000e+00
      0.538      0.008     7.7316     79.105     41.357  34.565672     4.0074      7.639   193.6510 3.1108e+01     3.3141      0.528      0.766    16.7894 0.0000e+00
      0.540      0.011     7.7154     79.012     41.357  34.564519     4.0036      7.641   193.7578 3.1062e+01     3.3436      0.529      0.768    16.7898 0.0000e+00
      0.543      0.013     7.7048     78.913     41.344  34.551829     4.0037      7.642   194.0137 3.0876e+01     3.3318      0.533      0.773    16.7874 0.0000e+00
      0.548      0.014     7.6874     78.833     41.331  34.539139     3.9413      7.645   194.2492 3.0546e+01     3.3426      0.538      0.780    16.7861 0.0000e+00
      0.554      0.013     7.6783     78.812     41.332  34.537977     3.8489      7.647   194.4550 3.0111e+01     3.4396      0.544      0.788    16.7854 0.0000e+00
      0.559      0.012     7.6708     78.829     41.333  34.537768     3.8100      7.648   194.6946 2.9709e+01     3.5147      0.550      0.797    16.7842 0.0000e+00
      0.562      0.009     7.6604     78.853     41.332  34.536614     3.8212      7.648   194.9955 2.9462e+01     3.5677      0.552      0.801    16.7819 0.0000e+00
      0.562      0.006     7.6507     78.896     41.317  34.524028     3.7847      7.649   195.2540 2.9344e+01     3.5674      0.551      0.800    16.7796 0.0000e+00
      0.562      0.003     7.6499     78.950     41.302  34.512484     3.6852      7.651   195.4103 2.9281e+01     3.5454      0.552      0.800    16.7775 0.0000e+00
      0.562      0.001     7.6548     78.998     41.315  34.523925     3.6252      7.652   195.5952 2.9259e+01     3.5405      0.551      0.799    16.7746 0.0000e+00
      0.563      0.001     7.6548     79.043     41.330  34.535470     3.6330      7.655   195.8552 2.9324e+01     3.5077      0.552      0.801    16.7741 0.0000e+00
      0.564      0.002     7.6597     79.071     41.320  34.525183     3.6542      7.657   196.0588 2.9498e+01     3.4907      0.554      0.803    16.7755 0.0000e+00
      0.564      0.002     7.6659     79.064     41.323  34.526430     3.6658      7.659   196.2500 2.9709e+01     3.4718      0.553      0.802    16.7762 0.0000e+00
      0.564      0.002     7.6694     79.038     41.353  34.550549     3.6813      7.660   196.5319 2.9818e+01     3.4498      0.552      0.801    16.7765 0.0000e+00
      0.565      0.002     7.6748     79.008     41.369  34.563020     3.6922      7.661   196.8004 2.9779e+01     3.4639      0.554      0.804    16.7758 0.0000e+00
      0.567      0.002     7.6794     78.947     41.354  34.550323     3.6973      7.664   197.0014 2.9697e+01     3.5055      0.556      0.806    16.7726 0.0000e+00
      0.567      0.002     7.6777     78.858     41.322  34.523915     3.7518      7.666   197.2407 2.9630e+01     3.5783      0.556      0.806    16.7723 0.0000e+00
      0.567      0.002     7.6735     78.778     41.288  34.497507     3.8351      7.668   197.5429 2.9499e+01     3.5916      0.556      0.806    16.7726 0.0000e+00
      0.567      0.002     7.6734     78.712     41.272  34.484818     3.8644      7.669   197.7296 2.9287e+01     3.4947      0.556      0.807    16.7709 0.0000e+00
      0.568      0.002     7.6674     78.670     41.287  34.497384     3.8640      7.672   197.8642 2.9079e+01     3.4325      0.557      0.808    16.7698 0.0000e+00
      0.568      0.002     7.6562     78.674     41.317  34.522553     3.8632      7.674   198.1374 2.8907e+01     3.4881      0.557      0.808    16.7697 0.0000e+00
      0.569      0.003     7.6489     78.704     41.330  34.535346     3.8470      7.675   198.3654 2.8751e+01     3.5524      0.558      0.809    16.7728 0.0000e+00
      0.570      0.003     7.6420     78.743     41.317  34.525172     3.8259      7.677   198.3845 2.8625e+01     3.5270      0.559      0.811    16.7746 0.0000e+00
      0.571      0.004     7.6364     78.814     41.322  34.526446     3.7995      7.679   198.3673 2.8570e+01     3.4884      0.559      0.811    16.7722 0.0000e+00
      0.572      0.007     7.6383     78.907     41.356  34.550735     3.7534      7.681   198.4158 2.8574e+01     3.5298      0.561      0.814    16.7726 0.0000e+00
      0.572      0.011     7.6420     78.989     41.373  34.565050     3.6849      7.683   198.5409 2.8593e+01     3.5493      0.562      0.815    16.7762 0.0000e+00
      0.573      0.016     7.6426     79.041     41.378  34.572643     3.6446      7.685   198.7624 2.8540e+01     3.5192      0.561      0.814    16.7793 0.0000e+00
      0.578      0.020     7.6514     79.064     41.379  34.579095     3.6409      7.687   198.9421 2.8293e+01     3.5069      0.566      0.821    16.7750 0.0000e+00
      0.585      0.022     7.6637     79.069     41.376  34.579629     3.6392      7.688   198.9926 2.7903e+01     3.5030      0.574      0.832    16.7644 0.0000e+00
      0.595 -9.990e-29     7.6716 -9.990e-29 -9.990e-29 -9.990e-29 -9.990e-29 -9.990e-29 -9.990e-29 2.7499e+01 -9.990e-29      0.584      0.847    16.7662 0.0000e+00
      0.603 -9.990e-29     7.6760 -9.990e-29 -9.990e-29 -9.990e-29 -9.990e-29 -9.990e-29 -9.990e-29 2.7162e+01 -9.990e-29      0.593      0.860    16.7735 0.0000e+00
      0.609 -9.990e-29     7.6757 -9.990e-29 -9.990e-29 -9.990e-29 -9.990e-29 -9.990e-29 -9.990e-29 2.6975e+01 -9.990e-29      0.598      0.868    16.7809 0.0000e+00
      0.611 -9.990e-29     7.6755 -9.990e-29 -9.990e-29 -9.990e-29 -9.990e-29 -9.990e-29 -9.990e-29 2.6928e+01 -9.990e-29      0.600      0.870    16.7876 0.0000e+00
