* Sea-Bird SBE19plus  Data File:
* FileName = C:\DATA\101518_fcr_0004.hex
* Software version 2.6.3.104
* Temperature SN = 7809
* Conductivity SN = 7809
* System UpLoad Time = Oct 29 2018 16:37:22
* <ApplicationData>
* <Seaterm232>
* <SoftwareVersion>2.6.3.104</SoftwareVersion>
* <BuildDate>30-Jun-2017</BuildDate>
* </Seaterm232>
* </ApplicationData>
* <InstrumentState>
* <HardwareData DeviceType='SBE19plus' SerialNumber='01907809'>
*
*    <Manufacturer>Sea-Bird Electronics, Inc.</Manufacturer>
*
*    <FirmwareVersion>3.1.8</FirmwareVersion>
*
*    <FirmwareDate>Mar  9 2016 16:22:29</FirmwareDate>
*
*    <CommandSetVersion>1.4</CommandSetVersion>
*
*    <PCBAssembly PCBSerialNum='120721' AssemblyNum='41054J'/>
*
*    <PCBAssembly PCBSerialNum='120715' AssemblyNum='41967A'/>
*
*    <PCBAssembly PCBSerialNum='116699' AssemblyNum='41606'/>
*
*    <PCBAssembly PCBSerialNum='120719' AssemblyNum='41059D'/>
*
*    <MfgDate>28-Apr-2017</MfgDate>
*
*    <InternalSensors>
*
*       <Sensor id='Main Temperature'>
*
*          <type>temperature0</type>
*
*          <SerialNumber>01907809</SerialNumber>
*
*       </Sensor>
*
*       <Sensor id='Main Conductivity'>
*
*          <type>conductivity-0</type>
*
*          <SerialNumber>01907809</SerialNumber>
*
*       </Sensor>
*
*       <Sensor id='Main Pressure'>
*
*          <type>strain-0</type>
*
*          <SerialNumber>10586018</SerialNumber>
*
*       </Sensor>
*
*    </InternalSensors>
*
*    <ExternalSensors>
*
*       <Sensor id='volt 0'>
*
*          <type>pH</type>
*
*          <SerialNumber>27-0363</SerialNumber>
*
*       </Sensor>
*
*       <Sensor id='volt 1'>
*
*          <type>ORP</type>
*
*          <SerialNumber>27-0363</SerialNumber>
*
*       </Sensor>
*
*       <Sensor id='volt 2'>
*
*          <type>OXY</type>
*
*          <SerialNumber>43-0434</SerialNumber>
*
*       </Sensor>
*
*       <Sensor id='volt 3'>
*
*          <type>PAR</type>
*
*          <SerialNumber>1122</SerialNumber>
*
*       </Sensor>
*
*       <Sensor id='volt 4'>
*
*          <type>ECO AFL/FL</type>
*
*          <SerialNumber>FLNTURT-2496</SerialNumber>
*
*       </Sensor>
*
*       <Sensor id='volt 5'>
*
*          <type>ECO-NTU</type>
*
*          <SerialNumber>FLNTURT-2496</SerialNumber>
*
*       </Sensor>
*
*       <Sensor id='serial'>
*
*          <type>not assigned</type>
*
*          <SerialNumber>not assigned</SerialNumber>
*
*       </Sensor>
*
*    </ExternalSensors>
*
* </HardwareData>
* <StatusData DeviceType='SBE19plus' SerialNumber='01907809'>
*
*    <DateTime>2018-10-29T20:36:07</DateTime>
*
*    <LoggingState>not logging</LoggingState>
*
*    <EventSummary numEvents='0'/>
*
*    <Power>
*
*       <vMain>12.7</vMain>
*
*       <vLith>8.4</vLith>
*
*       <iMain>63.3</iMain>
*
*       <iPump>138.1</iPump>
*
*       <iExt01>14.7</iExt01>
*
*       <iExt2345>45.2</iExt2345>
*
*    </Power>
*
*    <MemorySummary>
*
*       <Bytes>262706</Bytes>
*
*       <Samples>11422</Samples>
*
*       <SamplesFree>2849366</SamplesFree>
*
*       <SampleLength>23</SampleLength>
*
*       <Profiles>17</Profiles>
*
*    </MemorySummary>
*
* </StatusData>
* <ConfigurationData DeviceType='SBE19plus' SerialNumber='01907809'>
*
*    <ProfileMode>
*
*       <ScansToAverage>1</ScansToAverage>
*
*       <MinimumCondFreq>5</MinimumCondFreq>
*
*       <PumpDelay>45</PumpDelay>
*
*       <AutoRun>no</AutoRun>
*
*       <IgnoreSwitch>no</IgnoreSwitch>
*
*    </ProfileMode>
*
*    <Battery>
*
*       <Type>alkaline</Type>
*
*       <CutOff>7.5</CutOff>
*
*    </Battery>
*
*    <DataChannels>
*
*       <ExtVolt0>yes</ExtVolt0>
*
*       <ExtVolt1>yes</ExtVolt1>
*
*       <ExtVolt2>yes</ExtVolt2>
*
*       <ExtVolt3>yes</ExtVolt3>
*
*       <ExtVolt4>yes</ExtVolt4>
*
*       <ExtVolt5>yes</ExtVolt5>
*
*       <SBE38>no</SBE38>
*
*       <WETLABS>no</WETLABS>
*
*       <OPTODE>no</OPTODE>
*
*       <SBE63>no</SBE63>
*
*       <SeaFET>no</SeaFET>
*
*       <GTD>no</GTD>
*
*    </DataChannels>
*
*    <EchoCharacters>yes</EchoCharacters>
*
*    <OutputExecutedTag>yes</OutputExecutedTag>
*
*    <OutputFormat>raw HEX</OutputFormat>
*
* </ConfigurationData>
* <CalibrationCoefficients DeviceType='SBE19plus' SerialNumber='01907809'>
*
*    <Calibration format='TEMP1' id='Main Temperature'>
*
*       <SerialNum>01907809</SerialNum>
*
*       <CalDate>09-Mar-18</CalDate>
*
*       <TA0>1.210932e-03</TA0>
*
*       <TA1>2.843566e-04</TA1>
*
*       <TA2>-1.945074e-06</TA2>
*
*       <TA3>2.128067e-07</TA3>
*
*       <TOFFSET>0.000000e+00</TOFFSET>
*
*    </Calibration>
*
*    <Calibration format='WBCOND0' id='Main Conductivity'>
*
*       <SerialNum>01907809</SerialNum>
*
*       <CalDate>09-Mar-18</CalDate>
*
*       <G>-1.006721e+00</G>
*
*       <H>1.269065e-01</H>
*
*       <I>-1.405844e-04</I>
*
*       <J>2.478371e-05</J>
*
*       <CPCOR>-9.570000e-08</CPCOR>
*
*       <CTCOR>3.250000e-06</CTCOR>
*
*       <CSLOPE>1.000000e+00</CSLOPE>
*
*    </Calibration>
*
*    <Calibration format='STRAIN0' id='Main Pressure'>
*
*       <SerialNum>10586018</SerialNum>
*
*       <CalDate>07-Mar-18</CalDate>
*
*       <PA0>-4.081764e-02</PA0>
*
*       <PA1>4.851884e-04</PA1>
*
*       <PA2>-3.511682e-12</PA2>
*
*       <PTCA0>5.252134e+05</PTCA0>
*
*       <PTCA1>1.795324e+00</PTCA1>
*
*       <PTCA2>-2.843535e-01</PTCA2>
*
*       <PTCB0>2.516687e+01</PTCB0>
*
*       <PTCB1>3.750000e-04</PTCB1>
*
*       <PTCB2>0.000000e+00</PTCB2>
*
*       <PTEMPA0>-5.378069e+01</PTEMPA0>
*
*       <PTEMPA1>5.366207e+01</PTEMPA1>
*
*       <PTEMPA2>4.872143e-02</PTEMPA2>
*
*       <POFFSET>5.000000e-01</POFFSET>
*
*       <PRANGE>1.600000e+02</PRANGE>
*
*    </Calibration>
*
*    <Calibration format='VOLT0' id='Volt 0'>
*
*       <OFFSET>-4.920000e-02</OFFSET>
*
*       <SLOPE>1.248122e+00</SLOPE>
*
*    </Calibration>
*
*    <Calibration format='VOLT0' id='Volt 1'>
*
*       <OFFSET>-4.784000e-02</OFFSET>
*
*       <SLOPE>1.248871e+00</SLOPE>
*
*    </Calibration>
*
*    <Calibration format='VOLT0' id='Volt 2'>
*
*       <OFFSET>-4.864632e-02</OFFSET>
*
*       <SLOPE>1.248714e+00</SLOPE>
*
*    </Calibration>
*
*    <Calibration format='VOLT0' id='Volt 3'>
*
*       <OFFSET>-4.743790e-02</OFFSET>
*
*       <SLOPE>1.248571e+00</SLOPE>
*
*    </Calibration>
*
*    <Calibration format='VOLT0' id='Volt 4'>
*
*       <OFFSET>-4.671263e-02</OFFSET>
*
*       <SLOPE>1.248951e+00</SLOPE>
*
*    </Calibration>
*
*    <Calibration format='VOLT0' id='Volt 5'>
*
*       <OFFSET>-4.871053e-02</OFFSET>
*
*       <SLOPE>1.249136e+00</SLOPE>
*
*    </Calibration>
*
*    <Calibration format='FREQ0' id='external frequency channel'>
*
*       <EXTFREQSF>1.000014e+00</EXTFREQSF>
*
*    </Calibration>
*
* </CalibrationCoefficients>
* <EventCounters DeviceType='SBE19plus' SerialNumber='01907809'>
*
*    <EventSummary numEvents='0'/>
*
* </EventCounters></InstrumentState>
* <Headers>
*
* cast   4 15 Oct 2018 15:39:42 samples 1577 to 2232, avg = 1, stop = mag switch
*
# nquan = 17
# nvalues = 553                         
# units = specified
# name 0 = depFM: Depth [fresh water, m]
# name 1 = tv290C: Temperature [ITS-90, deg C]
# name 2 = sbeox0Mg/L: Oxygen, SBE 43 [mg/l]
# name 3 = sbeox0PS: Oxygen, SBE 43 [% saturation]
# name 4 = c0uS/cm: Conductivity [uS/cm]
# name 5 = specc: Specific Conductance [uS/cm]
# name 6 = ph: pH
# name 7 = orp: Oxidation Reduction Potential [mV]
# name 8 = flECO-AFL: Fluorescence, WET Labs ECO-AFL/FL [mg/m^3]
# name 9 = turbWETntu0: Turbidity, WET Labs ECO [NTU]
# name 10 = sal00: Salinity, Practical [PSU]
# name 11 = dz/dtM: Descent Rate [m/s]
# name 12 = prdM: Pressure, Strain Gauge [db]
# name 13 = prdE: Pressure, Strain Gauge [psi]
# name 14 = scan: Scan Count
# name 15 = par/sat/log: PAR/Logarithmic, Satlantic
# name 16 = flag:  0.000e+00
# span 0 =     -0.548,      7.801       
# span 1 =    13.7895,    18.2697       
# span 2 =    -0.7902,     9.6696       
# span 3 =     -7.995,    101.349       
# span 4 =   1.516568, 125.363875       
# span 5 =      1.749,    161.648       
# span 6 =      6.142,      7.779       
# span 7 =     9.1874,   267.9417       
# span 8 =    -0.2102,     3.3239       
# span 9 =    -0.3586,    15.8087       
# span 10 =     0.0093,     0.0771      
# span 11 =     -0.231,      0.207      
# span 12 =     -0.538,      7.649      
# span 13 =     -0.780,     11.095      
# span 14 =          1,        553      
# span 15 = 1.2307e-01, 4.8629e+02      
# span 16 = 0.0000e+00, 0.0000e+00      
# interval = seconds: 0.25
# start_time = Oct 15 2018 15:39:42 [Instrument's time stamp, header]
# bad_flag = -9.990e-29
# <Sensors count="9" >
#   <sensor Channel="1" >
#     <!-- Count, Temperature -->
#     <TemperatureSensor SensorID="58" >
#       <SerialNumber>7809</SerialNumber>
#       <CalibrationDate>09-Mar-18</CalibrationDate>
#       <A0>1.21093245e-003</A0>
#       <A1>2.84356597e-004</A1>
#       <A2>-1.94507398e-006</A2>
#       <A3>2.12806664e-007</A3>
#       <Slope>1.00000000</Slope>
#       <Offset>0.0000</Offset>
#     </TemperatureSensor>
#   </sensor>
#   <sensor Channel="2" >
#     <!-- Frequency 0, Conductivity -->
#     <ConductivitySensor SensorID="3" >
#       <SerialNumber>7809</SerialNumber>
#       <CalibrationDate>09-Mar-18</CalibrationDate>
#       <UseG_J>1</UseG_J>
#       <!-- Cell const and series R are applicable only for wide range sensors. -->
#       <SeriesR>0.0000</SeriesR>
#       <CellConst>2000.0000</CellConst>
#       <ConductivityType>0</ConductivityType>
#       <Coefficients equation="0" >
#         <A>0.00000000e+000</A>
#         <B>0.00000000e+000</B>
#         <C>0.00000000e+000</C>
#         <D>0.00000000e+000</D>
#         <M>0.0</M>
#         <CPcor>-9.57000000e-008</CPcor>
#       </Coefficients>
#       <Coefficients equation="1" >
#         <G>-1.00672082e+000</G>
#         <H>1.26906489e-001</H>
#         <I>-1.40584351e-004</I>
#         <J>2.47837121e-005</J>
#         <CPcor>-9.57000000e-008</CPcor>
#         <CTcor>3.2500e-006</CTcor>
#         <!-- WBOTC not applicable unless ConductivityType = 1. -->
#         <WBOTC>0.00000000e+000</WBOTC>
#       </Coefficients>
#       <Slope>1.00000000</Slope>
#       <Offset>0.00000</Offset>
#     </ConductivitySensor>
#   </sensor>
#   <sensor Channel="3" >
#     <!-- Count, Pressure, Strain Gauge -->
#     <PressureSensor SensorID="46" >
#       <SerialNumber>7809</SerialNumber>
#       <CalibrationDate>07-Mar-18</CalibrationDate>
#       <PA0>-4.08176359e-002</PA0>
#       <PA1>4.85188419e-004</PA1>
#       <PA2>-3.51168169e-012</PA2>
#       <PTEMPA0>-5.37806900e+001</PTEMPA0>
#       <PTEMPA1>5.36620721e+001</PTEMPA1>
#       <PTEMPA2>4.87214332e-002</PTEMPA2>
#       <PTCA0>5.25213435e+005</PTCA0>
#       <PTCA1>1.79532409e+000</PTCA1>
#       <PTCA2>-2.84353509e-001</PTCA2>
#       <PTCB0>2.51668750e+001</PTCB0>
#       <PTCB1>3.75000000e-004</PTCB1>
#       <PTCB2>0.00000000e+000</PTCB2>
#       <Offset>0.000000</Offset>
#     </PressureSensor>
#   </sensor>
#   <sensor Channel="4" >
#     <!-- A/D voltage 0, pH -->
#     <pH_Sensor SensorID="43" >
#       <SerialNumber>0363</SerialNumber>
#       <CalibrationDate>16-Mar-18</CalibrationDate>
#       <Slope>4.6194</Slope>
#       <Offset>2.5947</Offset>
#     </pH_Sensor>
#   </sensor>
#   <sensor Channel="5" >
#     <!-- A/D voltage 1, Oxidation Reduction Potential -->
#     <OxidationReductionPotentialSensor SensorID="41" >
#       <SerialNumber>0363</SerialNumber>
#       <CalibrationDate>16-Mar-18</CalibrationDate>
#       <B>2.499480</B>
#       <M>-0.496195</M>
#       <Offset>0.0</Offset>
#     </OxidationReductionPotentialSensor>
#   </sensor>
#   <sensor Channel="6" >
#     <!-- A/D voltage 2, Oxygen, SBE 43 -->
#     <OxygenSensor SensorID="38" >
#       <SerialNumber>0434</SerialNumber>
#       <CalibrationDate>13-Mar-18</CalibrationDate>
#       <Use2007Equation>1</Use2007Equation>
#       <CalibrationCoefficients equation="0" >
#         <!-- Coefficients for Owens-Millard equation. -->
#         <Boc>0.0000</Boc>
#         <Soc>0.0000e+000</Soc>
#         <offset>0.0000</offset>
#         <Pcor>0.00e+000</Pcor>
#         <Tcor>0.0000</Tcor>
#         <Tau>0.0</Tau>
#       </CalibrationCoefficients>
#       <CalibrationCoefficients equation="1" >
#         <!-- Coefficients for Sea-Bird equation - SBE calibration in 2007 and later. -->
#         <Soc>4.5718e-001</Soc>
#         <offset>-0.6113</offset>
#         <A>-4.0649e-003</A>
#         <B> 2.0945e-004</B>
#         <C>-3.3182e-006</C>
#         <D0> 2.5826e+000</D0>
#         <D1> 1.92634e-004</D1>
#         <D2>-4.64803e-002</D2>
#         <E> 3.6000e-002</E>
#         <Tau20> 1.2200</Tau20>
#         <H1>-3.3000e-002</H1>
#         <H2> 5.0000e+003</H2>
#         <H3> 1.4500e+003</H3>
#       </CalibrationCoefficients>
#     </OxygenSensor>
#   </sensor>
#   <sensor Channel="7" >
#     <!-- A/D voltage 3, PAR/Logarithmic, Satlantic -->
#     <PARLog_SatlanticSensor SensorID="76" >
#       <SerialNumber>1122</SerialNumber>
#       <CalibrationDate>22-Jun-2017</CalibrationDate>
#       <a0>9.6090e-001</a0>
#       <a1>8.0780e-001</a1>
#       <Im>1.3589e+000</Im>
#       <Multiplier>1.0000e+000</Multiplier>
#     </PARLog_SatlanticSensor>
#   </sensor>
#   <sensor Channel="8" >
#     <!-- A/D voltage 4, Fluorometer, WET Labs ECO-AFL/FL -->
#     <FluoroWetlabECO_AFL_FL_Sensor SensorID="20" >
#       <SerialNumber>FLNTURT-2496</SerialNumber>
#       <CalibrationDate>25-Jan-2017</CalibrationDate>
#       <ScaleFactor>5.30000000e+001</ScaleFactor>
#       <!-- Dark output -->
#       <Vblank>0.0560</Vblank>
#     </FluoroWetlabECO_AFL_FL_Sensor>
#   </sensor>
#   <sensor Channel="9" >
#     <!-- A/D voltage 5, Turbidity Meter, WET Labs, ECO-NTU -->
#     <TurbidityMeter SensorID="67" >
#       <SerialNumber>FLNTURT-2496</SerialNumber>
#       <CalibrationDate>25-Jan-2017</CalibrationDate>
#       <ScaleFactor>176.000000</ScaleFactor>
#       <!-- Dark output -->
#       <DarkVoltage>0.072000</DarkVoltage>
#     </TurbidityMeter>
#   </sensor>
# </Sensors>
# datcnv_date = Oct 29 2018 16:48:34, 7.26.7.114 [datcnv_vars = 16]
# datcnv_in = C:\DATA\101518_fcr45.hex C:\DATA\SBE19plusV2_7809.xmlcon
# datcnv_skipover = 0
# datcnv_ox_hysteresis_correction = yes
# datcnv_ox_tau_correction = yes
# filter_date = Oct 29 2018 16:49:03, 7.26.7.114
# filter_in = C:\DATA\101518_fcr45.cnv
# filter_low_pass_tc_A = 0.030
# filter_low_pass_tc_B = 0.150
# filter_low_pass_A_vars = tv290C c0uS/cm par/sat/log
# filter_low_pass_B_vars = prdM prdE
# alignctd_date = Oct 29 2018 16:49:26, 7.26.7.114
# alignctd_in = C:\DATA\101518_fcr45.cnv
# alignctd_adv = tv290C 0.500, sbeox0Mg/L 3.000, sbeox0PS 3.000                                                                                                                                                                      
# file_type = ascii
*END*
     -0.548    18.2586     9.1708     97.402   1.851055      2.137      6.142   230.6523    -0.1941    -0.1840     0.0094 4.2106e-16     -0.537     -0.779          1 2.7999e+02 0.0000e+00
     -0.547    18.2590     9.1711     97.405   1.785973      2.072      6.167   223.8758    -0.2102    -0.2377     0.0094      0.000     -0.537     -0.778          2 2.8934e+02 0.0000e+00
     -0.547    18.2596     9.1761     97.459   1.869237      2.137      6.166   218.5001    -0.1819    -0.1974     0.0094      0.000     -0.537     -0.778          3 2.9839e+02 0.0000e+00
     -0.548    18.2601     9.1730     97.428   2.013913      2.362      6.159   221.4530    -0.1779    -0.2243     0.0094      0.000     -0.537     -0.779          4 2.9313e+02 0.0000e+00
     -0.548    18.2607     9.1758     97.458   2.079666      2.362      6.154   198.3222    -0.1375    -0.2109     0.0094      0.000     -0.537     -0.779          5 2.6746e+02 0.0000e+00
     -0.548    18.2614     9.1752     97.452   2.290763      2.685      6.161   212.2537    -0.1779    -0.2243     0.0095     -0.000     -0.537     -0.779          6 2.6019e+02 0.0000e+00
     -0.548    18.2618     9.1763     97.465   2.224955      2.556      6.182   213.2001    -0.1779    -0.2377     0.0095     -0.000     -0.537     -0.779          7 2.6934e+02 0.0000e+00
     -0.548    18.2622     9.1738     97.440   2.043126      2.362      6.191   221.2637    -0.1860    -0.0229     0.0094     -0.000     -0.537     -0.779          8 2.6167e+02 0.0000e+00
     -0.548    18.2629     9.1744     97.447   1.984081      2.298      6.199   212.9729    -0.1658     0.0040     0.0094     -0.000     -0.537     -0.779          9 2.5201e+02 0.0000e+00
     -0.548    18.2634     9.1706     97.408   1.883909      2.169      6.205   224.8223    -0.1819     0.0577     0.0094     -0.000     -0.537     -0.779         10 2.6149e+02 0.0000e+00
     -0.548    18.2640     9.1719     97.423   1.930916      2.233      6.209   219.1058    -0.1941    -0.0095     0.0094     -0.000     -0.537     -0.779         11 2.8414e+02 0.0000e+00
     -0.547    18.2645     9.1830     97.492   1.984799      2.298      6.219   221.9830    -0.1779     0.0980     0.0094      0.000     -0.537     -0.779         12 3.2268e+02 0.0000e+00
     -0.548    18.2650     9.1963     97.458   1.876072      2.169      6.217   236.9744    -0.2021    -0.2243     0.0094     -0.000     -0.538     -0.780         13 3.4683e+02 0.0000e+00
     -0.548    18.2655     9.2096     97.440   1.681312      1.943      6.224   225.3523    -0.1779    -0.3586     0.0094     -0.000     -0.538     -0.780         14 3.4725e+02 0.0000e+00
     -0.548    18.2660     9.2296     97.529   1.516568      1.749      6.227   239.6623    -0.1779    -0.2377     0.0093     -0.000     -0.537     -0.779         15 3.7498e+02 0.0000e+00
     -0.548    18.2663     9.2382     97.500   1.696183      1.943      6.226   233.3023    -0.1738    -0.1437     0.0094     -0.000     -0.537     -0.779         16 3.9241e+02 0.0000e+00
     -0.548    18.2670     9.2563     97.557   2.582925      2.975      6.224   234.4380    -0.1941    -0.2243     0.0096     -0.000     -0.537     -0.779         17 4.0063e+02 0.0000e+00
     -0.547    18.2672     9.2697     97.542   3.255537      3.813      6.227   227.5101    -0.1941    -0.2377     0.0098     -0.000     -0.537     -0.779         18 4.1116e+02 0.0000e+00
     -0.547    18.2681     9.2848     97.547   3.020645      3.458      6.226   231.4473    -0.1941    -0.2780     0.0097      0.000     -0.537     -0.779         19 4.1062e+02 0.0000e+00
     -0.548    18.2679     9.3057     97.647   2.667968      3.104      6.226   236.1037    -0.1617    -0.2914     0.0096      0.000     -0.537     -0.779         20 4.0790e+02 0.0000e+00
     -0.548    18.2697     9.3315     97.847   2.658075      3.039      6.227   230.0466    -0.1779    -0.2243     0.0096      0.000     -0.537     -0.778         21 4.0655e+02 0.0000e+00
     -0.548    18.2416     9.3610     98.114   2.588803      3.039      6.230   234.2109    -0.2021    -0.3317     0.0096      0.000     -0.533     -0.773         22 4.1192e+02 0.0000e+00
     -0.536    18.1568     9.3992     98.530   2.694956      3.039      6.233   237.0502    -0.1860    -0.1974     0.0096      0.003     -0.518     -0.751         23 4.1522e+02 0.0000e+00
     -0.501    18.0731     9.4362     98.934   4.657987      5.364      6.240   239.2459    -0.1779    -0.2512     0.0102      0.015     -0.486     -0.705         24 4.2987e+02 0.0000e+00
     -0.451    18.0124     9.4839     99.433  16.969423     19.087      6.248   226.0337    -0.1860    -0.2914     0.0152      0.036     -0.440     -0.638         25 4.4448e+02 0.0000e+00
     -0.394    17.9522     9.5243     99.862  31.253754     37.313      6.588   204.6444    -0.2021    -0.1974     0.0226      0.066     -0.386     -0.560         26 4.5892e+02 0.0000e+00
     -0.334    17.8853     9.5675    100.322  32.699058     37.365      7.090   222.5887    -0.1658    -0.0900     0.0226      0.102     -0.334     -0.484         27 4.7450e+02 0.0000e+00
     -0.295    17.8078     9.6092    100.754  31.888808     37.515      7.429   193.7793    -0.1860    -0.2243     0.0226      0.134     -0.291     -0.421         28 4.8278e+02 0.0000e+00
     -0.261    17.7310     9.6337    100.999  32.410393     37.541      7.567   195.5208    -0.1860    -0.2512     0.0226      0.158     -0.252     -0.365         29 4.8629e+02 0.0000e+00
     -0.212    17.6731     9.6696    101.349  32.020331     37.544      7.712   197.1108     1.1970    15.6207     0.0226      0.176     -0.207     -0.300         30 4.8519e+02 0.0000e+00
     -0.162    17.6361     9.6587    101.183  32.285304     37.677      7.774   185.9050     1.2414    15.7415     0.0226      0.186     -0.158     -0.228         31 4.5501e+02 0.0000e+00
     -0.107    17.6172     9.6230    100.755  32.139979     37.729      7.779   186.0943     1.2455    15.8087     0.0226      0.188     -0.109     -0.157         32 4.1927e+02 0.0000e+00
     -0.065    17.6230     9.5777    100.240  32.141906     37.629      7.718   188.3279     1.2010    15.7818     0.0225      0.185     -0.066     -0.096         33 4.0248e+02 0.0000e+00
     -0.031    17.6316     9.3562     97.907  32.134656     37.746      7.655   190.5236     1.7833     5.2543     0.0226      0.179     -0.031     -0.045         34 3.9424e+02 0.0000e+00
      0.001    17.6310     8.9613     93.777  32.178662     37.706      7.612   189.8800     1.8156     5.1603     0.0226      0.172     -0.000     -0.000         35 3.7237e+02 0.0000e+00
      0.030    17.6336     8.4260     88.182  32.176101     37.765      7.569   189.6529     1.8278     5.3349     0.0226      0.166      0.026      0.039         36 2.9723e+02 0.0000e+00
      0.051    17.6366     7.8017     81.653  32.226801     37.765      7.533   190.5615     1.8116     5.3349     0.0226      0.155      0.045      0.066         37 2.5890e+02 0.0000e+00
      0.058    17.6346     7.1778     75.122  32.234181     37.829      7.490   191.1672     1.7388     4.9320     0.0226      0.135      0.055      0.080         38 2.6330e+02 0.0000e+00
      0.061    17.6291     6.5882     68.939  32.226225     37.760      7.462   188.5550     1.7509     5.1334     0.0226      0.110      0.060      0.087         39 2.5563e+02 0.0000e+00
      0.065    17.6158     6.0462     63.255  32.266355     37.860      7.435   188.2522     1.7348     4.9589     0.0226      0.084      0.061      0.090         40 2.5204e+02 0.0000e+00
      0.063    17.5913     5.6467     59.073  32.273200     37.832      7.409   187.7979     1.7590     5.1603     0.0226      0.062      0.061      0.089         41 2.4323e+02 0.0000e+00
      0.060    17.5656     5.4051     56.542  32.247362     37.844      7.385   188.0629     1.7469     4.8783     0.0226      0.041      0.058      0.084         42 2.5220e+02 0.0000e+00
      0.052    17.5463     5.2726     55.153  32.268861     37.866      7.371   189.6907     1.7469     4.7843     0.0226      0.021      0.052      0.076         43 2.6082e+02 0.0000e+00
      0.046    17.5382     5.2341     54.744  32.305761     37.954      7.366   189.6529     1.7307     4.7843     0.0226      0.005      0.049      0.071         44 2.6133e+02 0.0000e+00
      0.052    17.5396     5.2269     54.663  32.468335     38.136      7.361   190.1829     1.7307     4.8380     0.0227     -0.004      0.056      0.081         45 2.5346e+02 0.0000e+00
      0.073    17.5432     5.2420     54.816  32.985824     38.767      7.349   199.7608     1.7469     4.8515     0.0230     -0.001      0.073      0.106         46 2.1919e+02 0.0000e+00
      0.099    17.5460     5.2760     55.169  33.618957     39.522      7.347   191.3565     1.7469     4.7575     0.0233      0.009      0.097      0.140         47 1.9818e+02 0.0000e+00
      0.123    17.5451     5.3086     55.506  34.052817     40.011      7.329   199.5715     1.7307     4.7843     0.0235      0.024      0.117      0.170         48 1.9396e+02 0.0000e+00
      0.136    17.5362     5.3301     55.726  34.284541     40.304      7.295   200.4422     1.7550     4.7575     0.0236      0.039      0.131      0.190         49 1.8862e+02 0.0000e+00
      0.142    17.5272     5.3567     55.996  34.220260     40.206      7.276   193.3629     1.7226     4.8380     0.0236      0.051      0.140      0.202         50 1.8574e+02 0.0000e+00
      0.150    17.5243     5.3833     56.268  33.925220     39.886      7.273   193.6658     1.7469     4.8783     0.0235      0.059      0.145      0.210         51 1.8057e+02 0.0000e+00
      0.151    17.5216     5.3997     56.436  33.495133     39.369      7.260   193.4386     1.7550     4.8783     0.0232      0.058      0.146      0.211         52 1.8250e+02 0.0000e+00
      0.146    17.5186     5.4192     56.635  33.480302     39.338      7.245   193.8550     1.7145     4.7843     0.0232      0.048      0.143      0.206         53 1.9065e+02 0.0000e+00
      0.139    17.5147     5.4239     56.681  33.706432     39.670      7.236   194.1579     1.7226     4.7440     0.0234      0.031      0.138      0.200         54 1.8770e+02 0.0000e+00
      0.137    17.5090     5.4219     56.657  33.658550     39.541      7.224   194.7258     1.7550     4.8783     0.0233      0.015      0.136      0.198         55 1.8845e+02 0.0000e+00
      0.139    17.5043     5.4221     56.656  33.658513     39.610      7.216   197.5272     1.7590     4.7440     0.0233      0.004      0.140      0.203         56 1.8591e+02 0.0000e+00
      0.150    17.5020     5.4244     56.678  33.587859     39.484      7.213   195.1800     1.7226     4.7306     0.0233      0.001      0.150      0.218         57 1.7347e+02 0.0000e+00
      0.171    17.4993     5.4181     56.607  33.479582     39.390      7.204   199.1551     1.7226     4.7575     0.0232      0.005      0.165      0.240         58 1.6429e+02 0.0000e+00
      0.182    17.4947     5.4206     56.629  33.467055     39.359      7.185   203.8872     1.7914     4.8515     0.0232      0.013      0.180      0.261         59 1.5957e+02 0.0000e+00
      0.198    17.4884     5.4145     56.563  33.395864     39.296      7.178   204.3415     1.8197     4.8515     0.0232      0.024      0.195      0.282         60 1.5512e+02 0.0000e+00
      0.216    17.4828     5.3921     56.327  33.360592     39.235      7.176   204.6065     1.8075     4.8112     0.0232      0.038      0.212      0.307         61 1.4565e+02 0.0000e+00
      0.235    17.4792     5.3573     55.962  33.333019     39.240      7.173   205.4772     1.7752     4.7575     0.0232      0.050      0.227      0.329         62 1.4352e+02 0.0000e+00
      0.243    17.4759     5.3160     55.529  33.281906     39.147      7.158   205.0229     1.8601     4.8783     0.0231      0.057      0.237      0.344         63 1.4091e+02 0.0000e+00
      0.247    17.4726     5.2650     54.996  33.305584     39.216      7.147   205.5529     1.8884     4.8112     0.0232      0.057      0.243      0.352         64 1.3843e+02 0.0000e+00
      0.253    17.4699     5.2074     54.399  33.273897     39.153      7.140   205.8936     1.8803     4.7709     0.0231      0.052      0.249      0.361         65 1.3524e+02 0.0000e+00
      0.262    17.4679     5.1577     53.884  33.202721     39.090      7.142   206.0451     1.8642     4.8515     0.0231      0.046      0.257      0.371         66 1.3102e+02 0.0000e+00
      0.270    17.4655     5.1096     53.389  33.156924     39.027      7.140   206.1208     1.8358     4.7977     0.0231      0.041      0.263      0.380         67 1.3134e+02 0.0000e+00
      0.272    17.4616     5.0685     52.968  33.093653     38.963      7.136   206.7265     1.7995     4.8246     0.0230      0.034      0.265      0.384         68 1.3161e+02 0.0000e+00
      0.270    17.4580     5.0334     52.610  33.103532     38.965      7.134   206.6129     1.7995     4.7843     0.0230      0.026      0.264      0.383         69 1.3236e+02 0.0000e+00
      0.267    17.4562     5.0013     52.279  33.085320     38.969      7.130   207.6729     1.8318     4.7977     0.0230      0.018      0.261      0.380         70 1.3346e+02 0.0000e+00
      0.263    17.4549     4.9805     52.063  32.997699     38.841      7.118   207.6351     1.8197     4.8380     0.0230      0.012      0.258      0.375         71 1.3646e+02 0.0000e+00
      0.259    17.4532     4.9615     51.867  32.975338     38.842      7.110   207.7486     1.7995     4.8112     0.0230      0.006      0.255      0.370         72 1.3633e+02 0.0000e+00
      0.259    17.4517     4.9490     51.738  32.994532     38.843      7.108   208.1651     1.8075     4.9052     0.0230     -0.000      0.254      0.369         73 1.3553e+02 0.0000e+00
      0.260    17.4518     4.9315     51.556  32.973816     38.845      7.106   208.2408     1.8358     4.8649     0.0230     -0.004      0.255      0.370         74 1.3629e+02 0.0000e+00
      0.260    17.4550     4.9105     51.341  32.941810     38.780      7.103   207.7486     1.7995     4.7306     0.0230     -0.007      0.256      0.372         75 1.3389e+02 0.0000e+00
      0.265    17.4601     4.8922     51.152  32.975052     38.846      7.099   208.1272     1.7792     4.8649     0.0230     -0.005      0.261      0.379         76 1.3147e+02 0.0000e+00
      0.273    17.4663     4.8703     50.928  32.991756     38.843      7.094   208.3922     1.7752     4.7977     0.0230      0.000      0.268      0.389         77 1.2836e+02 0.0000e+00
      0.282    17.4746     4.8387     50.603  32.980332     38.839      7.091   208.5815     1.8439     4.7977     0.0230      0.006      0.277      0.401         78 1.2365e+02 0.0000e+00
      0.292    17.4821     4.8038     50.241  33.048576     38.899      7.085   208.8844     1.8116     4.8112     0.0230      0.014      0.286      0.414         79 1.2215e+02 0.0000e+00
      0.298    17.4861     4.7767     49.960  33.084753     38.957      7.077   207.3322     1.8035     4.8112     0.0230      0.020      0.292      0.423         80 1.2003e+02 0.0000e+00
      0.302    17.4877     4.7559     49.742  33.113235     38.950      7.065   209.4144     1.8197     4.7977     0.0230      0.024      0.296      0.429         81 1.1813e+02 0.0000e+00
      0.305    17.4894     4.7333     49.507  33.191055     39.078      7.059   209.3008     1.7995     4.7709     0.0231      0.025      0.299      0.434         82 1.1699e+02 0.0000e+00
      0.308    17.4906     4.7185     49.354  33.225145     39.077      7.057   209.6037     1.8197     4.8380     0.0231      0.025      0.302      0.439         83 1.1563e+02 0.0000e+00
      0.312    17.4925     4.7053     49.217  33.248740     39.141      7.051   207.4079     1.8197     4.8246     0.0231      0.023      0.307      0.444         84 1.1190e+02 0.0000e+00
      0.318    17.4959     4.6981     49.141  33.221000     39.074      7.048   207.2944     1.7995     4.8649     0.0231      0.020      0.310      0.449         85 1.1042e+02 0.0000e+00
      0.318    17.4991     4.6820     48.973  33.259665     39.138      7.043   209.9822     1.8075     4.7306     0.0231      0.017      0.310      0.449         86 1.1272e+02 0.0000e+00
      0.312    17.5041     4.6640     48.786  33.348897     39.233      7.042   210.6258     1.8156     4.8246     0.0232      0.011      0.303      0.440         87 1.1644e+02 0.0000e+00
      0.299    17.5085     4.6377     48.513  33.317536     39.198      7.032   210.5122     1.8803     4.8783     0.0231      0.005      0.290      0.422         88 1.2288e+02 0.0000e+00
      0.277    17.5115     4.6056     48.180  33.269036     39.127      7.026   211.0801     1.8722     4.7575     0.0231     -0.007      0.274      0.398         89 1.2752e+02 0.0000e+00
      0.263    17.5136     4.5695     47.805  33.260977     39.123      7.018   211.3072     1.8763     4.8380     0.0231     -0.019      0.258      0.375         90 1.3724e+02 0.0000e+00
      0.249    17.5142     4.5352     47.448  33.268253     39.120      7.006   211.2694     1.8844     4.8380     0.0231     -0.031      0.244      0.354         91 1.4435e+02 0.0000e+00
      0.234    17.5149     4.5021     47.103  33.259980     39.118      6.999   211.1558     1.8601     4.7440     0.0231     -0.043      0.231      0.334         92 1.4872e+02 0.0000e+00
      0.223    17.5162     4.4688     46.756  33.271272     39.118      6.992   211.2315     1.8197     4.7843     0.0231     -0.052      0.221      0.321         93 1.5192e+02 0.0000e+00
      0.220    17.5173     4.4375     46.428  33.313511     39.183      6.989   211.8751     1.7914     4.8112     0.0231     -0.054      0.218      0.316         94 1.4946e+02 0.0000e+00
      0.224    17.5169     4.3967     46.001  33.355689     39.215      6.985   212.2537     1.8035     4.8380     0.0232     -0.048      0.220      0.319         95 1.4958e+02 0.0000e+00
      0.227    17.5170     4.3682     45.706  33.337401     39.214      6.983   212.0644     1.8035     4.8783     0.0232     -0.037      0.224      0.325         96 1.4603e+02 0.0000e+00
      0.235    17.5188     4.3376     45.387  33.276959     39.115      6.984   212.3672     1.8237     4.7843     0.0231     -0.022      0.231      0.335         97 1.4139e+02 0.0000e+00
      0.244    17.5211     4.3018     45.014  33.341943     39.214      6.983   212.5565     1.7995     4.7843     0.0232     -0.008      0.239      0.347         98 1.3895e+02 0.0000e+00
      0.252    17.5234     4.2761     44.748  33.345495     39.212      6.982   212.2915     1.7954     4.8783     0.0232      0.005      0.246      0.356         99 1.3709e+02 0.0000e+00
      0.255    17.5257     4.2445     44.419  33.331847     39.177      6.976   213.4272     1.7752     4.7440     0.0231      0.015      0.249      0.361        100 1.3679e+02 0.0000e+00
      0.255    17.5281     4.2199     44.162  33.329271     39.208      6.975   213.0108     1.8237     4.8112     0.0232      0.020      0.251      0.363        101 1.3585e+02 0.0000e+00
      0.258    17.5299     4.1908     43.860  33.289390     39.107      6.972   213.3137     1.8278     4.7843     0.0231      0.021      0.253      0.367        102 1.3533e+02 0.0000e+00
      0.261    17.5304     4.1630     43.571  33.381479     39.269      6.969   214.1087     1.7833     4.7306     0.0232      0.019      0.254      0.369        103 1.3531e+02 0.0000e+00
      0.260    17.5301     4.1390     43.321  33.362942     39.202      6.961   214.3737     1.7914     4.8112     0.0232      0.016      0.254      0.368        104 1.3659e+02 0.0000e+00
      0.256    17.5309     4.1136     43.057  33.401422     39.267      6.957   214.2980     1.8278     4.7843     0.0232      0.010      0.253      0.367        105 1.3772e+02 0.0000e+00
      0.257    17.5333     4.0856     42.765  33.422558     39.300      6.955   214.6765     1.8278     4.8246     0.0232      0.005      0.254      0.369        106 1.3394e+02 0.0000e+00
      0.264    17.5356     4.0645     42.545  33.366295     39.201      6.950   214.7522     1.7995     4.8783     0.0232      0.004      0.259      0.376        107 1.3079e+02 0.0000e+00
      0.272    17.5373     4.0450     42.342  33.382473     39.265      6.946   215.0930     1.8278     4.8783     0.0232      0.006      0.265      0.385        108 1.2975e+02 0.0000e+00
      0.275    17.5392     4.0195     42.077  33.372768     39.197      6.939   214.9415     1.8075     4.8246     0.0232      0.008      0.269      0.390        109 1.2826e+02 0.0000e+00
      0.277    17.5412     4.0002     41.877  33.437683     39.327      6.932   215.3580     1.8075     4.8246     0.0232      0.010      0.272      0.394        110 1.2786e+02 0.0000e+00
      0.279    17.5430     3.9794     41.660  33.420308     39.259      6.925   215.7744     1.8197     4.7843     0.0232      0.012      0.273      0.395        111 1.2754e+02 0.0000e+00
      0.278    17.5448     3.9624     41.484  33.424045     39.290      6.919   215.9637     1.8116     4.8380     0.0232      0.013      0.272      0.394        112 1.2898e+02 0.0000e+00
      0.275    17.5466     3.9382     41.232  33.462686     39.321      6.919   216.0772     1.8197     4.9052     0.0232      0.011      0.271      0.392        113 1.2937e+02 0.0000e+00
      0.275    17.5485     3.9237     41.081  33.401873     39.254      6.915   216.3422     1.8561     4.7843     0.0232      0.008      0.271      0.392        114 1.2824e+02 0.0000e+00
      0.278    17.5501     3.8986     40.820  33.410760     39.252      6.915   216.3801     1.8601     4.7977     0.0232      0.004      0.273      0.395        115 1.2707e+02 0.0000e+00
      0.281    17.5517     3.8816     40.643  33.392317     39.250      6.914   216.7587     1.8561     4.8380     0.0232      0.002      0.275      0.399        116 1.2618e+02 0.0000e+00
      0.283    17.5530     3.8657     40.478  33.365514     39.183      6.912   217.0615     1.8803     4.7709     0.0232      0.002      0.276      0.400        117 1.2616e+02 0.0000e+00
      0.282    17.5542     3.8474     40.288  33.414458     39.280      6.906   216.9480     1.8439     4.8380     0.0232      0.003      0.275      0.400        118 1.2713e+02 0.0000e+00
      0.278    17.5560     3.8291     40.097  33.420371     39.246      6.903   217.7051     1.8480     4.8246     0.0232      0.002      0.273      0.396        119 1.2927e+02 0.0000e+00
      0.274    17.5577     3.8138     39.938  33.447121     39.311      6.902   217.7808     1.8925     4.7575     0.0232      0.001      0.269      0.391        120 1.3018e+02 0.0000e+00
      0.271    17.5597     3.7973     39.767  33.410823     39.244      6.898   217.5537     1.8682     4.7977     0.0232     -0.001      0.267      0.387        121 1.3054e+02 0.0000e+00
      0.271    17.5615     3.7853     39.642  33.406233     39.242      6.895   218.2351     1.8925     4.8246     0.0232     -0.004      0.267      0.386        122 1.3017e+02 0.0000e+00
      0.273    17.5629     3.7685     39.467  33.423178     39.273      6.893   218.1215     1.8601     4.8649     0.0232     -0.005      0.268      0.388        123 1.2941e+02 0.0000e+00
      0.275    17.5643     3.7582     39.360  33.419390     39.239      6.890   218.1973     1.8884     4.8246     0.0232     -0.005      0.269      0.391        124 1.2907e+02 0.0000e+00
      0.276    17.5658     3.7413     39.185  33.440600     39.303      6.886   218.5758     1.8399     4.7977     0.0232     -0.004      0.270      0.392        125 1.2887e+02 0.0000e+00
      0.276    17.5672     3.7245     39.010  33.426437     39.236      6.883   219.2573     1.9288     4.7843     0.0232     -0.002      0.270      0.392        126 1.2960e+02 0.0000e+00
      0.275    17.5688     3.7134     38.895  33.437017     39.300      6.879   219.2951     1.9167     4.8783     0.0232      0.000      0.269      0.390        127 1.2991e+02 0.0000e+00
      0.272    17.5707     3.7018     38.775  33.427434     39.233      6.880   219.5223     1.9288     4.8515     0.0232      0.001      0.267      0.387        128 1.3121e+02 0.0000e+00
      0.269    17.5722     3.6851     38.601  33.468018     39.330      6.877   219.2951     1.9410     4.8783     0.0232     -0.000      0.264      0.383        129 1.3211e+02 0.0000e+00
      0.268    17.5736     3.6670     38.412  33.416163     39.230      6.874   219.7494     1.8480     4.8112     0.0232     -0.002      0.262      0.380        130 1.3291e+02 0.0000e+00
      0.265    17.5748     3.6554     38.292  33.402997     39.229      6.871   219.7873     1.8601     4.8246     0.0232     -0.005      0.260      0.378        131 1.3357e+02 0.0000e+00
      0.265    17.5761     3.6415     38.148  33.454747     39.293      6.870   220.1658     1.8763     4.8246     0.0232     -0.006      0.260      0.378        132 1.3253e+02 0.0000e+00
      0.267    17.5779     3.6332     38.062  33.411071     39.226      6.866   219.9765     1.8925     4.8112     0.0232     -0.006      0.262      0.380        133 1.3166e+02 0.0000e+00
      0.270    17.5795     3.6243     37.970  33.457351     39.291      6.864   220.0144     1.8803     4.8380     0.0232     -0.004      0.265      0.384        134 1.3019e+02 0.0000e+00
      0.274    17.5811     3.6082     37.802  33.486118     39.322      6.864   220.3551     1.8682     4.7977     0.0232     -0.001      0.268      0.389        135 1.2898e+02 0.0000e+00
      0.277    17.5826     3.5939     37.653  33.464236     39.288      6.860   220.5823     1.8601     4.7575     0.0232      0.003      0.270      0.393        136 1.2852e+02 0.0000e+00
      0.278    17.5839     3.5861     37.573  33.454927     39.286      6.859   220.8851     1.8884     4.7172     0.0232      0.006      0.272      0.395        137 1.2812e+02 0.0000e+00
      0.277    17.5852     3.5767     37.475  33.468045     39.285      6.853   221.1123     1.8763     4.8112     0.0232      0.007      0.272      0.395        138 1.2862e+02 0.0000e+00
      0.277    17.5867     3.5644     37.347  33.507220     39.349      6.853   221.3394     1.9369     4.7575     0.0232      0.007      0.271      0.394        139 1.2941e+02 0.0000e+00
      0.276    17.5884     3.5558     37.257  33.524796     39.348      6.849   221.5287     1.9005     4.7709     0.0232      0.006      0.270      0.393        140 1.2989e+02 0.0000e+00
      0.274    17.5896     3.5415     37.109  33.535138     39.379      6.847   221.7937     1.9086     4.7843     0.0233      0.004      0.269      0.391        141 1.2962e+02 0.0000e+00
      0.274    17.5910     3.5356     37.048  33.464695     39.279      6.843   221.8315     1.9572     4.9320     0.0232      0.001      0.269      0.390        142 1.2951e+02 0.0000e+00
      0.275    17.5923     3.5287     36.977  33.464184     39.278      6.841   222.0965     1.9046     4.8380     0.0232     -0.001      0.270      0.391        143 1.2928e+02 0.0000e+00
      0.276    17.5936     3.5219     36.906  33.506116     39.343      6.839   222.2101     1.9167     4.8380     0.0232     -0.001      0.271      0.393        144 1.2836e+02 0.0000e+00
      0.277    17.5951     3.5026     36.705  33.471821     39.276      6.835   222.7401     1.9329     4.9052     0.0232     -0.001      0.272      0.394        145 1.2835e+02 0.0000e+00
      0.278    17.5962     3.4941     36.616  33.506864     39.340      6.831   222.9294     1.9572     4.8246     0.0232      0.000      0.272      0.395        146 1.2814e+02 0.0000e+00
      0.277    17.5974     3.4874     36.547  33.492160     39.306      6.826   223.4216     1.9531     4.7843     0.0232      0.001      0.272      0.394        147 1.2849e+02 0.0000e+00
      0.276    17.5987     3.4780     36.449  33.460465     39.272      6.820   223.7244     1.9208     4.7977     0.0232      0.001      0.271      0.393        148 1.2945e+02 0.0000e+00
      0.276    17.6001     3.4708     36.375  33.516654     39.337      6.819   223.7244     1.9288     4.7709     0.0232      0.001      0.270      0.392        149 1.2960e+02 0.0000e+00
      0.275    17.6014     3.4629     36.293  33.511199     39.336      6.815   223.7244     1.9410     4.8246     0.0232      0.000      0.270      0.392        150 1.2939e+02 0.0000e+00
      0.276    17.6027     3.4571     36.233  33.467253     39.269      6.813   223.8758     2.0057     4.8917     0.0232     -0.000      0.271      0.393        151 1.2880e+02 0.0000e+00
      0.277    17.6040     3.4463     36.120  33.512034     39.333      6.812   223.7623     1.9895     4.8112     0.0232     -0.000      0.272      0.395        152 1.2781e+02 0.0000e+00
      0.280    17.6052     3.4386     36.040  33.544436     39.365      6.814   224.1408     1.9814     4.7977     0.0233      0.000      0.274      0.398        153 1.2677e+02 0.0000e+00
      0.283    17.6063     3.4282     35.931  33.515893     39.331      6.811   224.1030     1.9814     4.7977     0.0232      0.002      0.277      0.402        154 1.2551e+02 0.0000e+00
      0.284    17.6072     3.4233     35.882  33.517897     39.329      6.812   224.3680     1.9935     4.8783     0.0232      0.004      0.278      0.403        155 1.2553e+02 0.0000e+00
      0.284    17.6083     3.4189     35.836  33.512286     39.328      6.811   224.8980     2.0097     4.8380     0.0232      0.005      0.277      0.402        156 1.2672e+02 0.0000e+00
      0.281    17.6094     3.4147     35.792  33.463566     39.262      6.808   224.9737     1.9976     4.6366     0.0232      0.005      0.276      0.400        157 1.2758e+02 0.0000e+00
      0.279    17.6107     3.3989     35.627  33.459906     39.261      6.807   224.7844     1.9814     4.7843     0.0232      0.003      0.274      0.397        158 1.2814e+02 0.0000e+00
      0.277    17.6120     3.3943     35.580  33.487183     39.293      6.803   225.0116     2.0016     4.7843     0.0232      0.001      0.272      0.395        159 1.2850e+02 0.0000e+00
      0.276    17.6132     3.3894     35.530  33.459275     39.259      6.803   225.5416     1.9329     4.8649     0.0232     -0.001      0.271      0.393        160 1.2924e+02 0.0000e+00
      0.275    17.6142     3.3823     35.455  33.464983     39.258      6.803   225.9958     1.9369     4.7843     0.0232     -0.004      0.270      0.392        161 1.2968e+02 0.0000e+00
      0.273    17.6145     3.3758     35.387  33.569046     39.388      6.801   225.9201     1.9369     4.7709     0.0233     -0.005      0.267      0.387        162 1.3189e+02 0.0000e+00
      0.267    17.6148     3.3716     35.343  33.567013     39.387      6.801   226.0716     1.9046     4.7306     0.0233     -0.007      0.262      0.380        163 1.3428e+02 0.0000e+00
      0.261    17.6160     3.3647     35.270  33.526823     39.321      6.796   226.3744     1.8642     4.8783     0.0232     -0.009      0.257      0.372        164 1.3602e+02 0.0000e+00
      0.256    17.6174     3.3647     35.275  33.530095     39.353      6.793   226.3744     1.8682     4.7843     0.0233     -0.011      0.252      0.366        165 1.3727e+02 0.0000e+00
      0.254    17.6185     3.3643     35.295  33.533286     39.319      6.793   226.3366     1.8682     4.8380     0.0232     -0.013      0.250      0.363        166 1.3703e+02 0.0000e+00
      0.256    17.6194     3.3797     35.473  33.552506     39.384      6.792   226.3744     1.8642     4.8112     0.0233     -0.013      0.250      0.363        167 1.3768e+02 0.0000e+00
      0.254    17.6196     3.4075     35.761  33.535830     39.317      6.793   226.8287     1.9410     4.8380     0.0232     -0.013      0.250      0.363        168 1.3640e+02 0.0000e+00
      0.254    17.6204     3.4557     36.254  33.494728     39.316      6.795   226.5258     1.9329     4.8112     0.0232     -0.011      0.250      0.363        169 1.3480e+02 0.0000e+00
      0.256    17.6217     3.5568     37.303  33.485035     39.250      6.796   226.5637     1.9410     4.7306     0.0232     -0.008      0.253      0.368        170 1.3197e+02 0.0000e+00
      0.266    17.6219     3.7058     38.858  33.547892     39.381      6.793   225.8444     1.9572     4.7977     0.0233     -0.001      0.263      0.382        171 1.2492e+02 0.0000e+00
      0.284    17.6216     3.8850     40.744  33.535125     39.314      6.790   226.9044     1.8439     4.8112     0.0232      0.008      0.279      0.404        172 1.1554e+02 0.0000e+00
      0.303    17.6232     4.1246     43.270  33.500923     39.314      6.780   227.2830     1.8561     4.8380     0.0232      0.020      0.296      0.428        173 1.0602e+02 0.0000e+00
      0.318    17.6213     4.4154     46.334  33.471834     39.249      6.770   228.1159     1.8520     4.8783     0.0232      0.031      0.308      0.447        174 1.0273e+02 0.0000e+00
      0.323    17.6293     4.7015     49.346  33.452706     39.247      6.758   227.4344     1.8601     4.8380     0.0232      0.038      0.308      0.447        175 1.0784e+02 0.0000e+00
      0.303    17.6610     4.9736     52.212  33.524728     39.314      6.751   227.5101     1.8763     5.1066     0.0232      0.037      0.286      0.415        176 1.2633e+02 0.0000e+00
      0.249    17.6836     5.2136     54.735  33.530478     39.341      6.750   226.8287     1.9288     5.0395     0.0233      0.017      0.239      0.347        177 1.5652e+02 0.0000e+00
      0.182    17.6780     5.3814     56.499  33.475199     39.212      6.749   226.8287     1.9693     5.0395     0.0232     -0.019      0.177      0.257        178 1.8957e+02 0.0000e+00
      0.112    17.6619     5.4931     57.677  33.385923     39.126      6.748   226.9801     1.9288     5.1066     0.0232     -0.068      0.112      0.162        179 2.4525e+02 0.0000e+00
      0.048    17.6457     5.5542     58.320  33.374674     39.066      6.747   226.9801     1.9491     5.0529     0.0232     -0.122      0.049      0.071        180 3.1060e+02 0.0000e+00
     -0.011    17.6374     5.5631     58.414  33.370579     39.146      6.747   226.7530     1.7995     4.8112     0.0232     -0.170     -0.008     -0.013        181 3.4720e+02 0.0000e+00
     -0.065    17.6452     5.5366     58.136  32.946202     38.604      6.748   226.2608     1.8197     4.9455     0.0229     -0.208     -0.062     -0.090        182 3.5632e+02 0.0000e+00
     -0.116    17.6601     5.4849     57.592  32.627656     38.252      6.750   226.3744     1.8197     4.8380     0.0228     -0.230     -0.108     -0.158        183 3.5260e+02 0.0000e+00
     -0.153    17.6729     5.4099     56.800  32.610480     38.244      6.751   226.4123     1.8075     4.7843     0.0228     -0.231     -0.142     -0.207        184 3.5119e+02 0.0000e+00
     -0.168    17.6835     5.3201     55.846  32.522760     38.100      6.752   226.8287     1.7267     4.7306     0.0227     -0.212     -0.159     -0.231        185 3.5447e+02 0.0000e+00
     -0.167    17.6923     5.2246     54.831  32.618198     38.219      6.756   227.0937     1.7469     4.8246     0.0228     -0.179     -0.166     -0.241        186 3.4211e+02 0.0000e+00
     -0.174    17.6963     5.1371     53.908  32.669628     38.276      6.755   227.4344     1.7388     4.8380     0.0228     -0.143     -0.179     -0.259        187 3.2280e+02 0.0000e+00
     -0.208    17.6986     5.0658     53.165  32.636676     38.202      6.755   226.9044     1.7267     4.7977     0.0228     -0.116     -0.207     -0.299        188 3.2375e+02 0.0000e+00
     -0.249    17.7023     5.0082     52.567  32.659202     38.264      6.755   226.3744     1.6054     4.8112     0.0228     -0.099     -0.237     -0.344        189 3.3081e+02 0.0000e+00
     -0.267    17.7040     4.9733     52.201  32.641593     38.196      6.755   226.4880     1.6418     4.8246     0.0228     -0.087     -0.256     -0.371        190 3.4331e+02 0.0000e+00
     -0.268    17.7039     4.9550     51.990  32.658588     38.258      6.753   226.5637     1.6215     4.7843     0.0228     -0.075     -0.259     -0.376        191 3.4374e+02 0.0000e+00
     -0.258    17.7040     4.9547     51.969  32.638049     38.192      6.747   227.0558     1.6337     4.8112     0.0228     -0.065     -0.253     -0.366        192 3.3482e+02 0.0000e+00
     -0.248    17.7037     4.9672     52.086  32.667153     38.257      6.742   226.9801     1.6054     4.9052     0.0228     -0.055     -0.244     -0.355        193 3.3615e+02 0.0000e+00
     -0.243    17.6997     4.9808     52.207  32.681678     38.257      6.737   227.4723     1.6094     4.7575     0.0228     -0.042     -0.239     -0.347        194 3.4569e+02 0.0000e+00
     -0.240    17.6900     4.9950     52.329  32.619972     38.192      6.732   227.5101     1.6094     4.7977     0.0228     -0.023     -0.235     -0.341        195 3.4959e+02 0.0000e+00
     -0.236    17.6784     5.0101     52.466  32.625330     38.195      6.729   228.3430     1.6418     4.7709     0.0228     -0.001     -0.230     -0.334        196 3.4432e+02 0.0000e+00
     -0.228    17.6749     5.0252     52.602  32.615707     38.204      6.720   228.0401     1.4719     4.9052     0.0228      0.016     -0.224     -0.326        197 3.4518e+02 0.0000e+00
     -0.224    17.6790     5.0308     52.652  32.631952     38.215      6.717   228.1916     1.4800     4.8515     0.0228      0.022     -0.218     -0.316        198 3.4471e+02 0.0000e+00
     -0.216    17.6855     5.0336     52.681  32.664424     38.283      6.715   228.3809     1.4800     4.7843     0.0228      0.023     -0.210     -0.304        199 3.4963e+02 0.0000e+00
     -0.203    17.6852     5.0318     52.658  32.693913     38.279      6.712   228.6080     1.4719     4.7709     0.0228      0.024     -0.196     -0.283        200 3.5356e+02 0.0000e+00
     -0.178    17.6684     5.0390     52.729  32.654561     38.274      6.703   231.7501     1.4800     4.8112     0.0228      0.030     -0.171     -0.249        201 3.5643e+02 0.0000e+00
     -0.143    17.6511     5.0417     52.747  32.476164     38.011      6.696   228.8351     1.5487     4.8112     0.0227      0.043     -0.141     -0.205        202 3.5540e+02 0.0000e+00
     -0.112    17.6386     5.0468     52.783  32.441463     38.027      6.696   231.6366     1.5124     4.8380     0.0227      0.060     -0.111     -0.161        203 3.3294e+02 0.0000e+00
     -0.085    17.6180     5.0489     52.781  32.460520     38.042      6.705   229.6301     1.5407     4.8112     0.0227      0.075     -0.084     -0.122        204 3.2316e+02 0.0000e+00
     -0.060    17.5944     5.0531     52.780  32.452454     38.053      6.710   229.5923     1.5892     4.8783     0.0227      0.089     -0.062     -0.089        205 3.3218e+02 0.0000e+00
     -0.043    17.5734     5.0557     52.767  32.451507     38.072      6.716   229.6301     1.7348     4.9320     0.0227      0.098     -0.042     -0.061        206 3.3211e+02 0.0000e+00
     -0.025    17.5540     5.0575     52.742  32.343093     37.962      6.715   229.9709     1.7550     5.0395     0.0227      0.101     -0.024     -0.035        207 3.1708e+02 0.0000e+00
     -0.004    17.5454     5.0552     52.687  32.261192     37.882      6.715   230.0466     1.7469     5.0529     0.0226      0.099     -0.005     -0.007        208 3.0377e+02 0.0000e+00
      0.014    17.5449     5.0460     52.568  32.256904     37.900      6.717   230.1601     1.7550     5.1066     0.0226      0.092      0.013      0.019        209 2.9114e+02 0.0000e+00
      0.029    17.5414     5.0369     52.454  32.259478     37.907      6.719   229.9709     1.8884     5.1066     0.0226      0.083      0.033      0.048        210 2.4115e+02 0.0000e+00
      0.058    17.5376     5.0240     52.307  32.317300     37.973      6.719   230.3873     1.8722     5.0260     0.0226      0.079      0.067      0.097        211 2.0700e+02 0.0000e+00
      0.119    17.5278     5.0089     52.143  32.392523     38.075      6.715   231.6366     1.8682     5.1066     0.0227      0.088      0.122      0.177        212 1.7723e+02 0.0000e+00
      0.197    17.5127     4.9958     52.006  32.343789     38.013      6.715   231.5609     1.8722     5.0260     0.0227      0.112      0.190      0.276        213 1.4143e+02 0.0000e+00
      0.264    17.4890     4.9796     51.839  32.259337     37.922      6.713   231.9016     1.9572     5.4154     0.0226      0.143      0.254      0.368        214 1.2964e+02 0.0000e+00
      0.315    17.4505     4.9629     51.666  32.201090     37.871      6.715   232.0909     1.9329     5.2409     0.0226      0.171      0.306      0.443        215 1.1596e+02 0.0000e+00
      0.357    17.4115     4.9494     51.522  32.208709     37.890      6.715   232.0151     1.9410     5.2006     0.0226      0.193      0.348      0.504        216 1.0665e+02 0.0000e+00
      0.392    17.3737     4.9388     51.409  32.190561     37.927      6.714   232.6587     1.9208     5.2409     0.0226      0.206      0.383      0.556        217 9.9234e+01 0.0000e+00
      0.423    17.3437     4.9312     51.328  32.105078     37.828      6.712   233.7944     1.9895     5.0126     0.0225      0.207      0.414      0.602        218 9.2449e+01 0.0000e+00
      0.454    17.3231     4.9191     51.200  32.107534     37.896      6.713   233.8702     2.0138     5.1066     0.0226      0.195      0.444      0.644        219 8.6400e+01 0.0000e+00
      0.481    17.3055     4.9169     51.176  32.098560     37.889      6.713   234.3623     2.0259     5.0395     0.0225      0.171      0.469      0.680        220 8.2649e+01 0.0000e+00
      0.499    17.2936     4.9068     51.070  32.027301     37.842      6.712   234.4380     1.9814     5.0126     0.0225      0.144      0.487      0.708        221 7.8920e+01 0.0000e+00
      0.513    17.2872     4.8931     50.926  31.988653     37.792      6.714   234.9302     1.9814     4.9589     0.0225      0.122      0.501      0.728        222 7.5052e+01 0.0000e+00
      0.524    17.2865     4.8959     50.950  32.028051     37.869      6.713   235.2330     2.0057     4.9186     0.0225      0.103      0.511      0.741        223 7.4332e+01 0.0000e+00
      0.525    17.2884     4.8965     50.953  32.096888     37.940      6.707   235.2330     2.0097     4.7977     0.0225      0.085      0.516      0.748        224 7.4279e+01 0.0000e+00
      0.529    17.2885     4.8983     50.969  32.110561     37.974      6.707   235.0816     2.0421     4.9052     0.0226      0.067      0.523      0.758        225 7.2598e+01 0.0000e+00
      0.544    17.2858     4.8983     50.965  32.040689     37.873      6.708   235.9902     1.9774     4.7843     0.0225      0.054      0.535      0.775        226 7.1317e+01 0.0000e+00
      0.561    17.2836     4.8956     50.932  32.035577     37.873      6.710   236.2930     2.0097     4.8380     0.0225      0.045      0.552      0.800        227 6.9821e+01 0.0000e+00
      0.582    17.2822     4.8813     50.779  32.027963     37.875      6.709   236.5202     2.0097     4.8112     0.0225      0.043      0.570      0.826        228 6.8287e+01 0.0000e+00
      0.600    17.2801     4.8798     50.761  31.990859     37.811      6.706   236.6337     1.9814     4.7038     0.0225      0.046      0.586      0.851        229 6.7970e+01 0.0000e+00
      0.611    17.2785     4.8695     50.653  32.022448     37.879      6.707   236.9744     1.9774     4.7440     0.0225      0.050      0.601      0.873        230 6.6519e+01 0.0000e+00
      0.631    17.2780     4.8538     50.487  32.018305     37.847      6.708   236.7852     1.8601     4.6769     0.0225      0.057      0.621      0.901        231 6.3992e+01 0.0000e+00
      0.658    17.2762     4.8438     50.381  32.025668     37.882      6.703   237.2773     1.8722     4.8917     0.0225      0.066      0.647      0.938        232 6.0813e+01 0.0000e+00
      0.690    17.2725     4.8376     50.314  31.983632     37.816      6.699   237.6180     1.8601     4.9052     0.0225      0.076      0.677      0.980        233 5.7859e+01 0.0000e+00
      0.720    17.2688     4.8277     50.209  31.981659     37.818      6.698   237.6937     1.8642     4.7172     0.0225      0.083      0.706      1.023        234 5.5587e+01 0.0000e+00
      0.748    17.2658     4.8264     50.194  32.028126     37.887      6.694   238.3373     1.9814     5.0126     0.0225      0.091      0.736      1.067        235 5.2580e+01 0.0000e+00
      0.783    17.2620     4.8196     50.121  31.985114     37.825      6.693   238.3373     1.9976     5.0395     0.0225      0.100      0.769      1.115        236 4.9663e+01 0.0000e+00
      0.820    17.2575     4.8096     50.016  32.005533     37.860      6.691   238.9430     2.0097     5.0126     0.0225      0.111      0.801      1.162        237 4.7277e+01 0.0000e+00
      0.848    17.2536     4.8122     50.040  32.032368     37.897      6.689   238.7159     2.0057     5.0395     0.0225      0.119      0.829      1.203        238 4.5356e+01 0.0000e+00
      0.872    17.2518     4.8070     49.986  32.040681     37.901      6.683   239.4730     1.9208     5.0126     0.0225      0.121      0.853      1.238        239 4.4143e+01 0.0000e+00
      0.890    17.2508     4.8109     50.026  32.024844     37.904      6.685   239.2459     1.9167     5.0797     0.0225      0.118      0.874      1.268        240 4.2832e+01 0.0000e+00
      0.912    17.2483     4.8094     50.010  31.992773     37.840      6.686   239.1702     1.9491     5.0797     0.0225      0.112      0.897      1.301        241 4.0715e+01 0.0000e+00
      0.943    17.2459     4.7999     49.910  32.021289     37.907      6.690   239.7380     1.9572     4.9589     0.0225      0.108      0.923      1.340        242 3.9057e+01 0.0000e+00
      0.969    17.2440     4.7811     49.713  31.989358     37.843      6.687   239.8895     1.9369     5.0932     0.0225      0.104      0.951      1.381        243 3.7509e+01 0.0000e+00
      1.001    17.2416     4.7811     49.712  32.002859     37.878      6.690   240.2302     1.9895     4.9320     0.0225      0.101      0.981      1.422        244 3.5885e+01 0.0000e+00
      1.029    17.2397     4.7606     49.498  32.034142     37.913      6.689   239.8895     1.9855     4.9857     0.0225      0.101      1.008      1.461        245 3.4722e+01 0.0000e+00
      1.052    17.2383     4.7463     49.349  31.980081     37.849      6.690   240.3059     2.0097     5.0126     0.0225      0.103      1.032      1.496        246 3.3374e+01 0.0000e+00
      1.077    17.2367     4.7405     49.289  31.981179     37.851      6.686   240.6087     1.9976     5.0126     0.0225      0.105      1.055      1.529        247 3.2372e+01 0.0000e+00
      1.096    17.2351     4.7333     49.215  32.032776     37.918      6.685   240.7980     1.9572     5.0126     0.0225      0.104      1.076      1.561        248 3.1363e+01 0.0000e+00
      1.118    17.2345     4.7297     49.178  32.034482     37.919      6.685   241.0630     1.9531     4.9723     0.0225      0.101      1.101      1.597        249 2.9718e+01 0.0000e+00
      1.155    17.2341     4.7373     49.256  32.008711     37.888      6.679   241.5930     1.9410     5.1200     0.0225      0.100      1.133      1.643        250 2.7987e+01 0.0000e+00
      1.191    17.2330     4.7457     49.342  31.975889     37.855      6.672   241.4037     1.9491     5.0529     0.0225      0.103      1.167      1.692        251 2.6650e+01 0.0000e+00
      1.223    17.2319     4.7683     49.576  31.986369     37.856      6.672   241.6687     1.9288     5.0663     0.0225      0.106      1.199      1.739        252 2.5505e+01 0.0000e+00
      1.253    17.2309     4.7865     49.764  32.025323     37.923      6.666   241.8202     1.9248     4.9857     0.0225      0.111      1.228      1.781        253 2.4447e+01 0.0000e+00
      1.280    17.2299     4.8063     49.969  31.986717     37.858      6.666   242.1609     1.9572     5.1066     0.0225      0.116      1.255      1.820        254 2.3546e+01 0.0000e+00
      1.308    17.2292     4.8099     50.005  31.975106     37.858      6.656   242.6530     1.9733     5.0395     0.0225      0.119      1.281      1.858        255 2.2835e+01 0.0000e+00
      1.331    17.2289     4.8082     49.986  32.010122     37.892      6.651   242.3123     1.8116     5.0395     0.0225      0.119      1.308      1.897        256 2.1879e+01 0.0000e+00
      1.364    17.2291     4.8164     50.072  31.972797     37.860      6.650   243.0695     1.8075     5.0126     0.0225      0.118      1.340      1.943        257 2.0654e+01 0.0000e+00
      1.405    17.2295     4.8097     50.001  31.991904     37.860      6.650   242.9938     1.7914     4.9857     0.0225      0.117      1.376      1.996        258 1.9642e+01 0.0000e+00
      1.440    17.2295     4.8043     49.943  32.015996     37.926      6.651   243.3345     1.8278     5.1334     0.0225      0.119      1.408      2.043        259 1.8864e+01 0.0000e+00
      1.463    17.2289     4.8039     49.937  32.002120     37.860      6.649   243.3723     1.6943     5.2140     0.0225      0.119      1.430      2.075        260 1.8651e+01 0.0000e+00
      1.472    17.2275     4.8043     49.939  32.009172     37.926      6.646   243.3345     1.6660     5.2409     0.0225      0.115      1.444      2.095        261 1.8452e+01 0.0000e+00
      1.485    17.2265     4.8233     50.134  31.977568     37.827      6.651   243.2209     1.6984     5.2543     0.0225      0.108      1.459      2.116        262 1.7799e+01 0.0000e+00
      1.508    17.2258     4.8248     50.147  32.011800     37.928      6.651   243.5616     1.6701     5.2140     0.0225      0.100      1.477      2.142        263 1.7349e+01 0.0000e+00
      1.524    17.2248     4.8484     50.391  32.055531     37.929      6.650   243.5995     1.6903     5.3080     0.0225      0.091      1.494      2.167        264 1.6993e+01 0.0000e+00
      1.538    17.2240     4.8575     50.484  32.071413     37.995      6.651   243.9402     1.5973     5.2140     0.0225      0.079      1.509      2.189        265 1.6589e+01 0.0000e+00
      1.554    17.2232     4.8715     50.629  32.051344     37.930      6.653   243.6752     1.6054     5.2140     0.0225      0.068      1.526      2.213        266 1.6086e+01 0.0000e+00
      1.575    17.2222     4.8919     50.841  32.021199     37.931      6.654   243.7509     1.6134     5.3752     0.0225      0.064      1.545      2.241        267 1.5539e+01 0.0000e+00
      1.598    17.2211     4.9124     51.054  32.019967     37.899      6.654   244.5459     1.6458     5.2812     0.0225      0.067      1.565      2.270        268 1.5236e+01 0.0000e+00
      1.613    17.2199     4.9341     51.280  32.023225     37.932      6.656   244.0916     1.6094     4.9723     0.0225      0.070      1.584      2.298        269 1.4812e+01 0.0000e+00
      1.636    17.2181     4.9578     51.527  31.987492     37.867      6.656   244.4702     1.5973     4.9857     0.0225      0.072      1.607      2.332        270 1.4189e+01 0.0000e+00
      1.669    17.2158     4.9760     51.716  32.034783     37.935      6.654   244.6973     1.6175     5.1066     0.0225      0.077      1.640      2.380        271 1.3282e+01 0.0000e+00
      1.715    17.2131     4.9789     51.745  32.082986     38.002      6.653   245.2273     1.6054     5.0663     0.0225      0.089      1.682      2.440        272 1.2338e+01 0.0000e+00
      1.763    17.2109     4.9814     51.770  32.046119     37.938      6.646   245.5302     1.6862     5.2409     0.0225      0.105      1.727      2.505        273 1.1579e+01 0.0000e+00
      1.805    17.2097     4.9809     51.765  32.051013     37.974      6.645   246.1359     1.7145     5.3080     0.0225      0.121      1.767      2.563        274 1.0925e+01 0.0000e+00
      1.839    17.2086     4.9796     51.751  31.987937     37.876      6.642   245.9088     1.6903     5.1737     0.0225      0.134      1.801      2.612        275 1.0507e+01 0.0000e+00
      1.865    17.2081     4.9750     51.703  31.976351     37.878      6.638   246.5902     1.6660     5.1872     0.0225      0.142      1.829      2.653        276 1.0088e+01 0.0000e+00
      1.892    17.2079     4.9787     51.740  32.035780     37.945      6.637   246.7795     1.4962     5.3886     0.0225      0.146      1.856      2.692        277 9.6906e+00 0.0000e+00
      1.922    17.2080     4.9838     51.793  32.032591     37.945      6.636   246.8173     1.4921     5.3349     0.0225      0.143      1.884      2.733        278 9.3444e+00 0.0000e+00
      1.952    17.2083     4.9895     51.851  32.039626     37.945      6.633   246.5523     1.4800     5.2677     0.0225      0.135      1.914      2.776        279 8.9980e+00 0.0000e+00
      1.982    17.2086     4.9970     51.929  32.056680     37.978      6.634   246.7795     1.4760     5.1334     0.0225      0.126      1.942      2.816        280 8.6656e+00 0.0000e+00
      2.006    17.2087     4.9967     51.925  32.041021     37.945      6.637   246.8173     1.5326     5.0932     0.0225      0.117      1.965      2.850        281 8.4171e+00 0.0000e+00
      2.024    17.2080     4.9880     51.834  32.029459     37.945      6.639   247.1202     1.5447     5.0395     0.0225      0.109      1.984      2.877        282 8.2740e+00 0.0000e+00
      2.037    17.2073     4.9757     51.706  32.041415     37.945      6.637   246.9688     1.5407     5.0260     0.0225      0.102      1.999      2.899        283 8.0908e+00 0.0000e+00
      2.053    17.2070     4.9638     51.582  32.085449     38.012      6.641   247.2338     1.5326     4.9589     0.0225      0.095      2.017      2.925        284 7.8321e+00 0.0000e+00
      2.078    17.2065     4.9452     51.389  32.093274     38.012      6.644   247.2338     1.5447     5.0126     0.0225      0.089      2.039      2.958        285 7.5208e+00 0.0000e+00
      2.107    17.2059     4.9409     51.343  32.061333     37.979      6.645   247.3473     1.5366     5.0797     0.0225      0.085      2.064      2.993        286 7.2622e+00 0.0000e+00
      2.127    17.2052     4.9360     51.292  32.036240     37.947      6.644   247.5745     1.5649     5.0260     0.0225      0.082      2.087      3.027        287 7.0440e+00 0.0000e+00
      2.153    17.2044     4.9324     51.254  32.035541     37.947      6.642   247.6123     1.5487     5.0529     0.0225      0.082      2.111      3.062        288 6.7941e+00 0.0000e+00
      2.179    17.2041     4.9321     51.251  32.032551     37.948      6.641   247.6880     1.5649     4.9589     0.0225      0.086      2.137      3.099        289 6.5487e+00 0.0000e+00
      2.205    17.2037     4.9378     51.310  32.039962     37.948      6.639   247.9909     1.5487     5.0395     0.0225      0.091      2.162      3.135        290 6.2611e+00 0.0000e+00
      2.229    17.2032     4.9405     51.338  32.085624     38.015      6.637   248.2559     1.5407     5.0797     0.0225      0.096      2.183      3.166        291 6.0517e+00 0.0000e+00
      2.243    17.2029     4.9449     51.384  32.064686     37.982      6.637   248.3316     1.5407     5.0932     0.0225      0.095      2.200      3.190        292 5.9901e+00 0.0000e+00
      2.257    17.2026     4.9536     51.474  32.036367     37.950      6.638   248.2559     1.5528     5.0395     0.0225      0.090      2.216      3.213        293 5.8275e+00 0.0000e+00
      2.278    17.2022     4.9543     51.480  32.091214     38.016      6.642   248.0288     1.4800     4.8246     0.0225      0.085      2.234      3.241        294 5.6104e+00 0.0000e+00
      2.300    17.2020     4.9543     51.478  32.085389     38.016      6.641   248.3316     1.4719     4.8112     0.0225      0.082      2.256      3.272        295 5.4186e+00 0.0000e+00
      2.324    17.2017     4.9609     51.546  32.043616     37.951      6.639   248.5966     1.4760     4.8246     0.0225      0.080      2.279      3.305        296 5.2477e+00 0.0000e+00
      2.347    17.2013     4.9565     51.499  32.083894     38.017      6.636   248.6345     1.4719     4.8380     0.0225      0.079      2.302      3.339        297 5.1212e+00 0.0000e+00
      2.370    17.2010     4.9511     51.440  32.124224     38.050      6.639   248.6723     1.4113     5.1066     0.0226      0.080      2.324      3.371        298 4.9325e+00 0.0000e+00
      2.392    17.2005     4.9470     51.395  32.141693     38.084      6.633   248.7481     1.4194     5.0395     0.0226      0.083      2.344      3.400        299 4.7989e+00 0.0000e+00
      2.407    17.2003     4.9426     51.346  32.091808     38.018      6.633   249.0131     1.4194     5.1066     0.0225      0.085      2.362      3.426        300 4.7297e+00 0.0000e+00
      2.426    17.2004     4.9344     51.257  32.038039     37.952      6.633   249.0888     1.4315     5.0797     0.0225      0.085      2.380      3.453        301 4.5906e+00 0.0000e+00
      2.450    17.2006     4.9283     51.190  32.089994     38.018      6.631   249.4673     1.5487     4.8380     0.0225      0.083      2.401      3.483        302 4.4370e+00 0.0000e+00
      2.470    17.2002     4.9195     51.094  32.086457     38.018      6.630   249.3916     1.5245     4.8112     0.0225      0.082      2.422      3.513        303 4.3160e+00 0.0000e+00
      2.489    17.1992     4.9110     51.000  32.042441     37.952      6.631   249.2402     1.5366     4.8649     0.0225      0.080      2.441      3.540        304 4.2266e+00 0.0000e+00
      2.508    17.1978     4.8988     50.869  32.055813     37.985      6.632   249.3916     1.5568     4.8649     0.0225      0.078      2.460      3.568        305 4.1201e+00 0.0000e+00
      2.529    17.1963     4.8904     50.775  32.099470     38.019      6.633   249.4295     1.5851     4.7306     0.0225      0.078      2.480      3.597        306 4.0039e+00 0.0000e+00
      2.549    17.1948     4.8755     50.615  32.136377     38.087      6.635   249.7702     1.6620     4.9857     0.0226      0.078      2.501      3.627        307 3.8621e+00 0.0000e+00
      2.571    17.1929     4.8672     50.526  32.158150     38.088      6.636   249.9595     1.6822     5.0797     0.0226      0.080      2.521      3.656        308 3.7448e+00 0.0000e+00
      2.591    17.1905     4.8638     50.488  32.190989     38.156      6.634   249.8081     1.6943     5.0797     0.0226      0.080      2.540      3.684        309 3.6702e+00 0.0000e+00
      2.609    17.1873     4.8674     50.522  32.214125     38.158      6.637   249.9595     1.6903     4.9857     0.0226      0.079      2.560      3.713        310 3.5424e+00 0.0000e+00
      2.633    17.1840     4.8847     50.700  32.277626     38.259      6.633   250.1866     1.6862     4.9186     0.0226      0.080      2.584      3.748        311 3.4060e+00 0.0000e+00
      2.663    17.1812     4.9121     50.981  32.319539     38.295      6.629   250.3381     1.6984     4.8112     0.0227      0.083      2.612      3.789        312 3.2859e+00 0.0000e+00
      2.695    17.1763     4.9418     51.286  32.310235     38.298      6.624   250.9438     1.6781     4.8783     0.0227      0.089      2.644      3.835        313 3.1460e+00 0.0000e+00
      2.730    17.1708     4.9761     51.637  32.259552     38.234      6.617   251.3981     1.6781     4.9186     0.0226      0.096      2.676      3.881        314 2.9940e+00 0.0000e+00
      2.760    17.1658     5.0071     51.954  32.204694     38.173      6.610   251.5116     1.5487     4.9857     0.0226      0.103      2.704      3.922        315 2.9078e+00 0.0000e+00
      2.782    17.1605     5.0464     52.357  32.200588     38.178      6.605   251.7766     1.5487     4.9992     0.0226      0.108      2.728      3.957        316 2.8263e+00 0.0000e+00
      2.805    17.1557     5.0895     52.801  32.235011     38.215      6.604   251.4359     1.5326     5.0260     0.0226      0.111      2.751      3.990        317 2.7217e+00 0.0000e+00
      2.829    17.1524     5.1496     53.422  32.191510     38.187      6.600   252.0038     1.5487     5.0529     0.0226      0.111      2.775      4.024        318 2.6563e+00 0.0000e+00
      2.852    17.1498     5.2021     53.967  32.165766     38.125      6.598   251.9281     1.5568     5.0529     0.0226      0.108      2.796      4.055        319 2.5376e+00 0.0000e+00
      2.873    17.1472     5.2664     54.637  32.178091     38.194      6.598   252.0416     1.5528     4.9455     0.0226      0.102      2.816      4.084        320 2.4552e+00 0.0000e+00
      2.889    17.1452     5.3437     55.439  32.176172     38.130      6.598   252.0038     1.5487     5.1334     0.0226      0.094      2.835      4.112        321 2.4266e+00 0.0000e+00
      2.913    17.1425     5.4080     56.106  32.168154     38.199      6.597   252.3823     1.5366     5.0395     0.0226      0.088      2.859      4.145        322 2.3330e+00 0.0000e+00
      2.942    17.1386     5.4751     56.801  31.950846     37.869      6.598   252.7609     1.6984     5.0126     0.0225      0.087      2.886      4.185        323 2.2474e+00 0.0000e+00
      2.973    17.1343     5.5284     57.352  31.705282     37.640      6.599   252.5716     1.6822     4.9992     0.0224      0.090      2.914      4.226        324 2.1696e+00 0.0000e+00
      2.999    17.1298     5.5635     57.713  31.524860     37.378      6.600   253.0638     1.6701     5.0395     0.0223      0.093      2.940      4.264        325 2.0973e+00 0.0000e+00
      3.023    17.1255     5.5815     57.899  31.434062     37.315      6.602   252.7231     1.6701     5.0126     0.0222      0.096      2.964      4.299        326 2.0173e+00 0.0000e+00
      3.048    17.1228     5.5928     58.014  31.314189     37.154      6.602   253.4045     1.6984     4.9052     0.0222      0.099      2.987      4.332        327 1.9451e+00 0.0000e+00
      3.067    17.1212     5.5915     57.997  31.258909     37.091      6.604   253.2152     1.6620     5.0529     0.0221      0.100      3.005      4.359        328 1.9258e+00 0.0000e+00
      3.079    17.1207     5.5824     57.892  31.295292     37.160      6.607   253.3666     1.6781     5.0529     0.0222      0.097      3.018      4.377        329 1.9103e+00 0.0000e+00
      3.085    17.1228     5.5780     57.836  31.268912     37.095      6.606   253.1016     1.6701     4.9857     0.0221      0.087      3.025      4.387        330 1.8756e+00 0.0000e+00
      3.090    17.1241     5.5674     57.717  31.351043     37.228      6.608   252.8366     1.6862     5.1066     0.0222      0.074      3.033      4.399        331 1.8600e+00 0.0000e+00
      3.104    17.1232     5.5660     57.693  31.370996     37.226      6.608   253.6695     1.5407     4.8649     0.0222      0.062      3.048      4.422        332 1.8286e+00 0.0000e+00
      3.132    17.1223     5.5663     57.688  31.303386     37.158      6.614   253.5559     1.5407     4.8112     0.0222      0.057      3.073      4.457        333 1.7221e+00 0.0000e+00
      3.164    17.1207     5.5631     57.645  31.316571     37.159      6.614   253.5938     1.5407     4.8112     0.0222      0.059      3.100      4.497        334 1.6769e+00 0.0000e+00
      3.189    17.1188     5.5567     57.571  31.295283     37.160      6.612   253.8966     1.5407     4.7977     0.0222      0.064      3.125      4.532        335 1.6545e+00 0.0000e+00
      3.207    17.1175     5.5488     57.483  31.211273     37.029      6.610   253.7452     1.6701     5.0395     0.0221      0.071      3.145      4.561        336 1.5859e+00 0.0000e+00
      3.225    17.1162     5.5320     57.304  31.243208     37.097      6.614   254.0859     1.7064     5.0395     0.0221      0.079      3.163      4.588        337 1.5427e+00 0.0000e+00
      3.245    17.1125     5.5022     56.991  31.255540     37.098      6.614   253.8588     1.6781     4.9857     0.0221      0.086      3.183      4.617        338 1.5093e+00 0.0000e+00
      3.268    17.1045     5.4707     56.662  31.195926     37.033      6.615   254.0102     1.6741     5.1334     0.0221      0.089      3.204      4.648        339 1.4801e+00 0.0000e+00
      3.290    17.0956     5.4449     56.392  31.198789     37.036      6.615   254.0859     1.6054     4.8112     0.0221      0.088      3.226      4.680        340 1.4282e+00 0.0000e+00
      3.313    17.0878     5.4223     56.154  31.192675     37.043      6.612   254.1995     1.5973     4.7977     0.0221      0.085      3.248      4.712        341 1.3597e+00 0.0000e+00
      3.334    17.0806     5.4065     55.984  31.262842     37.117      6.615   254.1995     1.6377     4.7843     0.0221      0.083      3.270      4.743        342 1.3503e+00 0.0000e+00
      3.357    17.0730     5.4019     55.930  31.437645     37.357      6.614   254.6916     1.5851     4.7709     0.0222      0.083      3.292      4.774        343 1.3190e+00 0.0000e+00
      3.380    17.0654     5.4054     55.961  31.627491     37.562      6.615   254.6538     1.6094     4.8515     0.0223      0.086      3.313      4.805        344 1.2296e+00 0.0000e+00
      3.398    17.0589     5.4059     55.963  31.708594     37.702      6.614   254.9188     1.6296     4.8112     0.0224      0.086      3.333      4.835        345 1.2088e+00 0.0000e+00
      3.420    17.0535     5.3903     55.800  31.573938     37.509      6.616   254.8052     1.5851     4.8246     0.0223      0.086      3.355      4.867        346 1.1703e+00 0.0000e+00
      3.447    17.0497     5.3611     55.495  31.557851     37.515      6.613   254.6538     1.6094     4.7843     0.0223      0.087      3.380      4.902        347 1.1183e+00 0.0000e+00
      3.471    17.0465     5.3209     55.074  31.521050     37.487      6.617   255.0702     1.6175     4.7575     0.0223      0.088      3.403      4.936        348 1.1228e+00 0.0000e+00
      3.493    17.0435     5.2837     54.684  31.323215     37.224      6.616   254.6916     1.6337     4.8783     0.0222      0.088      3.425      4.968        349 1.0938e+00 0.0000e+00
      3.516    17.0413     5.2597     54.433  31.240659     37.161      6.618   255.2595     1.6377     4.9320     0.0221      0.089      3.449      5.003        350 1.0008e+00 0.0000e+00
      3.544    17.0380     5.2382     54.211  31.327266     37.230      6.615   255.4109     1.6175     4.8112     0.0222      0.091      3.477      5.044        351 9.5241e-01 0.0000e+00
      3.579    17.0326     5.2359     54.190  31.482306     37.464      6.614   255.9409     1.6175     4.7575     0.0223      0.096      3.508      5.089        352 9.4651e-01 0.0000e+00
      3.610    17.0267     5.2535     54.372  31.462849     37.401      6.610   256.3952     1.6903     4.8649     0.0222      0.102      3.538      5.131        353 8.8128e-01 0.0000e+00
      3.632    17.0226     5.2890     54.742  31.410786     37.372      6.610   256.5466     1.6862     4.8380     0.0222      0.105      3.560      5.163        354 8.5361e-01 0.0000e+00
      3.648    17.0200     5.3251     55.117  31.309880     37.245      6.609   256.4331     1.6701     4.8246     0.0222      0.104      3.579      5.190        355 8.5083e-01 0.0000e+00
      3.669    17.0182     5.3619     55.502  31.262253     37.182      6.611   256.2438     1.6701     4.8112     0.0221      0.102      3.599      5.220        356 8.1860e-01 0.0000e+00
      3.692    17.0159     5.3837     55.728  31.292146     37.251      6.606   256.6981     1.5973     4.8783     0.0222      0.099      3.621      5.252        357 7.9234e-01 0.0000e+00
      3.715    17.0123     5.4007     55.897  31.213375     37.119      6.604   257.1145     1.6094     4.8380     0.0221      0.095      3.644      5.284        358 7.5385e-01 0.0000e+00
      3.738    17.0075     5.4093     55.973  31.182370     37.121      6.601   257.2659     1.6256     4.7306     0.0221      0.090      3.664      5.314        359 7.4754e-01 0.0000e+00
      3.753    17.0049     5.4111     55.978  31.123169     37.025      6.599   257.1145     1.6256     4.8112     0.0221      0.084      3.679      5.337        360 7.4134e-01 0.0000e+00
      3.766    17.0060     5.4112     55.969  31.138793     37.062      6.599   257.3038     1.5366     4.9857     0.0221      0.079      3.691      5.354        361 7.1493e-01 0.0000e+00
      3.774    17.0078     5.4162     56.014  31.192580     37.131      6.602   257.1524     1.5568     5.0663     0.0221      0.074      3.700      5.366        362 7.0926e-01 0.0000e+00
      3.779    17.0086     5.4281     56.132  31.145188     37.064      6.602   257.1902     1.5568     4.9723     0.0221      0.067      3.707      5.377        363 7.3281e-01 0.0000e+00
      3.789    17.0097     5.4587     56.446  31.138466     37.062      6.605   257.0388     1.5447     4.9186     0.0221      0.058      3.717      5.391        364 7.2353e-01 0.0000e+00
      3.803    17.0119     5.4988     56.853  31.200946     37.128      6.606   257.0009     1.5285     4.8380     0.0221      0.050      3.729      5.409        365 7.0417e-01 0.0000e+00
      3.816    17.0147     5.5399     57.274  31.245346     37.193      6.607   257.2281     1.5568     4.8783     0.0221      0.045      3.742      5.427        366 7.1050e-01 0.0000e+00
      3.828    17.0151     5.5794     57.677  31.261122     37.191      6.610   257.4931     1.5568     4.8112     0.0221      0.042      3.756      5.447        367 6.7503e-01 0.0000e+00
      3.845    17.0094     5.6117     57.998  31.240617     37.189      6.612   257.3038     1.5528     4.9186     0.0221      0.043      3.774      5.473        368 6.5566e-01 0.0000e+00
      3.873    16.9985     5.6382     58.262  31.152257     37.055      6.613   257.3416     1.5285     4.7843     0.0221      0.050      3.800      5.511        369 6.4347e-01 0.0000e+00
      3.906    16.9867     5.6447     58.322  31.074563     36.994      6.610   257.8717     1.4840     5.0395     0.0221      0.062      3.830      5.554        370 6.1014e-01 0.0000e+00
      3.935    16.9782     5.6454     58.325  30.981483     36.870      6.609   258.0988     1.4921     5.0126     0.0220      0.075      3.858      5.596        371 5.9917e-01 0.0000e+00
      3.961    16.9727     5.6252     58.112  31.001232     36.914      6.606   258.0988     1.5002     5.0395     0.0220      0.086      3.884      5.634        372 5.7768e-01 0.0000e+00
      3.985    16.9687     5.6291     58.143  31.020339     36.955      6.606   258.4774     1.4881     5.0126     0.0220      0.094      3.908      5.669        373 5.4223e-01 0.0000e+00
      4.010    16.9650     5.6153     57.990  30.987361     36.893      6.605   258.4774     1.5851     4.9589     0.0220      0.101      3.933      5.704        374 5.5221e-01 0.0000e+00
      4.036    16.9596     5.5990     57.813  31.012625     36.963      6.604   258.8181     1.5973     5.0126     0.0220      0.105      3.957      5.739        375 5.2401e-01 0.0000e+00
      4.058    16.9559     5.5883     57.697  30.988901     36.900      6.600   258.8181     1.6013     5.0395     0.0220      0.104      3.979      5.771        376 5.0103e-01 0.0000e+00
      4.079    16.9508     5.5826     57.632  30.957585     36.905      6.602   258.7045     1.6418     5.0529     0.0220      0.100      4.000      5.802        377 5.1765e-01 0.0000e+00
      4.101    16.9415     5.5577     57.369  30.992296     36.908      6.600   258.9317     1.6175     5.0529     0.0220      0.095      4.023      5.835        378 4.7587e-01 0.0000e+00
      4.126    16.9334     5.5373     57.155  31.034660     37.012      6.599   259.0452     1.5851     4.9992     0.0220      0.093      4.047      5.870        379 4.6967e-01 0.0000e+00
      4.153    16.9270     5.5109     56.879  30.993822     36.921      6.601   259.1209     1.6175     4.9320     0.0220      0.093      4.072      5.905        380 4.6891e-01 0.0000e+00
      4.176    16.9230     5.4881     56.637  31.013469     36.994      6.598   259.0452     1.6175     5.1603     0.0220      0.093      4.094      5.937        381 4.3212e-01 0.0000e+00
      4.195    16.9196     5.4798     56.548  31.039864     37.000      6.601   259.2724     1.5609     5.0797     0.0220      0.091      4.115      5.968        382 4.3960e-01 0.0000e+00
      4.219    16.9124     5.4710     56.455  31.020281     37.004      6.600   259.2345     1.5245     4.9992     0.0220      0.091      4.140      6.005        383 4.2832e-01 0.0000e+00
      4.253    16.9036     5.4786     56.530  31.097146     37.073      6.597   260.2188     1.5649     4.9857     0.0221      0.094      4.171      6.050        384 4.2255e-01 0.0000e+00
      4.288    16.8967     5.4969     56.713  31.181425     37.213      6.595   260.2945     1.5124     4.9857     0.0221      0.099      4.206      6.099        385 3.8759e-01 0.0000e+00
      4.324    16.8915     5.5316     57.066  31.093312     37.087      6.586   260.7488     1.5568     5.2812     0.0221      0.106      4.238      6.146        386 3.4050e-01 0.0000e+00
      4.349    16.8866     5.5697     57.454  31.028892     37.027      6.588   260.6731     1.5487     5.3080     0.0220      0.110      4.264      6.184        387 3.6095e-01 0.0000e+00
      4.370    16.8821     5.6119     57.887  31.024383     37.031      6.588   260.7867     1.5487     5.2140     0.0220      0.112      4.287      6.218        388 3.5105e-01 0.0000e+00
      4.396    16.8790     5.6493     58.270  30.980319     36.969      6.584   260.9381     1.5690     5.3080     0.0220      0.114      4.311      6.253        389 3.4898e-01 0.0000e+00
      4.421    16.8756     5.6805     58.590  31.024428     37.040      6.586   260.8245     1.5407     5.2274     0.0220      0.113      4.337      6.290        390 3.3929e-01 0.0000e+00
      4.451    16.8710     5.7019     58.809  31.058448     37.076      6.580   261.0895     1.5487     5.0260     0.0220      0.111      4.365      6.330        391 3.1721e-01 0.0000e+00
      4.479    16.8674     5.7135     58.927  31.026939     37.045      6.584   261.2031     1.5487     5.0126     0.0220      0.107      4.391      6.369        392 3.1249e-01 0.0000e+00
      4.503    16.8655     5.7154     58.945  31.033990     37.050      6.582   261.2788     1.5447     4.9455     0.0220      0.103      4.417      6.406        393 3.2363e-01 0.0000e+00
      4.531    16.8627     5.7083     58.870  31.020023     37.053      6.584   261.3167     1.5326     5.1066     0.0220      0.102      4.444      6.446        394 3.1089e-01 0.0000e+00
      4.562    16.8580     5.7024     58.808  30.985019     36.988      6.582   261.8845     1.6539     5.1737     0.0220      0.105      4.474      6.489        395 2.9502e-01 0.0000e+00
      4.593    16.8533     5.6936     58.716  30.958947     36.990      6.581   262.0738     1.6296     5.2140     0.0220      0.109      4.504      6.533        396 2.7431e-01 0.0000e+00
      4.623    16.8500     5.6936     58.712  30.963516     36.961      6.579   262.3388     1.5851     5.1872     0.0220      0.111      4.534      6.576        397 2.3516e-01 0.0000e+00
      4.655    16.8475     5.6928     58.700  30.949684     36.998      6.580   262.2631     1.6418     5.1872     0.0220      0.114      4.563      6.619        398 2.5541e-01 0.0000e+00
      4.682    16.8456     5.7019     58.786  30.916858     36.901      6.579   262.2252     1.6256     5.0126     0.0220      0.115      4.590      6.658        399 2.3318e-01 0.0000e+00
      4.705    16.8439     5.7182     58.946  30.945065     37.003      6.581   262.1495     1.6054     5.0395     0.0220      0.114      4.614      6.693        400 2.1885e-01 0.0000e+00
      4.729    16.8425     5.7351     59.114  30.914583     36.905      6.582   262.3388     1.5851     5.0126     0.0220      0.113      4.639      6.728        401 2.2365e-01 0.0000e+00
      4.756    16.8411     5.7549     59.313  30.954794     37.007      6.581   262.3009     1.5892     5.0932     0.0220      0.110      4.664      6.763        402 2.2618e-01 0.0000e+00
      4.781    16.8396     5.7690     59.454  30.954327     36.975      6.580   262.6038     1.5932     5.0126     0.0220      0.106      4.685      6.795        403 2.3081e-01 0.0000e+00
      4.794    16.8385     5.7863     59.630  30.885513     36.909      6.581   262.3009     1.6256     5.0260     0.0220      0.100      4.702      6.820        404 2.1853e-01 0.0000e+00
      4.808    16.8378     5.8007     59.773  30.892175     36.910      6.584   262.1874     1.5932     4.9857     0.0220      0.092      4.720      6.845        405 2.0598e-01 0.0000e+00
      4.836    16.8362     5.8207     59.972  30.886735     36.911      6.585   262.6417     1.6256     4.9723     0.0220      0.087      4.745      6.881        406 2.1337e-01 0.0000e+00
      4.870    16.8329     5.8386     60.144  30.892284     36.912      6.580   263.0960     1.5487     5.1066     0.0220      0.088      4.775      6.924        407 2.1819e-01 0.0000e+00
      4.897    16.8293     5.8500     60.250  30.885269     36.913      6.578   263.1338     1.5326     5.0529     0.0220      0.090      4.802      6.964        408 2.0443e-01 0.0000e+00
      4.920    16.8242     5.8575     60.319  30.895466     36.916      6.580   263.2095     1.5487     5.1066     0.0220      0.092      4.827      6.999        409 2.1293e-01 0.0000e+00
      4.947    16.8180     5.8670     60.412  30.938899     36.986      6.578   263.2852     1.5568     5.0126     0.0220      0.095      4.854      7.039        410 1.9278e-01 0.0000e+00
      4.982    16.8125     5.8797     60.540  30.890522     36.924      6.578   263.9288     1.5407     5.0663     0.0220      0.101      4.886      7.087        411 1.8670e-01 0.0000e+00
      5.019    16.8081     5.8961     60.707  30.777764     36.796      6.574   264.5724     1.6903     5.1334     0.0219      0.110      4.921      7.138        412 1.7530e-01 0.0000e+00
      5.055    16.8053     5.9153     60.903  30.723410     36.734      6.569   264.4210     1.6781     4.9857     0.0219      0.118      4.955      7.187        413 1.7469e-01 0.0000e+00
      5.084    16.8028     5.9214     60.963  30.720955     36.738      6.569   264.1560     1.6701     4.9589     0.0219      0.121      4.986      7.232        414 1.7333e-01 0.0000e+00
      5.115    16.7987     5.9330     61.074  30.721518     36.740      6.568   264.5345     1.6943     5.0126     0.0219      0.123      5.018      7.277        415 1.2307e-01 0.0000e+00
      5.152    16.7923     5.9445     61.184  30.663409     36.676      6.569   265.0645     1.6741     4.8246     0.0218      0.127      5.051      7.325        416 1.3260e-01 0.0000e+00
      5.185    16.7836     5.9583     61.321  30.615365     36.612      6.568   264.6481     1.6862     4.7977     0.0218      0.131      5.081      7.370        417 1.6301e-01 0.0000e+00
      5.206    16.7743     5.9686     61.423  30.603401     36.618      6.569   264.7995     1.6822     4.7843     0.0218      0.129      5.105      7.405        418 1.3385e-01 0.0000e+00
      5.227    16.7679     5.9819     61.557  30.618996     36.626      6.571   264.4210     1.6822     4.8380     0.0218      0.122      5.127      7.436        419 1.2782e-01 0.0000e+00
      5.252    16.7640     5.9862     61.597  30.655264     36.701      6.575   264.3452     1.5690     5.0797     0.0218      0.115      5.149      7.468        420 1.2913e-01 0.0000e+00
      5.272    16.7615     5.9901     61.630  30.617574     36.639      6.576   264.0802     1.5609     4.9857     0.0218      0.108      5.169      7.497        421 1.2408e-01 0.0000e+00
      5.289    16.7599     5.9908     61.626  30.547298     36.576      6.580   264.3074     1.5649     5.0126     0.0218      0.100      5.185      7.521        422 1.2629e-01 0.0000e+00
      5.302    16.7592     5.9880     61.585  30.564815     36.578      6.583   264.0045     1.5487     5.0126     0.0218      0.090      5.201      7.544        423 1.3751e-01 0.0000e+00
      5.322    16.7564     5.9856     61.549  30.595776     36.646      6.585   264.0045     1.6377     4.7843     0.0218      0.081      5.222      7.575        424 1.5413e-01 0.0000e+00
      5.352    16.7499     5.9698     61.377  30.508769     36.513      6.582   264.9510     1.6377     4.8649     0.0218      0.079      5.251      7.616        425 1.2754e-01 0.0000e+00
      5.390    16.7437     5.9611     61.271  30.495188     36.515      6.578   265.8595     1.6984     4.8783     0.0218      0.084      5.285      7.664        426 1.2641e-01 0.0000e+00
      5.424    16.7393     5.9400     61.034  30.494075     36.521      6.573   265.7081     1.6620     4.8112     0.0218      0.091      5.315      7.708        427 1.4163e-01 0.0000e+00
      5.445    16.7362     5.9249     60.857  30.421204     36.426      6.572   265.8217     1.6701     4.8380     0.0217      0.097      5.337      7.741        428 1.2767e-01 0.0000e+00
      5.459    16.7342     5.9076     60.661  30.496925     36.531      6.574   265.1402     1.6781     4.7843     0.0218      0.100      5.354      7.766        429 1.2443e-01 0.0000e+00
      5.476    16.7312     5.8825     60.387  30.488798     36.533      6.576   265.2160     1.6822     4.7977     0.0218      0.100      5.373      7.793        430 1.2629e-01 0.0000e+00
      5.504    16.7252     5.8574     60.117  30.431320     36.435      6.578   265.4052     1.6943     4.8380     0.0217      0.100      5.400      7.833        431 1.2521e-01 0.0000e+00
      5.542    16.7162     5.8150     59.669  30.538806     36.605      6.575   266.1245     1.6822     4.7709     0.0218      0.101      5.434      7.880        432 1.2593e-01 0.0000e+00
      5.576    16.7066     5.7663     59.152  30.562592     36.610      6.573   265.8595     1.6741     4.6366     0.0218      0.101      5.465      7.925        433 1.2540e-01 0.0000e+00
      5.597    16.6985     5.6981     58.430  30.609278     36.685      6.572   266.0488     1.6781     4.5829     0.0218      0.100      5.490      7.962        434 1.2577e-01 0.0000e+00
      5.621    16.6904     5.6107     57.498  30.658617     36.760      6.574   265.8595     1.6862     4.6232     0.0218      0.101      5.515      7.998        435 1.2556e-01 0.0000e+00
      5.652    16.6782     5.4796     56.097  30.679103     36.767      6.573   265.8217     1.6822     4.6366     0.0218      0.106      5.541      8.037        436 1.2575e-01 0.0000e+00
      5.678    16.6621     5.2162     53.336  30.761697     36.908      6.573   265.6702     1.7307     4.7843     0.0219      0.111      5.566      8.072        437 1.2573e-01 0.0000e+00
      5.696    16.6457     4.6960     47.957  30.911652     37.053      6.577   265.7838     1.7590     4.8380     0.0220      0.109      5.587      8.102        438 1.2573e-01 0.0000e+00
      5.716    16.6306     3.9972     40.777  31.055871     37.302      6.577   265.7838     1.7469     4.8917     0.0221      0.103      5.609      8.135        439 1.2571e-01 0.0000e+00
      5.746    16.6178     3.1536     32.139  31.234564     37.451      6.577   265.7081     1.7792     4.8112     0.0221      0.098      5.636      8.175        440 1.2560e-01 0.0000e+00
      5.780    16.6080     2.1916     22.310  31.252666     37.599      6.571   265.9352     1.7995     4.8380     0.0222      0.098      5.666      8.220        441 1.2561e-01 0.0000e+00
      5.810    16.5974     1.3117     13.343  31.448480     37.678      6.568   265.6324     1.8116     4.8380     0.0222      0.102      5.696      8.261        442 1.2563e-01 0.0000e+00
      5.835    16.5833     0.5515      5.607  31.732195     38.258      6.570   265.6702     1.8278     4.8783     0.0224      0.103      5.722      8.299        443 1.2562e-01 0.0000e+00
      5.861    16.5642    -0.1004     -1.020  33.983590     40.551      6.569   265.7838     1.8075     4.8380     0.0234      0.104      5.749      8.338        444 1.2565e-01 0.0000e+00
      5.891    16.5311    -0.5117     -5.190  36.475816     44.295      6.564   265.9731     1.6579     4.7575     0.0250      0.108      5.777      8.379        445 1.2560e-01 0.0000e+00
      5.920    16.4811    -0.7035     -7.125  44.499308     52.554      6.561   265.8595     1.6781     4.7709     0.0286      0.112      5.804      8.418        446 1.2576e-01 0.0000e+00
      5.944    16.4232    -0.7902     -7.995  61.952644     75.428      6.559   265.8217     1.6579     4.7709     0.0386      0.112      5.828      8.452        447 1.2571e-01 0.0000e+00
      5.962    16.3642    -0.7334     -7.416  72.880472     87.565      6.554   265.9731     1.6862     4.8246     0.0440      0.107      5.848      8.482        448 1.2561e-01 0.0000e+00
      5.986    16.3137    -0.6259     -6.326  76.306802     92.317      6.544   266.5788     1.6822     4.6098     0.0461      0.102      5.871      8.516        449 1.2578e-01 0.0000e+00
      6.014    16.2654    -0.5151     -5.199  78.575604     94.887      6.529   265.8595     1.7105     4.5963     0.0473      0.100      5.898      8.554        450 1.2579e-01 0.0000e+00
      6.043    16.2129    -0.4192     -4.225  79.626434     96.394      6.498   265.4052     1.7064     4.6769     0.0479      0.100      5.925      8.593        451 1.2565e-01 0.0000e+00
      6.067    16.1789    -0.3062     -3.081  80.467926     97.521      6.457   266.6167     1.6660     4.6098     0.0484      0.099      5.950      8.629        452 1.2558e-01 0.0000e+00
      6.092    16.1535    -0.2209     -2.219  80.322423     97.412      6.404   265.7838     1.5811     4.8112     0.0484      0.098      5.975      8.666        453 1.2562e-01 0.0000e+00
      6.122    16.1041    -0.1493     -1.496  80.669559     97.932      6.346   267.3360     1.6094     4.8112     0.0486      0.099      6.001      8.704        454 1.2563e-01 0.0000e+00
      6.145    16.0370    -0.0706     -0.707  81.492490     99.013      6.299   267.9417     1.6256     4.7843     0.0491      0.101      6.024      8.738        455 1.2563e-01 0.0000e+00
      6.163    15.9743    -0.0181     -0.181  81.854720     99.574      6.266   265.0645     1.6094     4.7977     0.0493      0.101      6.043      8.764        456 1.2565e-01 0.0000e+00
      6.177    15.9249     0.0319      0.319  81.942924     99.808      6.243   263.6638     1.6094     4.8112     0.0494      0.096      6.058      8.786        457 1.2565e-01 0.0000e+00
      6.191    15.8990     0.0726      0.725  81.947595    100.027      6.229   243.3345     1.5447     5.1872     0.0495      0.089      6.075      8.811        458 1.2571e-01 0.0000e+00
      6.218    15.8693     0.1122      1.118  81.759798     99.842      6.222   229.1759     1.5447     5.1872     0.0494      0.084      6.100      8.847        459 1.2565e-01 0.0000e+00
      6.251    15.8119     0.1330      1.325  82.176691    100.452      6.213   206.0451     1.5124     5.2409     0.0496      0.084      6.130      8.891        460 1.2558e-01 0.0000e+00
      6.283    15.7418     0.1645      1.637  82.617898    101.105      6.209   177.4250     1.5407     5.2274     0.0499      0.087      6.162      8.937        461 1.2564e-01 0.0000e+00
      6.317    15.6613     0.1771      1.761  83.261958    101.904      6.206   164.5914     1.4072     6.7045     0.0503      0.092      6.196      8.987        462 1.2584e-01 0.0000e+00
      6.355    15.5756     0.1894      1.883  84.467014    103.759      6.207   153.2342     1.4274     6.7448     0.0511      0.103      6.234      9.041        463 1.2580e-01 0.0000e+00
      6.399    15.4860     0.1996      1.982  85.310182    104.796      6.208   144.2242     1.4153     6.7179     0.0515      0.117      6.274      9.099        464 1.2559e-01 0.0000e+00
      6.438    15.4146     0.2093      2.079  86.285876    106.395      6.213   137.2584     1.4315     6.7582     0.0522      0.131      6.309      9.150        465 1.2575e-01 0.0000e+00
      6.463    15.3786     0.2116      2.100  86.553150    106.875      6.220   130.6713     1.6134     5.4960     0.0524      0.138      6.336      9.190        466 1.2584e-01 0.0000e+00
      6.483    15.3443     0.2159      2.141  86.434559    106.893      6.228   123.2134     1.6094     5.4557     0.0524      0.136      6.360      9.225        467 1.2573e-01 0.0000e+00
      6.511    15.2944     0.2130      2.112  86.552475    107.227      6.239   116.8155     1.6013     5.4289     0.0525      0.132      6.388      9.266        468 1.2563e-01 0.0000e+00
      6.550    15.2401     0.2109      2.090  86.228062    106.798      6.243   113.4841     1.6175     5.3617     0.0523      0.129      6.421      9.313        469 1.2564e-01 0.0000e+00
      6.580    15.1925     0.2124      2.104  86.095002    106.861      6.253   108.9791     1.7792     5.4691     0.0523      0.125      6.451      9.356        470 1.2570e-01 0.0000e+00
      6.604    15.1551     0.2099      2.078  86.212657    107.075      6.267   104.9284     1.7550     5.4960     0.0524      0.118      6.477      9.394        471 1.2569e-01 0.0000e+00
      6.632    15.1220     0.2048      2.028  86.319570    107.412      6.272   100.7641     1.7348     5.4557     0.0526      0.113      6.505      9.434        472 1.2576e-01 0.0000e+00
      6.662    15.0913     0.1994      1.973  86.526938    107.686      6.281    97.3569     1.7388     5.4423     0.0527      0.112      6.535      9.477        473 1.2584e-01 0.0000e+00
      6.695    15.0647     0.1976      1.957  86.965579    108.403      6.291    93.2305     2.6405     3.5490     0.0530      0.115      6.565      9.520        474 1.2581e-01 0.0000e+00
      6.723    15.0427     0.1939      1.921  87.765915    109.394      6.297    91.1862     2.6607     3.5758     0.0534      0.117      6.592      9.560        475 1.2568e-01 0.0000e+00
      6.746    15.0213     0.1901      1.883  88.712617    110.761      6.305    88.9147     2.6891     3.6027     0.0540      0.114      6.617      9.596        476 1.2563e-01 0.0000e+00
      6.775    15.0013     0.1892      1.873  89.326032    111.487      6.313    86.9462     2.6486     3.5624     0.0544      0.111      6.644      9.636        477 1.2573e-01 0.0000e+00
      6.806    14.9808     0.1841      1.823  89.678874    112.071      6.321    84.6747     3.0409     2.5150     0.0546      0.111      6.671      9.676        478 1.2578e-01 0.0000e+00
      6.828    14.9553     0.1802      1.784  89.998327    112.444      6.324    82.8197     3.0085     2.4210     0.0548      0.111      6.694      9.709        479 1.2568e-01 0.0000e+00
      6.846    14.9302     0.1787      1.770  90.355946    113.025      6.330    80.5861     3.0611     2.4747     0.0550      0.106      6.713      9.736        480 1.2560e-01 0.0000e+00
      6.863    14.9095     0.1743      1.725  90.631577    113.380      6.336    78.7690     3.0489     2.3807     0.0552      0.100      6.727      9.758        481 1.2563e-01 0.0000e+00
      6.871    14.8996     0.1711      1.692  90.755689    113.660      6.344    77.3683     3.0570     2.3539     0.0553      0.090      6.736      9.771        482 1.2571e-01 0.0000e+00
      6.874    14.9015     0.1722      1.702  90.707091    113.615      6.353    75.4754     3.0166     2.3673     0.0553      0.078      6.741      9.776        483 1.2567e-01 0.0000e+00
      6.876    14.9174     0.1692      1.671  90.483902    113.397      6.359    73.2797     3.0328     2.2330     0.0552      0.064      6.743      9.779        484 1.2567e-01 0.0000e+00
      6.877    14.9348     0.1734      1.711  90.200753    113.005      6.364    71.1597     3.0530     2.2464     0.0550      0.048      6.746      9.783        485 1.2564e-01 0.0000e+00
      6.884    14.9245     0.1705      1.682  90.286244    113.067      6.373    68.5097     3.0085     2.2464     0.0550      0.035      6.752      9.793        486 1.2554e-01 0.0000e+00
      6.896    14.9039     0.1660      1.638  90.972286    113.890      6.377    66.6168     3.0247     2.1256     0.0554      0.027      6.761      9.806        487 1.2567e-01 0.0000e+00
      6.903    14.8992     0.1662      1.640  91.309788    114.379      6.383    65.6325     3.0287     2.0853     0.0556      0.023      6.767      9.815        488 1.2562e-01 0.0000e+00
      6.903    14.9131     0.1721      1.698  90.877389    113.843      6.388    63.8532     3.0368     2.1122     0.0554      0.020      6.769      9.817        489 1.2565e-01 0.0000e+00
      6.902    14.9295     0.1660      1.636  90.172129    113.011      6.395    62.2254     3.0287     2.2464     0.0550      0.018      6.772      9.822        490 1.2580e-01 0.0000e+00
      6.911    14.9111     0.1698      1.673  90.343619    113.080      6.395    59.1968     2.9762     2.5419     0.0550      0.019      6.783      9.837        491 1.2564e-01 0.0000e+00
      6.934    14.8600     0.1685      1.658  91.318242    114.431      6.405    58.4775     3.0045     2.4479     0.0557      0.025      6.803      9.867        492 1.2576e-01 0.0000e+00
      6.966    14.8228     0.1688      1.660  91.606068    114.698      6.405    57.3418     2.9681     2.5150     0.0558      0.035      6.833      9.910        493 1.2578e-01 0.0000e+00
      7.003    14.7965     0.1662      1.633  91.650895    114.985      6.406    56.6982     2.9681     2.5687     0.0559      0.049      6.865      9.958        494 1.2562e-01 0.0000e+00
      7.034    14.7618     0.1646      1.616  92.333195    115.871      6.409    55.7139     3.0449     2.5956     0.0563      0.066      6.893      9.998        495 1.2563e-01 0.0000e+00
      7.051    14.7420     0.1632      1.601  92.690219    116.537      6.412    54.9189     3.0287     2.4747     0.0566      0.081      6.912     10.025        496 1.2566e-01 0.0000e+00
      7.061    14.7521     0.1591      1.559  92.753208    116.510      6.415    54.0103     3.0328     2.4076     0.0566      0.091      6.924     10.043        497 1.2565e-01 0.0000e+00
      7.071    14.7710     0.1595      1.562  92.819949    116.910      6.417    53.2153     3.0409     2.4747     0.0567      0.093      6.934     10.058        498 1.2554e-01 0.0000e+00
      7.082    14.7464     0.1641      1.606  93.469725    117.350      6.423    51.8525     3.0813     2.1659     0.0569      0.087      6.947     10.076        499 1.2564e-01 0.0000e+00
      7.098    14.7011     0.1577      1.542  95.097459    119.745      6.430    50.3761     3.1258     2.0719     0.0580      0.076      6.962     10.098        500 1.2576e-01 0.0000e+00
      7.116    14.6641     0.1614      1.579  95.761655    120.324      6.433    49.0889     3.1015     2.1390     0.0583      0.066      6.979     10.123        501 1.2561e-01 0.0000e+00
      7.135    14.6235     0.1576      1.541  96.480393    121.554      6.438    47.4989     3.0813     2.1927     0.0588      0.058      6.996     10.148        502 1.2562e-01 0.0000e+00
      7.151    14.5910     0.1578      1.542  97.386069    122.760      6.439    46.7418     3.1015     2.2733     0.0594      0.056      7.011     10.169        503 1.2568e-01 0.0000e+00
      7.162    14.5606     0.1564      1.527  97.401213    122.890      6.444    45.9846     3.0975     2.2733     0.0594      0.057      7.024     10.188        504 1.2567e-01 0.0000e+00
      7.174    14.5238     0.1498      1.462  97.443311    123.058      6.448    45.2275     3.0975     2.2464     0.0595      0.059      7.038     10.209        505 1.2567e-01 0.0000e+00
      7.196    14.4810     0.1525      1.489  97.898971    123.686      6.451    43.7132     3.0813     2.3002     0.0598      0.061      7.057     10.236        506 1.2569e-01 0.0000e+00
      7.219    14.4411     0.1506      1.470  98.916729    125.147      6.453    42.9560     3.1298     2.0719     0.0604      0.064      7.077     10.264        507 1.2564e-01 0.0000e+00
      7.233    14.4106     0.1485      1.448  99.627908    126.173      6.458    41.9339     3.1096     2.0182     0.0609      0.065      7.092     10.286        508 1.2559e-01 0.0000e+00
      7.243    14.3847     0.1520      1.482  99.661879    126.336      6.461    41.6689     3.0934     2.0719     0.0610      0.063      7.104     10.303        509 1.2566e-01 0.0000e+00
      7.255    14.3581     0.1518      1.480 100.005102    126.825      6.465    40.8360     3.1096     2.1927     0.0612      0.061      7.116     10.321        510 1.2570e-01 0.0000e+00
      7.270    14.3367     0.1461      1.425 100.509966    127.654      6.466    39.7003     3.0772     2.1659     0.0615      0.061      7.130     10.341        511 1.2568e-01 0.0000e+00
      7.286    14.3216     0.1464      1.427 100.551053    127.670      6.472    38.9810     3.1177     2.1122     0.0615      0.060      7.144     10.361        512 1.2562e-01 0.0000e+00
      7.298    14.3016     0.1444      1.407 100.697850    128.026      6.473    38.6403     3.0934     2.1122     0.0617      0.058      7.157     10.380        513 1.2567e-01 0.0000e+00
      7.309    14.2792     0.1411      1.374 100.446327    127.716      6.479    37.8453     3.0772     2.1659     0.0615      0.054      7.168     10.396        514 1.2571e-01 0.0000e+00
      7.319    14.2605     0.1418      1.380  99.852466    126.998      6.485    37.2017     3.0853     2.0719     0.0612      0.050      7.179     10.411        515 1.2568e-01 0.0000e+00
      7.331    14.2437     0.1433      1.394  99.145920    126.249      6.490    36.5203     3.1055     2.1793     0.0609      0.050      7.190     10.428        516 1.2571e-01 0.0000e+00
      7.344    14.2286     0.1393      1.354  98.975173    125.917      6.492    35.9903     3.0975     2.0584     0.0607      0.049      7.203     10.446        517 1.2568e-01 0.0000e+00
      7.358    14.2163     0.1390      1.351 100.213768    127.757      6.496    35.1196     3.1055     2.1122     0.0615      0.049      7.216     10.466        518 1.2575e-01 0.0000e+00
      7.372    14.2062     0.1455      1.414 101.115410    128.842      6.498    34.2867     3.1055     2.0719     0.0620      0.048      7.230     10.486        519 1.2581e-01 0.0000e+00
      7.386    14.1991     0.1375      1.336 101.066504    128.883      6.504    33.7189     3.0328     2.0182     0.0620      0.049      7.245     10.508        520 1.2571e-01 0.0000e+00
      7.405    14.1945     0.1409      1.367 100.929240    128.666      6.504    32.5074     3.0328     2.0853     0.0619      0.052      7.263     10.535        521 1.2582e-01 0.0000e+00
      7.428    14.1831     0.1411      1.368 100.958944    128.796      6.508    32.1289     3.0166     2.0987     0.0620      0.057      7.284     10.565        522 1.2585e-01 0.0000e+00
      7.450    14.1619     0.1411      1.367 100.047663    127.667      6.512    31.4853     3.0328     2.0987     0.0615      0.063      7.305     10.595        523 1.2567e-01 0.0000e+00
      7.471    14.1354     0.1451      1.405  98.849958    126.021      6.515    30.8039     2.9883     2.3673     0.0607      0.069      7.325     10.624        524 1.2561e-01 0.0000e+00
      7.488    14.1136     0.1374      1.330  99.027888    126.485      6.518    30.3874     2.9721     2.2733     0.0609      0.073      7.342     10.649        525 1.2561e-01 0.0000e+00
      7.502    14.1046     0.1449      1.402  99.796491    127.428      6.521    29.6303     2.9802     2.2464     0.0614      0.074      7.358     10.671        526 1.2562e-01 0.0000e+00
      7.519    14.0908     0.1366      1.321 100.273687    128.256      6.521    29.5546     2.9883     2.3136     0.0617      0.075      7.375     10.696        527 1.2574e-01 0.0000e+00
      7.539    14.0657     0.1424      1.377 100.754805    128.712      6.527    28.5324     3.0894     2.2867     0.0619      0.075      7.393     10.722        528 1.2576e-01 0.0000e+00
      7.557    14.0424     0.1356      1.312 101.102026    129.439      6.531    27.8510     3.0975     2.2464     0.0623      0.072      7.410     10.748        529 1.2561e-01 0.0000e+00
      7.572    14.0222     0.1339      1.295 101.597124    129.847      6.531    27.2074     3.0934     2.2464     0.0624      0.070      7.428     10.773        530 1.2565e-01 0.0000e+00
      7.595    13.9983     0.1350      1.305 102.013289    130.857      6.537    26.2610     3.1015     2.3270     0.0629      0.069      7.449     10.804        531 1.2576e-01 0.0000e+00
      7.622    13.9664     0.1340      1.296 102.071942    130.530      6.538    25.4660     3.1177     2.3136     0.0627      0.072      7.473     10.839        532 1.2568e-01 0.0000e+00
      7.644    13.9329     0.1318      1.275 103.190553    132.478      6.543    24.8603     3.1055     2.3136     0.0636      0.076      7.496     10.872        533 1.2572e-01 0.0000e+00
      7.665    13.9023     0.1274      1.232 104.370704    133.776      6.544    23.7245     3.1096     2.3539     0.0642      0.081      7.516     10.902        534 1.2571e-01 0.0000e+00
      7.683    13.8753     0.1237      1.196 105.037339    135.007      6.547    23.5731     3.1136     2.3404     0.0648      0.082      7.534     10.927        535 1.2563e-01 0.0000e+00
      7.699    13.8530     0.1268      1.226 105.604822    135.618      6.549    21.7560     3.2430     2.2867     0.0650      0.082      7.549     10.949        536 1.2579e-01 0.0000e+00
      7.712    13.8366     0.1219      1.178 106.134694    136.577      6.551    21.3395     3.2066     2.3404     0.0655      0.080      7.561     10.967        537 1.2588e-01 0.0000e+00
      7.720    13.8286     0.1283      1.240 106.550582    137.054      6.554    20.2417     3.1986     2.3136     0.0657      0.074      7.571     10.980        538 1.2577e-01 0.0000e+00
      7.728    13.8269     0.1238      1.197 106.813514    137.544      6.557    19.1817     3.2309     2.2733     0.0659      0.065      7.579     10.992        539 1.2576e-01 0.0000e+00
      7.737    13.8293     0.1266      1.224 106.998026    137.754      6.562    18.4245     3.2673     2.1524     0.0660      0.056      7.587     11.005        540 1.2571e-01 0.0000e+00
      7.747    13.8317     0.1292      1.250 107.630575    138.553      6.564    17.5160     3.2754     2.1659     0.0664      0.048      7.597     11.019        541 1.2566e-01 0.0000e+00
      7.757    13.8293 -9.990e-29 -9.990e-29 110.788871    142.556      6.568    16.9102     3.2956     2.0719     0.0682      0.042      7.607     11.034        542 1.2565e-01 0.0000e+00
      7.769    13.8313 -9.990e-29 -9.990e-29 114.171168    147.203      6.571    16.1531     3.2835     2.1927     0.0704      0.039      7.619     11.051        543 1.2567e-01 0.0000e+00
      7.783    13.8274 -9.990e-29 -9.990e-29 115.716695    148.806      6.573    14.8660     3.3037     2.2196     0.0711      0.039      7.630     11.068        544 1.2580e-01 0.0000e+00
      7.792    13.8138 -9.990e-29 -9.990e-29 118.661458    152.842      6.573    14.7524     3.2794     2.1390     0.0730      0.040      7.639     11.081        545 1.2565e-01 0.0000e+00
      7.796    13.8080 -9.990e-29 -9.990e-29 122.180089    157.338      6.577    14.6767     3.2996     2.0182     0.0751      0.040      7.644     11.087        546 1.2553e-01 0.0000e+00
      7.798    13.7989 -9.990e-29 -9.990e-29 124.621023    160.508      6.582    13.9574     3.2673     2.1122     0.0765      0.037      7.647     11.090        547 1.2561e-01 0.0000e+00
      7.798    13.7895 -9.990e-29 -9.990e-29 125.363875    161.648      6.583    13.3138     3.2835     2.1390     0.0771      0.033      7.647     11.092        548 1.2561e-01 0.0000e+00
      7.798    13.7895 -9.990e-29 -9.990e-29 124.681288    160.494      6.584    12.2917     3.2633     2.1390     0.0765      0.026      7.648     11.093        549 1.2569e-01 0.0000e+00
      7.800    13.8035 -9.990e-29 -9.990e-29 123.385253    159.269      6.587    11.3831     3.3037     2.1256     0.0760      0.019      7.648     11.093        550 1.2571e-01 0.0000e+00
      7.799    13.8168 -9.990e-29 -9.990e-29 122.270234    157.276      6.592    10.6638     3.2875     2.1390     0.0750      0.012      7.648     11.093        551 1.2569e-01 0.0000e+00
      7.800 -9.990e-29 -9.990e-29 -9.990e-29 120.379667    155.561      6.593     9.9067     3.3239     2.0182     0.0742      0.006      7.649     11.094        552 1.2576e-01 0.0000e+00
      7.801 -9.990e-29 -9.990e-29 -9.990e-29 118.500500    152.025      6.595     9.1874     3.2471     1.9913     0.0726      0.003      7.649     11.095        553 1.2578e-01 0.0000e+00
