* Sea-Bird SBE19plus  Data File:
* FileName = C:\R\Reservoirs\Data\DataNotYetUploadedToEDI\Raw_CTD\RawDownloads\101823_bvr50_S8188_0002.hex
* Software version 2.8.0.119
* Temperature SN = 8188
* Conductivity SN = 8188
* System UpLoad Time = Oct 18 2023 15:31:12
* <ApplicationData>
* <Seaterm232>
* <SoftwareVersion>2.8.0.119</SoftwareVersion>
* <BuildDate>07-Nov-2018</BuildDate>
* </Seaterm232>
* </ApplicationData>
* <InstrumentState>
* <HardwareData DeviceType='SBE19plus' SerialNumber='01908188'>
*
*    <Manufacturer>Sea-Bird Electronics, Inc.</Manufacturer>
*
*    <FirmwareVersion>3.1.8</FirmwareVersion>
*
*    <FirmwareDate>Mar  9 2016 16:22:29</FirmwareDate>
*
*    <CommandSetVersion>1.4</CommandSetVersion>
*
*    <PCBAssembly PCBSerialNum='260079' AssemblyNum='41054K'/>
*
*    <PCBAssembly PCBSerialNum='260083' AssemblyNum='41059E'/>
*
*    <PCBAssembly PCBSerialNum='260085' AssemblyNum='41606B'/>
*
*    <PCBAssembly PCBSerialNum='260081' AssemblyNum='41967C'/>
*
*    <MfgDate>30 Mar 2022</MfgDate>
*
*    <InternalSensors>
*
*       <Sensor id='Main Temperature'>
*
*          <type>temperature0</type>
*
*          <SerialNumber>01908188</SerialNumber>
*
*       </Sensor>
*
*       <Sensor id='Main Conductivity'>
*
*          <type>conductivity-0</type>
*
*          <SerialNumber>01908188</SerialNumber>
*
*       </Sensor>
*
*       <Sensor id='Main Pressure'>
*
*          <type>strain-0</type>
*
*          <SerialNumber>12220741</SerialNumber>
*
*       </Sensor>
*
*    </InternalSensors>
*
*    <ExternalSensors>
*
*       <Sensor id='volt 0'>
*
*          <type>CHL</type>
*
*          <SerialNumber>FLNTURT-7096</SerialNumber>
*
*       </Sensor>
*
*       <Sensor id='volt 1'>
*
*          <type>NTU</type>
*
*          <SerialNumber>FLNTURT-7096</SerialNumber>
*
*       </Sensor>
*
*       <Sensor id='volt 2'>
*
*          <type>OXY</type>
*
*          <SerialNumber>43-4269</SerialNumber>
*
*       </Sensor>
*
*       <Sensor id='volt 3'>
*
*          <type>not assigned</type>
*
*          <SerialNumber>not assigned</SerialNumber>
*
*       </Sensor>
*
*       <Sensor id='volt 4'>
*
*          <type>PAR</type>
*
*          <SerialNumber>PARLOGICSW-2209</SerialNumber>
*
*       </Sensor>
*
*       <Sensor id='volt 5'>
*
*          <type>not assigned</type>
*
*          <SerialNumber>not assigned</SerialNumber>
*
*       </Sensor>
*
*       <Sensor id='serial'>
*
*          <type>WETLABS</type>
*
*          <SerialNumber>FL3-7350</SerialNumber>
*
*       </Sensor>
*
*    </ExternalSensors>
*
* </HardwareData>
* <StatusData DeviceType='SBE19plus' SerialNumber='01908188'>
*
*    <DateTime>2023-10-18T15:29:40</DateTime>
*
*    <LoggingState>not logging</LoggingState>
*
*    <EventSummary numEvents='0'/>
*
*    <Power>
*
*       <vMain>12.3</vMain>
*
*       <vLith>8.5</vLith>
*
*       <iMain>61.8</iMain>
*
*       <iPump>91.2</iPump>
*
*       <iExt01>22.3</iExt01>
*
*       <iExt2345>20.2</iExt2345>
*
*       <iSerial>45.4</iSerial>
*
*    </Power>
*
*    <MemorySummary>
*
*       <Bytes>57475</Bytes>
*
*       <Samples>2299</Samples>
*
*       <SamplesFree>2629626</SamplesFree>
*
*       <SampleLength>25</SampleLength>
*
*       <Profiles>2</Profiles>
*
*    </MemorySummary>
*
* </StatusData>
* <ConfigurationData DeviceType='SBE19plus' SerialNumber='01908188'>
*
*    <ProfileMode>
*
*       <ScansToAverage>1</ScansToAverage>
*
*       <MinimumCondFreq>5</MinimumCondFreq>
*
*       <PumpDelay>40</PumpDelay>
*
*       <AutoRun>no</AutoRun>
*
*       <IgnoreSwitch>no</IgnoreSwitch>
*
*    </ProfileMode>
*
*    <Battery>
*
*       <Type>alkaline</Type>
*
*       <CutOff>7.5</CutOff>
*
*    </Battery>
*
*    <DataChannels>
*
*       <ExtVolt0>yes</ExtVolt0>
*
*       <ExtVolt1>yes</ExtVolt1>
*
*       <ExtVolt2>yes</ExtVolt2>
*
*       <ExtVolt3>no</ExtVolt3>
*
*       <ExtVolt4>yes</ExtVolt4>
*
*       <ExtVolt5>no</ExtVolt5>
*
*       <SBE38>no</SBE38>
*
*       <WETLABS>yes</WETLABS>
*
*       <OPTODE>no</OPTODE>
*
*       <SBE63>no</SBE63>
*
*       <SeaFET>no</SeaFET>
*
*       <GTD>no</GTD>
*
*    </DataChannels>
*
*    <EchoCharacters>yes</EchoCharacters>
*
*    <OutputExecutedTag>yes</OutputExecutedTag>
*
*    <OutputFormat>raw HEX</OutputFormat>
*
* </ConfigurationData>
* <CalibrationCoefficients DeviceType='SBE19plus' SerialNumber='01908188'>
*
*    <Calibration format='TEMP1' id='Main Temperature'>
*
*       <SerialNum>01908188</SerialNum>
*
*       <CalDate>21-Aug-22</CalDate>
*
*       <TA0>1.265284e-03</TA0>
*
*       <TA1>2.691806e-04</TA1>
*
*       <TA2>-5.655711e-07</TA2>
*
*       <TA3>1.602369e-07</TA3>
*
*       <TOFFSET>0.000000e+00</TOFFSET>
*
*    </Calibration>
*
*    <Calibration format='WBCOND0' id='Main Conductivity'>
*
*       <SerialNum>01908188</SerialNum>
*
*       <CalDate>21-Aug-22</CalDate>
*
*       <G>-1.009562e+00</G>
*
*       <H>1.439229e-01</H>
*
*       <I>-4.343583e-04</I>
*
*       <J>5.328694e-05</J>
*
*       <CPCOR>-9.570000e-08</CPCOR>
*
*       <CTCOR>3.250000e-06</CTCOR>
*
*       <CSLOPE>1.000000e+00</CSLOPE>
*
*    </Calibration>
*
*    <Calibration format='STRAIN0' id='Main Pressure'>
*
*       <SerialNum>12220741</SerialNum>
*
*       <CalDate>11-Aug-22</CalDate>
*
*       <PA0>1.627942e-01</PA0>
*
*       <PA1>4.835849e-04</PA1>
*
*       <PA2>-3.975488e-12</PA2>
*
*       <PTCA0>5.244803e+05</PTCA0>
*
*       <PTCA1>2.817194e+01</PTCA1>
*
*       <PTCA2>-5.842684e-01</PTCA2>
*
*       <PTCB0>2.522087e+01</PTCB0>
*
*       <PTCB1>5.750000e-04</PTCB1>
*
*       <PTCB2>0.000000e+00</PTCB2>
*
*       <PTEMPA0>-5.709556e+01</PTEMPA0>
*
*       <PTEMPA1>5.248567e+01</PTEMPA1>
*
*       <PTEMPA2>-2.281498e-01</PTEMPA2>
*
*       <POFFSET>-4.700000e-02</POFFSET>
*
*       <PRANGE>1.600000e+02</PRANGE>
*
*    </Calibration>
*
*    <Calibration format='VOLT0' id='Volt 0'>
*
*       <OFFSET>-4.657200e-02</OFFSET>
*
*       <SLOPE>1.248989e+00</SLOPE>
*
*    </Calibration>
*
*    <Calibration format='VOLT0' id='Volt 1'>
*
*       <OFFSET>-4.600800e-02</OFFSET>
*
*       <SLOPE>1.249849e+00</SLOPE>
*
*    </Calibration>
*
*    <Calibration format='VOLT0' id='Volt 2'>
*
*       <OFFSET>-4.668000e-02</OFFSET>
*
*       <SLOPE>1.250379e+00</SLOPE>
*
*    </Calibration>
*
*    <Calibration format='VOLT0' id='Volt 3'>
*
*       <OFFSET>-4.643200e-02</OFFSET>
*
*       <SLOPE>1.251002e+00</SLOPE>
*
*    </Calibration>
*
*    <Calibration format='VOLT0' id='Volt 4'>
*
*       <OFFSET>-4.606100e-02</OFFSET>
*
*       <SLOPE>1.249962e+00</SLOPE>
*
*    </Calibration>
*
*    <Calibration format='VOLT0' id='Volt 5'>
*
*       <OFFSET>-4.642700e-02</OFFSET>
*
*       <SLOPE>1.248530e+00</SLOPE>
*
*    </Calibration>
*
*    <Calibration format='FREQ0' id='external frequency channel'>
*
*       <EXTFREQSF>1.000018e+00</EXTFREQSF>
*
*    </Calibration>
*
* </CalibrationCoefficients>
* <EventCounters DeviceType='SBE19plus' SerialNumber='01908188'>
*
*    <EventSummary numEvents='0'/>
*
* </EventCounters></InstrumentState>
* <Headers>
*
* cast   2 17 Oct 2023 13:44:50 samples 1375 to 2299, avg = 1, stop = mag switch
*
# nquan = 16
# nvalues = 925                         
# units = specified
# name 0 = depFM: Depth [fresh water, m]
# name 1 = dz/dtM: Descent Rate [m/s]
# name 2 = sbeox0Mg/L: Oxygen, SBE 43 [mg/l]
# name 3 = sbeox0PS: Oxygen, SBE 43 [% saturation]
# name 4 = specc: Specific Conductance [uS/cm]
# name 5 = c0uS/cm: Conductivity [uS/cm]
# name 6 = wetCDOM: Fluorescence, WET Labs CDOM [mg/m^3]
# name 7 = flECO-AFL: Fluorescence, WET Labs ECO-AFL/FL [mg/m^3]
# name 8 = flECO-AFL1: Fluorescence, WET Labs ECO-AFL/FL, 2 [mg/m^3]
# name 9 = flECO-AFL2: Fluorescence, WET Labs ECO-AFL/FL, 3 [mg/m^3]
# name 10 = par/sat/log: PAR/Logarithmic, Satlantic
# name 11 = turbWETntu0: Turbidity, WET Labs ECO [NTU]
# name 12 = prdM: Pressure, Strain Gauge [db]
# name 13 = prdE: Pressure, Strain Gauge [psi]
# name 14 = tv290C: Temperature [ITS-90, deg C]
# name 15 = flag:  0.000e+00
# span 0 =     -0.667,      9.376       
# span 1 =     -0.524,      0.141       
# span 2 =     2.1203,     6.5349       
# span 3 =     20.723,     64.241       
# span 4 =      0.591,     33.307       
# span 5 =   0.467093,  26.107450       
# span 6 =    -4.5000,     4.0500       
# span 7 =    -0.1384,     5.2786       
# span 8 =    -2.1300,     0.9372       
# span 9 =    -2.0304,     3.4686       
# span 10 = 1.1592e-01, 4.5563e+02      
# span 11 =    -0.2430,   270.0890      
# span 12 =     -0.654,      9.195      
# span 13 =     -0.949,     13.335      
# span 14 =    14.1789,    15.2447      
# span 15 = 0.0000e+00, 0.0000e+00      
# interval = seconds: 0.25
# start_time = Oct 17 2023 13:44:50 [Instrument's time stamp, header]
# bad_flag = -9.990e-29
# <Sensors count="10" >
#   <sensor Channel="1" >
#     <!-- Count, Temperature -->
#     <TemperatureSensor SensorID="58" >
#       <SerialNumber>8188</SerialNumber>
#       <CalibrationDate>21-Aug-22</CalibrationDate>
#       <A0>1.26528397e-003</A0>
#       <A1>2.69180636e-004</A1>
#       <A2>-5.65571102e-007</A2>
#       <A3>1.60236871e-007</A3>
#       <Slope>1.00000000</Slope>
#       <Offset>0.0000</Offset>
#     </TemperatureSensor>
#   </sensor>
#   <sensor Channel="2" >
#     <!-- Frequency 0, Conductivity -->
#     <ConductivitySensor SensorID="3" >
#       <SerialNumber>8188</SerialNumber>
#       <CalibrationDate>21-Aug-22</CalibrationDate>
#       <UseG_J>1</UseG_J>
#       <!-- Cell const and series R are applicable only for wide range sensors. -->
#       <SeriesR>0.0000</SeriesR>
#       <CellConst>2000.0000</CellConst>
#       <ConductivityType>0</ConductivityType>
#       <Coefficients equation="0" >
#         <A>0.00000000e+000</A>
#         <B>0.00000000e+000</B>
#         <C>0.00000000e+000</C>
#         <D>0.00000000e+000</D>
#         <M>0.0</M>
#         <CPcor>-9.57000000e-008</CPcor>
#       </Coefficients>
#       <Coefficients equation="1" >
#         <G>-1.00956200e+000</G>
#         <H>1.43922862e-001</H>
#         <I>-4.34358337e-004</I>
#         <J>5.32869425e-005</J>
#         <CPcor>-9.57000000e-008</CPcor>
#         <CTcor>3.2500e-006</CTcor>
#         <!-- WBOTC not applicable unless ConductivityType = 1. -->
#         <WBOTC>0.00000000e+000</WBOTC>
#       </Coefficients>
#       <Slope>1.00000000</Slope>
#       <Offset>0.00000</Offset>
#     </ConductivitySensor>
#   </sensor>
#   <sensor Channel="3" >
#     <!-- Count, Pressure, Strain Gauge -->
#     <PressureSensor SensorID="46" >
#       <SerialNumber>8188</SerialNumber>
#       <CalibrationDate>11-Aug-22</CalibrationDate>
#       <PA0>1.62794185e-001</PA0>
#       <PA1>4.83584930e-004</PA1>
#       <PA2>-3.97548787e-012</PA2>
#       <PTEMPA0>-5.70955636e+001</PTEMPA0>
#       <PTEMPA1>5.24856726e+001</PTEMPA1>
#       <PTEMPA2>-2.28149804e-001</PTEMPA2>
#       <PTCA0>5.24480263e+005</PTCA0>
#       <PTCA1>2.81719406e+001</PTCA1>
#       <PTCA2>-5.84268386e-001</PTCA2>
#       <PTCB0>2.52208750e+001</PTCB0>
#       <PTCB1>5.75000000e-004</PTCB1>
#       <PTCB2>0.00000000e+000</PTCB2>
#       <Offset>0.000000</Offset>
#     </PressureSensor>
#   </sensor>
#   <sensor Channel="4" >
#     <!-- A/D voltage 0, Fluorometer, WET Labs ECO-AFL/FL -->
#     <FluoroWetlabECO_AFL_FL_Sensor SensorID="20" >
#       <SerialNumber>FLNTURT-7096</SerialNumber>
#       <CalibrationDate>01-Sep-2022</CalibrationDate>
#       <ScaleFactor>5.00000000e+001</ScaleFactor>
#       <!-- Dark output -->
#       <Vblank>0.0680</Vblank>
#     </FluoroWetlabECO_AFL_FL_Sensor>
#   </sensor>
#   <sensor Channel="5" >
#     <!-- A/D voltage 1, Turbidity Meter, WET Labs, ECO-NTU -->
#     <TurbidityMeter SensorID="67" >
#       <SerialNumber>FLNTURT-7096</SerialNumber>
#       <CalibrationDate>01-Sep-2022</CalibrationDate>
#       <ScaleFactor>197.000000</ScaleFactor>
#       <!-- Dark output -->
#       <DarkVoltage>0.067000</DarkVoltage>
#     </TurbidityMeter>
#   </sensor>
#   <sensor Channel="6" >
#     <!-- A/D voltage 2, Oxygen, SBE 43 -->
#     <OxygenSensor SensorID="38" >
#       <SerialNumber>4269</SerialNumber>
#       <CalibrationDate>16-Aug-22</CalibrationDate>
#       <Use2007Equation>1</Use2007Equation>
#       <CalibrationCoefficients equation="0" >
#         <!-- Coefficients for Owens-Millard equation. -->
#         <Boc>0.0000</Boc>
#         <Soc>0.0000e+000</Soc>
#         <offset>0.0000</offset>
#         <Pcor>0.00e+000</Pcor>
#         <Tcor>0.0000</Tcor>
#         <Tau>0.0</Tau>
#       </CalibrationCoefficients>
#       <CalibrationCoefficients equation="1" >
#         <!-- Coefficients for Sea-Bird equation - SBE calibration in 2007 and later. -->
#         <Soc>4.2506e-001</Soc>
#         <offset>-0.4922</offset>
#         <A>-4.5893e-003</A>
#         <B> 1.8653e-004</B>
#         <C>-2.0781e-006</C>
#         <D0> 2.5826e+000</D0>
#         <D1> 1.92634e-004</D1>
#         <D2>-4.64803e-002</D2>
#         <E> 3.6000e-002</E>
#         <Tau20> 2.3100</Tau20>
#         <H1>-3.3000e-002</H1>
#         <H2> 5.0000e+003</H2>
#         <H3> 1.4500e+003</H3>
#       </CalibrationCoefficients>
#     </OxygenSensor>
#   </sensor>
#   <sensor Channel="7" >
#     <!-- A/D voltage 3, PAR/Logarithmic, Satlantic -->
#     <PARLog_SatlanticSensor SensorID="76" >
#       <SerialNumber>2209</SerialNumber>
#       <CalibrationDate>14-Jan-2022</CalibrationDate>
#       <a0>9.8861e-001</a0>
#       <a1>8.0845e-001</a1>
#       <Im>1.3589e+000</Im>
#       <Multiplier>1.0000e+000</Multiplier>
#     </PARLog_SatlanticSensor>
#   </sensor>
#   <sensor Channel="8" >
#     <!-- Serial RS-232, Fluorometer, WET Labs ECO-AFL/FL, 2 -->
#     <FluoroWetlabECO_AFL_FL_Sensor SensorID="20" >
#       <SerialNumber>FL3-7350</SerialNumber>
#       <CalibrationDate>10-Mar-2022</CalibrationDate>
#       <ScaleFactor>4.26000000e-002</ScaleFactor>
#       <!-- Dark output -->
#       <Vblank>50.0000</Vblank>
#     </FluoroWetlabECO_AFL_FL_Sensor>
#   </sensor>
#   <sensor Channel="9" >
#     <!-- Serial RS-232, Fluorometer, WET Labs ECO-AFL/FL, 3 -->
#     <FluoroWetlabECO_AFL_FL_Sensor SensorID="20" >
#       <SerialNumber>FL3-7350</SerialNumber>
#       <CalibrationDate>10-Mar-2022</CalibrationDate>
#       <ScaleFactor>4.23000000e-002</ScaleFactor>
#       <!-- Dark output -->
#       <Vblank>48.0000</Vblank>
#     </FluoroWetlabECO_AFL_FL_Sensor>
#   </sensor>
#   <sensor Channel="10" >
#     <!-- Serial RS-232, Fluorometer, WET Labs ECO CDOM -->
#     <FluoroWetlabCDOM_Sensor SensorID="19" >
#       <SerialNumber>FL3-7350</SerialNumber>
#       <CalibrationDate>10-Mar-2022</CalibrationDate>
#       <ScaleFactor>0.090</ScaleFactor>
#       <!-- Dark output -->
#       <Vblank>50.000</Vblank>
#     </FluoroWetlabCDOM_Sensor>
#   </sensor>
# </Sensors>
# datcnv_date = Oct 18 2023 15:34:15, 7.26.7.129 [datcnv_vars = 15]
# datcnv_in = C:\R\Reservoirs\Data\DataNotYetUploadedToEDI\Raw_CTD\RawDownloads\101723_fcr50_S8188002.hex C:\R\Reservoirs\Data\DataNotYetUploadedToEDI\Raw_CTD\RawDownloads\SBE19plusV2_8188_start20221003.xmlcon
# datcnv_skipover = 0
# datcnv_ox_hysteresis_correction = yes
# datcnv_ox_tau_correction = yes
# filter_date = Oct 18 2023 15:34:40, 7.26.7.129
# filter_in = C:\R\Reservoirs\Data\DataNotYetUploadedToEDI\Raw_CTD\RawDownloads\101723_fcr50_S8188002.cnv
# filter_low_pass_tc_A = 0.500
# filter_low_pass_tc_B = 1.000
# filter_low_pass_A_vars = sbeox0Mg/L sbeox0PS specc c0uS/cm tv290C
# filter_low_pass_B_vars = depFM dz/dtM prdM prdE
# alignctd_date = Oct 18 2023 15:35:01, 7.26.7.129
# alignctd_in = C:\R\Reservoirs\Data\DataNotYetUploadedToEDI\Raw_CTD\RawDownloads\101723_fcr50_S8188002.cnv
# alignctd_adv = dz/dtM 1.000, sbeox0PS 1.000, specc 1.000, c0uS/cm 1.000, flECO-AFL 1.000, turbWETntu0 1.000                                                                                                                        
# file_type = ascii
*END*
     -0.667      0.000     6.4464     63.395      0.595   0.469939    -4.5000    -0.1193    -2.1300    -2.0304 3.7081e+02     1.7860     -0.654     -0.949    14.5247 0.0000e+00
     -0.667      0.000     6.4494     63.455      0.593   0.468433    -4.5000    -0.1002    -2.1300    -2.0304 3.5457e+02     1.9363     -0.654     -0.949    14.5246 0.0000e+00
     -0.667      0.000     6.4521     63.541      0.598   0.472250    -4.5000    -0.1155    -2.1300    -2.0304 3.5534e+02     1.7860     -0.654     -0.949    14.5245 0.0000e+00
     -0.667      0.000     6.4547     63.651      0.606   0.478453     0.0000    -0.1079     0.0000     0.0000 3.8820e+02     1.1097     -0.654     -0.949    14.5244 0.0000e+00
     -0.667      0.000     6.4587     63.785      0.611   0.482765     0.0000    -0.0964     0.0000     0.0000 4.2263e+02     1.0496     -0.654     -0.949    14.5243 0.0000e+00
     -0.667      0.000     6.4649     63.940      0.613   0.484360     0.0000    -0.1002     0.0000     0.0000 3.4305e+02     1.1247     -0.654     -0.949    14.5242 0.0000e+00
     -0.667      0.000     6.4737     64.072      0.614   0.485639     0.0000    -0.1155     0.0000     0.0000 3.0001e+02     1.1548     -0.654     -0.949    14.5242 0.0000e+00
     -0.667      0.000     6.4848     64.108      0.616   0.486944     0.0000    -0.1079     0.0000     0.0000 2.7737e+02     0.0426     -0.654     -0.948    14.5241 0.0000e+00
     -0.666      0.001     6.4985     64.029      0.616   0.486646     0.0000    -0.1155     0.0000     0.0423 2.6163e+02     0.1478     -0.653     -0.948    14.5241 0.0000e+00
     -0.666      0.001     6.5143     63.871      0.616   0.486641     0.0000    -0.1155     0.0000     0.0423 2.4543e+02     0.1327     -0.653     -0.948    14.5241 0.0000e+00
     -0.666      0.000     6.5277     63.662      0.616   0.486928     0.0000    -0.0964     0.0000     0.0423 2.2093e+02     0.1628     -0.653     -0.948    14.5241 0.0000e+00
     -0.666      0.000     6.5315     63.422      0.614   0.485608     0.0000    -0.1231     0.0000     0.0423 2.3190e+02    -0.2430     -0.653     -0.948    14.5242 0.0000e+00
     -0.666      0.000     6.5234     63.178      0.613   0.484305     0.0000    -0.1193     0.0000     0.0423 2.3710e+02    -0.1378     -0.653     -0.948    14.5243 0.0000e+00
     -0.666      0.000     6.5072     62.975      0.613   0.484650     0.0000    -0.1041     0.0000     0.0423 2.3658e+02    -0.0627     -0.653     -0.948    14.5244 0.0000e+00
     -0.666      0.000     6.4860     62.850      0.616   0.486733     0.0000    -0.1079     0.0000     0.0423 2.3039e+02    -0.1979     -0.653     -0.947    14.5244 0.0000e+00
     -0.666      0.000     6.4615     62.807      0.619   0.489133     0.0000    -0.1269     0.0000     0.0423 2.3705e+02    -0.1078     -0.653     -0.947    14.5245 0.0000e+00
     -0.666      0.001     6.4367     62.811      0.618   0.488536     0.0000    -0.1346    -0.0426    -0.1269 2.4666e+02    -0.0777     -0.653     -0.947    14.5245 0.0000e+00
     -0.665      0.001     6.4160     62.824      0.613   0.484783     0.0000    -0.1346    -0.0426    -0.1269 2.5953e+02    -0.0627     -0.652     -0.947    14.5245 0.0000e+00
     -0.665      0.001     6.4033     62.837      0.608   0.480827     0.0000    -0.1079    -0.0426    -0.1269 2.5656e+02    -0.1078     -0.652     -0.947    14.5245 0.0000e+00
     -0.665      0.001     6.3989     62.852      0.604   0.477591     0.0000    -0.1002    -0.0426    -0.1269 1.7305e+02    -0.1378     -0.652     -0.946    14.5245 0.0000e+00
     -0.665      0.002     6.3993     62.877      0.600   0.474212     0.0000    -0.1155     0.0000    -0.0423 9.6770e+01    -0.0777     -0.652     -0.946    14.5246 0.0000e+00
     -0.664      0.002     6.4006     62.915      0.595   0.469788     0.0000    -0.1384     0.0000    -0.0423 2.2772e+01    -0.1528     -0.652     -0.945    14.5246 0.0000e+00
     -0.664      0.003     6.4019     62.964      0.591   0.467093     0.0000    -0.1117     0.0000    -0.0423 2.7888e+02    -0.2130     -0.651     -0.945    14.5246 0.0000e+00
     -0.663      0.004     6.4035     63.021      0.594   0.469365     0.0000    -0.1079     0.0000    -0.0423 3.1545e+02    -0.1378     -0.651     -0.944    14.5246 0.0000e+00
     -0.663      0.005     6.4060     63.080      0.599   0.473253     0.0000    -0.1308     0.0000    -0.0423 2.8907e+02    -0.1378     -0.650     -0.943    14.5245 0.0000e+00
     -0.662      0.006     6.4099     63.130      0.602   0.475841     0.0000    -0.1231     0.0000     0.0000 2.8089e+02    -0.2130     -0.649     -0.941    14.5245 0.0000e+00
     -0.660      0.008     6.4148     63.162      0.605   0.477819     0.0000    -0.0926     0.0000     0.0000 2.9388e+02    -0.1078     -0.647     -0.939    14.5245 0.0000e+00
     -0.658      0.010     6.4207     63.166      0.607   0.479715     0.0000    -0.1079     0.0000     0.0000 2.9388e+02    -0.1829     -0.646     -0.936    14.5244 0.0000e+00
     -0.656      0.013     6.4267     63.143      0.610   0.482033     0.0000    -0.0773     0.0000     0.0000 2.4860e+02    -0.1228     -0.643     -0.933    14.5244 0.0000e+00
     -0.653      0.016     6.4318     63.104      0.614   0.485393     0.0000    -0.1117     0.0000     0.0846 2.4495e+02    -0.2130     -0.640     -0.928    14.5243 0.0000e+00
     -0.648      0.021     6.4350     63.059      0.621   0.490689     0.0000    -0.1079     0.0000     0.0846 2.5891e+02    -0.1679     -0.636     -0.922    14.5242 0.0000e+00
     -0.643      0.027     6.4355     63.020      0.629   0.497357     0.0000     0.5750     0.0000     0.0846 2.6489e+02     0.8993     -0.631     -0.915    14.5240 0.0000e+00
     -0.636      0.035     6.4332     62.993      0.639   0.505199     0.0000     0.5521     0.0000     0.0846 2.7768e+02     0.9143     -0.624     -0.905    14.5239 0.0000e+00
     -0.627      0.044     6.4292     62.980      0.648   0.512352     0.0000     0.5788    -0.0426    -0.0423 2.7029e+02     0.8091     -0.615     -0.892    14.5237 0.0000e+00
     -0.616      0.056     6.4247     62.980      0.651   0.514790     0.0000     0.5788    -0.0426    -0.0423 2.7390e+02     0.7790     -0.604     -0.876    14.5235 0.0000e+00
     -0.601      0.068     6.4207     62.991      0.651   0.515142     0.0000     2.8448    -0.0426    -0.0423 2.7635e+02     2.4023     -0.590     -0.855    14.5233 0.0000e+00
     -0.582      0.080     6.4180     63.010      0.654   0.517456     0.0000     2.8142    -0.0426    -0.0423 2.7177e+02     2.4023     -0.571     -0.828    14.5230 0.0000e+00
     -0.559      0.091     6.4167     63.036      0.660   0.522348     1.3500     2.8295     0.4686     0.1692 2.6790e+02     2.2971     -0.548     -0.795    14.5227 0.0000e+00
     -0.532      0.099     6.4168     63.079      0.671   0.531124     1.3500     2.8371     0.4686     0.1692 2.6621e+02     2.3572     -0.522     -0.758    14.5224 0.0000e+00
     -0.504      0.103     6.4180     63.143      0.690   0.546123     1.3500     3.3826     0.4686     0.1692 2.6049e+02     2.4023     -0.494     -0.717    14.5220 0.0000e+00
     -0.475      0.103     6.4199     63.225      0.722   0.571346     1.3500     3.3864     0.4686     0.1692 2.6288e+02     2.3271     -0.466     -0.676    14.5217 0.0000e+00
     -0.447      0.098     6.4226     63.325      0.776   0.613517     1.3500     3.3750     0.4686     0.1692 2.6391e+02     2.3271     -0.438     -0.635    14.5214 0.0000e+00
     -0.421      0.090     6.4270     63.440      0.855   0.675975     3.1500     3.3903     0.0852     0.7191 2.6083e+02     2.3271     -0.412     -0.598    14.5211 0.0000e+00
     -0.398      0.080     6.4335     63.558      0.951   0.751650     3.1500     3.6878     0.0852     0.7191 2.6936e+02     2.2069     -0.390     -0.566    14.5209 0.0000e+00
     -0.379      0.068     6.4420     63.667      1.059   0.836995     3.1500     3.6726     0.0852     0.7191 2.6174e+02     2.2520     -0.372     -0.540    14.5207 0.0000e+00
     -0.364      0.057     6.4522     63.759      1.198   0.946860     3.1500     3.6954     0.0852     0.7191 2.4357e+02     2.3722     -0.357     -0.519    14.5205 0.0000e+00
     -0.353      0.048     6.4639     63.831      1.400   1.106590     3.1500     3.7031     0.0426     0.8883 2.3751e+02     2.3271     -0.346     -0.502    14.5203 0.0000e+00
     -0.343      0.040     6.4760     63.883      1.661   1.313302     3.1500     3.6993     0.0426     0.8883 2.3357e+02     2.2971     -0.336     -0.488    14.5201 0.0000e+00
     -0.334      0.034     6.4872     63.915      1.935   1.529194     3.1500     3.6954     0.0426     0.8883 2.2189e+02     2.2069     -0.328     -0.476    14.5198 0.0000e+00
     -0.327      0.030     6.4966     63.926      2.205   1.742634     3.1500     3.6687     0.0426     0.8883 2.2180e+02     2.3422     -0.321     -0.465    14.5196 0.0000e+00
     -0.320      0.027     6.5039     63.924      2.494   1.970995     3.2400     3.7031     0.0426     0.9729 2.2652e+02     2.3271     -0.314     -0.455    14.5194 0.0000e+00
     -0.313      0.026     6.5092     63.922      2.781   2.198059     3.2400     3.6344     0.0426     0.9729 2.1227e+02     2.4173     -0.308     -0.446    14.5192 0.0000e+00
     -0.307      0.024     6.5125     63.926      3.021   2.387491     3.2400     3.6230     0.0426     0.9729 2.5756e+02     2.2971     -0.302     -0.438    14.5191 0.0000e+00
     -0.302      0.023     6.5137     63.938      3.219   2.544327     3.2400     3.6497     0.0426     0.9729 3.5089e+02     2.2971     -0.296     -0.429    14.5190 0.0000e+00
     -0.296      0.022     6.5135     63.950      3.409   2.694573     3.2400     3.6382     0.0852     0.8883 3.8795e+02     2.2670     -0.290     -0.421    14.5190 0.0000e+00
     -0.290      0.021     6.5133     63.955      3.601   2.846656     3.2400     3.6306     0.0852     0.8883 4.0934e+02     2.2820     -0.284     -0.412    14.5189 0.0000e+00
     -0.285      0.021     6.5137     63.958      3.795   2.999607     3.2400     3.6382     0.0852     0.8883 4.2512e+02     2.3271     -0.279     -0.405    14.5190 0.0000e+00
     -0.280      0.021     6.5149     63.961      3.981   3.146757     3.2400     3.6459     0.0852     0.8883 4.3144e+02     2.2971     -0.274     -0.398    14.5190 0.0000e+00
     -0.275      0.021     6.5161     63.952      4.139   3.271978     3.2400     3.6230     0.0852     0.8883 4.3853e+02     2.2971     -0.270     -0.391    14.5191 0.0000e+00
     -0.270      0.022     6.5165     63.937      4.247   3.357252     3.2400     3.4284     0.0426     0.8037 4.5563e+02     2.2520     -0.265     -0.384    14.5192 0.0000e+00
     -0.265      0.024     6.5168     63.933      4.311   3.407520     3.2400     3.4551     0.0426     0.8037 4.5405e+02     2.2670     -0.260     -0.376    14.5194 0.0000e+00
     -0.258      0.025     6.5171     63.936      4.357   3.444098     3.2400     3.4322     0.0426     0.8037 4.4535e+02     2.1919     -0.253     -0.367    14.5197 0.0000e+00
     -0.251      0.026     6.5161     63.942      4.398   3.476740     3.2400     3.4513     0.0426     0.8037 4.4294e+02     2.2069     -0.246     -0.357    14.5202 0.0000e+00
     -0.243      0.027     6.5145     63.957      4.440   3.510196     3.2400     3.7450     0.0852     0.8883 4.4150e+02     2.3121     -0.239     -0.346    14.5209 0.0000e+00
     -0.236      0.028     6.5139     63.974      4.489   3.549431     3.2400     3.7641     0.0852     0.8883 4.4054e+02     2.2069     -0.232     -0.336    14.5220 0.0000e+00
     -0.230      0.028     6.5140     63.991      4.549   3.597000     3.2400     3.7641     0.0852     0.8883 4.3711e+02     2.2069     -0.225     -0.327    14.5233 0.0000e+00
     -0.223      0.029     6.5144     64.009      4.621   3.653722     3.2400     3.7679     0.0852     0.8883 4.4361e+02     2.2069     -0.219     -0.317    14.5250 0.0000e+00
     -0.216      0.030     6.5156     64.024      4.698   3.714950     3.2400     3.8709     0.0426     0.8883 4.4496e+02     2.1768     -0.212     -0.307    14.5269 0.0000e+00
     -0.208      0.031     6.5170     64.035      4.768   3.771303     3.2400     3.8747     0.0426     0.8883 4.4332e+02     2.3271     -0.204     -0.296    14.5292 0.0000e+00
     -0.200      0.032     6.5183     64.052      4.827   3.818036     3.2400     3.8862     0.0426     0.8883 4.3863e+02     2.3121     -0.196     -0.284    14.5319 0.0000e+00
     -0.191      0.032     6.5198     64.078      4.881   3.861678     3.2400     3.8633     0.0426     0.8883 4.3088e+02     2.2670     -0.188     -0.272    14.5349 0.0000e+00
     -0.182      0.031     6.5208     64.109      4.937   3.905956     3.2400     3.8099     0.0426     1.0152 4.1498e+02     2.2971     -0.179     -0.259    14.5384 0.0000e+00
     -0.174      0.029     6.5213     64.145      4.992   3.950814     3.2400     3.8366     0.0426     1.0152 4.0553e+02     2.3271     -0.170     -0.247    14.5426 0.0000e+00
     -0.166      0.026     6.5224     64.180      5.049   3.996350     3.2400     3.8519     0.0426     1.0152 4.0325e+02     2.3121     -0.163     -0.236    14.5474 0.0000e+00
     -0.159      0.023     6.5243     64.210      5.102   4.038886     3.2400     3.8099     0.0426     1.0152 4.0509e+02     2.2971     -0.156     -0.227    14.5528 0.0000e+00
     -0.154      0.019     6.5266     64.234      5.150   4.077900     3.2400     3.8671     0.0426     1.0152 4.0908e+02     2.2069     -0.151     -0.219    14.5590 0.0000e+00
     -0.150      0.016     6.5293     64.241      5.196   4.115888     3.2400     3.8747     0.0426     0.9729 4.1220e+02     2.2971     -0.147     -0.214    14.5658 0.0000e+00
     -0.147      0.013     6.5318     64.232      5.239   4.151112     3.2400     3.8519     0.0426     0.9729 4.1399e+02     2.3121     -0.144     -0.209    14.5734 0.0000e+00
     -0.145      0.010     6.5337     64.207      5.276   4.181103     3.2400     3.8824     0.0426     0.9729 4.1345e+02     2.2670     -0.142     -0.206    14.5814 0.0000e+00
     -0.142      0.009     6.5349     64.162      5.311   4.209903     3.2400     4.0502     0.0426     0.9729 4.1274e+02     2.2971     -0.140     -0.202    14.5899 0.0000e+00
     -0.140      0.008     6.5344     64.102      5.349   4.241237     3.2400     4.0578     0.0426     1.0152 4.1283e+02     2.3121     -0.138     -0.199    14.5987 0.0000e+00
     -0.138      0.007     6.5322     64.042      5.394   4.277528     3.2400     4.0502     0.0426     1.0152 4.1175e+02     2.2670     -0.136     -0.197    14.6078 0.0000e+00
     -0.137      0.006     6.5284     63.991      5.442   4.316588     3.2400     4.0311     0.0426     1.0152 4.1283e+02     2.2370     -0.135     -0.195    14.6171 0.0000e+00
     -0.135      0.006     6.5225     63.950      5.484   4.351037     3.2400     3.9434     0.0426     1.0152 4.1247e+02     2.2971     -0.133     -0.193    14.6265 0.0000e+00
     -0.134      0.005     6.5150     63.921      5.521   4.382150     3.2400     3.9472     0.0852     0.9729 4.1202e+02     2.4023     -0.132     -0.191    14.6362 0.0000e+00
     -0.133      0.005     6.5075     63.899      5.560   4.414270     3.2400     3.9472     0.0852     0.9729 4.0997e+02     2.3121     -0.130     -0.189    14.6461 0.0000e+00
     -0.131      0.004     6.5008     63.877      5.601   4.448052     3.2400     3.9548     0.0852     0.9729 4.0925e+02     2.3722     -0.129     -0.187    14.6564 0.0000e+00
     -0.131      0.003     6.4952     63.850      5.651   4.488550     3.2400     3.9739     0.0852     0.9729 4.1148e+02     2.4023     -0.128     -0.186    14.6671 0.0000e+00
     -0.130      0.003     6.4907     63.817      5.722   4.546563     3.2400     3.9243     0.0852     0.9729 4.1318e+02     2.2971     -0.128     -0.185    14.6785 0.0000e+00
     -0.130      0.002     6.4867     63.781      5.835   4.637562     3.2400     3.9243     0.0852     1.0152 4.1426e+02     2.3422     -0.127     -0.185    14.6903 0.0000e+00
     -0.129      0.002     6.4827     63.744      5.972   4.748239     3.2400     3.9472     0.0852     1.0152 4.1462e+02     2.2971     -0.127     -0.184    14.7025 0.0000e+00
     -0.129      0.001     6.4783     63.711      5.908   4.698481     3.2400     3.9358     0.0852     1.0152 4.1498e+02     2.2971     -0.127     -0.183    14.7147 0.0000e+00
     -0.128      0.001     6.4732     63.685      5.471   4.352404     3.2400     3.9091     0.0852     1.0152 4.1498e+02     2.3572     -0.126     -0.183    14.7268 0.0000e+00
     -0.128      0.001     6.4679     63.671      4.904   3.902492     3.2400     3.9014     0.0426     0.9729 4.1553e+02     2.2820     -0.126     -0.182    14.7388 0.0000e+00
     -0.128      0.001     6.4625     63.670      4.444   3.537265     3.2400     3.9358     0.0426     0.9729 4.1580e+02     2.3271     -0.126     -0.182    14.7508 0.0000e+00
     -0.128      0.000     6.4573     63.677      4.102   3.266110     3.2400     4.0578     0.0426     0.9729 4.1670e+02     2.2520     -0.125     -0.182    14.7633 0.0000e+00
     -0.128      0.000     6.4528     63.686      3.854   3.070109     3.2400     4.0807     0.0426     0.9729 4.1625e+02     2.3422     -0.125     -0.182    14.7767 0.0000e+00
     -0.128      0.000     6.4494     63.695      3.678   2.930611     3.2400     4.0578     0.0426     0.9306 4.1688e+02     2.2670     -0.125     -0.182    14.7910 0.0000e+00
     -0.128      0.000     6.4474     63.701      3.557   2.834143     3.2400     4.0464     0.0426     0.9306 4.1670e+02     2.2820     -0.125     -0.182    14.8050 0.0000e+00
     -0.128      0.000     6.4463     63.704      3.474   2.768822     3.2400     4.0083     0.0426     0.9306 4.1670e+02     2.2820     -0.125     -0.182    14.8175 0.0000e+00
     -0.128      0.000     6.4457     63.704      3.414   2.721185     3.2400     3.9930     0.0426     0.9306 4.1688e+02     2.2219     -0.125     -0.182    14.8280 0.0000e+00
     -0.128      0.000     6.4455     63.702      3.360   2.678528     3.2400     4.0083     0.0426     1.0152 4.1797e+02     2.3271     -0.125     -0.182    14.8363 0.0000e+00
     -0.128      0.000     6.4452     63.700      3.304   2.633431     3.2400     3.9930     0.0426     1.0152 4.1715e+02     2.3121     -0.125     -0.182    14.8426 0.0000e+00
     -0.128      0.000     6.4449     63.697      3.249   2.589686     3.2400     3.9281     0.0426     1.0152 4.1752e+02     2.3722     -0.125     -0.182    14.8473 0.0000e+00
     -0.128      0.000     6.4444     63.695      3.206   2.555402     3.2400     3.9091     0.0426     1.0152 4.1752e+02     2.4023     -0.125     -0.181    14.8508 0.0000e+00
     -0.128      0.000     6.4439     63.693      3.173   2.529345     3.2400     3.9548     0.0426     1.0152 4.1788e+02     2.3722     -0.125     -0.181    14.8534 0.0000e+00
     -0.128      0.000     6.4434     63.692      3.147   2.508521     3.2400     3.9434     0.0426     0.8883 4.1824e+02     2.3873     -0.125     -0.181    14.8552 0.0000e+00
     -0.128      0.000     6.4429     63.695      3.130   2.495286     3.2400     3.9777     0.0426     0.8883 4.1797e+02     2.4173     -0.125     -0.181    14.8566 0.0000e+00
     -0.127      0.000     6.4425     63.699      3.128   2.494021     3.2400     4.0159     0.0426     0.8883 4.1870e+02     2.4323     -0.125     -0.181    14.8575 0.0000e+00
     -0.127      0.000     6.4422     63.703      3.151   2.512297     3.2400     4.0006     0.0426     0.8883 4.1943e+02     2.3271     -0.125     -0.181    14.8582 0.0000e+00
     -0.127      0.000     6.4422     63.707      3.205   2.554988     3.2400     3.9930     0.0426     1.0575 4.1815e+02     2.3121     -0.125     -0.181    14.8588 0.0000e+00
     -0.127      0.000     6.4424     63.712      3.288   2.621614     3.2400     3.8671     0.0426     1.0575 4.1824e+02     2.2670     -0.124     -0.181    14.8591 0.0000e+00
     -0.127      0.000     6.4428     63.718      3.382   2.696327     3.2400     3.8519     0.0426     1.0575 4.1824e+02     2.2971     -0.124     -0.180    14.8594 0.0000e+00
     -0.127      0.000     6.4431     63.729      3.442   2.743687     3.2400     3.8709     0.0426     1.0575 4.1788e+02     2.3572     -0.124     -0.180    14.8595 0.0000e+00
     -0.127      0.000     6.4435     63.745      3.448   2.748638     3.2400     3.8709     0.0426     1.0152 4.1815e+02     2.2670     -0.124     -0.180    14.8596 0.0000e+00
     -0.127      0.000     6.4440     63.758      3.417   2.724366     3.2400     3.8900     0.0426     1.0152 4.1752e+02     2.3873     -0.124     -0.180    14.8597 0.0000e+00
     -0.127      0.000     6.4446     63.762      3.359   2.678239     3.2400     3.8786     0.0426     1.0152 4.1861e+02     2.3722     -0.124     -0.180    14.8597 0.0000e+00
     -0.126      0.000     6.4456     63.753      3.283   2.617730     3.2400     3.8671     0.0426     1.0152 4.1724e+02     2.2670     -0.124     -0.180    14.8597 0.0000e+00
     -0.126      0.000     6.4473     63.727      3.204   2.554387     3.2400     3.8595     0.0852     0.8883 4.1652e+02     2.2971     -0.124     -0.180    14.8596 0.0000e+00
     -0.126      0.000     6.4486     63.674      3.125   2.491091     3.2400     3.9587     0.0852     0.8883 4.1715e+02     2.2971     -0.124     -0.180    14.8595 0.0000e+00
     -0.126      0.000     6.4491     63.585      3.049   2.430736     3.2400     3.9587     0.0852     0.8883 4.1634e+02     2.3722     -0.124     -0.179    14.8593 0.0000e+00
     -0.126      0.000     6.4483     63.398      2.984   2.378978     3.2400     3.9243     0.0852     0.8883 4.1734e+02     2.2971     -0.124     -0.179    14.8590 0.0000e+00
     -0.126      0.000     6.4456     62.987      2.933   2.337834     3.2400     3.9358     0.0852     0.8883 4.1571e+02     2.3422     -0.124     -0.179    14.8588 0.0000e+00
     -0.126      0.000     6.4403     62.273      2.888   2.302263     3.2400     3.9777     0.0852     1.1844 4.1616e+02     2.2670     -0.124     -0.179    14.8585 0.0000e+00
     -0.126      0.000     6.4314     61.238      2.843   2.266735     3.2400     3.9930     0.0852     1.1844 4.1589e+02     2.2670     -0.123     -0.179    14.8582 0.0000e+00
     -0.125      0.000     6.4125     59.898      2.802   2.233639     3.2400     3.9854     0.0852     1.1844 4.1553e+02     2.3422     -0.123     -0.179    14.8579 0.0000e+00
     -0.125      0.000     6.3710     58.314      2.767   2.206014     3.2400     3.9777     0.0852     1.1844 4.1625e+02     2.2971     -0.123     -0.178    14.8576 0.0000e+00
     -0.125      0.000     6.2988     56.579      2.740   2.184402     3.2400     3.8862     0.0852     0.9729 4.1480e+02     2.3271     -0.123     -0.178    14.8573 0.0000e+00
     -0.125      0.000     6.1942     54.808      2.718   2.166994     3.2400     3.8786     0.0852     0.9729 4.1571e+02     2.3422     -0.123     -0.178    14.8570 0.0000e+00
     -0.125      0.000     6.0587     53.142      2.701   2.153102     3.2400     3.8938     0.0852     0.9729 4.1480e+02     2.2971     -0.123     -0.178    14.8566 0.0000e+00
     -0.125      0.000     5.8985     51.691      2.693   2.146933     3.2400     3.8900     0.0852     0.9729 4.1616e+02     2.2670     -0.123     -0.178    14.8563 0.0000e+00
     -0.125      0.000     5.7230     50.486      2.698   2.150794     3.2400     3.9854     0.0426     1.0575 4.1589e+02     2.3422     -0.123     -0.178    14.8561 0.0000e+00
     -0.125      0.000     5.5439     49.511      2.722   2.169670     3.2400     4.0006     0.0426     1.0575 4.1480e+02     2.3271     -0.123     -0.178    14.8558 0.0000e+00
     -0.125      0.000     5.3754     48.744      2.771   2.208594     3.2400     3.9930     0.0426     1.0575 4.1516e+02     2.4323     -0.122     -0.178    14.8555 0.0000e+00
     -0.125      0.001     5.2286     48.158      2.843   2.266083     3.2400     4.0006     0.0426     1.0575 4.1435e+02     2.2971     -0.122     -0.177    14.8552 0.0000e+00
     -0.125      0.001     5.1068     47.723      2.925   2.331763     3.2400     3.8671     0.0426     1.0575 4.1372e+02     2.2971     -0.122     -0.177    14.8549 0.0000e+00
     -0.125      0.000     5.0082     47.413      2.995   2.387556     3.2400     3.8862     0.0426     1.0575 4.1381e+02     2.3271     -0.122     -0.177    14.8547 0.0000e+00
     -0.125      0.000     4.9306     47.199      3.044   2.426590     3.2400     3.8747     0.0426     1.0575 4.1336e+02     2.2069     -0.122     -0.177    14.8545 0.0000e+00
     -0.124      0.000     4.8714     47.051      3.080   2.455320     3.2400     3.8709     0.0426     1.0575 4.1381e+02     2.3121     -0.122     -0.177    14.8543 0.0000e+00
     -0.124      0.000     4.8274     46.961      3.108   2.477453     3.2400     3.9472     0.0426     1.0575 4.1292e+02     2.2820     -0.122     -0.177    14.8542 0.0000e+00
     -0.124      0.000     4.7961     46.924      3.130   2.494935     3.2400     3.9358     0.0426     1.0575 4.1274e+02     2.2820     -0.122     -0.177    14.8541 0.0000e+00
     -0.124      0.000     4.7744     46.915      3.152   2.512430     3.2400     3.9243     0.0426     1.0575 4.1354e+02     2.3121     -0.122     -0.177    14.8540 0.0000e+00
     -0.124      0.001     4.7595     46.909      3.170   2.526692     3.2400     3.9243     0.0426     1.0575 4.1327e+02     2.3271     -0.122     -0.177    14.8538 0.0000e+00
     -0.124      0.001     4.7504     46.886      3.174   2.529661     3.2400     3.9243     0.0426     1.0575 4.1381e+02     2.2971     -0.122     -0.176    14.8537 0.0000e+00
     -0.124      0.001     4.7466     46.833      3.164   2.522129     3.2400     3.8938     0.0852     0.9729 4.1274e+02     2.2971     -0.121     -0.176    14.8535 0.0000e+00
     -0.124      0.001     4.7457     46.746      3.149   2.509996     3.2400     3.9358     0.0852     0.9729 4.1327e+02     2.4624     -0.121     -0.176    14.8534 0.0000e+00
     -0.124      0.001     4.7451     46.625      3.129   2.493983     3.2400     3.9243     0.0852     0.9729 4.1247e+02     2.3271     -0.121     -0.176    14.8533 0.0000e+00
     -0.124      0.000     4.7428     46.467      3.104   2.473773     3.2400     4.0006     0.0852     0.9729 4.1247e+02     2.3422     -0.121     -0.176    14.8533 0.0000e+00
     -0.123      0.000     4.7374     46.274      3.076   2.451886     3.2400     3.9777     0.0000     1.0998 4.1265e+02     2.2670     -0.121     -0.176    14.8532 0.0000e+00
     -0.123      0.000     4.7286     46.052      3.049   2.430394     3.2400     4.0083     0.0000     1.0998 4.1193e+02     2.3422     -0.121     -0.176    14.8532 0.0000e+00
     -0.123      0.000     4.7164     45.818      3.025   2.411477     3.2400     3.9968     0.0000     1.0998 4.1247e+02     2.3271     -0.121     -0.176    14.8531 0.0000e+00
     -0.123      0.000     4.7005     45.591      3.008   2.397998     3.2400     3.9243     0.0000     1.0998 4.1202e+02     2.0416     -0.121     -0.175    14.8531 0.0000e+00
     -0.123      0.000     4.6809     45.386      3.006   2.396250     3.2400     3.9358     0.0852     1.0575 4.1166e+02     2.0716     -0.121     -0.175    14.8530 0.0000e+00
     -0.123      0.000     4.6585     45.224      3.026   2.411698     3.2400     3.9320     0.0852     1.0575 4.1193e+02     2.0265     -0.121     -0.175    14.8530 0.0000e+00
     -0.123      0.001     4.6348     45.135      3.064   2.442530     3.2400     3.9472     0.0852     1.0575 4.1229e+02     1.9514     -0.121     -0.175    14.8530 0.0000e+00
     -0.123      0.001     4.6118     45.161      3.110   2.479173     3.2400     3.9930     0.0852     1.0575 4.1336e+02     2.4925     -0.121     -0.175    14.8529 0.0000e+00
     -0.123      0.002     4.5912     45.246      3.166   2.523488     3.2400     3.9930     0.0852     1.0575 4.1318e+02     2.5676     -0.121     -0.175    14.8528 0.0000e+00
     -0.122      0.003     4.5748     45.240      3.251   2.591248     3.2400     3.9968     0.0426     1.0998 4.1184e+02     2.5376     -0.120     -0.174    14.8526 0.0000e+00
     -0.121      0.003     4.5658     45.102      3.341   2.662951     3.2400     3.9892     0.0426     1.0998 4.1175e+02     2.5526     -0.119     -0.173    14.8524 0.0000e+00
     -0.120      0.004     4.5685     44.865      3.403   2.712242     3.2400     4.0006     0.0426     1.0998 4.1068e+02     2.2971     -0.118     -0.171    14.8519 0.0000e+00
     -0.119      0.004     4.5772     44.548      3.448   2.748309     3.2400     3.9777     0.0426     1.0998 4.1068e+02     2.2520     -0.117     -0.169    14.8509 0.0000e+00
     -0.118      0.005     4.5767     44.176      3.466   2.762974     3.2400     3.9854     0.0426     0.9729 4.1068e+02     2.1768     -0.116     -0.168    14.8496 0.0000e+00
     -0.116      0.005     4.5629     43.780      3.426   2.730487     3.2400     3.9739     0.0426     0.9729 4.0872e+02     2.2971     -0.114     -0.166    14.8484 0.0000e+00
     -0.115      0.005     4.5389     43.401      3.332   2.656027     3.2400     4.0083     0.0426     0.9729 4.0863e+02     2.2520     -0.113     -0.164    14.8475 0.0000e+00
     -0.114      0.005     4.5069     43.104      3.226   2.571149     3.2400     4.0006     0.0426     0.9729 4.0979e+02     2.2971     -0.112     -0.162    14.8472 0.0000e+00
     -0.113      0.004     4.4693     42.929      3.130   2.494742     3.2400     4.0083     0.0426     0.9729 4.1068e+02     2.2219     -0.111     -0.161    14.8471 0.0000e+00
     -0.112      0.004     4.4292     42.840      3.044   2.426204     3.2400     3.9968     0.0426     0.9729 4.0801e+02     2.2520     -0.110     -0.159    14.8474 0.0000e+00
     -0.111      0.004     4.3908     42.793      2.967   2.365055     3.2400     4.0235     0.0426     0.9729 4.0589e+02     2.3271     -0.109     -0.158    14.8478 0.0000e+00
     -0.109      0.004     4.3607     42.780      2.904   2.314762     3.2400     4.0159     0.0426     0.9729 4.0422e+02     2.3572     -0.107     -0.156    14.8483 0.0000e+00
     -0.108      0.003     4.3429     42.805      2.850   2.271799     3.2400     4.0197     0.0426     1.0575 4.0448e+02     2.3271     -0.106     -0.154    14.8491 0.0000e+00
     -0.108      0.003     4.3338     42.873      2.796   2.228664     3.2400     4.0006     0.0426     1.0575 4.0483e+02     2.2670     -0.106     -0.153    14.8500 0.0000e+00
     -0.107      0.002     4.3289     42.985      2.747   2.189672     3.2400     4.0655     0.0426     1.0575 4.0615e+02     2.6127     -0.105     -0.152    14.8512 0.0000e+00
     -0.107      0.002     4.3276     43.138      2.710   2.160245     3.2400     4.0426     0.0426     1.0575 4.0615e+02     2.6127     -0.105     -0.152    14.8525 0.0000e+00
     -0.106      0.001     4.3299     43.325      2.675   2.132534     3.2400     4.0655     0.0426     1.0575 4.0633e+02     2.6127     -0.104     -0.151    14.8540 0.0000e+00
     -0.106      0.001     4.3366     43.544      2.628   2.095196     3.3300     4.0388     0.0852     0.9729 4.0606e+02     2.5075     -0.104     -0.151    14.8558 0.0000e+00
     -0.106      0.001     4.3478     43.785      2.571   2.050138     3.3300     4.0693     0.0852     0.9729 4.0624e+02     2.3271     -0.104     -0.151    14.8576 0.0000e+00
     -0.106      0.001     4.3631     44.041      2.515   2.005117     3.3300     4.0655     0.0852     0.9729 4.0615e+02     2.4023     -0.104     -0.150    14.8596 0.0000e+00
     -0.106      0.000     4.3819     44.300      2.458   1.959991     3.3300     4.0502     0.0852     0.9729 4.0686e+02     2.2670     -0.104     -0.150    14.8616 0.0000e+00
     -0.106      0.000     4.4038     44.549      2.396   1.910635     3.2400     4.0617     0.0426     0.9729 4.0686e+02     2.3422     -0.104     -0.150    14.8636 0.0000e+00
     -0.105      0.000     4.4280     44.777      2.325   1.853775     3.2400     3.9091     0.0426     0.9729 4.0659e+02     2.2971     -0.103     -0.150    14.8655 0.0000e+00
     -0.105      0.000     4.4537     44.980      2.250   1.794020     3.2400     3.9243     0.0426     0.9729 4.0686e+02     2.3271     -0.103     -0.150    14.8674 0.0000e+00
     -0.105      0.000     4.4798     45.152      2.178   1.737185     3.2400     3.9205     0.0426     0.9729 4.0642e+02     2.2219     -0.103     -0.150    14.8693 0.0000e+00
     -0.105      0.000     4.5048     45.295      2.111   1.683932     3.2400     3.9129     0.0426     1.0575 4.0704e+02     2.3271     -0.103     -0.150    14.8711 0.0000e+00
     -0.105      0.000     4.5277     45.408      2.051   1.635879     3.2400     3.8213     0.0426     1.0575 4.0774e+02     2.3121     -0.103     -0.150    14.8728 0.0000e+00
     -0.105      0.000     4.5479     45.495      1.996   1.592074     3.2400     3.8290     0.0426     1.0575 4.0721e+02     2.3271     -0.103     -0.150    14.8745 0.0000e+00
     -0.105      0.000     4.5652     45.559      1.947   1.552700     3.2400     3.8442     0.0426     1.0575 4.0766e+02     2.3271     -0.103     -0.150    14.8762 0.0000e+00
     -0.105      0.000     4.5794     45.605      1.909   1.523074     3.3300     3.8290     0.0852     0.9729 4.0712e+02     2.4023     -0.103     -0.150    14.8778 0.0000e+00
     -0.105      0.000     4.5908     45.640      1.889   1.507160     3.3300     3.8023     0.0852     0.9729 4.0792e+02     2.2670     -0.103     -0.150    14.8793 0.0000e+00
     -0.105      0.000     4.5993     45.665      1.889   1.506646     3.3300     3.8023     0.0852     0.9729 4.0686e+02     2.3722     -0.103     -0.150    14.8809 0.0000e+00
     -0.105      0.000     4.6057     45.683      1.912   1.525349     3.3300     3.7984     0.0852     0.9729 4.0730e+02     2.2520     -0.103     -0.150    14.8824 0.0000e+00
     -0.105     -0.001     4.6102     45.699      1.968   1.570233     3.3300     3.7832     0.0852     0.9729 4.0766e+02     2.3121     -0.103     -0.150    14.8839 0.0000e+00
     -0.106     -0.001     4.6136     45.719      2.070   1.651290     3.2400     4.0731     0.0852     1.0575 4.0801e+02     2.3271     -0.104     -0.150    14.8854 0.0000e+00
     -0.106     -0.001     4.6160     45.741      2.234   1.782228     3.2400     4.0502     0.0852     1.0575 4.0686e+02     2.3722     -0.104     -0.150    14.8868 0.0000e+00
     -0.106     -0.001     4.6176     45.756      2.482   1.980167     3.2400     4.0464     0.0852     1.0575 4.0704e+02     2.3572     -0.104     -0.151    14.8881 0.0000e+00
     -0.106     -0.001     4.6191     45.758      2.835   2.262302     3.2400     4.0655     0.0852     1.0575 4.0553e+02     2.3121     -0.104     -0.151    14.8895 0.0000e+00
     -0.106     -0.001     4.6210     45.752      3.237   2.583253     3.3300     3.9816     0.0426     0.9306 4.0589e+02     2.2971     -0.104     -0.151    14.8908 0.0000e+00
     -0.106      0.000     4.6231     45.744      3.582   2.858559     3.3300     3.9739     0.0426     0.9306 4.0553e+02     2.3271     -0.104     -0.151    14.8921 0.0000e+00
     -0.106      0.000     4.6245     45.725      3.813   3.042995     3.3300     4.0006     0.0426     0.9306 4.0571e+02     2.2670     -0.104     -0.152    14.8933 0.0000e+00
     -0.107     -0.000     4.6246     45.703      3.908   3.118510     3.3300     3.9930     0.0426     0.9306 4.0545e+02     2.2520     -0.105     -0.152    14.8946 0.0000e+00
     -0.107 3.3983e-07     4.6239     45.689      3.916   3.125019     3.2400     3.8442     0.0852     1.0152 4.0527e+02     2.3722     -0.105     -0.152    14.8958 0.0000e+00
     -0.107 4.3692e-07     4.6229     45.679      3.899   3.111713     3.2400     3.8633     0.0852     1.0152 4.0483e+02     2.2971     -0.105     -0.152    14.8971 0.0000e+00
     -0.107 5.6175e-07     4.6209     45.670      3.865   3.084932     3.2400     3.8671     0.0852     1.0152 4.0404e+02     2.3572     -0.105     -0.152    14.8983 0.0000e+00
     -0.107 7.2226e-07     4.6185     45.677      3.862   3.083013     3.2400     3.8595     0.0852     1.0152 4.0395e+02     2.2670     -0.105     -0.152    14.8994 0.0000e+00
     -0.107 9.2861e-07     4.6170     45.703      3.920   3.129173     3.2400     3.8442     0.0426     0.9306 4.0386e+02     2.3722     -0.105     -0.152    14.9006 0.0000e+00
     -0.107      0.000     4.6159     45.745      3.957   3.158604     3.2400     3.7946     0.0426     0.9306 4.0404e+02     2.3271     -0.105     -0.152    14.9017 0.0000e+00
     -0.107      0.000     4.6149     45.822      3.889   3.104012     3.2400     3.8023     0.0426     0.9306 4.0316e+02     2.3422     -0.105     -0.152    14.9029 0.0000e+00
     -0.107      0.000     4.6155     45.969      3.719   2.968636     3.2400     3.8366     0.0426     0.9306 4.0159e+02     2.3873     -0.105     -0.152    14.9041 0.0000e+00
     -0.107      0.000     4.6180     46.222      3.524   2.813268     3.2400     3.7832     0.0426     0.9306 4.0124e+02     2.3271     -0.105     -0.152    14.9053 0.0000e+00
     -0.107      0.000     4.6221     46.632      3.364   2.685459     3.2400     3.9320     0.0426     0.9306 4.0133e+02     2.4323     -0.105     -0.152    14.9067 0.0000e+00
     -0.107      0.000     4.6297     47.215      3.237   2.584740     3.2400     3.9434     0.0426     0.9306 4.0107e+02     2.2971     -0.105     -0.152    14.9082 0.0000e+00
     -0.107      0.000     4.6444     47.925      3.153   2.517868     3.2400     3.9510     0.0426     0.9306 4.0002e+02     2.3572     -0.105     -0.152    14.9099 0.0000e+00
     -0.107      0.000     4.6698     48.684      3.127   2.496670     3.2400     3.9091     0.0426     0.9306 4.0028e+02     2.3722     -0.105     -0.152    14.9117 0.0000e+00
     -0.107      0.000     4.7109     49.405      3.128   2.497696     3.2400     3.8595     0.0426     1.0152 3.9976e+02     2.2820     -0.105     -0.152    14.9137 0.0000e+00
     -0.107      0.000     4.7697     49.996      3.130   2.499471     3.2400     3.8824     0.0426     1.0152 3.9933e+02     2.3572     -0.105     -0.152    14.9159 0.0000e+00
     -0.107      0.000     4.8411     50.385      3.119   2.490604     3.2400     3.8633     0.0426     1.0152 3.9881e+02     2.2971     -0.105     -0.152    14.9182 0.0000e+00
     -0.107      0.000     4.9175     50.537      3.081   2.460820     3.2400     3.8900     0.0426     1.0152 3.9881e+02     2.2069     -0.105     -0.152    14.9208 0.0000e+00
     -0.107      0.000     4.9901     50.451      3.042   2.429861     3.2400     3.8519     0.0426     0.9729 3.9829e+02     2.3121     -0.105     -0.152    14.9235 0.0000e+00
     -0.107      0.000     5.0494     50.161      3.011   2.405288     3.2400     3.8519     0.0426     0.9729 3.9751e+02     2.2370     -0.105     -0.152    14.9263 0.0000e+00
     -0.107      0.000     5.0883     49.730      2.960   2.364730     3.2400     3.8786     0.0426     0.9729 3.9699e+02     2.2670     -0.105     -0.152    14.9290 0.0000e+00
     -0.107      0.000     5.1034     49.216      2.883   2.303303     3.2400     3.8671     0.0426     0.9729 3.9544e+02     2.3271     -0.105     -0.152    14.9318 0.0000e+00
     -0.107      0.000     5.0944     48.671      2.794   2.232311     3.2400     3.9281     0.0426     0.9729 3.9484e+02     2.2670     -0.105     -0.152    14.9344 0.0000e+00
     -0.107      0.000     5.0650     48.133      2.702   2.158526     3.2400     3.9587     0.0426     0.9729 3.9475e+02     2.2520     -0.105     -0.152    14.9370 0.0000e+00
     -0.107      0.000     5.0211     47.618      2.621   2.093908     3.2400     3.9434     0.0426     0.9729 3.9484e+02     2.2219     -0.105     -0.151    14.9394 0.0000e+00
     -0.107      0.000     4.9690     47.137      2.564   2.048909     3.2400     3.9281     0.0426     0.9729 3.9415e+02     2.3271     -0.105     -0.151    14.9418 0.0000e+00
     -0.107      0.000     4.9138     46.698      2.522   2.015482     3.2400     4.0502     0.0426     0.9729 3.9381e+02     2.3722     -0.105     -0.151    14.9442 0.0000e+00
     -0.106      0.000     4.8592     46.306      2.491   1.990646     3.3300     4.0502     0.0426     0.8883 3.9287e+02     2.2971     -0.104     -0.151    14.9465 0.0000e+00
     -0.106      0.000     4.8069     45.957      2.464   1.969755     3.3300     4.0693     0.0426     0.8883 3.9244e+02     2.2820     -0.104     -0.151    14.9488 0.0000e+00
     -0.106      0.000     4.7581     45.650      2.424   1.937353     3.3300     4.0578     0.0426     0.8883 3.9168e+02     2.3422     -0.104     -0.151    14.9510 0.0000e+00
     -0.106      0.000     4.7136     45.376      2.375   1.898639     3.3300     4.0655     0.0426     0.8883 3.9032e+02     2.4023     -0.104     -0.150    14.9533 0.0000e+00
     -0.106      0.001     4.6738     45.129      2.326   1.859108     3.2400     4.0235     0.0426     1.0998 3.8956e+02     2.2370     -0.104     -0.150    14.9555 0.0000e+00
     -0.105      0.001     4.6384     44.912      2.264   1.810195     3.2400     4.0502     0.0426     1.0998 3.8879e+02     2.2820     -0.103     -0.150    14.9578 0.0000e+00
     -0.105      0.001     4.6071     44.732      2.195   1.754675     3.2400     4.0464     0.0426     1.0998 3.8939e+02     2.3121     -0.103     -0.149    14.9600 0.0000e+00
     -0.105      0.001     4.5793     44.590      2.136   1.707400     3.2400     3.7946     0.0426     1.0998 3.8812e+02     2.3572     -0.103     -0.149    14.9621 0.0000e+00
     -0.104      0.001     4.5541     44.486      2.101   1.679492     3.2400     3.8061     0.0426     0.9729 3.8719e+02     2.2971     -0.102     -0.148    14.9642 0.0000e+00
     -0.104      0.001     4.5321     44.417      2.095   1.675372     3.2400     3.8023     0.0426     0.9729 3.8568e+02     2.3271     -0.102     -0.148    14.9663 0.0000e+00
     -0.104      0.001     4.5137     44.374      2.114   1.689987     3.2400     3.8023     0.0426     0.9729 3.8426e+02     2.3422     -0.102     -0.147    14.9683 0.0000e+00
     -0.103      0.001     4.4992     44.349      2.140   1.711416     3.2400     3.8671     0.0426     0.9729 3.8384e+02     2.3422     -0.101     -0.147    14.9702 0.0000e+00
     -0.103      0.000     4.4885     44.338      2.168   1.733509     3.2400     3.8747     0.0426     1.0152 3.8309e+02     2.3722     -0.101     -0.147    14.9721 0.0000e+00
     -0.103      0.000     4.4814     44.337      2.194   1.754251     3.2400     3.8671     0.0426     1.0152 3.8293e+02     2.2971     -0.101     -0.147    14.9739 0.0000e+00
     -0.103      0.000     4.4769     44.343      2.215   1.771261     3.2400     3.8519     0.0426     1.0152 3.8176e+02     2.1768     -0.101     -0.147    14.9756 0.0000e+00
     -0.103     -0.001     4.4742     44.354      2.232   1.785123     3.2400     4.0388     0.0426     1.0152 3.8135e+02     2.2670     -0.101     -0.147    14.9773 0.0000e+00
     -0.103     -0.001     4.4729     44.367      2.255   1.803488     3.2400     4.0311     0.0426     1.0152 3.7969e+02     2.2670     -0.101     -0.147    14.9790 0.0000e+00
     -0.104     -0.001     4.4726     44.380      2.285   1.827298     3.2400     4.0388     0.0426     1.0152 3.7903e+02     2.3271     -0.102     -0.147    14.9806 0.0000e+00
     -0.104     -0.001     4.4731     44.392      2.309   1.847084     3.2400     4.0388     0.0426     1.0152 3.7813e+02     2.3722     -0.102     -0.148    14.9822 0.0000e+00
     -0.104     -0.001     4.4740     44.406      2.325   1.860214     3.2400     4.1303     0.0426     1.0152 3.7723e+02     2.2820     -0.102     -0.148    14.9837 0.0000e+00
     -0.104      0.000     4.4752     44.421      2.343   1.874143     3.2400     4.1036     0.0426     1.0152 3.7649e+02     2.4023     -0.102     -0.148    14.9852 0.0000e+00
     -0.104      0.000     4.4764     44.430      2.371   1.896541     3.2400     4.1303     0.0852     1.0998 3.7592e+02     2.2971     -0.102     -0.148    14.9867 0.0000e+00
     -0.104      0.000     4.4774     44.434      2.395   1.915586     3.2400     4.1380     0.0852     1.0998 3.7461e+02     2.1618     -0.102     -0.148    14.9881 0.0000e+00
     -0.104      0.000     4.4788     44.439      2.396   1.916582     3.2400     4.0083     0.0852     1.0998 3.7404e+02     2.2971     -0.102     -0.148    14.9895 0.0000e+00
     -0.104      0.000     4.4801     44.443      2.387   1.909682     3.2400     4.0426     0.0852     1.0998 3.7421e+02     2.3572     -0.102     -0.148    14.9908 0.0000e+00
     -0.104      0.000     4.4809     44.449      2.376   1.900955     3.3300     4.0083     0.0852     0.9306 3.7315e+02     2.2971     -0.102     -0.148    14.9921 0.0000e+00
     -0.104      0.000     4.4812     44.458      2.357   1.886096     3.3300     3.9930     0.0852     0.9306 3.7266e+02     2.3271     -0.102     -0.148    14.9934 0.0000e+00
     -0.104      0.000     4.4815     44.465      2.336   1.869053     3.3300     3.9434     0.0852     0.9306 3.7161e+02     2.3572     -0.102     -0.148    14.9946 0.0000e+00
     -0.104      0.000     4.4818     44.469      2.311   1.849235     3.3300     3.8938     0.0852     0.9306 3.7065e+02     2.3722     -0.102     -0.147    14.9959 0.0000e+00
     -0.104      0.001     4.4823     44.472      2.279   1.823334     3.3300     3.9358     0.0852     0.9306 3.6968e+02     2.2670     -0.102     -0.147    14.9971 0.0000e+00
     -0.103      0.001     4.4831     44.476      2.247   1.798283     3.2400     3.9434     0.0852     1.0152 3.7008e+02     2.2971     -0.101     -0.147    14.9983 0.0000e+00
     -0.103      0.001     4.4838     44.480      2.226   1.781245     3.2400     3.9930     0.0852     1.0152 3.6856e+02     2.2670     -0.101     -0.147    14.9995 0.0000e+00
     -0.103      0.001     4.4841     44.485      2.204   1.763721     3.2400     3.9816     0.0852     1.0152 3.6728e+02     2.3422     -0.101     -0.146    15.0008 0.0000e+00
     -0.103      0.002     4.4843     44.488      2.161   1.729173     3.2400     3.9930     0.0852     1.0152 3.6568e+02     2.3722     -0.101     -0.146    15.0020 0.0000e+00
     -0.102      0.002     4.4845     44.488      2.095   1.676298     3.3300     4.0121     0.0852     1.0575 3.6521e+02     2.2971     -0.100     -0.146    15.0033 0.0000e+00
     -0.102      0.003     4.4847     44.484      2.023   1.618679     3.3300     4.1799     0.0852     1.0575 3.6410e+02     2.2520     -0.100     -0.145    15.0046 0.0000e+00
     -0.101      0.003     4.4851     44.473      1.955   1.564675     3.3300     4.1914     0.0852     1.0575 3.6339e+02     2.3422     -0.099     -0.144    15.0059 0.0000e+00
     -0.100      0.004     4.4853     44.453      1.889   1.511750     3.3300     4.1914     0.0852     1.0575 3.6244e+02     2.2971     -0.098     -0.142    15.0073 0.0000e+00
     -0.099      0.005     4.4851     44.423      1.824   1.459632     3.2400     4.1761     0.0426     1.0152 3.6024e+02     2.2971     -0.097     -0.140    15.0086 0.0000e+00
     -0.097      0.006     4.4846     44.383      1.767   1.414193     3.2400     4.2333     0.0426     1.0152 3.5985e+02     2.3271     -0.095     -0.138    15.0100 0.0000e+00
     -0.096      0.007     4.4833     44.342      1.721   1.377158     3.2400     4.2257     0.0426     1.0152 3.5923e+02     2.3121     -0.094     -0.136    15.0114 0.0000e+00
     -0.094      0.008     4.4812     44.307      1.683   1.346559     3.2400     4.2333     0.0426     1.0152 3.5915e+02     2.3873     -0.092     -0.134    15.0128 0.0000e+00
     -0.092      0.010     4.4781     44.277      1.652   1.322146     3.2400     4.2524     0.0852     0.9729 3.5596e+02     2.3121     -0.090     -0.131    15.0142 0.0000e+00
     -0.089      0.012     4.4739     44.249      1.626   1.301363     3.2400     4.1799     0.0852     0.9729 3.5542e+02     2.3722     -0.087     -0.127    15.0156 0.0000e+00
     -0.086      0.014     4.4696     44.226      1.602   1.282621     3.2400     4.1837     0.0852     0.9729 2.6345e+02     2.2670     -0.084     -0.122    15.0171 0.0000e+00
     -0.082      0.016     4.4660     44.207      1.590   1.272786     3.2400     4.1608     0.0852     0.9729 2.7816e+02     2.2520     -0.081     -0.117    15.0185 0.0000e+00
     -0.078      0.020     4.4628     44.185      1.595   1.277144     3.2400     4.1761     0.0852     0.9729 2.7683e+02     2.1919     -0.077     -0.111    15.0199 0.0000e+00
     -0.073      0.024     4.4598     44.158      1.615   1.292904     3.2400     4.0083     0.0426     0.9729 2.7473e+02     2.3722     -0.072     -0.104    15.0213 0.0000e+00
     -0.067      0.030     4.4574     44.126      1.649   1.320312     3.2400     3.9739     0.0426     0.9729 2.7521e+02     2.2520     -0.066     -0.095    15.0227 0.0000e+00
     -0.059      0.036     4.4553     44.092      1.702   1.362725     3.2400     3.9777     0.0426     0.9729 2.8632e+02     2.3422     -0.058     -0.085    15.0242 0.0000e+00
     -0.050      0.045     4.4529     44.058      1.778   1.423543     3.2400     4.0083     0.0426     0.9729 2.8700e+02     2.3422     -0.049     -0.071    15.0257 0.0000e+00
     -0.038      0.054     4.4501     44.024      1.882   1.507120     3.2400     4.0693     0.0852     1.1421 2.9445e+02     2.3121     -0.037     -0.054    15.0272 0.0000e+00
     -0.024      0.064     4.4468     43.998      2.000   1.602132     3.2400     4.0540     0.0852     1.1421 2.5263e+02     2.2820     -0.023     -0.034    15.0288 0.0000e+00
     -0.006      0.073     4.4432     43.985      2.106   1.686462     3.2400     4.0311     0.0852     1.1421 2.3175e+02     2.2069     -0.006     -0.008    15.0304 0.0000e+00
      0.015      0.080     4.4396     43.984      2.194   1.756894     3.2400     4.0502     0.0852     1.1421 1.7647e+02     2.3873      0.015      0.022    15.0321 0.0000e+00
      0.039      0.085     4.4360     43.988      2.273   1.820346     3.3300     4.3668     0.0426     0.9729 1.8828e+02     2.5977      0.038      0.055    15.0339 0.0000e+00
      0.063      0.089     4.4331     43.987      2.344   1.877921     3.3300     4.3592     0.0426     0.9729 1.6451e+02     2.5526      0.061      0.089    15.0358 0.0000e+00
      0.086      0.090     4.4317     43.968      2.411   1.931131     3.3300     4.3707     0.0426     0.9729 1.6638e+02     2.4624      0.084      0.122    15.0376 0.0000e+00
      0.109      0.091     4.4314     43.936      2.465   1.974394     3.3300     4.3897     0.0426     0.9729 1.5707e+02     2.5977      0.107      0.155    15.0393 0.0000e+00
      0.132      0.091     4.4317     43.900      2.488   1.993541     3.2400     4.1952     0.0426     1.0998 1.6387e+02     2.3271      0.129      0.187    15.0408 0.0000e+00
      0.155      0.092     4.4314     43.853      2.479   1.985769     3.2400     4.1952     0.0426     1.0998 1.4783e+02     2.3572      0.152      0.220    15.0422 0.0000e+00
      0.178      0.093     4.4293     43.787      2.457   1.968779     3.2400     4.1685     0.0426     1.0998 1.4272e+02     2.2971      0.175      0.253    15.0436 0.0000e+00
      0.202      0.096     4.4260     43.709      2.444   1.957811     3.2400     4.1799     0.0426     1.0998 1.4062e+02     2.2820      0.198      0.288    15.0449 0.0000e+00
      0.226      0.099     4.4223     43.627      2.439   1.953897     3.2400     4.2982     0.0426     1.0998 1.3901e+02     2.5225      0.222      0.322    15.0463 0.0000e+00
      0.251      0.102     4.4174     43.547      2.442   1.955992     3.3300     4.2982     0.0000     1.0998 1.3479e+02     2.5376      0.247      0.358    15.0476 0.0000e+00
      0.278      0.105     4.4107     43.474      2.452   1.964656     3.3300     4.2944     0.0000     1.0998 1.3313e+02     2.5225      0.272      0.395    15.0490 0.0000e+00
      0.305      0.108     4.4027     43.398      2.469   1.978243     3.3300     4.3173     0.0000     1.0998 1.2631e+02     2.6277      0.299      0.434    15.0504 0.0000e+00
      0.334      0.111     4.3942     43.313      2.487   1.992467     3.3300     4.4851     0.0000     1.0998 1.1726e+02     2.5526      0.328      0.475    15.0518 0.0000e+00
      0.364      0.112     4.3861     43.229      2.510   2.011123     3.2400     4.4660     0.0852     1.0152 1.1301e+02     2.5826      0.357      0.517    15.0533 0.0000e+00
      0.393      0.113     4.3786     43.148      2.540   2.035231     3.2400     4.5004     0.0852     1.0152 1.0795e+02     2.6879      0.386      0.559    15.0548 0.0000e+00
      0.422      0.113     4.3707     43.067      2.570   2.059355     3.2400     4.4775     0.0852     1.0152 1.0535e+02     2.5075      0.414      0.600    15.0563 0.0000e+00
      0.451      0.114     4.3621     42.991      2.608   2.089929     3.2400     4.4279     0.0852     1.0152 1.0024e+02     2.5376      0.442      0.641    15.0578 0.0000e+00
      0.479      0.115     4.3535     42.919      2.659   2.131152     3.3300     4.3974     0.0426     1.0575 9.8767e+01     2.5376      0.470      0.681    15.0592 0.0000e+00
      0.508      0.117     4.3452     42.847      2.723   2.182152     3.3300     4.4355     0.0426     1.0575 9.6350e+01     2.5225      0.498      0.722    15.0607 0.0000e+00
      0.537      0.121     4.3369     42.781      2.811   2.252574     3.3300     4.4393     0.0426     1.0575 9.3382e+01     2.6277      0.527      0.764    15.0622 0.0000e+00
      0.568      0.125     4.3291     42.731      2.909   2.331539     3.3300     4.3668     0.0426     1.0575 9.0426e+01     2.4624      0.557      0.808    15.0638 0.0000e+00
      0.601      0.129     4.3217     42.694      2.990   2.396604     3.3300     4.3516     0.0852     1.0152 8.7965e+01     2.5526      0.589      0.854    15.0655 0.0000e+00
      0.635      0.133     4.3143     42.665      3.053   2.447323     3.3300     4.3707     0.0852     1.0152 8.3677e+01     2.5225      0.622      0.902    15.0671 0.0000e+00
      0.670      0.136     4.3075     42.643      3.101   2.485357     3.3300     4.3592     0.0852     1.0152 7.8005e+01     2.4624      0.657      0.953    15.0689 0.0000e+00
      0.706      0.139     4.3022     42.625      3.145   2.520850     3.3300     4.3859     0.0852     1.0152 7.5389e+01     2.5526      0.692      1.004    15.0707 0.0000e+00
      0.742      0.140     4.2984     42.611      3.197   2.563266     3.3300     4.3707     0.0852     1.0152 7.3050e+01     2.5977      0.727      1.055    15.0726 0.0000e+00
      0.777      0.141     4.2953     42.603      3.233   2.592278     3.3300     4.3668     0.0426     1.0152 7.0846e+01     2.5676      0.762      1.106    15.0744 0.0000e+00
      0.813      0.139     4.2929     42.596      3.213   2.576077     3.3300     4.3592     0.0426     1.0152 6.8395e+01     2.4925      0.797      1.157    15.0763 0.0000e+00
      0.850      0.136     4.2909     42.586      3.136   2.514296     3.3300     4.2371     0.0426     1.0152 6.4948e+01     2.5826      0.833      1.208    15.0781 0.0000e+00
      0.886      0.131     4.2893     42.577      3.040   2.437917     3.3300     4.2562     0.0426     1.0152 5.9891e+01     2.4925      0.868      1.260    15.0801 0.0000e+00
      0.921      0.124     4.2884     42.569      2.941   2.358209     3.3300     4.2219     0.0426     1.0152 5.6565e+01     2.5376      0.903      1.309    15.0821 0.0000e+00
      0.952      0.115     4.2875     42.557      2.838   2.275668     3.3300     4.2448     0.0426     1.0152 5.5253e+01     2.4624      0.934      1.354    15.0841 0.0000e+00
      0.980      0.106     4.2862     42.541      2.748   2.203873     3.3300     4.2715     0.0426     1.0152 5.5373e+01     2.2670      0.961      1.393    15.0863 0.0000e+00
      1.004      0.098     4.2850     42.519      2.675   2.145430     3.3300     4.2600     0.0426     1.0152 5.5529e+01     2.3271      0.984      1.428    15.0884 0.0000e+00
      1.026      0.092     4.2840     42.488      2.619   2.100571     3.3300     4.2829     0.0852     1.0152 5.5457e+01     2.2370      1.006      1.459    15.0907 0.0000e+00
      1.047      0.089     4.2826     42.454      2.580   2.069198     3.3300     4.2448     0.0852     1.0152 5.4584e+01     2.3271      1.027      1.490    15.0932 0.0000e+00
      1.069      0.087     4.2808     42.423      2.547   2.042945     3.3300     4.1570     0.0852     1.0152 5.3574e+01     2.2971      1.048      1.521    15.0958 0.0000e+00
      1.091      0.088     4.2784     42.395      2.521   2.022721     3.3300     4.1952     0.0852     1.0152 5.2582e+01     2.2670      1.070      1.552    15.0985 0.0000e+00
      1.114      0.089     4.2750     42.369      2.501   2.007087     3.3300     4.1570     0.0426     1.1844 5.1698e+01     2.2370      1.092      1.584    15.1013 0.0000e+00
      1.136      0.091     4.2713     42.348      2.482   1.991874     3.3300     4.1837     0.0426     1.1844 5.0400e+01     2.2370      1.114      1.616    15.1040 0.0000e+00
      1.160      0.092     4.2680     42.334      2.481   1.990820     3.3300     4.3020     0.0426     1.1844 4.9381e+01     2.5376      1.137      1.649    15.1067 0.0000e+00
      1.184      0.092     4.2650     42.323      2.504   2.009576     3.3300     4.3096     0.0426     1.1844 4.7220e+01     2.6277      1.161      1.684    15.1092 0.0000e+00
      1.208      0.092     4.2621     42.311      2.527   2.027439     3.3300     4.2867     0.0426     1.1844 4.5795e+01     2.5225      1.185      1.718    15.1117 0.0000e+00
      1.232      0.090     4.2597     42.292      2.536   2.035331     3.3300     4.3173     0.0426     1.0575 4.4539e+01     2.6428      1.208      1.752    15.1140 0.0000e+00
      1.255      0.089     4.2581     42.270      2.541   2.039313     3.3300     4.3859     0.0426     1.0575 4.3392e+01     2.3572      1.231      1.785    15.1163 0.0000e+00
      1.277      0.086     4.2568     42.251      2.537   2.036491     3.3300     4.3592     0.0426     1.0575 4.1973e+01     2.3121      1.253      1.817    15.1184 0.0000e+00
      1.299      0.084     4.2555     42.232      2.534   2.034021     3.3300     4.3592     0.0426     1.0575 4.1178e+01     2.2370      1.274      1.847    15.1203 0.0000e+00
      1.319      0.083     4.2534     42.212      2.550   2.047064     3.3300     4.3440     0.0426     1.0998 4.0574e+01     2.2370      1.294      1.877    15.1222 0.0000e+00
      1.340      0.082     4.2509     42.192      2.590   2.079098     3.3300     4.3058     0.0426     1.0998 4.0110e+01     2.3121      1.314      1.906    15.1241 0.0000e+00
      1.360      0.083     4.2488     42.174      2.639   2.118891     3.3300     4.2867     0.0426     1.0998 3.9953e+01     2.2670      1.334      1.934    15.1259 0.0000e+00
      1.380      0.084     4.2468     42.159      2.677   2.149373     3.3300     4.3058     0.0426     1.0998 3.9504e+01     2.2069      1.354      1.963    15.1278 0.0000e+00
      1.401      0.087     4.2446     42.147      2.694   2.162856     3.3300     4.2791     0.0426     0.9729 3.8798e+01     2.2370      1.374      1.993    15.1296 0.0000e+00
      1.424      0.089     4.2424     42.140      2.689   2.158979     3.3300     4.2333     0.0426     0.9729 3.7611e+01     2.5225      1.397      2.026    15.1315 0.0000e+00
      1.448      0.091     4.2405     42.133      2.671   2.144619     3.3300     4.2333     0.0426     0.9729 3.6421e+01     2.5526      1.420      2.059    15.1335 0.0000e+00
      1.472      0.093     4.2388     42.124      2.655   2.131764     3.3300     4.2486     0.0426     0.9729 3.5591e+01     2.4474      1.444      2.094    15.1355 0.0000e+00
      1.496      0.094     4.2374     42.116      2.646   2.124894     3.3300     4.2371     0.0426     1.0152 3.5039e+01     2.6578      1.468      2.128    15.1375 0.0000e+00
      1.520      0.093     4.2364     42.110      2.643   2.122178     3.3300     4.2944     0.0426     1.0152 3.4263e+01     2.3271      1.491      2.163    15.1396 0.0000e+00
      1.544      0.093     4.2355     42.104      2.653   2.130802     3.3300     4.2905     0.0426     1.0152 3.3352e+01     2.4023      1.515      2.197    15.1416 0.0000e+00
      1.568      0.092     4.2345     42.093      2.686   2.157019     3.3300     4.3134     0.0426     1.0152 3.2928e+01     2.3722      1.538      2.230    15.1436 0.0000e+00
      1.591      0.092     4.2335     42.079      2.729   2.192001     3.3300     4.3096     0.0426     1.0152 3.2614e+01     2.3271      1.560      2.263    15.1455 0.0000e+00
      1.614      0.091     4.2328     42.062      2.780   2.233215     3.3300     4.3516     0.0426     1.0152 3.2122e+01     2.2670      1.583      2.295    15.1475 0.0000e+00
      1.637      0.091     4.2319     42.046      2.836   2.277810     3.3300     4.3478     0.0426     1.0152 3.1425e+01     2.3271      1.605      2.328    15.1495 0.0000e+00
      1.660      0.091     4.2307     42.028      2.856   2.294176     3.3300     4.3859     0.0426     1.0152 3.0602e+01     2.2670      1.628      2.362    15.1514 0.0000e+00
      1.684      0.089     4.2291     42.009      2.817   2.262951     3.3300     4.3516     0.0426     1.0152 2.9744e+01     2.4023      1.652      2.396    15.1532 0.0000e+00
      1.708      0.088     4.2273     41.991      2.743   2.203490     3.3300     4.5881     0.0426     1.0575 2.8871e+01     2.3572      1.675      2.429    15.1551 0.0000e+00
      1.730      0.085     4.2255     41.978      2.661   2.137505     3.3300     4.5957     0.0426     1.0575 2.8510e+01     2.2820      1.697      2.461    15.1569 0.0000e+00
      1.751      0.083     4.2235     41.970      2.583   2.075083     3.3300     4.6453     0.0426     1.0575 2.8324e+01     2.3722      1.717      2.491    15.1587 0.0000e+00
      1.771      0.082     4.2214     41.963      2.514   2.019350     3.3300     4.5957     0.0426     1.0575 2.8006e+01     2.4173      1.737      2.520    15.1604 0.0000e+00
      1.791      0.081     4.2195     41.953      2.459   1.975217     3.3300     4.5957     0.0852     1.0575 2.7643e+01     2.5075      1.757      2.548    15.1621 0.0000e+00
      1.812      0.081     4.2180     41.937      2.423   1.946733     3.3300     4.6301     0.0852     1.0575 2.7238e+01     2.4624      1.777      2.577    15.1639 0.0000e+00
      1.832      0.082     4.2170     41.918      2.402   1.930258     3.3300     4.6301     0.0852     1.0575 2.6955e+01     2.6277      1.797      2.606    15.1656 0.0000e+00
      1.853      0.083     4.2162     41.899      2.386   1.917442     3.3300     4.6072     0.0852     1.0575 2.6393e+01     2.5075      1.817      2.636    15.1674 0.0000e+00
      1.875      0.084     4.2150     41.883      2.368   1.902892     3.3300     4.8284     0.0852     1.0575 2.5966e+01     2.4925      1.839      2.667    15.1691 0.0000e+00
      1.897      0.084     4.2132     41.872      2.353   1.890636     3.3300     4.8513     0.0852     1.0575 2.5386e+01     2.5526      1.860      2.698    15.1709 0.0000e+00
      1.919      0.084     4.2111     41.863      2.353   1.891247     3.3300     4.8055     0.0852     1.0575 2.4987e+01     2.6127      1.882      2.729    15.1726 0.0000e+00
      1.941      0.083     4.2091     41.858      2.380   1.912797     3.3300     4.7941     0.0852     1.0575 2.4428e+01     2.6277      1.903      2.760    15.1742 0.0000e+00
      1.962      0.081     4.2074     41.855      2.408   1.935327     3.3300     5.2481     0.0852     1.0575 2.4185e+01     2.4925      1.924      2.790    15.1758 0.0000e+00
      1.982      0.079     4.2061     41.848      2.405   1.933211     3.3300     5.2786     0.0426     1.0575 2.3960e+01     2.6578      1.944      2.819    15.1773 0.0000e+00
      2.002      0.078     4.2051     41.833      2.383   1.915769     3.3300     5.2786     0.0426     1.0575 2.3599e+01     2.6578      1.963      2.847    15.1788 0.0000e+00
      2.021      0.077     4.2044     41.814      2.364   1.900101     3.3300     5.2671     0.0426     1.0575 2.3435e+01     2.5676      1.982      2.874    15.1801 0.0000e+00
      2.040      0.078     4.2040     41.797      2.366   1.901801     3.3300     5.0802     0.0426     1.0575 2.3303e+01     2.5075      2.000      2.901    15.1814 0.0000e+00
      2.059      0.079     4.2032     41.780      2.412   1.939118     3.3300     5.0802     0.0852     1.0998 2.2936e+01     2.5225      2.019      2.928    15.1826 0.0000e+00
      2.079      0.080     4.2016     41.761      2.483   1.996299     3.3300     5.0955     0.0852     1.0998 2.2595e+01     2.4323      2.039      2.957    15.1838 0.0000e+00
      2.100      0.081     4.1996     41.743      2.524   2.029274     3.3300     5.0840     0.0852     1.0998 2.2196e+01     2.4624      2.059      2.986    15.1849 0.0000e+00
      2.121      0.082     4.1978     41.731      2.514   2.021131     3.3300     5.1451     0.0852     1.0998 2.1625e+01     2.5676      2.080      3.017    15.1859 0.0000e+00
      2.143      0.083     4.1960     41.720      2.475   1.989472     3.3300     5.1451     0.0426     1.0575 2.1109e+01     2.5826      2.102      3.048    15.1870 0.0000e+00
      2.165      0.082     4.1940     41.708      2.425   1.949582     3.3300     5.1298     0.0426     1.0575 2.0673e+01     2.5977      2.123      3.079    15.1879 0.0000e+00
      2.186      0.082     4.1921     41.693      2.374   1.908619     3.3300     5.1298     0.0426     1.0575 2.0539e+01     2.4925      2.144      3.109    15.1889 0.0000e+00
      2.206      0.081     4.1908     41.672      2.328   1.871477     3.3300     4.9009     0.0426     1.0575 2.0220e+01     2.6578      2.163      3.138    15.1898 0.0000e+00
      2.226      0.081     4.1896     41.646      2.296   1.846047     3.3300     4.8742     0.0426     1.0998 1.9850e+01     2.5526      2.183      3.166    15.1907 0.0000e+00
      2.246      0.081     4.1884     41.621      2.305   1.853229     3.3300     4.8589     0.0426     1.0998 1.9666e+01     2.5676      2.202      3.194    15.1916 0.0000e+00
      2.266      0.082     4.1868     41.593      2.372   1.906803     3.3300     4.8971     0.0426     1.0998 1.9327e+01     2.5526      2.222      3.223    15.1925 0.0000e+00
      2.287      0.084     4.1846     41.565      2.467   1.983486     3.3300     4.9085     0.0426     1.0998 1.8695e+01     2.5225      2.243      3.253    15.1934 0.0000e+00
      2.309      0.086     4.1819     41.537      2.543   2.044410     3.3300     4.8971     0.0426     1.0998 1.8481e+01     2.5526      2.264      3.284    15.1943 0.0000e+00
      2.331      0.088     4.1793     41.507      2.597   2.088025     3.3300     4.8742     0.0852     1.0998 1.8103e+01     2.5977      2.286      3.316    15.1952 0.0000e+00
      2.354      0.090     4.1764     41.478      2.649   2.129918     3.3300     4.9200     0.0852     1.0998 1.7664e+01     2.5376      2.308      3.348    15.1960 0.0000e+00
      2.377      0.092     4.1735     41.450      2.688   2.161486     3.3300     5.1374     0.0852     1.0998 1.7165e+01     2.7480      2.331      3.382    15.1969 0.0000e+00
      2.401      0.093     4.1706     41.422      2.693   2.165443     3.3300     5.1298     0.0852     1.0998 1.6759e+01     2.9434      2.355      3.416    15.1978 0.0000e+00
      2.426      0.093     4.1675     41.393      2.662   2.140867     3.4200     5.1298     0.0852     1.0152 1.6399e+01     2.8532      2.379      3.450    15.1986 0.0000e+00
      2.450      0.092     4.1645     41.370      2.610   2.099000     3.4200     5.1527     0.0852     1.0152 1.6190e+01     2.8832      2.402      3.484    15.1993 0.0000e+00
      2.473      0.091     4.1617     41.351      2.545   2.046473     3.4200     4.8933     0.0852     1.0152 1.5722e+01     2.6428      2.425      3.518    15.2001 0.0000e+00
      2.497      0.090     4.1588     41.334      2.483   1.996961     3.4200     4.8856     0.0852     1.0152 1.5488e+01     2.4925      2.448      3.551    15.2008 0.0000e+00
      2.519      0.088     4.1559     41.319      2.446   1.966919     3.4200     4.8666     0.0426     1.0575 1.5238e+01     2.5526      2.470      3.583    15.2015 0.0000e+00
      2.541      0.087     4.1534     41.304      2.435   1.958223     3.4200     4.8818     0.0426     1.0575 1.5195e+01     2.5977      2.492      3.614    15.2022 0.0000e+00
      2.563      0.085     4.1516     41.288      2.431   1.954713     3.4200     5.0230     0.0426     1.0575 1.5043e+01     2.8382      2.513      3.645    15.2028 0.0000e+00
      2.584      0.084     4.1498     41.275      2.414   1.941611     3.4200     5.0192     0.0426     1.0575 1.4628e+01     2.7179      2.534      3.676    15.2034 0.0000e+00
      2.606      0.082     4.1482     41.261      2.399   1.929265     3.3300     5.0077     0.0426     1.0152 1.4338e+01     2.7931      2.555      3.706    15.2039 0.0000e+00
      2.627      0.080     4.1466     41.237      2.398   1.928223     3.3300     4.9886     0.0426     1.0152 1.4140e+01     2.6879      2.576      3.736    15.2045 0.0000e+00
      2.647      0.079     4.1450     41.209      2.403   1.932276     3.3300     5.1946     0.0426     1.0152 1.4140e+01     2.4624      2.596      3.765    15.2050 0.0000e+00
      2.667      0.078     4.1437     41.181      2.408   1.936573     3.3300     5.1756     0.0426     1.0152 1.4042e+01     2.5676      2.615      3.793    15.2054 0.0000e+00
      2.686      0.077     4.1422     41.152      2.422   1.948191     3.3300     5.1946     0.0426     1.0152 1.3851e+01     2.6127      2.634      3.820    15.2059 0.0000e+00
      2.705      0.076     4.1397     41.121      2.447   1.968252     3.3300     5.2252     0.0426     0.9729 1.3731e+01     2.5526      2.652      3.847    15.2064 0.0000e+00
      2.724      0.076     4.1369     41.094      2.462   1.980354     3.3300     5.1298     0.0426     0.9729 1.3580e+01     2.6728      2.671      3.875    15.2068 0.0000e+00
      2.743      0.077     4.1341     41.074      2.459   1.977839     3.3300     5.1412     0.0426     0.9729 1.3300e+01     2.5676      2.690      3.902    15.2072 0.0000e+00
      2.763      0.078     4.1311     41.065      2.457   1.975855     3.3300     5.1298     0.0426     0.9729 1.3389e+01     2.5376      2.709      3.930    15.2076 0.0000e+00
      2.782      0.079     4.1279     41.056      2.469   1.985736     3.3300     5.1527     0.0426     0.9729 1.3300e+01     2.5676      2.728      3.958    15.2080 0.0000e+00
      2.803      0.081     4.1251     41.042      2.499   2.010116     3.3300     4.6301     0.0426     0.9729 1.2971e+01     2.5376      2.748      3.986    15.2085 0.0000e+00
      2.824      0.082     4.1231     41.023      2.551   2.051543     3.3300     4.6682     0.0426     0.9729 1.2695e+01     2.4925      2.769      4.016    15.2089 0.0000e+00
      2.845      0.082     4.1221     41.002      2.613   2.101291     3.3300     4.6644     0.0426     0.9729 1.2455e+01     2.5977      2.790      4.047    15.2093 0.0000e+00
      2.867      0.083     4.1213     40.978      2.667   2.144945     3.3300     4.6797     0.0426     0.9306 1.2200e+01     2.4774      2.811      4.077    15.2097 0.0000e+00
      2.888      0.083     4.1198     40.954      2.708   2.178327     3.3300     4.3745     0.0426     0.9306 1.2050e+01     2.5526      2.832      4.108    15.2101 0.0000e+00
      2.909      0.084     4.1180     40.930      2.733   2.198475     3.3300     4.3554     0.0426     0.9306 1.1977e+01     2.4925      2.853      4.138    15.2105 0.0000e+00
      2.930      0.084     4.1158     40.905      2.729   2.194945     3.3300     4.3859     0.0426     0.9306 1.1879e+01     2.5977      2.874      4.168    15.2109 0.0000e+00
      2.952      0.085     4.1133     40.886      2.694   2.166794     3.3300     4.3707     0.0426     0.9729 1.1715e+01     2.5225      2.895      4.198    15.2114 0.0000e+00
      2.974      0.085     4.1109     40.872      2.644   2.126289     3.3300     4.0807     0.0426     0.9729 1.1433e+01     2.5075      2.916      4.229    15.2118 0.0000e+00
      2.996      0.085     4.1084     40.855      2.589   2.082400     3.3300     4.1341     0.0426     0.9729 1.1190e+01     2.5977      2.938      4.261    15.2122 0.0000e+00
      3.019      0.085     4.1059     40.837      2.530   2.035289     3.3300     4.1074     0.0426     0.9729 1.0894e+01     2.5225      2.960      4.293    15.2126 0.0000e+00
      3.040      0.084     4.1040     40.821      2.467   1.984255     3.3300     4.1074     0.0426     0.9729 1.0826e+01     2.5526      2.981      4.324    15.2131 0.0000e+00
      3.062      0.083     4.1025     40.811      2.409   1.937440     3.3300     4.2410     0.0426     0.9729 1.0646e+01     2.5075      3.002      4.354    15.2135 0.0000e+00
      3.082      0.081     4.1008     40.806      2.365   1.902132     3.3300     4.2371     0.0426     0.9729 1.0395e+01     2.4624      3.023      4.384    15.2139 0.0000e+00
      3.103      0.079     4.0988     40.803      2.328   1.872871     3.3300     4.2371     0.0426     0.9729 1.0211e+01     2.4925      3.043      4.413    15.2144 0.0000e+00
      3.123      0.078     4.0972     40.795      2.292   1.843830     3.3300     4.2448     0.0426     0.9729 1.0031e+01     2.4925      3.062      4.442    15.2148 0.0000e+00
      3.142      0.077     4.0962     40.783      2.264   1.821105     3.3300     4.1494     0.0852     0.8883 9.9723e+00     2.5676      3.081      4.469    15.2153 0.0000e+00
      3.161      0.077     4.0957     40.773      2.253   1.812479     3.3300     4.1303     0.0852     0.8883 9.8517e+00     2.5977      3.100      4.497    15.2157 0.0000e+00
      3.181      0.077     4.0953     40.766      2.250   1.809718     3.3300     4.0884     0.0852     0.8883 9.6861e+00     2.5075      3.119      4.524    15.2162 0.0000e+00
      3.200      0.077     4.0944     40.756      2.241   1.802201     3.3300     4.0960     0.0852     0.8883 9.4738e+00     2.5826      3.138      4.552    15.2166 0.0000e+00
      3.220      0.076     4.0932     40.742      2.235   1.797808     3.3300     4.3058     0.0426     0.8460 9.2059e+00     2.4624      3.158      4.580    15.2171 0.0000e+00
      3.240      0.076     4.0922     40.728      2.244   1.805255     3.3300     4.3363     0.0426     0.8460 9.0041e+00     2.6277      3.177      4.608    15.2175 0.0000e+00
      3.259      0.075     4.0915     40.719      2.271   1.826528     3.3300     4.2905     0.0426     0.8460 8.8412e+00     2.5676      3.197      4.636    15.2180 0.0000e+00
      3.278      0.074     4.0905     40.717      2.316   1.863345     3.3300     4.3096     0.0426     0.8460 8.6681e+00     2.6127      3.215      4.663    15.2184 0.0000e+00
      3.297      0.072     4.0889     40.718      2.366   1.903775     3.3300     4.5080     0.0426     0.8460 8.5484e+00     2.5225      3.233      4.690    15.2189 0.0000e+00
      3.315      0.071     4.0875     40.713      2.395   1.926961     3.3300     4.5004     0.0426     0.8883 8.4230e+00     2.5376      3.251      4.715    15.2193 0.0000e+00
      3.332      0.070     4.0866     40.703      2.403   1.933156     3.3300     4.4927     0.0426     0.8883 8.2689e+00     2.4774      3.268      4.740    15.2197 0.0000e+00
      3.350      0.071     4.0864     40.690      2.411   1.939829     3.3300     4.4927     0.0426     0.8883 8.1423e+00     2.5225      3.285      4.765    15.2200 0.0000e+00
      3.368      0.072     4.0864     40.677      2.422   1.948761     3.3300     4.1074     0.0426     0.8883 8.0771e+00     2.5526      3.302      4.790    15.2204 0.0000e+00
      3.385      0.073     4.0859     40.668      2.419   1.946513     3.3300     4.1113     0.0426     0.9729 7.9829e+00     2.5075      3.320      4.815    15.2207 0.0000e+00
      3.404      0.075     4.0849     40.661      2.397   1.928534     3.3300     4.0998     0.0426     0.9729 7.8334e+00     2.4925      3.338      4.842    15.2210 0.0000e+00
      3.424      0.077     4.0835     40.655      2.366   1.903869     3.3300     4.1303     0.0426     0.9729 7.5970e+00     2.6127      3.358      4.870    15.2214 0.0000e+00
      3.444      0.078     4.0822     40.654      2.336   1.879781     3.3300     4.1952     0.0426     0.9729 7.3886e+00     2.5676      3.378      4.899    15.2217 0.0000e+00
      3.465      0.078     4.0813     40.654      2.309   1.857757     3.3300     4.1494     0.0426     0.8883 7.2109e+00     2.5225      3.398      4.928    15.2220 0.0000e+00
      3.485      0.077     4.0805     40.653      2.285   1.837854     3.3300     4.1761     0.0426     0.8883 7.0269e+00     2.5376      3.418      4.957    15.2224 0.0000e+00
      3.505      0.076     4.0799     40.650      2.263   1.820698     3.3300     4.1875     0.0426     0.8883 6.9570e+00     2.5225      3.437      4.985    15.2227 0.0000e+00
      3.524      0.075     4.0797     40.645      2.249   1.809622     3.3300     4.0731     0.0426     0.8883 6.9253e+00     2.5676      3.456      5.012    15.2230 0.0000e+00
      3.542      0.074     4.0797     40.639      2.234   1.797717     3.3300     4.0502     0.0426     0.8883 6.8193e+00     2.5526      3.474      5.038    15.2233 0.0000e+00
      3.561      0.074     4.0796     40.635      2.210   1.777856     3.3300     4.0540     0.0426     0.8883 6.7339e+00     2.5225      3.492      5.064    15.2235 0.0000e+00
      3.579      0.075     4.0793     40.631      2.183   1.756605     3.3300     4.0502     0.0426     0.8883 6.7397e+00     2.5826      3.510      5.090    15.2238 0.0000e+00
      3.598      0.076     4.0787     40.628      2.163   1.740161     3.3300     4.1113     0.0426     0.8883 6.5691e+00     2.6277      3.528      5.117    15.2241 0.0000e+00
      3.617      0.078     4.0782     40.627      2.153   1.732047     3.3300     4.1074     0.0426     0.8883 6.4098e+00     2.4624      3.547      5.145    15.2244 0.0000e+00
      3.638      0.079     4.0777     40.624      2.155   1.734055     3.3300     4.1189     0.0426     0.9729 6.2597e+00     2.6277      3.567      5.174    15.2247 0.0000e+00
      3.659      0.080     4.0773     40.616      2.166   1.742765     3.3300     4.1456     0.0426     0.9729 6.1478e+00     2.5526      3.588      5.204    15.2250 0.0000e+00
      3.679      0.079     4.0769     40.604      2.183   1.756545     3.3300     4.5995     0.0426     0.9729 5.9961e+00     2.5977      3.608      5.234    15.2253 0.0000e+00
      3.700      0.078     4.0768     40.586      2.211   1.779071     3.3300     4.6186     0.0426     0.9729 5.8558e+00     2.5977      3.628      5.263    15.2256 0.0000e+00
      3.720      0.077     4.0765     40.569      2.257   1.816348     3.3300     4.5995     0.0852     0.9306 5.7900e+00     2.6277      3.648      5.291    15.2259 0.0000e+00
      3.739      0.076     4.0757     40.557      2.317   1.864478     3.3300     4.6110     0.0852     0.9306 5.6631e+00     2.5526      3.667      5.318    15.2262 0.0000e+00
      3.758      0.074     4.0744     40.544      2.372   1.908612     3.3300     4.8322     0.0852     0.9306 5.5594e+00     2.4925      3.685      5.345    15.2264 0.0000e+00
      3.776      0.074     4.0726     40.529      2.419   1.946679     3.3300     4.8132     0.0852     0.9306 5.4399e+00     2.4925      3.703      5.371    15.2267 0.0000e+00
      3.794      0.074     4.0709     40.507      2.457   1.976968     3.3300     4.8437     0.0426     0.9306 5.4104e+00     2.5977      3.721      5.398    15.2269 0.0000e+00
      3.813      0.076     4.0696     40.489      2.475   1.991736     3.3300     4.8284     0.0426     0.9306 5.4340e+00     2.4925      3.739      5.424    15.2272 0.0000e+00
      3.832      0.078     4.0684     40.479      2.484   1.998877     3.3300     4.7178     0.0426     0.9306 5.3940e+00     2.4774      3.758      5.450    15.2275 0.0000e+00
      3.852      0.081     4.0668     40.475      2.491   2.004249     3.3300     4.6911     0.0426     0.9306 5.1972e+00     2.5225      3.778      5.479    15.2278 0.0000e+00
      3.873      0.083     4.0646     40.479      2.487   2.001376     3.3300     4.7292     0.0852     0.8460 5.0613e+00     2.5225      3.799      5.510    15.2280 0.0000e+00
      3.896      0.084     4.0627     40.488      2.473   1.989491     3.3300     4.7102     0.0852     0.8460 4.8177e+00     2.4774      3.821      5.541    15.2283 0.0000e+00
      3.918      0.085     4.0617     40.501      2.465   1.983222     3.3300     4.4737     0.0852     0.8460 4.7388e+00     2.7480      3.843      5.573    15.2285 0.0000e+00
      3.940      0.084     4.0613     40.520      2.484   1.998690     3.3300     4.4508     0.0852     0.8460 4.6409e+00     2.9133      3.864      5.604    15.2288 0.0000e+00
      3.961      0.082     4.0617     40.536      2.503   2.014317     3.3300     4.4775     0.0852     0.8460 4.5451e+00     2.8231      3.885      5.635    15.2291 0.0000e+00
      3.982      0.080     4.0626     40.533      2.486   2.000656     3.3300     4.4851     0.0852     0.8883 4.5048e+00     2.7480      3.906      5.665    15.2293 0.0000e+00
      4.003      0.078     4.0639     40.514      2.448   1.969883     3.3300     4.0807     0.0852     0.8883 4.4775e+00     2.8081      3.926      5.693    15.2296 0.0000e+00
      4.022      0.077     4.0657     40.490      2.403   1.933565     3.3300     4.1074     0.0852     0.8883 4.3377e+00     2.8231      3.945      5.721    15.2299 0.0000e+00
      4.041      0.076     4.0673     40.460      2.344   1.885970     3.3300     4.1227     0.0852     0.8883 4.3142e+00     2.8532      3.963      5.748    15.2302 0.0000e+00
      4.060      0.075     4.0669     40.429      2.277   1.832202     3.3300     4.0922     0.0426     0.9306 4.2315e+00     2.7931      3.982      5.775    15.2305 0.0000e+00
      4.079      0.075     4.0650     40.399      2.214   1.781651     3.3300     3.9816     0.0426     0.9306 4.1758e+00     2.7179      4.000      5.801    15.2307 0.0000e+00
      4.098      0.075     4.0626     40.368      2.156   1.734676     3.3300     3.9854     0.0426     0.9306 4.1012e+00     2.8832      4.019      5.829    15.2310 0.0000e+00
      4.118      0.075     4.0596     40.343      2.101   1.690614     3.3300     3.9930     0.0426     0.9306 3.9610e+00     2.7931      4.038      5.856    15.2312 0.0000e+00
      4.137      0.075     4.0564     40.326      2.055   1.653534     3.3300     3.9739     0.0426     0.7614 3.8465e+00     2.7931      4.057      5.885    15.2315 0.0000e+00
      4.157      0.074     4.0534     40.316      2.020   1.625411     3.3300     3.7450     0.0426     0.7614 3.8058e+00     2.9734      4.076      5.912    15.2317 0.0000e+00
      4.176      0.072     4.0503     40.311      2.002   1.610609     3.3300     3.7336     0.0426     0.7614 3.7207e+00     3.0185      4.095      5.939    15.2320 0.0000e+00
      4.194      0.070     4.0477     40.311      2.005   1.613090     3.3300     3.7145     0.0426     0.7614 3.6392e+00     2.8983      4.113      5.965    15.2322 0.0000e+00
      4.212      0.068     4.0460     40.312      2.025   1.629560     3.3300     3.7221     0.0852     0.8883 3.5741e+00     2.9133      4.130      5.990    15.2325 0.0000e+00
      4.229      0.066     4.0450     40.312      2.063   1.660458     3.3300     3.6230     0.0852     0.8883 3.5209e+00     3.2440      4.147      6.015    15.2327 0.0000e+00
      4.245      0.064     4.0445     40.311      2.115   1.702158     3.3300     3.6153     0.0852     0.8883 3.4867e+00     3.2740      4.163      6.038    15.2330 0.0000e+00
      4.261      0.064     4.0444     40.302      2.165   1.742056     3.3300     3.6268     0.0852     0.8883 3.4513e+00     3.1087      4.179      6.060    15.2333 0.0000e+00
      4.277      0.064     4.0445     40.287      2.201   1.771016     3.3300     3.6230     0.0852     0.8883 3.3947e+00     3.1688      4.194      6.083    15.2336 0.0000e+00
      4.292      0.065     4.0445     40.270      2.213   1.780945     3.4200     3.2567     0.0852     0.8883 3.3326e+00     3.6197      4.210      6.105    15.2338 0.0000e+00
      4.309      0.066     4.0443     40.250      2.205   1.774490     3.4200     3.2491     0.0852     0.8883 3.2844e+00     3.6949      4.226      6.129    15.2341 0.0000e+00
      4.326      0.067     4.0434     40.233      2.189   1.761793     3.4200     3.2491     0.0852     0.8883 3.2398e+00     3.6498      4.243      6.153    15.2343 0.0000e+00
      4.344      0.069     4.0419     40.221      2.171   1.747377     3.4200     3.2529     0.0852     0.8883 3.1798e+00     3.5897      4.260      6.178    15.2346 0.0000e+00
      4.362      0.069     4.0401     40.210      2.161   1.739262     3.3300     2.9134     0.1278     0.6768 3.1027e+00     5.3632      4.278      6.204    15.2348 0.0000e+00
      4.380      0.069     4.0382     40.200      2.156   1.735283     3.3300     2.8905     0.1278     0.6768 3.0485e+00     5.2730      4.296      6.230    15.2350 0.0000e+00
      4.398      0.069     4.0364     40.193      2.145   1.726470     3.3300     2.8791     0.1278     0.6768 3.0071e+00     5.3031      4.313      6.255    15.2353 0.0000e+00
      4.415      0.068     4.0352     40.184      2.140   1.722337     3.3300     2.9134     0.1278     0.6768 2.9610e+00     5.3332      4.330      6.280    15.2355 0.0000e+00
      4.432      0.068     4.0341     40.171      2.149   1.729690     3.4200     2.8867     0.1704     0.8460 2.9348e+00     8.9103      4.347      6.304    15.2357 0.0000e+00
      4.450      0.067     4.0331     40.154      2.160   1.738626     3.4200     2.8753     0.1704     0.8460 2.9290e+00     8.8652      4.364      6.329    15.2360 0.0000e+00
      4.467      0.067     4.0323     40.134      2.172   1.747575     3.4200     2.8867     0.1704     0.8460 2.8717e+00     8.8652      4.380      6.353    15.2362 0.0000e+00
      4.483      0.068     4.0315     40.116      2.191   1.762877     3.4200     2.8791     0.1704     0.8460 2.8112e+00     8.9254      4.397      6.377    15.2365 0.0000e+00
      4.500      0.068     4.0302     40.101      2.218   1.784659     3.5100     2.7723     0.2130     1.0998 2.8045e+00     9.8723      4.413      6.401    15.2367 0.0000e+00
      4.518      0.068     4.0284     40.090      2.250   1.810819     3.5100     2.7418     0.2130     1.0998 2.7151e+00     9.8572      4.430      6.426    15.2370 0.0000e+00
      4.536      0.068     4.0264     40.084      2.282   1.836470     3.5100     2.7570     0.2130     1.0998 2.6870e+00     9.8873      4.448      6.451    15.2372 0.0000e+00
      4.554      0.067     4.0245     40.080      2.304   1.854611     3.5100     2.7570     0.2130     1.0998 2.6206e+00     9.8572      4.466      6.477    15.2374 0.0000e+00
      4.571      0.066     4.0230     40.077      2.316   1.864150     3.5100     2.3946     0.2130     1.0998 2.6036e+00    11.2400      4.483      6.502    15.2376 0.0000e+00
      4.588      0.064     4.0219     40.072      2.320   1.867629     3.6000     2.3794     0.2130     1.1844 2.5833e+00    11.2550      4.499      6.526    15.2378 0.0000e+00
      4.604      0.061     4.0212     40.061      2.316   1.863999     3.6000     2.3755     0.2130     1.1844 2.5196e+00    11.3001      4.515      6.549    15.2381 0.0000e+00
      4.619      0.060     4.0208     40.047      2.306   1.856246     3.6000     2.3832     0.2130     1.1844 2.5371e+00    11.2701      4.530      6.570    15.2383 0.0000e+00
      4.633      0.059     4.0205     40.033      2.304   1.854166     3.6000     2.2306     0.2130     1.1844 2.5560e+00    11.4805      4.543      6.590    15.2385 0.0000e+00
      4.647      0.060     4.0200     40.017      2.307   1.857204     3.6900     2.2115     0.2556     1.0152 2.5130e+00    11.4504      4.557      6.610    15.2388 0.0000e+00
      4.662      0.062     4.0188     39.999      2.306   1.856286     3.6900     2.2153     0.2556     1.0152 2.5070e+00    11.4354      4.571      6.630    15.2390 0.0000e+00
      4.677      0.065     4.0174     39.982      2.302   1.853142     3.6900     2.2229     0.2556     1.0152 2.4729e+00    11.5256      4.587      6.652    15.2392 0.0000e+00
      4.694      0.068     4.0161     39.966      2.302   1.852867     3.6900     1.6927     0.2556     1.0152 2.4182e+00    11.6759      4.603      6.676    15.2394 0.0000e+00
      4.712      0.071     4.0144     39.950      2.310   1.859341     3.6900     1.7041     0.2556     0.8037 2.3801e+00    11.6759      4.621      6.702    15.2396 0.0000e+00
      4.732      0.074     4.0126     39.930      2.334   1.878246     3.6900     1.7194     0.2556     0.8037 2.2873e+00    11.7661      4.640      6.730    15.2398 0.0000e+00
      4.751      0.076     4.0109     39.900      2.362   1.900782     3.6900     1.7347     0.2556     0.8037 2.2854e+00    11.7961      4.660      6.758    15.2400 0.0000e+00
      4.771      0.077     4.0093     39.864      2.384   1.919117     3.6900     1.3379     0.2556     0.8037 2.2348e+00    12.4424      4.679      6.787    15.2402 0.0000e+00
      4.791      0.077     4.0076     39.824      2.408   1.938142     3.6900     1.3341     0.2556     0.6345 2.1886e+00    12.3823      4.699      6.815    15.2404 0.0000e+00
      4.811      0.076     4.0055     39.786      2.426   1.953043     3.6900     1.3341     0.2556     0.6345 2.1617e+00    12.4875      4.718      6.843    15.2406 0.0000e+00
      4.830      0.075     4.0026     39.749      2.427   1.953954     3.6900     1.3379     0.2556     0.6345 2.1458e+00    12.3823      4.737      6.870    15.2409 0.0000e+00
      4.849      0.074     3.9989     39.715      2.411   1.941116     3.6900     1.0213     0.2556     0.6345 2.0666e+00    12.4725      4.756      6.897    15.2411 0.0000e+00
      4.868      0.074     3.9949     39.687      2.391   1.924947     3.6900     1.0213     0.2556     0.6345 2.0363e+00    12.3823      4.774      6.924    15.2413 0.0000e+00
      4.886      0.074     3.9910     39.668      2.386   1.920909     3.6900     1.0251     0.2982     0.6768 2.0297e+00    12.4424      4.792      6.950    15.2414 0.0000e+00
      4.904      0.074     3.9873     39.655      2.400   1.931878     3.6900     1.0213     0.2982     0.6768 2.0527e+00    12.4574      4.810      6.976    15.2416 0.0000e+00
      4.923      0.076     3.9839     39.644      2.406   1.937053     3.6900     0.8573     0.2982     0.6768 1.9869e+00    12.7130      4.828      7.002    15.2418 0.0000e+00
      4.942      0.077     3.9811     39.636      2.385   1.920019     3.6900     0.8306     0.2982     0.6768 1.9612e+00    12.6829      4.847      7.030    15.2420 0.0000e+00
      4.963      0.079     3.9791     39.637      2.346   1.888096     3.7800     0.8725     0.2982     0.5499 1.8708e+00    12.6077      4.867      7.059    15.2422 0.0000e+00
      4.983      0.080     3.9778     39.645      2.304   1.854522     3.7800     0.8535     0.2982     0.5499 1.8647e+00    12.6829      4.887      7.088    15.2424 0.0000e+00
      5.004      0.081     3.9767     39.663      2.264   1.822207     3.7800     0.7466     0.2982     0.5499 1.7963e+00    13.5546      4.907      7.118    15.2425 0.0000e+00
      5.025      0.081     3.9759     39.694      2.217   1.784511     3.7800     0.7581     0.2982     0.5499 1.7847e+00    13.6899      4.928      7.147    15.2427 0.0000e+00
      5.046      0.081     3.9760     39.741      2.166   1.743244     3.8700     0.7085     0.2556     0.2538 1.6973e+00    13.6148      4.948      7.177    15.2429 0.0000e+00
      5.066      0.080     3.9768     39.804      2.121   1.707176     3.8700     0.7161     0.2556     0.2538 1.7021e+00    13.5246      4.968      7.206    15.2430 0.0000e+00
      5.087      0.079     3.9785     39.881      2.090   1.682506     3.8700     0.6894     0.2556     0.2538 1.6511e+00    14.2611      4.988      7.235    15.2432 0.0000e+00
      5.107      0.078     3.9816     39.955      2.085   1.678474     3.8700     0.6970     0.2556     0.2538 1.6407e+00    14.3963      5.008      7.264    15.2434 0.0000e+00
      5.127      0.077     3.9863     40.014      2.105   1.694003     3.9600     0.6665     0.2982     0.2961 1.6006e+00    14.2761      5.027      7.292    15.2435 0.0000e+00
      5.146      0.077     3.9927     40.064      2.134   1.717417     3.9600     0.6818     0.2982     0.2961 1.5809e+00    14.4414      5.046      7.319    15.2437 0.0000e+00
      5.165      0.077     4.0003     40.106      2.166   1.743097     3.9600     0.6131     0.2982     0.2961 1.5672e+00    14.3061      5.065      7.346    15.2438 0.0000e+00
      5.184      0.077     4.0077     40.139      2.194   1.766027     3.9600     0.6436     0.2982     0.2961 1.4769e+00    14.5617      5.084      7.374    15.2439 0.0000e+00
      5.204      0.077     4.0137     40.159      2.212   1.780458     3.9600     0.6208     0.2982     0.2961 1.4455e+00    14.3212      5.103      7.402    15.2441 0.0000e+00
      5.224      0.077     4.0187     40.160      2.224   1.790238     3.8700     0.6131     0.2982     0.2538 1.4037e+00    14.3512      5.123      7.431    15.2442 0.0000e+00
      5.244      0.077     4.0229     40.150      2.234   1.797977     3.8700     0.5292     0.2982     0.2538 1.2981e+00    14.4264      5.143      7.459    15.2443 0.0000e+00
      5.264      0.077     4.0262     40.136      2.229   1.793872     3.8700     0.4987     0.2982     0.2538 1.2829e+00    14.4565      5.162      7.487    15.2444 0.0000e+00
      5.283      0.076     4.0282     40.116      2.202   1.772877     3.8700     0.4987     0.2982     0.2538 1.2746e+00    14.3813      5.181      7.515    15.2444 0.0000e+00
      5.302      0.075     4.0283     40.091      2.173   1.749163     3.9600     0.4949     0.3408     0.2961 1.2012e+00    14.3212      5.200      7.542    15.2445 0.0000e+00
      5.321      0.074     4.0273     40.056      2.167   1.744089     3.9600     0.5445     0.3408     0.2961 1.1524e+00    14.7871      5.218      7.569    15.2445 0.0000e+00
      5.340      0.073     4.0259     40.003      2.192   1.764212     3.9600     0.5521     0.3408     0.2961 1.1173e+00    14.8773      5.237      7.595    15.2446 0.0000e+00
      5.358      0.073     4.0239     39.940      2.230   1.795123     3.9600     0.5712     0.3408     0.2961 1.0787e+00    14.8623      5.255      7.621    15.2446 0.0000e+00
      5.376      0.073     4.0214     39.881      2.255   1.815409     3.9600     0.5673     0.2982     0.3384 1.0675e+00    14.8021      5.272      7.647    15.2447 0.0000e+00
      5.394      0.074     4.0179     39.831      2.262   1.820592     3.9600     0.5521     0.2982     0.3384 1.0548e+00    14.7871      5.290      7.673    15.2447 0.0000e+00
      5.413      0.075     4.0125     39.788      2.273   1.829849     3.9600     0.5750     0.2982     0.3384 1.0122e+00    14.8172      5.308      7.699    15.2447 0.0000e+00
      5.433      0.076     4.0062     39.756      2.303   1.853559     3.9600     0.5712     0.2982     0.3384 9.6805e-01    14.6819      5.327      7.727    15.2447 0.0000e+00
      5.452      0.077     4.0003     39.745      2.328   1.874316     4.0500     0.5635     0.2982     0.2538 9.0637e-01    14.8172      5.347      7.755    15.2446 0.0000e+00
      5.472      0.077     3.9953     39.757      2.330   1.875907     4.0500     0.6589     0.2982     0.2538 8.9853e-01    14.7721      5.367      7.784    15.2446 0.0000e+00
      5.492      0.077     3.9910     39.777      2.312   1.860732     4.0500     0.6208     0.2982     0.2538 8.9172e-01    14.7721      5.386      7.812    15.2445 0.0000e+00
      5.512      0.076     3.9878     39.795      2.282   1.836608     4.0500     0.6208     0.2982     0.2538 8.1926e-01    14.8172      5.405      7.840    15.2444 0.0000e+00
      5.531      0.075     3.9868     39.804      2.245   1.806990     4.0500     0.6436     0.2982     0.2538 7.7140e-01    14.8021      5.424      7.867    15.2443 0.0000e+00
      5.550      0.073     3.9879     39.794      2.201   1.771888     3.9600     0.5788     0.2982     0.2538 7.7881e-01    14.8623      5.443      7.894    15.2441 0.0000e+00
      5.568      0.071     3.9900     39.760      2.149   1.729850     3.9600     0.5635     0.2982     0.2538 7.2115e-01    14.6969      5.461      7.920    15.2440 0.0000e+00
      5.586      0.070     3.9917     39.718      2.099   1.689438     3.9600     0.5445     0.2982     0.2538 7.3827e-01    14.7871      5.478      7.945    15.2438 0.0000e+00
      5.603      0.070     3.9927     39.687      2.071   1.667557     3.9600     0.5712     0.2982     0.2538 6.9409e-01    14.8021      5.495      7.970    15.2436 0.0000e+00
      5.621      0.070     3.9917     39.673      2.075   1.670235     3.9600     0.6093     0.3408     0.1692 6.8793e-01    15.0577      5.512      7.994    15.2434 0.0000e+00
      5.638      0.070     3.9883     39.671      2.110   1.698188     3.9600     0.6131     0.3408     0.1692 6.5539e-01    15.0727      5.529      8.019    15.2431 0.0000e+00
      5.656      0.071     3.9841     39.669      2.170   1.747006     3.9600     0.6093     0.3408     0.1692 6.3272e-01    15.1328      5.546      8.045    15.2429 0.0000e+00
      5.674      0.071     3.9810     39.666      2.234   1.798070     3.9600     0.6246     0.3408     0.1692 6.2412e-01    15.0426      5.564      8.071    15.2426 0.0000e+00
      5.693      0.072     3.9796     39.656      2.280   1.835340     3.9600     0.5712     0.3408     0.2538 6.1257e-01    14.8021      5.583      8.097    15.2423 0.0000e+00
      5.711      0.072     3.9794     39.630      2.309   1.858867     3.9600     0.5483     0.3408     0.2538 5.9344e-01    14.7571      5.601      8.123    15.2419 0.0000e+00
      5.730      0.072     3.9793     39.591      2.337   1.880858     3.9600     0.5864     0.3408     0.2538 5.7503e-01    14.8021      5.619      8.150    15.2416 0.0000e+00
      5.748      0.071     3.9790     39.553      2.369   1.907177     3.9600     0.5597     0.3408     0.2538 5.6993e-01    14.7721      5.637      8.176    15.2412 0.0000e+00
      5.766      0.070     3.9781     39.528      2.392   1.925069     3.9600     0.6436     0.3408     0.2115 5.3886e-01    15.2681      5.654      8.202    15.2408 0.0000e+00
      5.784      0.070     3.9755     39.528      2.387   1.921510     3.9600     0.6208     0.3408     0.2115 5.1943e-01    15.2681      5.672      8.227    15.2404 0.0000e+00
      5.802      0.069     3.9716     39.556      2.360   1.899506     3.9600     0.6436     0.3408     0.2115 5.0485e-01    15.1929      5.689      8.252    15.2399 0.0000e+00
      5.819      0.068     3.9679     39.604      2.325   1.870984     3.9600     0.6093     0.3408     0.2115 4.7145e-01    15.2831      5.706      8.277    15.2394 0.0000e+00
      5.836      0.068     3.9654     39.668      2.297   1.848110     3.9600     0.6360     0.3408     0.2115 4.6182e-01    15.2380      5.723      8.301    15.2388 0.0000e+00
      5.853      0.068     3.9654     39.736      2.290   1.842582     3.8700     0.6093     0.3408     0.2115 4.6575e-01    15.3282      5.740      8.325    15.2383 0.0000e+00
      5.870      0.068     3.9683     39.791      2.300   1.850946     3.8700     0.6208     0.3408     0.2115 4.5931e-01    15.1629      5.757      8.350    15.2377 0.0000e+00
      5.888      0.068     3.9732     39.829      2.308   1.857639     3.8700     0.6284     0.3408     0.2115 4.5396e-01    15.3282      5.774      8.374    15.2371 0.0000e+00
      5.905      0.068     3.9796     39.847      2.307   1.856536     3.8700     0.5864     0.3408     0.2115 4.4915e-01    15.2230      5.791      8.399    15.2365 0.0000e+00
      5.923      0.067     3.9865     39.838      2.295   1.847344     3.9600     0.6322     0.3408     0.3384 4.1770e-01    15.3282      5.808      8.424    15.2359 0.0000e+00
      5.940      0.066     3.9921     39.809      2.271   1.827610     3.9600     0.6246     0.3408     0.3384 4.0029e-01    15.2831      5.825      8.449    15.2352 0.0000e+00
      5.957      0.065     3.9960     39.775      2.232   1.796027     3.9600     0.6208     0.3408     0.3384 4.0046e-01    15.1929      5.842      8.473    15.2344 0.0000e+00
      5.974      0.063     3.9978     39.744      2.189   1.761968     3.9600     0.6246     0.3408     0.3384 3.6824e-01    15.2380      5.858      8.497    15.2337 0.0000e+00
      5.990      0.061     3.9970     39.715      2.165   1.742054     3.9600     0.6360     0.2982     0.2961 3.6355e-01    15.2380      5.874      8.519    15.2329 0.0000e+00
      6.005      0.060     3.9942     39.690      2.161   1.738885     3.9600     0.6208     0.2982     0.2961 3.6641e-01    15.3883      5.889      8.541    15.2321 0.0000e+00
      6.019      0.058     3.9908     39.670      2.167   1.743706     3.9600     0.6284     0.2982     0.2961 3.6402e-01    15.2230      5.903      8.562    15.2313 0.0000e+00
      6.034      0.058     3.9878     39.654      2.175   1.749893     3.9600     0.5712     0.2982     0.2961 3.4779e-01    14.9675      5.917      8.582    15.2305 0.0000e+00
      6.048      0.058     3.9850     39.642      2.186   1.759098     3.9600     0.5940     0.3408     0.2115 3.3372e-01    15.0727      5.932      8.603    15.2296 0.0000e+00
      6.063      0.058     3.9826     39.624      2.209   1.777728     3.9600     0.5368     0.3408     0.2115 3.4216e-01    15.0727      5.946      8.623    15.2287 0.0000e+00
      6.078      0.059     3.9806     39.595      2.228   1.792957     3.9600     0.5483     0.3408     0.2115 3.2527e-01    15.1027      5.961      8.645    15.2277 0.0000e+00
      6.093      0.059     3.9791     39.565      2.226   1.791050     3.9600     0.5483     0.3408     0.2115 3.3321e-01    15.4334      5.975      8.666    15.2268 0.0000e+00
      6.108      0.060     3.9780     39.542      2.214   1.781386     3.9600     0.5788     0.3408     0.2115 3.2246e-01    15.2981      5.990      8.688    15.2258 0.0000e+00
      6.124      0.060     3.9763     39.522      2.207   1.775228     3.9600     0.5368     0.2982     0.2538 3.2471e-01    15.2230      6.006      8.710    15.2248 0.0000e+00
      6.139      0.060     3.9735     39.509      2.206   1.774888     3.9600     0.5635     0.2982     0.2538 2.8279e-01    15.2230      6.021      8.732    15.2237 0.0000e+00
      6.154      0.060     3.9705     39.502      2.203   1.772366     3.9600     0.5940     0.2982     0.2538 2.5667e-01    15.0877      6.036      8.754    15.2227 0.0000e+00
      6.170      0.060     3.9682     39.492      2.182   1.755126     3.9600     0.5635     0.2982     0.2538 2.9446e-01    15.1328      6.050      8.775    15.2216 0.0000e+00
      6.185      0.061     3.9664     39.483      2.141   1.722527     3.9600     0.5635     0.3408     0.2115 2.6518e-01    15.0727      6.065      8.797    15.2205 0.0000e+00
      6.200      0.061     3.9652     39.478      2.091   1.681692     3.9600     0.5750     0.3408     0.2115 2.8065e-01    15.1328      6.081      8.819    15.2194 0.0000e+00
      6.216      0.062     3.9645     39.471      2.036   1.637550     3.9600     0.5635     0.3408     0.2115 2.6942e-01    15.1178      6.096      8.842    15.2183 0.0000e+00
      6.232      0.062     3.9637     39.461      1.987   1.598103     3.9600     0.5483     0.3408     0.2115 2.4453e-01    14.9825      6.112      8.865    15.2171 0.0000e+00
      6.248      0.063     3.9628     39.449      1.955   1.572603     3.9600     0.5635     0.3408     0.2961 2.1418e-01    14.9975      6.128      8.887    15.2158 0.0000e+00
      6.264      0.063     3.9624     39.432      1.942   1.562160     3.9600     0.5521     0.3408     0.2961 2.2340e-01    15.0577      6.143      8.910    15.2146 0.0000e+00
      6.281      0.063     3.9618     39.408      1.940   1.560033     3.9600     0.5712     0.3408     0.2961 2.3896e-01    15.0426      6.159      8.933    15.2133 0.0000e+00
      6.297      0.064     3.9610     39.382      1.937   1.557748     3.9600     0.5216     0.3408     0.2961 2.4157e-01    14.9825      6.175      8.956    15.2121 0.0000e+00
      6.313      0.064     3.9599     39.363      1.929   1.550739     3.9600     0.5521     0.3408     0.2961 2.2855e-01    15.0727      6.191      8.979    15.2108 0.0000e+00
      6.329      0.065     3.9582     39.351      1.922   1.545047     3.9600     0.5673     0.2982     0.2538 2.2638e-01    15.0577      6.207      9.002    15.2094 0.0000e+00
      6.346      0.065     3.9560     39.345      1.936   1.556950     3.9600     0.6169     0.2982     0.2538 2.0223e-01    15.2831      6.223      9.026    15.2081 0.0000e+00
      6.363      0.066     3.9535     39.342      1.974   1.587644     3.9600     0.6093     0.2982     0.2538 1.9030e-01    15.2380      6.240      9.050    15.2067 0.0000e+00
      6.380      0.066     3.9517     39.344      2.009   1.615655     3.9600     0.6208     0.2982     0.2538 2.0232e-01    15.2981      6.257      9.074    15.2053 0.0000e+00
      6.397      0.066     3.9506     39.344      2.028   1.630658     4.0500     0.6246     0.3408     0.2115 1.9897e-01    15.2981      6.273      9.099    15.2039 0.0000e+00
      6.414      0.066     3.9501     39.338      2.031   1.632699     4.0500     0.6322     0.3408     0.2115 1.9571e-01    15.0426      6.290      9.123    15.2025 0.0000e+00
      6.431      0.066     3.9500     39.330      2.018   1.622323     4.0500     0.6398     0.3408     0.2115 1.5920e-01    15.0426      6.307      9.147    15.2010 0.0000e+00
      6.448      0.065     3.9503     39.317      2.006   1.612581     4.0500     0.6513     0.3408     0.2115 1.7891e-01    15.0126      6.323      9.171    15.1994 0.0000e+00
      6.465      0.065     3.9504     39.297      2.006   1.612738     4.0500     0.6360     0.2982     0.2538 1.6394e-01    14.9675      6.340      9.195    15.1979 0.0000e+00
      6.481      0.064     3.9500     39.280      2.024   1.626791     4.0500     0.6360     0.2982     0.2538 1.6084e-01    15.0877      6.356      9.218    15.1963 0.0000e+00
      6.497      0.063     3.9494     39.270      2.058   1.654532     4.0500     0.6169     0.2982     0.2538 1.7268e-01    15.3432      6.372      9.241    15.1948 0.0000e+00
      6.513      0.062     3.9481     39.263      2.090   1.679633     4.0500     0.6475     0.2982     0.2538 1.5207e-01    15.2530      6.387      9.264    15.1932 0.0000e+00
      6.529      0.061     3.9462     39.254      2.097   1.685059     4.0500     0.6208     0.2982     0.2961 1.3778e-01    15.2981      6.403      9.286    15.1916 0.0000e+00
      6.544      0.061     3.9446     39.241      2.071   1.664350     4.0500     0.6322     0.2982     0.2961 1.4729e-01    15.2981      6.418      9.308    15.1899 0.0000e+00
      6.559      0.061     3.9438     39.231      2.026   1.627800     4.0500     0.5712     0.2982     0.2961 1.4643e-01    15.2380      6.432      9.329    15.1882 0.0000e+00
      6.574      0.061     3.9433     39.228      1.988   1.597300     4.0500     0.5521     0.2982     0.2961 1.2338e-01    15.3282      6.447      9.351    15.1866 0.0000e+00
      6.590      0.062     3.9425     39.231      1.967   1.580532     4.0500     0.5864     0.2982     0.2961 1.4318e-01    15.3282      6.463      9.373    15.1849 0.0000e+00
      6.606      0.063     3.9413     39.232      1.953   1.569071     3.9600     0.5864     0.3408     0.2961 1.3459e-01    15.1779      6.479      9.396    15.1832 0.0000e+00
      6.622      0.064     3.9404     39.226      1.936   1.555907     3.9600     0.6131     0.3408     0.2961 1.4633e-01    15.2230      6.495      9.420    15.1814 0.0000e+00
      6.639      0.065     3.9403     39.217      1.914   1.537528     3.9600     0.6208     0.3408     0.2961 1.3224e-01    15.2981      6.511      9.443    15.1797 0.0000e+00
      6.656      0.065     3.9407     39.205      1.883   1.512990     3.9600     0.6513     0.3408     0.2961 1.3757e-01    15.4184      6.527      9.467    15.1779 0.0000e+00
      6.672      0.065     3.9410     39.193      1.851   1.487611     3.9600     0.6360     0.2982     0.1692 1.2010e-01    15.2530      6.544      9.491    15.1761 0.0000e+00
      6.689      0.065     3.9405     39.182      1.828   1.468464     3.9600     0.5635     0.2982     0.1692 1.3198e-01    15.2831      6.560      9.515    15.1743 0.0000e+00
      6.706      0.064     3.9398     39.167      1.815   1.458352     3.9600     0.5673     0.2982     0.1692 1.4890e-01    15.2681      6.576      9.538    15.1725 0.0000e+00
      6.722      0.063     3.9388     39.149      1.823   1.464466     3.9600     0.5712     0.2982     0.1692 1.3529e-01    15.2080      6.592      9.561    15.1706 0.0000e+00
      6.738      0.061     3.9377     39.128      1.850   1.486457     4.0500     0.5826     0.3408     0.1692 1.1612e-01    15.3583      6.608      9.584    15.1687 0.0000e+00
      6.753      0.060     3.9368     39.103      1.870   1.502509     4.0500     0.5750     0.3408     0.1692 1.2886e-01    15.0727      6.622      9.605    15.1668 0.0000e+00
      6.768      0.060     3.9355     39.079      1.871   1.503062     4.0500     0.5330     0.3408     0.1692 1.1615e-01    15.0727      6.637      9.626    15.1649 0.0000e+00
      6.783      0.060     3.9338     39.058      1.863   1.496172     4.0500     0.5521     0.3408     0.1692 1.1592e-01    15.0276      6.651      9.647    15.1629 0.0000e+00
      6.798      0.060     3.9319     39.036      1.852   1.487912     3.9600     0.5712     0.3408     0.2961 1.1617e-01    14.9975      6.666      9.668    15.1610 0.0000e+00
      6.813      0.060     3.9296     39.013      1.848   1.483987     3.9600     0.5788     0.3408     0.2961 1.1617e-01    15.2230      6.681      9.690    15.1590 0.0000e+00
      6.828      0.061     3.9273     38.997      1.842   1.479396     3.9600     0.5712     0.3408     0.2961 1.1623e-01    15.2981      6.696      9.712    15.1570 0.0000e+00
      6.844      0.061     3.9254     38.979      1.824   1.465006     3.9600     0.5673     0.3408     0.2961 1.1617e-01    15.3282      6.712      9.735    15.1550 0.0000e+00
      6.860      0.061     3.9233     38.956      1.802   1.446866     3.9600     0.5597     0.3408     0.2961 1.1617e-01    15.2380      6.728      9.758    15.1530 0.0000e+00
      6.876      0.061     3.9212     38.930      1.783   1.432002     3.9600     0.5788     0.2982     0.2538 1.1617e-01    15.8543      6.743      9.780    15.1509 0.0000e+00
      6.892      0.060     3.9197     38.904      1.767   1.418427     3.9600     0.5597     0.2982     0.2538 1.1628e-01    15.7641      6.758      9.803    15.1489 0.0000e+00
      6.907      0.059     3.9181     38.875      1.752   1.406475     3.9600     0.5635     0.2982     0.2538 1.1595e-01    15.7791      6.773      9.824    15.1468 0.0000e+00
      6.922      0.057     3.9159     38.848      1.750   1.404823     3.9600     0.5635     0.2982     0.2538 1.1617e-01    15.6589      6.788      9.845    15.1447 0.0000e+00
      6.936      0.056     3.9135     38.827      1.765   1.416984     3.9600     0.5788     0.3834     0.2538 1.1633e-01    15.3132      6.802      9.866    15.1425 0.0000e+00
      6.950      0.056     3.9111     38.809      1.785   1.432361     3.9600     0.5445     0.3834     0.2538 1.1610e-01    15.1779      6.815      9.886    15.1404 0.0000e+00
      6.964      0.056     3.9084     38.795      1.793   1.439237     3.9600     0.5635     0.3834     0.2538 1.1605e-01    15.3282      6.829      9.905    15.1382 0.0000e+00
      6.978      0.057     3.9058     38.787      1.794   1.439446     3.9600     0.5635     0.3834     0.2538 1.1620e-01    15.1629      6.843      9.925    15.1360 0.0000e+00
      6.992      0.058     3.9039     38.780      1.805   1.448861     4.0500     0.6436     0.3408     0.2115 1.1620e-01    15.4935      6.857      9.945    15.1337 0.0000e+00
      7.007      0.059     3.9023     38.764      1.839   1.475924     4.0500     0.6322     0.3408     0.2115 1.1612e-01    15.5386      6.871      9.966    15.1315 0.0000e+00
      7.022      0.060     3.9011     38.739      1.887   1.514012     4.0500     0.6398     0.3408     0.2115 1.1612e-01    15.5086      6.886      9.988    15.1292 0.0000e+00
      7.038      0.060     3.9004     38.703      1.931   1.549554     4.0500     0.6513     0.3408     0.2115 1.1630e-01    15.4785      6.902     10.011    15.1269 0.0000e+00
      7.054      0.059     3.8999     38.658      1.967   1.578187     3.8700     0.6017     0.3408     0.2538 1.1610e-01    14.9825      6.918     10.034    15.1246 0.0000e+00
      7.070      0.057     3.8986     38.610      2.009   1.611503     3.8700     0.6093     0.3408     0.2538 1.1612e-01    15.0276      6.933     10.055    15.1222 0.0000e+00
      7.084      0.055     3.8962     38.563      2.058   1.650477     3.8700     0.6284     0.3408     0.2538 1.1612e-01    15.1027      6.947     10.076    15.1198 0.0000e+00
      7.098      0.053     3.8928     38.516      2.102   1.685728     3.8700     0.6436     0.3408     0.2538 1.1623e-01    14.9675      6.960     10.095    15.1174 0.0000e+00
      7.110      0.050     3.8885     38.467      2.138   1.714794     3.8700     0.5521     0.3408     0.2538 1.1602e-01    15.3282      6.973     10.113    15.1149 0.0000e+00
      7.123      0.048     3.8838     38.422      2.154   1.727631     4.0500     0.5559     0.3834     0.2538 1.1625e-01    15.2080      6.985     10.131    15.1125 0.0000e+00
      7.135      0.046     3.8793     38.386      2.137   1.713821     4.0500     0.5788     0.3834     0.2538 1.1633e-01    15.2831      6.997     10.148    15.1100 0.0000e+00
      7.146      0.044     3.8748     38.352      2.099   1.683522     4.0500     0.5635     0.3834     0.2538 1.1623e-01    15.2380      7.008     10.164    15.1074 0.0000e+00
      7.157      0.043     3.8701     38.313      2.053   1.646449     4.0500     0.5483     0.3834     0.2538 1.1628e-01    15.2380      7.018     10.179    15.1049 0.0000e+00
      7.167      0.043     3.8658     38.272      2.001   1.604580     3.9600     0.5864     0.3408     0.2115 1.1625e-01    15.2080      7.029     10.194    15.1023 0.0000e+00
      7.177      0.044     3.8624     38.239      1.954   1.566523     3.9600     0.5635     0.3408     0.2115 1.1605e-01    15.3132      7.039     10.209    15.0997 0.0000e+00
      7.188      0.046     3.8592     38.217      1.913   1.533991     3.9600     0.5826     0.3408     0.2115 1.1607e-01    15.2080      7.049     10.224    15.0970 0.0000e+00
      7.200      0.048     3.8555     38.204      1.874   1.502265     3.9600     0.6169     0.3408     0.2115 1.1615e-01    15.3583      7.060     10.241    15.0944 0.0000e+00
      7.212      0.050     3.8516     38.196      1.839   1.474746     3.9600     0.6246     0.2982     0.2538 1.1623e-01    15.1929      7.073     10.258    15.0917 0.0000e+00
      7.226      0.052     3.8485     38.179      1.819   1.457938     3.9600     0.6322     0.2982     0.2538 1.1612e-01    15.2831      7.086     10.277    15.0890 0.0000e+00
      7.240      0.053     3.8465     38.150      1.813   1.453289     3.9600     0.6017     0.2982     0.2538 1.1628e-01    15.3883      7.099     10.297    15.0862 0.0000e+00
      7.254      0.054     3.8454     38.114      1.816   1.455607     3.9600     0.6131     0.2982     0.2538 1.1605e-01    15.3883      7.113     10.317    15.0835 0.0000e+00
      7.268      0.054     3.8448     38.076      1.824   1.461554     4.0500     0.6360     0.3408     0.2538 1.1623e-01    15.2530      7.127     10.337    15.0807 0.0000e+00
      7.281      0.054     3.8434     38.034      1.830   1.466784     4.0500     0.6360     0.3408     0.2538 1.1620e-01    15.2981      7.140     10.357    15.0780 0.0000e+00
      7.295      0.053     3.8406     37.981      1.826   1.462806     4.0500     0.6360     0.3408     0.2538 1.1610e-01    15.1929      7.154     10.376    15.0752 0.0000e+00
      7.309      0.053     3.8373     37.914      1.815   1.454492     4.0500     0.5635     0.3408     0.2538 1.1605e-01    15.2530      7.167     10.396    15.0723 0.0000e+00
      7.322      0.052     3.8337     37.836      1.816   1.455441     4.0500     0.5521     0.3408     0.2538 1.1620e-01    15.2230      7.181     10.415    15.0695 0.0000e+00
      7.335      0.052     3.8297     37.754      1.825   1.461951     3.9600     0.5597     0.3408     0.1269 1.1638e-01    15.2230      7.194     10.434    15.0666 0.0000e+00
      7.348      0.052     3.8246     37.675      1.827   1.463897     3.9600     0.5635     0.3408     0.1269 1.1612e-01    15.2681      7.207     10.452    15.0637 0.0000e+00
      7.361      0.052     3.8181     37.603      1.830   1.465751     3.9600     0.5750     0.3408     0.1269 1.1612e-01    15.0877      7.219     10.471    15.0607 0.0000e+00
      7.374      0.053     3.8104     37.546      1.843   1.475916     3.9600     0.5750     0.3408     0.1269 1.1615e-01    14.9675      7.232     10.489    15.0578 0.0000e+00
      7.388      0.054     3.8024     37.507      1.869   1.497104     3.9600     0.5635     0.3408     0.2538 1.1628e-01    15.0727      7.245     10.509    15.0549 0.0000e+00
      7.402      0.056     3.7947     37.480      1.907   1.527055     3.9600     0.5712     0.3408     0.2538 1.1607e-01    15.0426      7.259     10.529    15.0519 0.0000e+00
      7.417      0.058     3.7877     37.464      1.943   1.555961     3.9600     0.5635     0.3408     0.2538 1.1605e-01    15.2681      7.273     10.550    15.0489 0.0000e+00
      7.432      0.060     3.7822     37.458      1.963   1.571759     3.9600     0.6093     0.3408     0.2538 1.1620e-01    15.2080      7.288     10.571    15.0459 0.0000e+00
      7.447      0.062     3.7785     37.449      1.962   1.570752     4.0500     0.5521     0.3408     0.1692 1.1615e-01    15.2681      7.303     10.592    15.0429 0.0000e+00
      7.463      0.063     3.7760     37.425      1.949   1.560580     4.0500     0.5635     0.3408     0.1692 1.1612e-01    15.2681      7.318     10.615    15.0399 0.0000e+00
      7.479      0.065     3.7747     37.389      1.947   1.558304     4.0500     0.6360     0.3408     0.1692 1.1623e-01    15.5386      7.335     10.638    15.0368 0.0000e+00
      7.497      0.066     3.7743     37.346      1.973   1.579133     4.0500     0.6093     0.3408     0.1692 1.1605e-01    15.4935      7.352     10.663    15.0338 0.0000e+00
      7.514      0.066     3.7737     37.296      2.030   1.624669     4.0500     0.6360     0.3408     0.3384 1.1628e-01    15.5687      7.369     10.688    15.0307 0.0000e+00
      7.531      0.066     3.7716     37.232      2.098   1.679373     4.0500     0.6436     0.3408     0.3384 1.1628e-01    15.5086      7.385     10.712    15.0277 0.0000e+00
      7.548      0.065     3.7682     37.150      2.147   1.718288     4.0500     0.6360     0.3408     0.3384 1.1615e-01    15.1629      7.402     10.736    15.0246 0.0000e+00
      7.564      0.064     3.7641     37.052      2.160   1.728064     4.0500     0.6169     0.3408     0.3384 1.1605e-01    15.3132      7.418     10.759    15.0215 0.0000e+00
      7.580      0.064     3.7593     36.947      2.149   1.719218     4.0500     0.6208     0.3408     0.3384 1.1610e-01    15.2530      7.434     10.782    15.0184 0.0000e+00
      7.596      0.064     3.7531     36.837      2.136   1.709162     4.0500     0.6131     0.3408     0.2115 1.1612e-01    15.2831      7.449     10.805    15.0152 0.0000e+00
      7.612      0.064     3.7450     36.726      2.129   1.703125     4.0500     0.5635     0.3408     0.2115 1.1625e-01    15.0276      7.465     10.827    15.0121 0.0000e+00
      7.628      0.065     3.7355     36.624      2.124   1.699496     4.0500     0.5673     0.3408     0.2115 1.1612e-01    14.9675      7.481     10.850    15.0089 0.0000e+00
      7.645      0.066     3.7251     36.531      2.117   1.693352     4.0500     0.5750     0.3408     0.2115 1.1615e-01    15.0577      7.497     10.873    15.0058 0.0000e+00
      7.661      0.067     3.7143     36.445      2.099   1.679102     3.9600     0.5712     0.3408     0.2538 1.1633e-01    15.1027      7.513     10.897    15.0026 0.0000e+00
      7.679      0.068     3.7034     36.369      2.081   1.664809     3.9600     0.5826     0.3408     0.2538 1.1617e-01    15.1779      7.530     10.922    14.9994 0.0000e+00
      7.697      0.069     3.6933     36.306      2.074   1.658525     3.9600     0.5750     0.3408     0.2538 1.1617e-01    15.1328      7.548     10.947    14.9962 0.0000e+00
      7.715      0.068     3.6841     36.258      2.069   1.654618     3.9600     0.5521     0.3408     0.2538 1.1628e-01    15.2230      7.566     10.973    14.9930 0.0000e+00
      7.733      0.067     3.6757     36.222      2.066   1.652048     3.8700     0.5788     0.3408     0.2115 1.1612e-01    15.3132      7.584     10.999    14.9898 0.0000e+00
      7.750      0.064     3.6683     36.195      2.068   1.654084     3.8700     0.6398     0.3408     0.2115 1.1617e-01    14.9374      7.601     11.024    14.9865 0.0000e+00
      7.767      0.060     3.6623     36.177      2.073   1.657315     3.8700     0.6169     0.3408     0.2115 1.1617e-01    14.9825      7.617     11.048    14.9833 0.0000e+00
      7.782      0.056     3.6576     36.168      2.070   1.654691     3.8700     0.6246     0.3408     0.2115 1.1615e-01    15.1328      7.632     11.069    14.9800 0.0000e+00
      7.795      0.052     3.6543     36.151      2.053   1.641560     4.0500     0.6284     0.3834     0.2961 1.1628e-01    15.1478      7.645     11.088    14.9768 0.0000e+00
      7.808      0.049     3.6518     36.112      2.029   1.622330     4.0500     0.5750     0.3834     0.2961 1.1633e-01    15.0727      7.657     11.106    14.9736 0.0000e+00
      7.819      0.046     3.6503     36.048      2.011   1.607688     4.0500     0.5597     0.3834     0.2961 1.1625e-01    15.0727      7.668     11.122    14.9704 0.0000e+00
      7.830      0.043     3.6496     35.968      2.009   1.605595     4.0500     0.5635     0.3834     0.2961 1.1612e-01    15.0426      7.679     11.137    14.9671 0.0000e+00
      7.841      0.042     3.6482     35.872      2.021   1.615493     4.0500     0.5445     0.3834     0.2961 1.1633e-01    15.1629      7.689     11.152    14.9639 0.0000e+00
      7.851      0.040     3.6445     35.757      2.033   1.624204     3.9600     0.5712     0.3408     0.2538 1.1615e-01    15.6739      7.699     11.167    14.9606 0.0000e+00
      7.862      0.039     3.6383     35.636      2.030   1.622185     3.9600     0.5826     0.3408     0.2538 1.1620e-01    15.8242      7.709     11.182    14.9573 0.0000e+00
      7.872      0.037     3.6305     35.529      2.014   1.608900     3.9600     0.5864     0.3408     0.2538 1.1615e-01    15.6889      7.719     11.196    14.9541 0.0000e+00
      7.881      0.035     3.6211     35.436      1.984   1.584760     3.9600     0.5521     0.3408     0.2538 1.1628e-01    15.6739      7.729     11.210    14.9508 0.0000e+00
      7.890      0.033     3.6097     35.350      1.952   1.559146     4.0500     0.5750     0.3408     0.2115 1.1610e-01    15.2380      7.737     11.222    14.9475 0.0000e+00
      7.897      0.031     3.5978     35.266      1.929   1.541045     4.0500     0.5521     0.3408     0.2115 1.1612e-01    15.1929      7.745     11.233    14.9441 0.0000e+00
      7.905      0.029     3.5872     35.185      1.920   1.533539     4.0500     0.5864     0.3408     0.2115 1.1630e-01    15.4184      7.752     11.243    14.9408 0.0000e+00
      7.911      0.029     3.5781     35.108      1.927   1.538580     4.0500     0.5673     0.3408     0.2115 1.1602e-01    15.2230      7.758     11.253    14.9374 0.0000e+00
      7.918      0.029     3.5697     35.033      1.941   1.549604     3.9600     0.6284     0.3408     0.2115 1.1617e-01    15.5086      7.765     11.263    14.9341 0.0000e+00
      7.926      0.029     3.5615     34.954      1.951   1.557687     3.9600     0.6093     0.3408     0.2115 1.1612e-01    15.4785      7.772     11.273    14.9307 0.0000e+00
      7.933      0.030     3.5535     34.874      1.955   1.561031     3.9600     0.6208     0.3408     0.2115 1.1605e-01    15.6138      7.780     11.284    14.9274 0.0000e+00
      7.941      0.032     3.5460     34.798      1.959   1.564482     3.9600     0.6360     0.3408     0.2115 1.1605e-01    15.6138      7.788     11.295    14.9240 0.0000e+00
      7.949      0.033     3.5386     34.727      1.975   1.576868     4.0500     0.6017     0.3408     0.2115 1.1612e-01    15.4935      7.796     11.307    14.9206 0.0000e+00
      7.958      0.035     3.5310     34.660      2.001   1.597539     4.0500     0.6169     0.3408     0.2115 1.1623e-01    15.4935      7.804     11.319    14.9172 0.0000e+00
      7.967      0.037     3.5232     34.589      2.020   1.612234     4.0500     0.6513     0.3408     0.2115 1.1623e-01    15.5837      7.813     11.332    14.9137 0.0000e+00
      7.976      0.038     3.5157     34.510      2.026   1.616963     4.0500     0.6246     0.3408     0.2115 1.1633e-01    15.4184      7.822     11.345    14.9103 0.0000e+00
      7.987      0.040     3.5088     34.434      2.031   1.620896     4.0500     0.6131     0.3408     0.2115 1.1612e-01    15.2530      7.832     11.359    14.9068 0.0000e+00
      7.997      0.042     3.5023     34.361      2.037   1.625082     3.9600     0.6093     0.2982     0.2538 1.1605e-01    15.3432      7.842     11.375    14.9034 0.0000e+00
      8.009      0.044     3.4953     34.286      2.039   1.626683     3.9600     0.6436     0.2982     0.2538 1.1617e-01    15.3432      7.853     11.391    14.9000 0.0000e+00
      8.020      0.045     3.4876     34.206      2.038   1.626125     3.9600     0.6208     0.2982     0.2538 1.1617e-01    15.2981      7.865     11.407    14.8965 0.0000e+00
      8.032      0.046     3.4802     34.124      2.035   1.623260     3.9600     0.6208     0.2982     0.2538 1.1620e-01    15.5236      7.876     11.424    14.8930 0.0000e+00
      8.044      0.047     3.4731     34.043      2.028   1.617325     3.9600     0.6322     0.3408     0.2538 1.1617e-01    15.5236      7.888     11.441    14.8895 0.0000e+00
      8.056      0.047     3.4658     33.966      2.015   1.606735     3.9600     0.6513     0.3408     0.2538 1.1610e-01    15.5086      7.900     11.458    14.8860 0.0000e+00
      8.068      0.048     3.4580     33.902      2.002   1.596577     3.9600     0.6169     0.3408     0.2538 1.1620e-01    15.5236      7.912     11.475    14.8826 0.0000e+00
      8.080      0.048     3.4499     33.854      1.997   1.592049     3.9600     0.5788     0.3408     0.2538 1.1612e-01    15.2230      7.924     11.493    14.8791 0.0000e+00
      8.093      0.048     3.4420     33.818      1.992   1.587991     4.0500     0.5750     0.3408     0.2961 1.1605e-01    15.2230      7.936     11.510    14.8756 0.0000e+00
      8.105      0.048     3.4345     33.785      1.986   1.583320     4.0500     0.5712     0.3408     0.2961 1.1605e-01    15.1629      7.949     11.528    14.8721 0.0000e+00
      8.118      0.048     3.4284     33.753      1.983   1.580744     4.0500     0.5559     0.3408     0.2961 1.1612e-01    15.3132      7.961     11.546    14.8686 0.0000e+00
      8.130      0.048     3.4238     33.715      1.986   1.583531     4.0500     0.5788     0.3408     0.2961 1.1617e-01    15.4935      7.973     11.564    14.8651 0.0000e+00
      8.142      0.048     3.4203     33.662      1.998   1.592424     4.0500     0.5368     0.2982     0.2115 1.1605e-01    15.5537      7.985     11.581    14.8615 0.0000e+00
      8.154      0.048     3.4172     33.595      2.005   1.597932     4.0500     0.5712     0.2982     0.2115 1.1615e-01    15.5687      7.997     11.598    14.8580 0.0000e+00
      8.166      0.049     3.4143     33.516      2.005   1.597569     4.0500     0.5826     0.2982     0.2115 1.1617e-01    15.4785      8.008     11.615    14.8545 0.0000e+00
      8.178      0.049     3.4107     33.429      2.002   1.595193     4.0500     0.5635     0.2982     0.2115 1.1620e-01    15.2230      8.020     11.632    14.8509 0.0000e+00
      8.191      0.051     3.4056     33.344      1.996   1.590170     4.0500     0.5788     0.2982     0.2115 1.1615e-01    15.2681      8.033     11.650    14.8474 0.0000e+00
      8.204      0.052     3.3991     33.272      1.990   1.585115     4.0500     0.5483     0.3408     0.2538 1.1617e-01    15.3432      8.045     11.668    14.8438 0.0000e+00
      8.217      0.054     3.3913     33.211      1.987   1.582634     4.0500     0.5559     0.3408     0.2538 1.1612e-01    15.2530      8.058     11.688    14.8403 0.0000e+00
      8.231      0.056     3.3827     33.160      1.991   1.586021     4.0500     0.5521     0.3408     0.2538 1.1628e-01    16.1849      8.072     11.708    14.8368 0.0000e+00
      8.246      0.058     3.3745     33.111      2.009   1.600132     4.0500     0.5368     0.3408     0.2538 1.1623e-01    16.0947      8.087     11.729    14.8332 0.0000e+00
      8.261      0.059     3.3674     33.055      2.035   1.620822     3.8700     0.5521     0.3408     0.2961 1.1617e-01    16.0046      8.101     11.750    14.8297 0.0000e+00
      8.276      0.059     3.3615     32.995      2.062   1.641746     3.8700     0.5635     0.3408     0.2961 1.1615e-01    16.0046      8.116     11.772    14.8261 0.0000e+00
      8.292      0.060     3.3566     32.934      2.086   1.660572     3.8700     0.5788     0.3408     0.2961 1.1605e-01    15.0426      8.132     11.794    14.8225 0.0000e+00
      8.307      0.060     3.3519     32.871      2.103   1.674414     3.8700     0.5521     0.3408     0.2961 1.1605e-01    14.9975      8.147     11.816    14.8190 0.0000e+00
      8.322      0.061     3.3465     32.802      2.109   1.679053     3.9600     0.5521     0.3408     0.2961 1.1633e-01    15.0577      8.162     11.837    14.8154 0.0000e+00
      8.338      0.061     3.3407     32.725      2.105   1.675727     3.9600     0.5826     0.3408     0.2961 1.1607e-01    15.0276      8.177     11.859    14.8118 0.0000e+00
      8.354      0.062     3.3348     32.642      2.110   1.679366     3.9600     0.5559     0.3408     0.2961 1.1617e-01    15.0877      8.192     11.882    14.8082 0.0000e+00
      8.370      0.063     3.3287     32.555      2.139   1.702804     3.9600     0.5521     0.3408     0.2961 1.1620e-01    15.1027      8.208     11.904    14.8046 0.0000e+00
      8.386      0.063     3.3219     32.465      2.187   1.740428     3.9600     0.5788     0.3408     0.2961 1.1612e-01    15.0126      8.224     11.927    14.8009 0.0000e+00
      8.402      0.064     3.3144     32.373      2.235   1.778545     3.9600     0.5635     0.3408     0.2538 1.1612e-01    14.9975      8.240     11.950    14.7973 0.0000e+00
      8.418      0.065     3.3062     32.286      2.272   1.807545     3.9600     0.6284     0.3408     0.2538 1.1620e-01    15.1779      8.256     11.974    14.7938 0.0000e+00
      8.435      0.066     3.2977     32.206      2.297   1.827253     3.9600     0.5979     0.3408     0.2538 1.1623e-01    15.2681      8.272     11.997    14.7902 0.0000e+00
      8.452      0.067     3.2889     32.137      2.317   1.842925     3.9600     0.6169     0.3408     0.2538 1.1610e-01    15.3132      8.289     12.021    14.7866 0.0000e+00
      8.469      0.067     3.2798     32.077      2.332   1.854786     4.0500     0.6284     0.3408     0.2538 1.1615e-01    15.1629      8.306     12.046    14.7829 0.0000e+00
      8.487      0.067     3.2712     32.023      2.338   1.860065     4.0500     0.5559     0.3408     0.2538 1.1597e-01    15.0426      8.323     12.071    14.7793 0.0000e+00
      8.505      0.065     3.2634     31.971      2.336   1.858195     4.0500     0.5712     0.3408     0.2538 1.1620e-01    15.1478      8.340     12.096    14.7757 0.0000e+00
      8.522      0.063     3.2566     31.911      2.332   1.854609     4.0500     0.5788     0.3408     0.2538 1.1620e-01    15.0126      8.357     12.121    14.7721 0.0000e+00
      8.538      0.060     3.2508     31.836      2.342   1.862189     3.9600     0.5635     0.3408     0.2961 1.1602e-01    15.0276      8.373     12.144    14.7685 0.0000e+00
      8.553      0.057     3.2456     31.748      2.371   1.884936     3.9600     0.6169     0.3408     0.2961 1.1617e-01    14.9975      8.387     12.165    14.7649 0.0000e+00
      8.566      0.053     3.2405     31.661      2.401   1.909143     3.9600     0.6208     0.3408     0.2961 1.1605e-01    14.9825      8.401     12.184    14.7613 0.0000e+00
      8.579      0.050     3.2347     31.585      2.415   1.919515     3.9600     0.6169     0.3408     0.2961 1.1605e-01    15.0727      8.413     12.202    14.7576 0.0000e+00
      8.591      0.048     3.2274     31.520      2.412   1.916840     3.9600     0.6169     0.3408     0.1692 1.1623e-01    14.9975      8.425     12.219    14.7540 0.0000e+00
      8.603      0.046     3.2187     31.463      2.411   1.916223     3.9600     0.6513     0.3408     0.1692 1.1612e-01    15.4184      8.437     12.236    14.7504 0.0000e+00
      8.614      0.044     3.2102     31.410      2.418   1.921455     3.9600     0.6169     0.3408     0.1692 1.1612e-01    15.1629      8.448     12.252    14.7467 0.0000e+00
      8.625      0.043     3.2027     31.358      2.426   1.927998     3.9600     0.6360     0.3408     0.1692 1.1592e-01    15.3432      8.459     12.268    14.7431 0.0000e+00
      8.636      0.043     3.1963     31.306      2.434   1.933642     3.9600     0.6360     0.3408     0.1692 1.1617e-01    15.1929      8.469     12.283    14.7394 0.0000e+00
      8.646      0.044     3.1908     31.249      2.429   1.930008     3.9600     0.5788     0.3408     0.2961 1.1620e-01    15.2681      8.479     12.298    14.7358 0.0000e+00
      8.657      0.045     3.1857     31.185      2.414   1.918102     3.9600     0.5826     0.3408     0.2961 1.1623e-01    15.1929      8.490     12.313    14.7322 0.0000e+00
      8.669      0.048     3.1807     31.114      2.400   1.906614     3.9600     0.6093     0.3408     0.2961 1.1600e-01    15.2380      8.501     12.329    14.7285 0.0000e+00
      8.681      0.050     3.1757     31.029      2.388   1.896434     3.9600     0.5712     0.3408     0.2961 1.1605e-01    15.2530      8.512     12.346    14.7249 0.0000e+00
      8.694      0.054     3.1702     30.931      2.376   1.886825     3.9600     0.5635     0.3408     0.2115 1.1625e-01    15.2831      8.525     12.365    14.7212 0.0000e+00
      8.708      0.057     3.1639     30.823      2.372   1.883134     3.9600     0.5826     0.3408     0.2115 1.1617e-01    15.2831      8.540     12.386    14.7176 0.0000e+00
      8.723      0.060     3.1569     30.710      2.378   1.888332     3.9600     0.5826     0.3408     0.2115 1.1612e-01    15.2681      8.555     12.407    14.7139 0.0000e+00
      8.739      0.063     3.1486     30.596      2.390   1.897872     3.9600     0.5406     0.3408     0.2115 1.1612e-01    15.2981      8.570     12.430    14.7102 0.0000e+00
      8.756      0.065     3.1388     30.481      2.406   1.910343     3.9600     0.5483     0.3408     0.2961 1.1623e-01    15.4635      8.587     12.454    14.7066 0.0000e+00
      8.773      0.067     3.1282     30.364      2.430   1.929072     3.9600     0.5979     0.3408     0.2961 1.1620e-01    15.6288      8.604     12.479    14.7029 0.0000e+00
      8.791      0.068     3.1169     30.251      2.458   1.951144     3.9600     0.5445     0.3408     0.2961 1.1615e-01    15.5086      8.621     12.504    14.6993 0.0000e+00
      8.809      0.068     3.1056     30.147      2.480   1.968603     3.9600     0.5521     0.3408     0.2961 1.1612e-01    15.4484      8.638     12.529    14.6956 0.0000e+00
      8.826      0.068     3.0942     30.058      2.495   1.980175     4.0500     0.6398     0.3408     0.2961 1.1620e-01    15.4484      8.656     12.554    14.6920 0.0000e+00
      8.844      0.067     3.0826     29.984      2.511   1.992898     4.0500     0.6284     0.3408     0.2961 1.1612e-01    15.4935      8.673     12.579    14.6883 0.0000e+00
      8.861      0.066     3.0713     29.918      2.538   2.014121     4.0500     0.6360     0.3408     0.2961 1.1623e-01    15.5837      8.689     12.603    14.6846 0.0000e+00
      8.878      0.065     3.0611     29.854      2.568   2.037640     4.0500     0.6093     0.3408     0.2961 1.1623e-01    15.5086      8.706     12.627    14.6810 0.0000e+00
      8.894      0.064     3.0522     29.799      2.589   2.053907     4.0500     0.6436     0.3408     0.2961 1.1605e-01    16.0647      8.722     12.650    14.6773 0.0000e+00
      8.910      0.062     3.0449     29.756      2.606   2.067260     4.0500     0.6208     0.3408     0.2538 1.1617e-01    15.9144      8.738     12.673    14.6736 0.0000e+00
      8.926      0.061     3.0385     29.718      2.634   2.089170     4.0500     0.6131     0.3408     0.2538 1.1605e-01    15.9745      8.753     12.695    14.6700 0.0000e+00
      8.941      0.061     3.0323     29.673      2.675   2.121525     4.0500     0.6208     0.3408     0.2538 1.1620e-01    15.9745      8.768     12.717    14.6663 0.0000e+00
      8.956      0.060     3.0269     29.609      2.710   2.149224     4.0500     0.6246     0.3408     0.2538 1.1623e-01    15.7340      8.783     12.739    14.6626 0.0000e+00
      8.971      0.060     3.0227     29.528      2.729   2.163838     4.0500     0.6284     0.3408     0.2115 1.1610e-01    15.7641      8.798     12.760    14.6590 0.0000e+00
      8.986      0.060     3.0191     29.446      2.741   2.173216     4.0500     0.6589     0.3408     0.2115 1.1628e-01    15.7791      8.813     12.782    14.6553 0.0000e+00
      9.002      0.060     3.0147     29.371      2.755   2.183814     4.0500     0.6284     0.3408     0.2115 1.1597e-01    15.7641      8.828     12.803    14.6517 0.0000e+00
      9.017      0.061     3.0085     29.296      2.768   2.194505     4.0500     0.6131     0.3408     0.2115 1.1625e-01    15.7490      8.843     12.825    14.6480 0.0000e+00
      9.032      0.062     3.0006     29.218      2.771   2.196274     4.0500     0.6284     0.3408     0.2538 1.1612e-01    15.7791      8.858     12.847    14.6444 0.0000e+00
      9.048      0.063     2.9925     29.146      2.758   2.185640     4.0500     0.6513     0.3408     0.2538 1.1605e-01    15.7340      8.873     12.870    14.6407 0.0000e+00
      9.064      0.064     2.9850     29.092      2.740   2.171630     4.0500     0.6436     0.3408     0.2538 1.1612e-01    15.7791      8.889     12.892    14.6371 0.0000e+00
      9.080      0.065     2.9776     29.058      2.729   2.162372     4.0500     0.7009     0.3408     0.2538 1.1592e-01    16.7410      8.905     12.915    14.6334 0.0000e+00
      9.097      0.067     2.9700     29.035      2.720   2.155398     4.0500     0.7009     0.3408     0.2961 1.1623e-01    16.8012      8.922     12.940    14.6298 0.0000e+00
      9.115      0.068     2.9629     29.012      2.712   2.148848     4.0500     0.7009     0.3408     0.2961 1.1630e-01    16.6208      8.939     12.964    14.6261 0.0000e+00
      9.133      0.068     2.9577     28.980      2.707   2.144928     4.0500     0.6818     0.3408     0.2961 1.1623e-01    16.7110      8.956     12.990    14.6224 0.0000e+00
      9.151      0.068     2.9544     28.938      2.695   2.134686     4.0500     1.1319     0.3408     0.2961 1.1633e-01    34.3564      8.974     13.015    14.6188 0.0000e+00
      9.168      0.067     2.9523     28.881      2.671   2.115389     4.0500     1.1663     0.3408     0.2961 1.1620e-01    34.4014      8.991     13.040    14.6151 0.0000e+00
      9.185      0.065     2.9501     28.796      2.649   2.097710     4.0500     1.1586     0.3408     0.2961 1.1605e-01    34.3714      9.007     13.064    14.6115 0.0000e+00
      9.201      0.064     2.9472     28.685      2.633   2.084844     4.0500     1.1586     0.3408     0.2961 1.1612e-01    34.4014      9.024     13.087    14.6078 0.0000e+00
      9.217      0.063     2.9432     28.555      2.618   2.073361     4.0500     3.9320     0.3408     0.2961 1.1602e-01   269.9988      9.039     13.110    14.6042 0.0000e+00
      9.233      0.062     2.9376     28.419      2.612   2.068105     4.0500     3.9358     0.3408     0.2961 1.1623e-01   270.0890      9.054     13.132    14.6005 0.0000e+00
      9.248      0.061     2.9292     28.288      2.621   2.075586     4.0500     3.9434     0.4260     0.3384 1.1628e-01   270.0439      9.069     13.154    14.5968 0.0000e+00
      9.264      0.060     2.9181     28.166      2.640   2.089889     4.0500     3.9358     0.4260     0.3384 1.1623e-01   270.0439      9.085     13.176    14.5931 0.0000e+00
      9.280      0.059     2.9052     28.045      2.656   2.102965     4.0500    -0.0697     0.4260     0.3384 1.1612e-01     2.7179      9.100     13.198    14.5894 0.0000e+00
      9.295      0.057     2.8915     27.929      2.666   2.110391     4.0500    -0.1079     0.4260     0.3384 1.1633e-01     2.7931      9.115     13.220    14.5857 0.0000e+00
      9.310      0.054     2.8785     27.830      2.671   2.114148     2.6100    -0.1041     0.9372     2.7495 1.1605e-01     2.7931      9.130     13.242    14.5821 0.0000e+00
      9.325      0.050     2.8662     27.752      2.678   2.119192     2.6100    -0.1231     0.9372     2.7495 1.1623e-01     2.7480      9.144     13.262    14.5784 0.0000e+00
      9.338      0.044     2.8541     27.708      2.688   2.126868     2.6100    -0.1269     0.9372     2.7495 1.1623e-01     1.3201      9.157     13.281    14.5748 0.0000e+00
      9.349      0.038     2.8426     27.708      2.699   2.135269     2.6100    -0.1231     0.9372     2.7495 1.1625e-01     1.3201      9.168     13.296    14.5712 0.0000e+00
      9.358      0.031     2.8327     27.764      2.703   2.138726     0.0000    -0.1193     0.0000     0.0846 1.1612e-01     1.3502      9.177     13.309    14.5675 0.0000e+00
      9.364      0.024     2.8250     27.894      2.703   2.138160     0.0000    -0.0926     0.0000     0.0846 1.1628e-01     1.3351      9.183     13.319    14.5639 0.0000e+00
      9.369      0.018     2.8207     28.121      2.702   2.137375     0.0000    -0.1155     0.0000     0.0846 1.1620e-01     0.8842      9.188     13.325    14.5603 0.0000e+00
      9.372      0.012     2.8210     28.479      2.706   2.140116     0.0000    -0.1002     0.0000     0.0846 1.1620e-01     0.8391      9.191     13.330    14.5566 0.0000e+00
      9.374      0.008     2.8269     29.033      2.715   2.147114     0.0000    -0.1155     0.0000     0.0846 1.1617e-01     0.6888      9.193     13.333    14.5528 0.0000e+00
      9.375      0.004     2.8403     29.878      2.717   2.148372     0.0000    -0.1079     0.0000     0.0423 1.1610e-01     0.8842      9.194     13.335    14.5491 0.0000e+00
      9.376      0.000     2.8637     30.918      2.707   2.140270     0.0000    -0.1308     0.0000     0.0423 1.1620e-01     0.2981      9.195     13.335    14.5453 0.0000e+00
      9.375     -0.004     2.9004     31.761      2.692   2.128558     0.0000    -0.1079     0.0000     0.0423 1.1623e-01     0.3582      9.194     13.335    14.5416 0.0000e+00
      9.374     -0.008     2.9571     32.073      2.674   2.114067     0.0000    -0.1117     0.0000     0.0423 1.1623e-01     0.2680      9.193     13.333    14.5378 0.0000e+00
      9.372     -0.013     3.0434     31.746      2.653   2.096886     0.0000    -0.1041     0.0000     0.0000 1.1605e-01     0.3131      9.191     13.330    14.5341 0.0000e+00
      9.368     -0.018     3.1496     30.806      2.627   2.076390     0.0000    -0.1041     0.0000     0.0000 1.1617e-01     0.3281      9.187     13.325    14.5304 0.0000e+00
      9.364     -0.024     3.2357     29.376      2.595   2.051065     0.0000    -0.0964     0.0000     0.0000 1.1623e-01     0.3281      9.183     13.318    14.5267 0.0000e+00
      9.357     -0.032     3.2678     27.612      2.559   2.022070     0.0000    -0.1346     0.0000     0.0000 1.1602e-01     0.3131      9.176     13.309    14.5231 0.0000e+00
      9.349     -0.041     3.2346     25.726      2.523   1.993534     0.0000    -0.1079     0.0000     0.0423 1.1633e-01     0.3882      9.168     13.297    14.5194 0.0000e+00
      9.338     -0.051     3.1391     24.010      2.498   1.973668     0.0000    -0.1079     0.0000     0.0423 1.1612e-01    -0.1228      9.157     13.281    14.5157 0.0000e+00
      9.325     -0.063     2.9936     22.714      2.487   1.965081     0.0000    -0.1079     0.0000     0.0423 1.1623e-01    -0.1228      9.144     13.262    14.5120 0.0000e+00
      9.307     -0.077     2.8141     21.924      2.493   1.969440     0.0000    -0.1155     0.0000     0.0423 1.1612e-01    -0.1528      9.127     13.238    14.5083 0.0000e+00
      9.287     -0.093     2.6221     21.630      2.522   1.991860     0.0000    -0.0964     0.0000     0.0000 1.1633e-01    -0.2280      9.107     13.208    14.5045 0.0000e+00
      9.262     -0.113     2.4474     21.764      2.576   2.034367     0.0000    -0.1193     0.0000     0.0000 1.1623e-01     0.1478      9.083     13.173    14.5008 0.0000e+00
      9.233     -0.136     2.3155     22.213      2.667   2.106318     0.0000    -0.1117     0.0000     0.0000 1.1617e-01     0.1327      9.054     13.132    14.4972 0.0000e+00
      9.198     -0.164     2.2351     22.873      2.835   2.238763     0.0000    -0.0926     0.0000     0.0000 1.1592e-01     0.1327      9.020     13.082    14.4935 0.0000e+00
      9.155     -0.194     2.2053     23.644      3.157   2.492725     0.0000    -0.0888     0.0000     0.0000 1.1605e-01     0.0125      8.978     13.021    14.4899 0.0000e+00
      9.102     -0.225     2.2192     24.425      3.749   2.959654     0.0000    -0.1079     0.0000     0.0846 1.1620e-01    24.3463      8.926     12.946    14.4862 0.0000e+00
      9.039     -0.257     2.2651     25.134      4.769   3.764065     0.0000    -0.1041     0.0000     0.0846 1.1623e-01    24.3463      8.864     12.856    14.4826 0.0000e+00
      8.967     -0.287     2.3326     25.684      6.322   4.989965     0.0000    -0.1346     0.0000     0.0846 1.1633e-01    24.2411      8.793     12.753    14.4791 0.0000e+00
      8.888     -0.314     2.4115     26.023      8.022   6.331437     0.0000    -0.0697     0.0000     0.0846 1.1625e-01    24.3763      8.716     12.641    14.4755 0.0000e+00
      8.803     -0.338     2.4913     26.160      9.115   7.192966     0.0000     0.3957     0.0000    -0.0846 1.1623e-01    97.0771      8.633     12.521    14.4719 0.0000e+00
      8.714     -0.358     2.5638     26.140      9.409   7.424572     0.0000     0.3995     0.0000    -0.0846 1.1628e-01    97.1222      8.545     12.394    14.4682 0.0000e+00
      8.619     -0.376     2.6201     26.012      9.271   7.315482     0.0000     0.3804     0.0000    -0.0846 1.1610e-01    96.9719      8.452     12.259    14.4646 0.0000e+00
      8.520     -0.391     2.6549     25.825      8.988   7.091756     0.0000     0.3881     0.0000    -0.0846 1.1633e-01    97.1072      8.355     12.118    14.4610 0.0000e+00
      8.417     -0.403     2.6691     25.646      8.670   6.840090     0.4500     0.6513     0.2130     0.8037 1.1612e-01    78.9658      8.254     11.971    14.4574 0.0000e+00
      8.311     -0.413     2.6673     25.535      8.362   6.596219     0.4500     0.6322     0.2130     0.8037 1.1617e-01    78.9508      8.151     11.821    14.4538 0.0000e+00
      8.204     -0.421     2.6544     25.532      8.099   6.388063     0.4500     0.6208     0.2130     0.8037 1.1628e-01    79.0409      8.045     11.668    14.4501 0.0000e+00
      8.094     -0.427     2.6355     25.642      7.878   6.213512     0.4500     0.6322     0.2130     0.8037 1.1623e-01    78.9508      7.938     11.513    14.4465 0.0000e+00
      7.984     -0.432     2.6174     25.830      7.669   6.047774     1.3500     0.6932     0.4686     2.1150 1.1617e-01    49.2362      7.830     11.357    14.4428 0.0000e+00
      7.874     -0.437     2.6063     26.047      7.482   5.900048     1.3500     0.6970     0.4686     2.1150 1.1617e-01    49.2662      7.722     11.200    14.4391 0.0000e+00
      7.763     -0.443     2.6062     26.249      7.344   5.790272     1.3500     0.7009     0.4686     2.1150 1.1607e-01    49.3113      7.613     11.042    14.4354 0.0000e+00
      7.650     -0.448     2.6177     26.398      7.239   5.706970     1.3500     0.6932     0.4686     2.1150 1.1633e-01    49.2662      7.502     10.881    14.4318 0.0000e+00
      7.535     -0.454     2.6371     26.501      7.131   5.621996     1.3500     0.6780     0.4686     2.1150 1.1607e-01    33.7101      7.389     10.717    14.4281 0.0000e+00
      7.417     -0.460     2.6595     26.609      7.011   5.526533     2.8800     0.6513     0.5964     1.7766 1.1617e-01    33.9355      7.274     10.550    14.4245 0.0000e+00
      7.299     -0.466     2.6803     26.771      6.910   5.446543     2.8800     0.6818     0.5964     1.7766 1.1617e-01    33.8604      7.158     10.381    14.4209 0.0000e+00
      7.179     -0.471     2.6957     27.013      6.860   5.406179     2.8800     0.6627     0.5964     1.7766 1.1605e-01    33.8604      7.040     10.211    14.4174 0.0000e+00
      7.058     -0.475     2.7064     27.340      6.851   5.398634     2.8800     0.6093     0.5964     1.7766 1.1612e-01    28.6449      6.922     10.039    14.4138 0.0000e+00
      6.936     -0.477     2.7177     27.722      6.856   5.402118     3.7800     0.6436     0.5538     0.9729 1.1612e-01    28.7201      6.802      9.865    14.4103 0.0000e+00
      6.813     -0.478     2.7344     28.098      6.871   5.413606     3.7800     0.6131     0.5538     0.9729 1.3195e-01    28.5848      6.682      9.691    14.4067 0.0000e+00
      6.691     -0.479     2.7593     28.401      6.910   5.444072     3.7800     0.6208     0.5538     0.9729 1.3532e-01    28.6599      6.562      9.517    14.4032 0.0000e+00
      6.569     -0.479     2.7930     28.571      6.973   5.493731     3.7800     0.6970     0.5538     0.9729 1.8451e-01    35.2131      6.442      9.343    14.3998 0.0000e+00
      6.447     -0.479     2.8322     28.572      7.048   5.552092     3.7800     0.7238     0.4686     0.6345 2.3241e-01    35.1229      6.322      9.169    14.3963 0.0000e+00
      6.325     -0.480     2.8709     28.403      7.123   5.610987     3.7800     0.6780     0.4686     0.6345 2.7094e-01    35.0477      6.202      8.996    14.3930 0.0000e+00
      6.203     -0.481     2.9020     28.094      7.209   5.678212     3.7800     0.6780     0.4686     0.6345 3.2783e-01    35.1079      6.083      8.822    14.3897 0.0000e+00
      6.081     -0.482     2.9195     27.686      7.301   5.749939     3.7800     0.6169     0.4686     0.6345 3.7682e-01    27.1870      5.963      8.649    14.3865 0.0000e+00
      5.958     -0.485     2.9198     27.230      7.392   5.821564     3.7800     0.6284     0.4260     0.8460 4.7722e-01    27.2621      5.843      8.474    14.3833 0.0000e+00
      5.834     -0.488     2.9028     26.787      7.501   5.906253     3.7800     0.6284     0.4260     0.8460 6.0845e-01    27.1419      5.721      8.298    14.3802 0.0000e+00
      5.709     -0.491     2.8714     26.408      7.644   6.018681     3.7800     0.6093     0.4260     0.8460 7.5269e-01    27.1870      5.599      8.120    14.3770 0.0000e+00
      5.583     -0.495     2.8299     26.142      7.866   6.192782     3.7800     0.6246     0.4260     0.8460 9.0617e-01    22.1669      5.475      7.941    14.3739 0.0000e+00
      5.457     -0.498     2.7835     25.963      8.248   6.492783     3.7800     0.6360     0.4260     0.8460 1.1156e+00    22.1819      5.352      7.762    14.3708 0.0000e+00
      5.330     -0.501     2.7384     25.700      8.824   6.945287     3.8700     0.6284     0.3834     0.5076 1.3364e+00    22.0918      5.227      7.580    14.3676 0.0000e+00
      5.201     -0.503     2.6998     25.207      9.435   7.425721     3.8700     0.6284     0.3834     0.5076 1.6684e+00    22.1068      5.101      7.398    14.3643 0.0000e+00
      5.072     -0.506     2.6728     24.503      9.837   7.741798     3.8700     0.6208     0.3834     0.5076 1.9391e+00    20.6940      4.974      7.214    14.3611 0.0000e+00
      4.943     -0.509     2.6547     23.683      9.982   7.855181     3.8700     0.6551     0.3834     0.5076 2.1882e+00    20.8142      4.847      7.030    14.3578 0.0000e+00
      4.813     -0.511     2.6280     22.833     10.008   7.875221     3.8700     0.6398     0.3834     0.4653 2.4467e+00    20.6489      4.720      6.846    14.3546 0.0000e+00
      4.683     -0.514     2.5777     22.032     10.025   7.888353     3.8700     0.6398     0.3834     0.4653 2.7893e+00    20.6940      4.592      6.661    14.3514 0.0000e+00
      4.552     -0.517     2.5059     21.359     10.071   7.923794     3.8700     1.0442     0.3834     0.4653 3.1434e+00    16.9665      4.464      6.474    14.3482 0.0000e+00
      4.419     -0.519     2.4222     20.902     10.163   7.994948     3.8700     1.0366     0.3834     0.4653 3.5664e+00    16.8312      4.334      6.285    14.3450 0.0000e+00
      4.286     -0.522     2.3354     20.723     10.319   8.116836     3.9600     1.0327     0.3408     0.4230 3.9982e+00    16.9815      4.203      6.096    14.3418 0.0000e+00
      4.152     -0.523     2.2537     20.783     10.548   8.296248     3.9600     1.0213     0.3408     0.4230 4.6289e+00    16.8312      4.072      5.906    14.3385 0.0000e+00
      4.018     -0.524     2.1850     20.977     10.830   8.517735     3.9600     2.3832     0.3408     0.4230 5.2758e+00     9.9174      3.941      5.715    14.3353 0.0000e+00
      3.884     -0.523     2.1385     21.231     11.166   8.781025     3.9600     2.4099     0.3408     0.4230 6.0000e+00     9.8572      3.809      5.524    14.3320 0.0000e+00
      3.751     -0.523     2.1203     21.539     11.579   9.104903     3.7800     2.3984     0.2556     0.6345 6.6322e+00     9.8723      3.678      5.335    14.3287 0.0000e+00
      3.617     -0.521     2.1266     21.929     12.103   9.516398     3.7800     2.3908     0.2556     0.6345 7.4628e+00     9.7971      3.548      5.145    14.3255 0.0000e+00
      3.484     -0.520     2.1467     22.430     12.821  10.079750     3.7800     3.3140     0.2556     0.6345 8.4726e+00     5.1378      3.417      4.956    14.3222 0.0000e+00
      3.352     -0.518     2.1728     23.051     13.930  10.951120     3.7800     3.3063     0.2556     0.6345 9.5877e+00     5.0175      3.287      4.767    14.3189 0.0000e+00
      3.220     -0.515     2.2045     23.764     15.775  12.400454     3.7800     3.2949     0.2556     0.6345 1.0758e+01     5.0776      3.158      4.580    14.3156 0.0000e+00
      3.089     -0.513     2.2445     24.517     18.878  14.837976     3.6000     3.3063     0.1704     0.8460 1.1946e+01     5.1227      3.029      4.394    14.3122 0.0000e+00
      2.959     -0.509     2.2960     25.246     23.119  18.169782     3.6000     3.7374     0.1704     0.8460 1.3645e+01     4.1758      2.901      4.208    14.3089 0.0000e+00
      2.829     -0.506     2.3597     25.888     27.101  21.297742     3.6000     3.7641     0.1704     0.8460 1.5367e+01     4.1157      2.774      4.023    14.3055 0.0000e+00
      2.700     -0.502     2.4329     26.388     29.725  23.358020     3.6000     3.7412     0.1704     0.8460 1.7266e+01     4.1307      2.648      3.840    14.3022 0.0000e+00
      2.572     -0.499     2.5102     26.714     31.153  24.478423     3.4200     3.7450     0.0852     0.7614 1.8977e+01     4.2059      2.523      3.659    14.2989 0.0000e+00
      2.446     -0.497     2.5849     26.862     31.883  25.050771     3.4200     3.8824     0.0852     0.7614 2.0908e+01     4.7620      2.399      3.480    14.2956 0.0000e+00
      2.321     -0.494     2.6508     26.857     32.229  25.320733     3.4200     3.8519     0.0852     0.7614 2.3349e+01     4.8522      2.276      3.301    14.2922 0.0000e+00
      2.195     -0.492     2.7022     26.738     32.383  25.439486     3.4200     3.8747     0.0852     0.7614 2.5882e+01     4.7770      2.152      3.122    14.2889 0.0000e+00
      2.069     -0.491     2.7357     26.546     32.460  25.498084     3.4200     3.8633     0.0852     0.8883 2.8865e+01     4.7921      2.029      2.943    14.2857 0.0000e+00
      1.944     -0.489     2.7510     26.319     32.503  25.529969     3.4200     4.2524     0.0852     0.8883 3.1397e+01     9.3161      1.907      2.765    14.2825 0.0000e+00
      1.820     -0.486     2.7507     26.081     32.522  25.543645     3.4200     4.2371     0.0852     0.8883 3.4970e+01     9.1959      1.784      2.588    14.2794 0.0000e+00
      1.696     -0.483     2.7386     25.855     32.538  25.554636     3.4200     4.2219     0.0852     0.8883 3.8529e+01     9.4214      1.663      2.412    14.2764 0.0000e+00
      1.572     -0.479     2.7192     25.659     32.560  25.569832     3.4200     4.2295     0.0852     0.8883 4.2367e+01     9.3161      1.542      2.236    14.2736 0.0000e+00
      1.450     -0.475     2.6961     25.519     32.582  25.585368     3.4200     4.2333     0.0426     1.0575 4.5894e+01     3.7099      1.422      2.063    14.2708 0.0000e+00
      1.330     -0.471     2.6719     25.467     32.599  25.597467     3.4200     4.2371     0.0426     1.0575 4.9060e+01     3.7400      1.304      1.891    14.2681 0.0000e+00
      1.210     -0.465     2.6489     25.528     32.611  25.605396     3.4200     4.2410     0.0426     1.0575 5.3203e+01     3.6348      1.187      1.721    14.2655 0.0000e+00
      1.092     -0.458     2.6290     25.728     32.616  25.607312     3.4200     4.2638     0.0426     1.0575 5.6737e+01     3.6949      1.071      1.553    14.2629 0.0000e+00
      0.974     -0.449     2.6148     26.074     32.608  25.599767     3.3300     4.2448     0.0852     0.9306 6.0796e+01     3.5746      0.956      1.386    14.2604 0.0000e+00
      0.859     -0.436     2.6095     26.551     32.591  25.584706     3.3300     4.2371     0.0852     0.9306 6.7907e+01     3.6197      0.843      1.222    14.2578 0.0000e+00
      0.748     -0.418     2.6160     27.115     32.570  25.566033     3.3300     4.2524     0.0852     0.9306 7.0877e+01     3.5897      0.734      1.064    14.2552 0.0000e+00
      0.641     -0.394     2.6366     27.700     32.557  25.554604     3.3300     4.2257     0.0852     0.9306 7.9476e+01     3.6648      0.629      0.912    14.2526 0.0000e+00
      0.540     -0.363     2.6722     28.249     32.566  25.559250     3.3300     4.1570     0.0852     1.1421 8.5719e+01     2.8682      0.530      0.769    14.2500 0.0000e+00
      0.448     -0.327     2.7213     28.712     32.586  25.573291     3.3300     4.1761     0.0852     1.1421 8.5440e+01     2.9434      0.439      0.637    14.2473 0.0000e+00
      0.367     -0.288     2.7792     29.043     32.608  25.588593     3.3300     4.1761     0.0852     1.1421 1.0478e+02     2.8532      0.360      0.522    14.2445 0.0000e+00
      0.299     -0.247     2.8394     29.231     32.626  25.601320     3.3300     4.1723     0.0852     1.1421 1.1051e+02     2.9885      0.293      0.425    14.2418 0.0000e+00
      0.244     -0.207     2.8959     29.290     32.641  25.610905     3.3300     4.1418     0.0426     1.0998 8.6581e+01     3.2740      0.239      0.347    14.2390 0.0000e+00
      0.200     -0.172     2.9434     29.255     32.655  25.619904     3.3300     4.1113     0.0426     1.0998 8.8675e+01     3.2289      0.196      0.285    14.2363 0.0000e+00
      0.165     -0.143     2.9776     29.175     32.666  25.626757     3.3300     4.0998     0.0426     1.0998 8.7317e+01     3.1838      0.162      0.234    14.2336 0.0000e+00
      0.135     -0.121     2.9970     29.112     32.671  25.629334     3.3300     4.1113     0.0426     1.0998 9.0623e+01     3.1688      0.133      0.193    14.2308 0.0000e+00
      0.110     -0.108     3.0032     29.129     32.677  25.632280     3.3300     4.1799     0.0426     1.0998 9.7848e+01     2.8832      0.108      0.157    14.2281 0.0000e+00
      0.087     -0.101     2.9997     29.249     32.684  25.636381     3.3300     4.1570     0.0426     1.0152 8.8444e+01     2.7931      0.085      0.123    14.2255 0.0000e+00
      0.064     -0.101     2.9917     29.367     32.685  25.634812     3.3300     4.1647     0.0426     1.0152 9.1593e+01     2.7630      0.063      0.091    14.2228 0.0000e+00
      0.041     -0.106     2.9855     29.301     32.677  25.627155     3.3300     4.1990     0.0426     1.0152 8.9410e+01     2.7931      0.040      0.059    14.2202 0.0000e+00
      0.016     -0.116     2.9874     28.974     32.669  25.619286     3.3300     4.3287     0.0426     1.0152 7.9857e+01     2.7780      0.016      0.023    14.2175 0.0000e+00
     -0.013     -0.131     2.9999     28.470     32.663  25.613065     3.3300     4.3134     0.0852     1.0152 1.0248e+02     2.7480     -0.012     -0.018    14.2148 0.0000e+00
     -0.046     -0.150     3.0122     27.926     32.662  25.610794     3.3300     4.3096     0.0852     1.0152 1.0799e+02     2.7780     -0.045     -0.066    14.2122 0.0000e+00
     -0.085     -0.170     3.0056     27.418     32.686  25.627703     3.3300     4.2905     0.0852     1.0152 1.0620e+02     2.9133     -0.084     -0.121    14.2095 0.0000e+00
     -0.131     -0.189     2.9722     26.947     32.760  25.684137     3.3300     4.1456     0.0852     1.0152 1.4538e+02     3.7851     -0.128     -0.186    14.2069 0.0000e+00
     -0.182     -0.206     2.9207     26.531     32.889  25.783269     3.4200     4.1570     0.1278     1.0998 1.6886e+02     3.6648     -0.178     -0.259    14.2043 0.0000e+00
     -0.239     -0.219     2.8650     26.228     33.052  25.909962     3.4200     4.1799     0.1278     1.0998 1.4443e+02     3.7249     -0.234     -0.339    14.2018 0.0000e+00
     -0.298     -0.224     2.8130     26.066     33.213  26.034653     3.4200     4.1875     0.1278     1.0998 2.1717e+02     3.7099     -0.292     -0.423    14.1993 0.0000e+00
     -0.357     -0.221     2.7649     25.994     33.307  26.107450     3.4200     3.1805     0.1278     1.0998 2.1850e+02    18.9204     -0.350     -0.508    14.1969 0.0000e+00
     -0.414     -0.210     2.7223     25.928     33.297  26.098274     3.3300     3.1843     0.0852     1.3536 2.1708e+02    19.0707     -0.406     -0.588    14.1946 0.0000e+00
     -0.465     -0.194     2.6914     25.827     33.212  26.030413     3.3300     3.1919     0.0852     1.3536 2.0166e+02    19.1008     -0.456     -0.661    14.1924 0.0000e+00
     -0.507     -0.175     2.6748     25.726     33.092  25.935261     3.3300     3.1690     0.0852     1.3536 2.1348e+02    18.9805     -0.497     -0.721    14.1904 0.0000e+00
     -0.540     -0.156     2.6676     25.667     32.958  25.829018     3.3300     0.9107     0.0852     1.3536 2.1679e+02     2.6127     -0.530     -0.769    14.1884 0.0000e+00
     -0.566     -0.140     2.6609     25.652     32.834  25.730862     3.3300     0.9183     0.0852     1.3536 2.1821e+02     2.4323     -0.555     -0.805    14.1866 0.0000e+00
     -0.586     -0.130     2.6507     25.659     32.744  25.660149     1.6200     0.9145     0.4686     3.4686 2.0672e+02     2.5075     -0.574     -0.833    14.1848 0.0000e+00
     -0.600     -0.126     2.6404     25.666     32.711  25.633654     1.6200     0.9030     0.4686     3.4686 1.7716e+02     2.4925     -0.588     -0.854    14.1831 0.0000e+00
     -0.611 -9.990e-29     2.6345 -9.990e-29 -9.990e-29 -9.990e-29     1.6200 -9.990e-29     0.4686     3.4686 1.5406e+02 -9.990e-29     -0.599     -0.869    14.1815 0.0000e+00
     -0.618 -9.990e-29     2.6330 -9.990e-29 -9.990e-29 -9.990e-29     1.6200 -9.990e-29     0.4686     3.4686 1.4250e+02 -9.990e-29     -0.606     -0.878    14.1802 0.0000e+00
     -0.622 -9.990e-29     2.6337 -9.990e-29 -9.990e-29 -9.990e-29     0.0000 -9.990e-29     0.0426     0.0423 1.4121e+02 -9.990e-29     -0.610     -0.884    14.1793 0.0000e+00
     -0.623 -9.990e-29     2.6345 -9.990e-29 -9.990e-29 -9.990e-29     0.0000 -9.990e-29     0.0426     0.0423 1.4188e+02 -9.990e-29     -0.611     -0.886    14.1789 0.0000e+00
