* Sea-Bird SBE19plus  Data File:
* FileName = C:\DATA\101518_fcr_0006.hex
* Software version 2.6.3.104
* Temperature SN = 7809
* Conductivity SN = 7809
* System UpLoad Time = Oct 29 2018 16:38:18
* <ApplicationData>
* <Seaterm232>
* <SoftwareVersion>2.6.3.104</SoftwareVersion>
* <BuildDate>30-Jun-2017</BuildDate>
* </Seaterm232>
* </ApplicationData>
* <InstrumentState>
* <HardwareData DeviceType='SBE19plus' SerialNumber='01907809'>
*
*    <Manufacturer>Sea-Bird Electronics, Inc.</Manufacturer>
*
*    <FirmwareVersion>3.1.8</FirmwareVersion>
*
*    <FirmwareDate>Mar  9 2016 16:22:29</FirmwareDate>
*
*    <CommandSetVersion>1.4</CommandSetVersion>
*
*    <PCBAssembly PCBSerialNum='120721' AssemblyNum='41054J'/>
*
*    <PCBAssembly PCBSerialNum='120715' AssemblyNum='41967A'/>
*
*    <PCBAssembly PCBSerialNum='116699' AssemblyNum='41606'/>
*
*    <PCBAssembly PCBSerialNum='120719' AssemblyNum='41059D'/>
*
*    <MfgDate>28-Apr-2017</MfgDate>
*
*    <InternalSensors>
*
*       <Sensor id='Main Temperature'>
*
*          <type>temperature0</type>
*
*          <SerialNumber>01907809</SerialNumber>
*
*       </Sensor>
*
*       <Sensor id='Main Conductivity'>
*
*          <type>conductivity-0</type>
*
*          <SerialNumber>01907809</SerialNumber>
*
*       </Sensor>
*
*       <Sensor id='Main Pressure'>
*
*          <type>strain-0</type>
*
*          <SerialNumber>10586018</SerialNumber>
*
*       </Sensor>
*
*    </InternalSensors>
*
*    <ExternalSensors>
*
*       <Sensor id='volt 0'>
*
*          <type>pH</type>
*
*          <SerialNumber>27-0363</SerialNumber>
*
*       </Sensor>
*
*       <Sensor id='volt 1'>
*
*          <type>ORP</type>
*
*          <SerialNumber>27-0363</SerialNumber>
*
*       </Sensor>
*
*       <Sensor id='volt 2'>
*
*          <type>OXY</type>
*
*          <SerialNumber>43-0434</SerialNumber>
*
*       </Sensor>
*
*       <Sensor id='volt 3'>
*
*          <type>PAR</type>
*
*          <SerialNumber>1122</SerialNumber>
*
*       </Sensor>
*
*       <Sensor id='volt 4'>
*
*          <type>ECO AFL/FL</type>
*
*          <SerialNumber>FLNTURT-2496</SerialNumber>
*
*       </Sensor>
*
*       <Sensor id='volt 5'>
*
*          <type>ECO-NTU</type>
*
*          <SerialNumber>FLNTURT-2496</SerialNumber>
*
*       </Sensor>
*
*       <Sensor id='serial'>
*
*          <type>not assigned</type>
*
*          <SerialNumber>not assigned</SerialNumber>
*
*       </Sensor>
*
*    </ExternalSensors>
*
* </HardwareData>
* <StatusData DeviceType='SBE19plus' SerialNumber='01907809'>
*
*    <DateTime>2018-10-29T20:36:07</DateTime>
*
*    <LoggingState>not logging</LoggingState>
*
*    <EventSummary numEvents='0'/>
*
*    <Power>
*
*       <vMain>12.7</vMain>
*
*       <vLith>8.4</vLith>
*
*       <iMain>63.3</iMain>
*
*       <iPump>138.1</iPump>
*
*       <iExt01>14.7</iExt01>
*
*       <iExt2345>45.2</iExt2345>
*
*    </Power>
*
*    <MemorySummary>
*
*       <Bytes>262706</Bytes>
*
*       <Samples>11422</Samples>
*
*       <SamplesFree>2849366</SamplesFree>
*
*       <SampleLength>23</SampleLength>
*
*       <Profiles>17</Profiles>
*
*    </MemorySummary>
*
* </StatusData>
* <ConfigurationData DeviceType='SBE19plus' SerialNumber='01907809'>
*
*    <ProfileMode>
*
*       <ScansToAverage>1</ScansToAverage>
*
*       <MinimumCondFreq>5</MinimumCondFreq>
*
*       <PumpDelay>45</PumpDelay>
*
*       <AutoRun>no</AutoRun>
*
*       <IgnoreSwitch>no</IgnoreSwitch>
*
*    </ProfileMode>
*
*    <Battery>
*
*       <Type>alkaline</Type>
*
*       <CutOff>7.5</CutOff>
*
*    </Battery>
*
*    <DataChannels>
*
*       <ExtVolt0>yes</ExtVolt0>
*
*       <ExtVolt1>yes</ExtVolt1>
*
*       <ExtVolt2>yes</ExtVolt2>
*
*       <ExtVolt3>yes</ExtVolt3>
*
*       <ExtVolt4>yes</ExtVolt4>
*
*       <ExtVolt5>yes</ExtVolt5>
*
*       <SBE38>no</SBE38>
*
*       <WETLABS>no</WETLABS>
*
*       <OPTODE>no</OPTODE>
*
*       <SBE63>no</SBE63>
*
*       <SeaFET>no</SeaFET>
*
*       <GTD>no</GTD>
*
*    </DataChannels>
*
*    <EchoCharacters>yes</EchoCharacters>
*
*    <OutputExecutedTag>yes</OutputExecutedTag>
*
*    <OutputFormat>raw HEX</OutputFormat>
*
* </ConfigurationData>
* <CalibrationCoefficients DeviceType='SBE19plus' SerialNumber='01907809'>
*
*    <Calibration format='TEMP1' id='Main Temperature'>
*
*       <SerialNum>01907809</SerialNum>
*
*       <CalDate>09-Mar-18</CalDate>
*
*       <TA0>1.210932e-03</TA0>
*
*       <TA1>2.843566e-04</TA1>
*
*       <TA2>-1.945074e-06</TA2>
*
*       <TA3>2.128067e-07</TA3>
*
*       <TOFFSET>0.000000e+00</TOFFSET>
*
*    </Calibration>
*
*    <Calibration format='WBCOND0' id='Main Conductivity'>
*
*       <SerialNum>01907809</SerialNum>
*
*       <CalDate>09-Mar-18</CalDate>
*
*       <G>-1.006721e+00</G>
*
*       <H>1.269065e-01</H>
*
*       <I>-1.405844e-04</I>
*
*       <J>2.478371e-05</J>
*
*       <CPCOR>-9.570000e-08</CPCOR>
*
*       <CTCOR>3.250000e-06</CTCOR>
*
*       <CSLOPE>1.000000e+00</CSLOPE>
*
*    </Calibration>
*
*    <Calibration format='STRAIN0' id='Main Pressure'>
*
*       <SerialNum>10586018</SerialNum>
*
*       <CalDate>07-Mar-18</CalDate>
*
*       <PA0>-4.081764e-02</PA0>
*
*       <PA1>4.851884e-04</PA1>
*
*       <PA2>-3.511682e-12</PA2>
*
*       <PTCA0>5.252134e+05</PTCA0>
*
*       <PTCA1>1.795324e+00</PTCA1>
*
*       <PTCA2>-2.843535e-01</PTCA2>
*
*       <PTCB0>2.516687e+01</PTCB0>
*
*       <PTCB1>3.750000e-04</PTCB1>
*
*       <PTCB2>0.000000e+00</PTCB2>
*
*       <PTEMPA0>-5.378069e+01</PTEMPA0>
*
*       <PTEMPA1>5.366207e+01</PTEMPA1>
*
*       <PTEMPA2>4.872143e-02</PTEMPA2>
*
*       <POFFSET>5.000000e-01</POFFSET>
*
*       <PRANGE>1.600000e+02</PRANGE>
*
*    </Calibration>
*
*    <Calibration format='VOLT0' id='Volt 0'>
*
*       <OFFSET>-4.920000e-02</OFFSET>
*
*       <SLOPE>1.248122e+00</SLOPE>
*
*    </Calibration>
*
*    <Calibration format='VOLT0' id='Volt 1'>
*
*       <OFFSET>-4.784000e-02</OFFSET>
*
*       <SLOPE>1.248871e+00</SLOPE>
*
*    </Calibration>
*
*    <Calibration format='VOLT0' id='Volt 2'>
*
*       <OFFSET>-4.864632e-02</OFFSET>
*
*       <SLOPE>1.248714e+00</SLOPE>
*
*    </Calibration>
*
*    <Calibration format='VOLT0' id='Volt 3'>
*
*       <OFFSET>-4.743790e-02</OFFSET>
*
*       <SLOPE>1.248571e+00</SLOPE>
*
*    </Calibration>
*
*    <Calibration format='VOLT0' id='Volt 4'>
*
*       <OFFSET>-4.671263e-02</OFFSET>
*
*       <SLOPE>1.248951e+00</SLOPE>
*
*    </Calibration>
*
*    <Calibration format='VOLT0' id='Volt 5'>
*
*       <OFFSET>-4.871053e-02</OFFSET>
*
*       <SLOPE>1.249136e+00</SLOPE>
*
*    </Calibration>
*
*    <Calibration format='FREQ0' id='external frequency channel'>
*
*       <EXTFREQSF>1.000014e+00</EXTFREQSF>
*
*    </Calibration>
*
* </CalibrationCoefficients>
* <EventCounters DeviceType='SBE19plus' SerialNumber='01907809'>
*
*    <EventSummary numEvents='0'/>
*
* </EventCounters></InstrumentState>
* <Headers>
*
* cast   6 19 Oct 2018 17:43:16 samples 3343 to 4335, avg = 1, stop = mag switch
*
# nquan = 17
# nvalues = 822                         
# units = specified
# name 0 = depFM: Depth [fresh water, m]
# name 1 = tv290C: Temperature [ITS-90, deg C]
# name 2 = sbeox0Mg/L: Oxygen, SBE 43 [mg/l]
# name 3 = sbeox0PS: Oxygen, SBE 43 [% saturation]
# name 4 = c0uS/cm: Conductivity [uS/cm]
# name 5 = specc: Specific Conductance [uS/cm]
# name 6 = ph: pH
# name 7 = orp: Oxidation Reduction Potential [mV]
# name 8 = flECO-AFL: Fluorescence, WET Labs ECO-AFL/FL [mg/m^3]
# name 9 = turbWETntu0: Turbidity, WET Labs ECO [NTU]
# name 10 = sal00: Salinity, Practical [PSU]
# name 11 = dz/dtM: Descent Rate [m/s]
# name 12 = prdM: Pressure, Strain Gauge [db]
# name 13 = prdE: Pressure, Strain Gauge [psi]
# name 14 = scan: Scan Count
# name 15 = par/sat/log: PAR/Logarithmic, Satlantic
# name 16 = flag:  0.000e+00
# span 0 =     -0.601,     10.063       
# span 1 =     8.5791,    21.5407       
# span 2 =    -0.4921,    10.0807       
# span 3 =     -4.721,    103.665       
# span 4 =  -0.038784, 144.498349       
# span 5 =      0.098,    215.035       
# span 6 =     -1.116,      7.817       
# span 7 = -1240.7455,  1240.2295       
# span 8 =    -0.2466,     8.3380       
# span 9 =    -0.2512,    24.8725       
# span 10 =     0.0106,     0.0997      
# span 11 =     -0.136,      0.227      
# span 12 =     -0.589,      9.868      
# span 13 =     -0.854,     14.312      
# span 14 =          1,        822      
# span 15 = -9.966e+01, 1.9772e+03      
# span 16 = 0.0000e+00, 0.0000e+00      
# interval = seconds: 0.25
# start_time = Oct 19 2018 17:43:16 [Instrument's time stamp, header]
# bad_flag = -9.990e-29
# <Sensors count="9" >
#   <sensor Channel="1" >
#     <!-- Count, Temperature -->
#     <TemperatureSensor SensorID="58" >
#       <SerialNumber>7809</SerialNumber>
#       <CalibrationDate>09-Mar-18</CalibrationDate>
#       <A0>1.21093245e-003</A0>
#       <A1>2.84356597e-004</A1>
#       <A2>-1.94507398e-006</A2>
#       <A3>2.12806664e-007</A3>
#       <Slope>1.00000000</Slope>
#       <Offset>0.0000</Offset>
#     </TemperatureSensor>
#   </sensor>
#   <sensor Channel="2" >
#     <!-- Frequency 0, Conductivity -->
#     <ConductivitySensor SensorID="3" >
#       <SerialNumber>7809</SerialNumber>
#       <CalibrationDate>09-Mar-18</CalibrationDate>
#       <UseG_J>1</UseG_J>
#       <!-- Cell const and series R are applicable only for wide range sensors. -->
#       <SeriesR>0.0000</SeriesR>
#       <CellConst>2000.0000</CellConst>
#       <ConductivityType>0</ConductivityType>
#       <Coefficients equation="0" >
#         <A>0.00000000e+000</A>
#         <B>0.00000000e+000</B>
#         <C>0.00000000e+000</C>
#         <D>0.00000000e+000</D>
#         <M>0.0</M>
#         <CPcor>-9.57000000e-008</CPcor>
#       </Coefficients>
#       <Coefficients equation="1" >
#         <G>-1.00672082e+000</G>
#         <H>1.26906489e-001</H>
#         <I>-1.40584351e-004</I>
#         <J>2.47837121e-005</J>
#         <CPcor>-9.57000000e-008</CPcor>
#         <CTcor>3.2500e-006</CTcor>
#         <!-- WBOTC not applicable unless ConductivityType = 1. -->
#         <WBOTC>0.00000000e+000</WBOTC>
#       </Coefficients>
#       <Slope>1.00000000</Slope>
#       <Offset>0.00000</Offset>
#     </ConductivitySensor>
#   </sensor>
#   <sensor Channel="3" >
#     <!-- Count, Pressure, Strain Gauge -->
#     <PressureSensor SensorID="46" >
#       <SerialNumber>7809</SerialNumber>
#       <CalibrationDate>07-Mar-18</CalibrationDate>
#       <PA0>-4.08176359e-002</PA0>
#       <PA1>4.85188419e-004</PA1>
#       <PA2>-3.51168169e-012</PA2>
#       <PTEMPA0>-5.37806900e+001</PTEMPA0>
#       <PTEMPA1>5.36620721e+001</PTEMPA1>
#       <PTEMPA2>4.87214332e-002</PTEMPA2>
#       <PTCA0>5.25213435e+005</PTCA0>
#       <PTCA1>1.79532409e+000</PTCA1>
#       <PTCA2>-2.84353509e-001</PTCA2>
#       <PTCB0>2.51668750e+001</PTCB0>
#       <PTCB1>3.75000000e-004</PTCB1>
#       <PTCB2>0.00000000e+000</PTCB2>
#       <Offset>0.000000</Offset>
#     </PressureSensor>
#   </sensor>
#   <sensor Channel="4" >
#     <!-- A/D voltage 0, pH -->
#     <pH_Sensor SensorID="43" >
#       <SerialNumber>0363</SerialNumber>
#       <CalibrationDate>16-Mar-18</CalibrationDate>
#       <Slope>4.6194</Slope>
#       <Offset>2.5947</Offset>
#     </pH_Sensor>
#   </sensor>
#   <sensor Channel="5" >
#     <!-- A/D voltage 1, Oxidation Reduction Potential -->
#     <OxidationReductionPotentialSensor SensorID="41" >
#       <SerialNumber>0363</SerialNumber>
#       <CalibrationDate>16-Mar-18</CalibrationDate>
#       <B>2.499480</B>
#       <M>-0.496195</M>
#       <Offset>0.0</Offset>
#     </OxidationReductionPotentialSensor>
#   </sensor>
#   <sensor Channel="6" >
#     <!-- A/D voltage 2, Oxygen, SBE 43 -->
#     <OxygenSensor SensorID="38" >
#       <SerialNumber>0434</SerialNumber>
#       <CalibrationDate>13-Mar-18</CalibrationDate>
#       <Use2007Equation>1</Use2007Equation>
#       <CalibrationCoefficients equation="0" >
#         <!-- Coefficients for Owens-Millard equation. -->
#         <Boc>0.0000</Boc>
#         <Soc>0.0000e+000</Soc>
#         <offset>0.0000</offset>
#         <Pcor>0.00e+000</Pcor>
#         <Tcor>0.0000</Tcor>
#         <Tau>0.0</Tau>
#       </CalibrationCoefficients>
#       <CalibrationCoefficients equation="1" >
#         <!-- Coefficients for Sea-Bird equation - SBE calibration in 2007 and later. -->
#         <Soc>4.5718e-001</Soc>
#         <offset>-0.6113</offset>
#         <A>-4.0649e-003</A>
#         <B> 2.0945e-004</B>
#         <C>-3.3182e-006</C>
#         <D0> 2.5826e+000</D0>
#         <D1> 1.92634e-004</D1>
#         <D2>-4.64803e-002</D2>
#         <E> 3.6000e-002</E>
#         <Tau20> 1.2200</Tau20>
#         <H1>-3.3000e-002</H1>
#         <H2> 5.0000e+003</H2>
#         <H3> 1.4500e+003</H3>
#       </CalibrationCoefficients>
#     </OxygenSensor>
#   </sensor>
#   <sensor Channel="7" >
#     <!-- A/D voltage 3, PAR/Logarithmic, Satlantic -->
#     <PARLog_SatlanticSensor SensorID="76" >
#       <SerialNumber>1122</SerialNumber>
#       <CalibrationDate>22-Jun-2017</CalibrationDate>
#       <a0>9.6090e-001</a0>
#       <a1>8.0780e-001</a1>
#       <Im>1.3589e+000</Im>
#       <Multiplier>1.0000e+000</Multiplier>
#     </PARLog_SatlanticSensor>
#   </sensor>
#   <sensor Channel="8" >
#     <!-- A/D voltage 4, Fluorometer, WET Labs ECO-AFL/FL -->
#     <FluoroWetlabECO_AFL_FL_Sensor SensorID="20" >
#       <SerialNumber>FLNTURT-2496</SerialNumber>
#       <CalibrationDate>25-Jan-2017</CalibrationDate>
#       <ScaleFactor>5.30000000e+001</ScaleFactor>
#       <!-- Dark output -->
#       <Vblank>0.0560</Vblank>
#     </FluoroWetlabECO_AFL_FL_Sensor>
#   </sensor>
#   <sensor Channel="9" >
#     <!-- A/D voltage 5, Turbidity Meter, WET Labs, ECO-NTU -->
#     <TurbidityMeter SensorID="67" >
#       <SerialNumber>FLNTURT-2496</SerialNumber>
#       <CalibrationDate>25-Jan-2017</CalibrationDate>
#       <ScaleFactor>176.000000</ScaleFactor>
#       <!-- Dark output -->
#       <DarkVoltage>0.072000</DarkVoltage>
#     </TurbidityMeter>
#   </sensor>
# </Sensors>
# datcnv_date = Oct 29 2018 16:48:35, 7.26.7.114 [datcnv_vars = 16]
# datcnv_in = C:\DATA\101918_bvr50.hex C:\DATA\SBE19plusV2_7809.xmlcon
# datcnv_skipover = 0
# datcnv_ox_hysteresis_correction = yes
# datcnv_ox_tau_correction = yes
# filter_date = Oct 29 2018 16:49:03, 7.26.7.114
# filter_in = C:\DATA\101918_bvr50.cnv
# filter_low_pass_tc_A = 0.030
# filter_low_pass_tc_B = 0.150
# filter_low_pass_A_vars = tv290C c0uS/cm par/sat/log
# filter_low_pass_B_vars = prdM prdE
# alignctd_date = Oct 29 2018 16:49:26, 7.26.7.114
# alignctd_in = C:\DATA\101918_bvr50.cnv
# alignctd_adv = tv290C 0.500, sbeox0Mg/L 3.000, sbeox0PS 3.000                                                                                                                                                                      
# file_type = ascii
*END*
     -0.600    21.5206     8.7571     99.216   0.120759      0.128      5.780 -1240.7455    -0.1819     0.2591     0.0107      0.000     -0.589     -0.854          1 4.4261e+02 0.0000e+00
     -0.600    21.5356     8.7543     99.180   0.145466      0.158      5.765 -1240.7455    -0.1455     0.2860     0.0107     -0.000     -0.589     -0.854          2 1.9082e+03 0.0000e+00
     -0.600    21.5407     8.7597     99.236   0.146221      0.158      5.834 -1240.7455    -0.1779     0.2457     0.0107      0.000     -0.589     -0.854          3 5.7435e+02 0.0000e+00
     -0.600    21.5369     8.7588     99.219   0.149425      0.158      5.781 -1240.7455    -0.2062    -0.2243     0.0107     -0.000     -0.589     -0.854          4 -9.966e+01 0.0000e+00
     -0.600    21.5263     8.8237     99.220   0.141477      0.158      4.621 -1240.7455    -0.1658    -0.1572     0.0107     -0.000     -0.589     -0.854          5 1.8064e+02 0.0000e+00
     -0.600    21.5159     9.0449     99.180   0.126506      0.128     -1.116 -1240.7455    -0.1658    -0.0900     0.0107     -0.000     -0.589     -0.854          6 -1.057e+01 0.0000e+00
     -0.599    21.5085     9.2285     99.151   0.138450      0.158      0.534 -1240.7455    -0.1860    -0.1840     0.0107      0.000     -0.589     -0.854          7 1.0359e+02 0.0000e+00
     -0.600    21.5059     9.3469     99.145   0.156219      0.158      2.990 -1240.7455    -0.1698    -0.2512     0.0107      0.000     -0.589     -0.854          8 3.6549e+01 0.0000e+00
     -0.599    21.5027     9.4241     99.118   0.134001      0.158      4.349 -1240.7455    -0.1617     0.1383     0.0107      0.000     -0.588     -0.853          9 8.1780e+01 0.0000e+00
     -0.600    21.5090     9.4947     99.092   0.166102      0.158      5.088 -1240.7455    -0.1658     0.0040     0.0107      0.000     -0.588     -0.853         10 5.4276e+01 0.0000e+00
     -0.600    21.5066     9.5459     99.120   0.116270      0.158      5.494 -1240.7455    -0.1617    -0.0766     0.0107      0.000     -0.588     -0.853         11 7.5051e+01 0.0000e+00
     -0.600    21.5121     9.5978     99.349   0.196015      0.158      5.718 -1240.7455    -0.1698     0.0577     0.0107      0.000     -0.588     -0.854         12 6.5224e+01 0.0000e+00
     -0.601    21.4966     9.6497     99.664   0.007647      0.098      5.842 -1240.7455    -0.2062     0.0443     0.0107     -0.000     -0.588     -0.854         13 8.5283e+01 0.0000e+00
     -0.600    21.5141     9.7083    100.109   0.291478      0.158      5.916 -1240.7455    -0.2264    -0.0497     0.0107     -0.000     -0.588     -0.852         14 7.0628e+01 0.0000e+00
     -0.599    21.0776     9.7968    100.897  -0.038784      0.218      5.962 -1240.7455    -0.2466    -0.0229     0.0106     -0.000     -0.578     -0.837         15 9.9148e+01 0.0000e+00
     -0.566    19.8753     9.8738    101.645   0.537076      0.158      4.981 -1240.7455    -0.2385     0.0040     0.0107      0.009     -0.545     -0.791         16 6.5844e+01 0.0000e+00
     -0.502    18.8187     9.9251    102.302   8.043836      8.871      6.540  1240.2295    -0.0606     0.6754     0.0125      0.032     -0.492     -0.714         17 1.3274e+02 0.0000e+00
     -0.439    18.2132     9.9789    102.952  19.052017     21.138      6.967   178.8636    -0.1334     0.6888     0.0166      0.066     -0.435     -0.630         18 3.9662e+01 0.0000e+00
     -0.389    17.7757    10.0195    103.355  25.439332     29.371      7.280    35.9903    -0.1011     0.5679     0.0195      0.102     -0.382     -0.554         19 2.0828e+02 0.0000e+00
     -0.339    17.4196    10.0569    103.604  25.786998     29.637      7.518    40.6089    -0.0889     0.6351     0.0194      0.137     -0.331     -0.479         20 -5.649e+01 0.0000e+00
     -0.282    17.1633    10.0807    103.665  25.228938     29.598      7.639    89.5962     1.3870    24.8188     0.0192      0.170     -0.276     -0.399         21 3.7957e+02 0.0000e+00
     -0.222    17.0191     9.9890    102.553  25.126113     29.562      7.648    94.2148     1.3668    24.8725     0.0191      0.198     -0.216     -0.314         22 1.4934e+03 0.0000e+00
     -0.158    16.9082     9.8263    100.741  24.788645     29.403      7.683   111.5155     1.3425    24.7651     0.0189      0.218     -0.154     -0.224         23 3.6758e+02 0.0000e+00
     -0.092    16.8346     9.6774     99.099  24.848640     29.574      7.766   120.6770     1.3506    24.7382     0.0190      0.227     -0.094     -0.137         24 -8.349e+01 0.0000e+00
     -0.039    16.7724     9.4132     96.300  25.110793     29.916      7.817   124.9927     2.4060     2.2330     0.0191      0.227     -0.041     -0.059         25 1.6070e+02 0.0000e+00
      0.008    16.7567     9.0740     92.749  25.707454     30.772      7.810   138.4699     2.4100     2.3673     0.0194      0.226      0.002      0.003         26 1.4344e+00 0.0000e+00
      0.037    16.8107     8.6759     88.609  25.825454     30.883      7.773   135.7442     2.4060     2.3404     0.0194      0.220      0.030      0.043         27 1.0899e+02 0.0000e+00
      0.045    16.8576     8.2634     84.346  25.645766     30.731      7.729   139.9085     2.3898     2.2330     0.0193      0.201      0.042      0.060         28 6.4753e+01 0.0000e+00
      0.046    16.8479     7.8912     80.514  25.456775     30.419      7.675   146.0035     2.3979     2.2867     0.0192      0.170      0.047      0.069         29 1.0793e+02 0.0000e+00
      0.054    16.7876     7.6149     77.669  25.260256     30.187      7.622   149.2971     1.8358     2.3404     0.0192      0.135      0.055      0.080         30 6.8358e+01 0.0000e+00
      0.070    16.7025     7.3924     75.390  24.971372     29.825      7.566   153.2721     1.8763     2.3136     0.0190      0.102      0.069      0.100         31 7.0486e+01 0.0000e+00
      0.088    16.6242     7.2205     73.626  24.600925     29.435      7.520   157.0578     1.8358     2.3539     0.0188      0.075      0.085      0.124         32 5.6566e+01 0.0000e+00
      0.106    16.5570     7.1356     72.748  24.535579     29.395      7.482   159.1399     1.8075     2.1927     0.0188      0.059      0.099      0.144         33 6.0000e+01 0.0000e+00
      0.108    16.5021     7.0907     72.274  24.578441     29.551      7.439   162.0171     1.6984     2.3404     0.0188      0.047      0.104      0.151         34 5.6652e+01 0.0000e+00
      0.104    16.4558     7.0799     72.147  24.458686     29.397      7.413   164.8185     1.7064     2.4344     0.0187      0.040      0.102      0.147         35 5.7977e+01 0.0000e+00
      0.100    16.4142     7.0584     71.918  24.358571     29.369      7.395   167.8471     1.6862     2.2464     0.0187      0.035      0.098      0.142         36 5.6246e+01 0.0000e+00
      0.097    16.3767     7.0348     71.683  24.347344     29.334      7.387   176.6678     1.6741     2.2867     0.0187      0.028      0.094      0.137         37 5.7604e+01 0.0000e+00
      0.090    16.3485     7.0031     71.376  24.354105     29.431      7.378   179.6964     1.9652     2.2330     0.0187      0.016      0.088      0.128         38 5.7672e+01 0.0000e+00
      0.083    16.3287     6.9673     71.026  24.261246     29.289      7.373   177.1978     1.9531     2.1793     0.0186      0.002      0.082      0.119         39 5.9508e+01 0.0000e+00
      0.079    16.3140     6.9170     70.523  24.166498     29.242      7.370   175.7593     1.9491     2.1659     0.0186     -0.010      0.079      0.114         40 5.9973e+01 0.0000e+00
      0.079    16.3067     6.8518     69.864  24.145965     29.188      7.365   182.4600     1.9652     2.2062     0.0185     -0.016      0.078      0.113         41 6.0757e+01 0.0000e+00
      0.080    16.3006     6.7835     69.169  24.227521     29.334      7.358   179.0529     1.9248     2.2867     0.0186     -0.016      0.079      0.114         42 5.9259e+01 0.0000e+00
      0.082    16.2915     6.7099     68.414  24.331783     29.440      7.354   181.0214     1.9895     2.3136     0.0186     -0.013      0.080      0.116         43 5.8054e+01 0.0000e+00
      0.083    16.2810     6.6750     68.049  24.431203     29.580      7.348   182.7250     1.9733     2.3136     0.0187     -0.009      0.081      0.117         44 5.6365e+01 0.0000e+00
      0.082    16.2705     6.6774     68.066  24.548430     29.721      7.343   184.4286     1.9369     2.2733     0.0188     -0.005      0.078      0.114         45 5.5809e+01 0.0000e+00
      0.075    16.2639     6.7202     68.502  24.482321     29.661      7.336   186.2079     1.7833     2.2196     0.0187     -0.003      0.073      0.106         46 5.7271e+01 0.0000e+00
      0.066    16.2675     6.7823     69.135  24.246699     29.364      7.324   187.3057     1.7550     2.1122     0.0186     -0.005      0.067      0.098         47 5.7104e+01 0.0000e+00
      0.066    16.2783     6.8629     69.963  24.130252     29.234      7.319   197.1108     1.7671     2.1927     0.0185     -0.006      0.066      0.096         48 5.6894e+01 0.0000e+00
      0.070    16.2877     6.9514     70.867  24.123326     29.231      7.316   206.9158     1.7752     2.1390     0.0185     -0.008      0.068      0.100         49 5.5049e+01 0.0000e+00
      0.074    16.2943     7.0125     71.510  24.136750     29.223      7.311   194.0065     1.7509     2.1390     0.0185     -0.007      0.073      0.105         50 5.3913e+01 0.0000e+00
      0.078    16.2981     7.0699     72.155  24.172826     29.284      7.308   206.6508     1.7792     2.1793     0.0186     -0.005      0.076      0.110         51 5.5828e+01 0.0000e+00
      0.079    16.2993     7.0969     72.440  24.196995     29.280      7.306   210.5879     1.7590     2.1524     0.0186     -0.002      0.077      0.111         52 5.5189e+01 0.0000e+00
      0.078    16.2964     7.1024     72.484  24.225237     29.345      7.302   212.9351     1.7590     2.1122     0.0186      0.002      0.076      0.110         53 5.4890e+01 0.0000e+00
      0.076    16.2893     7.0952     72.395  24.256244     29.344      7.297   213.6922     1.7833     2.1524     0.0186      0.004      0.075      0.109         54 5.3687e+01 0.0000e+00
      0.077    16.2846     7.0789     72.222  24.276975     29.413      7.292   215.0172     1.7550     2.2196     0.0186      0.006      0.075      0.109         55 5.5158e+01 0.0000e+00
      0.076    16.2842     7.0591     72.010  24.199439     29.283      7.289   201.3886     1.7631     2.1524     0.0186      0.004      0.075      0.108         56 5.5748e+01 0.0000e+00
      0.075    16.2844     7.0316     71.727  24.234170     29.354      7.281   198.5493     1.7388     2.1793     0.0186      0.001      0.074      0.107         57 6.8418e+01 0.0000e+00
      0.075    16.2888     6.9886     71.286  24.174471     29.287      7.274   197.6786     1.7469     2.0853     0.0186     -0.001      0.074      0.107         58 8.2805e+01 0.0000e+00
      0.075    16.2893     6.9199     70.602  24.214451     29.287      7.267   197.8300     1.6458     2.1659     0.0186     -0.002      0.074      0.108         59 4.6013e+02 0.0000e+00
      0.078    16.3053     6.8563     70.013  24.273341     29.453      7.255   198.0950     1.6579     2.1390     0.0186     -0.001      0.077      0.113         60 3.5447e+02 0.0000e+00
      0.088    16.3406     6.7751     69.183  24.249391     29.283      7.247   200.4043     1.6175     2.1122     0.0186      0.003      0.080      0.117         61 2.7507e+02 0.0000e+00
      0.080    16.3497     6.6894     68.323  24.511033     29.747      7.235   199.9501     1.6094     2.2867     0.0188      0.004      0.072      0.105         62 8.0929e+02 0.0000e+00
      0.054    16.3402     6.6016     67.438  24.481284     29.549      7.232   201.0858     1.5649     2.1390     0.0187     -0.003      0.051      0.075         63 5.0718e+02 0.0000e+00
      0.025    16.3316     6.5092     66.521  24.345687     29.478      7.232   210.7394     1.5851     2.2062     0.0187     -0.016      0.023      0.033         64 2.9402e+00 0.0000e+00
     -0.010    16.3258     6.4256     65.829  24.264788     29.314      7.230   203.0922     1.5811     2.2464     0.0186     -0.034     -0.010     -0.015         65 2.0919e+02 0.0000e+00
     -0.047    16.3198     6.3518     65.281  24.226259     29.321      7.219   202.7893     1.5568     2.1524     0.0186     -0.058     -0.045     -0.066         66 1.3946e+03 0.0000e+00
     -0.083    16.3181     6.3067     64.965  24.186144     29.257      7.213   203.8115     1.5568     2.2196     0.0186     -0.082     -0.078     -0.114         67 1.3843e+03 0.0000e+00
     -0.109    16.3154     6.2813     64.781  24.136861     29.194      7.208   204.9851     1.5892     2.3539     0.0185     -0.103     -0.104     -0.152         68 2.1992e+02 0.0000e+00
     -0.128    16.3307     6.2970     64.960  24.169025     29.263      7.208   205.2501     1.5771     2.2464     0.0186     -0.116     -0.120     -0.175         69 5.3560e+01 0.0000e+00
     -0.131    16.3652     6.3443     65.417  24.264685     29.332      7.207   206.7644     1.5851     2.2733     0.0186     -0.113     -0.128     -0.186         70 1.5520e+02 0.0000e+00
     -0.136    16.3693     6.4137     66.081  24.640296     29.830      7.200   207.5972     1.5528     2.2733     0.0188     -0.100     -0.134     -0.194         71 4.3051e+01 0.0000e+00
     -0.145    16.3772     6.4928     66.826  24.798340     29.970      7.202   209.0358     1.4315     2.1793     0.0189     -0.083     -0.134     -0.194         72 4.2755e+02 0.0000e+00
     -0.126    16.3856     6.5554     67.412  24.542271     29.667      7.202   208.6951     1.4355     2.1390     0.0188     -0.058     -0.119     -0.173         73 1.3271e+03 0.0000e+00
     -0.093    16.4087     6.5908     67.738  24.573614     29.659      7.190   208.8087     1.4436     2.0719     0.0188     -0.026     -0.095     -0.137         74 1.5227e+03 0.0000e+00
     -0.071    16.5229     6.6012     67.806  24.937189     30.159      7.182   209.2251     1.4274     2.1659     0.0190      0.006     -0.072     -0.105         75 1.4005e+03 0.0000e+00
     -0.056    16.6741     6.5912     67.654  25.068011     30.247      7.175   210.9287     1.4113     2.2196     0.0190      0.031     -0.056     -0.081         76 1.5244e+03 0.0000e+00
     -0.044    16.7823     6.5690     67.363  25.062935     30.195      7.166   214.1087     1.4638     2.3136     0.0190      0.049     -0.044     -0.064         77 1.4192e+03 0.0000e+00
     -0.036    16.8404     6.5413     67.031  25.032401     30.018      7.166   213.8437     1.4477     2.3270     0.0190      0.058     -0.037     -0.053         78 1.6053e+03 0.0000e+00
     -0.034    16.8526     6.5351     66.983  25.017035     29.940      7.163   212.1022     1.4315     2.2733     0.0190      0.061     -0.030     -0.043         79 1.3917e+03 0.0000e+00
     -0.022    16.8307     6.5283     66.911  24.844878     29.698      7.164   211.8372     1.4962     2.1793     0.0189      0.060     -0.017     -0.024         80 2.7901e+02 0.0000e+00
      0.006    16.7924     6.5333     66.952  24.624130     29.389      7.158   213.8058     1.5124     2.2196     0.0188      0.055      0.005      0.007         81 2.7031e+01 0.0000e+00
      0.030    16.7440     6.5431     67.029  24.639609     29.472      7.153   212.9729     1.4881     2.1659     0.0189      0.053      0.028      0.041         82 4.9212e+02 0.0000e+00
      0.050    16.7021     6.5427     66.994  24.677408     29.498      7.145   212.7837     1.4962     2.1122     0.0188      0.056      0.049      0.071         83 1.0870e+03 0.0000e+00
      0.069    16.6751     6.5438     66.966  24.725314     29.634      7.146   213.5787     1.6175     2.2464     0.0189      0.062      0.067      0.097         84 9.9250e+02 0.0000e+00
      0.084    16.6476     6.5453     66.965  24.728218     29.630      7.142   214.5630     1.6054     2.3270     0.0189      0.068      0.082      0.119         85 5.5100e+02 0.0000e+00
      0.096    16.6138     6.5654     67.196  24.703451     29.649      7.130   214.8280     1.6741     2.3002     0.0189      0.072      0.093      0.136         86 8.2422e+02 0.0000e+00
      0.105    16.5678     6.5689     67.280  24.667222     29.601      7.122   215.1308     1.6256     2.3136     0.0188      0.072      0.103      0.150         87 6.9006e+02 0.0000e+00
      0.116    16.5373     6.5785     67.386  24.536174     29.491      7.116   217.8565     1.6337     2.2464     0.0188      0.066      0.113      0.165         88 1.3595e+03 0.0000e+00
      0.127    16.5435     6.5864     67.433  24.392270     29.321      7.114   216.0015     1.6984     2.3941     0.0187      0.057      0.123      0.178         89 1.8007e+03 0.0000e+00
      0.132    16.5453     6.5822     67.370  24.372046     29.346      7.121   219.2951     1.6862     2.3673     0.0187      0.049      0.127      0.184         90 6.7792e+02 0.0000e+00
      0.130    16.5351     6.5556     67.145  24.353857     29.304      7.130   220.0901     1.7388     2.3136     0.0187      0.040      0.125      0.182         91 8.2556e+02 0.0000e+00
      0.122    16.5211     6.5427     66.996  24.325982     29.272      7.137   220.5065     1.7024     2.3270     0.0187      0.029      0.119      0.173         92 1.0321e+03 0.0000e+00
      0.114    16.4972     6.4976     66.597  24.317810     29.277      7.137   221.6423     1.6903     2.2599     0.0187      0.017      0.113      0.164         93 1.0493e+03 0.0000e+00
      0.108    16.4709     6.4486     66.169  24.245461     29.188      7.139   223.0430     1.7186     2.2733     0.0186      0.006      0.110      0.159         94 1.3088e+03 0.0000e+00
      0.114    16.4584     6.3858     65.581  24.178889     29.136      7.139   223.1566     1.6701     2.3136     0.0186     -0.002      0.112      0.163         95 1.0435e+03 0.0000e+00
      0.122    16.4779     6.3343     65.082  24.133889     29.088      7.137   223.1566     1.6822     2.2733     0.0186     -0.005      0.118      0.172         96 9.1460e+02 0.0000e+00
      0.127    16.5088     6.2756     64.487  24.182903     29.164      7.136   224.3301     1.7226     2.3539     0.0186     -0.005      0.121      0.175         97 8.5382e+02 0.0000e+00
      0.121    16.5173     6.2277     63.981  24.295745     29.286      7.133   221.9073     1.6862     2.2733     0.0186     -0.003      0.117      0.168         98 1.1273e+03 0.0000e+00
      0.107    16.4894     6.1767     63.427  24.319514     29.295      7.133   220.6580     1.7226     2.2330     0.0187     -0.003      0.108      0.155         99 1.2728e+03 0.0000e+00
      0.100    16.4833     6.1424     63.052  24.182957     29.123      7.127   220.8473     1.7064     2.3270     0.0186     -0.004      0.103      0.150        100 8.4402e+02 0.0000e+00
      0.111    16.5061     6.1262     62.842  24.198909     29.140      7.125   221.3394     1.7267     2.1390     0.0186     -0.003      0.108      0.157        101 7.5713e+02 0.0000e+00
      0.120    16.5051     6.1322     62.968  24.477520     29.520      7.120   222.5130     1.7186     2.2062     0.0187     -0.002      0.115      0.167        102 7.1817e+02 0.0000e+00
      0.121    16.5413     6.1615     63.334  24.666212     29.698      7.114   223.1944     1.7307     2.0987     0.0188     -0.002      0.116      0.169        103 1.0395e+03 0.0000e+00
      0.115    16.5990     6.2044     63.806  24.794065     29.875      7.108   223.3080     1.7024     2.0853     0.0189     -0.003      0.111      0.161        104 1.9772e+03 0.0000e+00
      0.103    16.6379     6.2666     64.477  24.792683     29.843      7.104   223.3458     1.7671     2.3539     0.0189     -0.004      0.099      0.144        105 9.5864e+02 0.0000e+00
      0.085    16.6608     6.3178     65.032  24.727207     29.704      7.106   224.5573     1.7469     2.3404     0.0189     -0.007      0.080      0.116        106 9.3671e+01 0.0000e+00
      0.057    16.6672     6.3553     65.460  24.786605     29.775      7.102   225.3901     1.7792     2.3002     0.0189     -0.017      0.056      0.081        107 1.0789e+03 0.0000e+00
      0.029    16.6551     6.3685     65.640  24.718749     29.659      7.103   224.8601     1.7590     2.4479     0.0189     -0.035      0.035      0.051        108 1.6524e+03 0.0000e+00
      0.020    16.6363     6.3635     65.608  24.485576     29.386      7.107   224.2923     1.7711     2.3941     0.0188     -0.052      0.030      0.043        109 1.3263e+03 0.0000e+00
      0.043    16.6128     6.3347     65.325  24.335723     29.193      7.105   224.8223     1.6256     2.2464     0.0187     -0.054      0.045      0.064        110 1.1804e+03 0.0000e+00
      0.072    16.5887     6.2901     64.870  24.549537     29.477      7.089   225.3901     1.6620     2.2464     0.0188     -0.042      0.065      0.094        111 1.2542e+03 0.0000e+00
      0.083    16.6295     6.2385     64.336  24.841985     29.858      7.074   225.3523     1.6418     2.3673     0.0189     -0.023      0.078      0.114        112 5.1605e+02 0.0000e+00
      0.086    16.6814     6.1738     63.718  24.861055     29.882      7.064   226.0337     1.6418     2.3404     0.0189     -0.002      0.083      0.121        113 2.4786e+02 0.0000e+00
      0.086    16.7046     6.1172     63.151  24.851875     29.847      7.062   226.1851     1.5568     2.2733     0.0189      0.016      0.085      0.123        114 8.0241e+02 0.0000e+00
      0.088    16.7273     6.0661     62.590  24.794116     29.745      7.065   226.6773     1.5609     2.3404     0.0189      0.031      0.088      0.128        115 5.7805e+02 0.0000e+00
      0.097    16.7486     6.0274     62.171  24.725422     29.628      7.071   226.7908     1.5649     2.4076     0.0189      0.038      0.095      0.138        116 7.8773e+02 0.0000e+00
      0.106    16.7796     5.9779     61.682  24.789139     29.712      7.078   227.0180     1.5771     2.3270     0.0189      0.035      0.103      0.149        117 1.6989e+03 0.0000e+00
      0.112    16.8105     5.9519     61.457  24.863026     29.764      7.060   227.6237     1.5690     2.3404     0.0189      0.027      0.106      0.153        118 1.2791e+03 0.0000e+00
      0.106    16.8254     5.9370     61.338  24.870605     29.775      7.060   227.3208     1.5447     2.3539     0.0190      0.018      0.102      0.148        119 7.8252e+02 0.0000e+00
      0.096    16.8357     5.9278     61.266  24.868626     29.720      7.066   228.6080     1.5811     2.3270     0.0189      0.012      0.092      0.133        120 1.1432e+03 0.0000e+00
      0.080    16.8376     5.9314     61.321  24.895121     29.776      7.069   228.3051     1.5771     2.3136     0.0190      0.004      0.079      0.115        121 1.3142e+03 0.0000e+00
      0.067    16.8403     5.9334     61.345  24.807982     29.636      7.072   228.8351     1.5002     2.2196     0.0189     -0.007      0.070      0.102        122 1.3275e+03 0.0000e+00
      0.069    16.8733     5.9399     61.399  24.650998     29.466      7.074   228.7216     1.4881     2.2196     0.0189     -0.015      0.068      0.100        123 1.2209e+03 0.0000e+00
      0.074    16.8873     5.9387     61.373  24.675488     29.467      7.076   231.3716     1.5002     2.2599     0.0189     -0.021      0.072      0.104        124 8.0664e+02 0.0000e+00
      0.077    16.8623     5.9294     61.282  24.836786     29.674      7.079   230.9551     1.5245     2.3136     0.0190     -0.022      0.075      0.109        125 9.1993e+02 0.0000e+00
      0.079    16.8481     5.9049     61.045  24.894899     29.698      7.077   232.0909     1.5164     2.2733     0.0190     -0.018      0.077      0.112        126 1.3404e+03 0.0000e+00
      0.080    16.8646     5.8819     60.816  24.899591     29.750      7.075   231.2959     1.5002     2.2464     0.0190     -0.010      0.078      0.115        127 1.2882e+03 0.0000e+00
      0.083    16.8970     5.8510     60.494  24.919877     29.760      7.076   231.1066     1.5164     2.1524     0.0190     -0.001      0.081      0.119        128 1.2266e+03 0.0000e+00
      0.087    16.9241     5.8183     60.229  24.958585     29.815      7.071   232.1666     1.5043     2.1390     0.0190      0.007      0.086      0.125        129 1.1325e+03 0.0000e+00
      0.092    16.9431     5.7770     59.987  24.969988     29.792      7.069   231.3716     1.5002     2.1122     0.0190      0.012      0.091      0.132        130 1.0748e+03 0.0000e+00
      0.098    16.9564     5.7587     59.902  24.964963     29.772      7.066   231.7880     1.5002     2.2196     0.0190      0.013      0.095      0.138        131 8.7992e+02 0.0000e+00
      0.100    16.9585     5.7658     59.995  24.964830     29.759      7.066   232.6209     1.5124     2.3673     0.0190      0.013      0.098      0.142        132 8.5509e+02 0.0000e+00
      0.102    16.9488     5.7998     60.323  24.940504     29.716      7.061   232.3937     1.4962     2.3404     0.0190      0.014      0.100      0.144        133 7.5474e+02 0.0000e+00
      0.103    16.9388     5.8715     60.961  24.906301     29.681      7.062   232.9994     1.5124     2.3941     0.0190      0.014      0.101      0.146        134 8.4604e+02 0.0000e+00
      0.103    16.9419     5.9752     61.818  24.859179     29.622      7.063   233.7187     1.5002     2.2330     0.0190      0.012      0.101      0.147        135 1.1269e+03 0.0000e+00
      0.104    16.9542     6.1036     62.973  24.910222     29.696      7.060   233.3023     1.5124     2.2464     0.0190      0.010      0.104      0.152        136 9.0363e+02 0.0000e+00
      0.111    16.9620     6.2416     64.360  24.961354     29.760      7.062   232.9994     1.4962     2.3270     0.0190      0.010      0.111      0.162        137 5.7998e+02 0.0000e+00
      0.127    16.9598     6.3743     65.730  24.973402     29.751      7.058   233.6809     1.5245     2.2733     0.0190      0.012      0.124      0.180        138 1.0299e+03 0.0000e+00
      0.144    17.0221     6.5000     67.066  25.013796     29.812      7.051   233.8702     1.5568     2.3136     0.0190      0.019      0.134      0.194        139 1.8287e+03 0.0000e+00
      0.141    17.1624     6.5792     67.983  25.029654     29.813      7.037   234.0594     1.5487     2.3270     0.0190      0.023      0.127      0.184        140 1.7781e+03 0.0000e+00
      0.102    17.2506     6.6346     68.603  25.042591     29.806      7.030   234.0973     1.5690     2.3136     0.0191      0.014      0.095      0.139        141 1.4256e+03 0.0000e+00
      0.050    17.2647     6.6543     68.785  24.968031     29.601      7.026   234.7030     1.5851     2.3270     0.0190     -0.007      0.047      0.069        142 1.0046e+03 0.0000e+00
     -0.007    17.2460     6.6545     68.755  24.974189     29.543      7.022   235.3844     1.5771     2.3136     0.0190     -0.040     -0.007     -0.010        143 1.3126e+03 0.0000e+00
     -0.068    17.1578     6.6280     68.464  24.886683     29.466      7.023   235.1573     1.5487     2.2733     0.0190     -0.081     -0.053     -0.076        144 1.5641e+03 0.0000e+00
     -0.081    16.9915     6.5837     68.024  24.691569     29.182      7.026   235.6873     1.5568     2.3404     0.0189     -0.114     -0.075     -0.108        145 1.4671e+03 0.0000e+00
     -0.079    16.8614     6.5235     67.481  24.890946     29.539      7.012   235.9902     1.5851     2.3404     0.0190     -0.132     -0.080     -0.116        146 1.5544e+03 0.0000e+00
     -0.088    16.8313     6.4604     66.880  25.083233     29.859      7.012   236.4066     1.4962     2.1390     0.0191     -0.136     -0.082     -0.120        147 1.5032e+03 0.0000e+00
     -0.083    16.8331     6.4052     66.317  25.104461     29.986      7.013   236.7852     1.4962     2.1390     0.0191     -0.118     -0.082     -0.119        148 1.5144e+03 0.0000e+00
     -0.081    16.8635     6.3470     65.713  25.131355     30.039      7.016   236.3309     1.4962     2.1659     0.0191     -0.085     -0.081     -0.118        149 1.5080e+03 0.0000e+00
     -0.085    16.9304     6.2866     65.101  25.138710     30.038      7.014   236.8609     1.5083     2.1927     0.0191     -0.052     -0.086     -0.124        150 1.4756e+03 0.0000e+00
     -0.099    16.9643     6.2206     64.435  25.065665     29.950      7.017   236.8609     1.4921     2.1122     0.0191     -0.027     -0.094     -0.137        151 1.4801e+03 0.0000e+00
     -0.105    16.9495     6.1565     63.793  24.985101     29.767      7.019   237.1637     1.3587     2.1927     0.0190     -0.013     -0.099     -0.145        152 1.5358e+03 0.0000e+00
     -0.100    16.9280     6.0975     63.191  24.942521     29.744      7.020   237.9587     1.3668     2.2330     0.0190     -0.012     -0.097     -0.142        153 1.4951e+03 0.0000e+00
     -0.093    16.9147     6.0389     62.584  24.940787     29.688      7.017   238.2616     1.3830     2.1927     0.0190     -0.010     -0.092     -0.135        154 1.4811e+03 0.0000e+00
     -0.090    16.9300     5.9873     62.049  25.076191     29.937      7.019   238.6023     1.4032     2.1927     0.0191     -0.006     -0.090     -0.131        155 1.4994e+03 0.0000e+00
     -0.093    16.9826     5.9372     61.532  25.100091     29.912      7.017   239.0566     1.4436     2.1390     0.0191     -0.006     -0.092     -0.133        156 1.4817e+03 0.0000e+00
     -0.098    17.0211     5.8851     60.999  25.059259     29.903      7.018   238.7537     1.4274     2.1122     0.0191     -0.004     -0.095     -0.138        157 1.4906e+03 0.0000e+00
     -0.100    17.0264     5.8399     60.537  25.097357     29.863      7.018   238.6780     1.4194     2.1524     0.0191     -0.001     -0.098     -0.141        158 1.5272e+03 0.0000e+00
     -0.100    17.0269     5.8006     60.136  25.052667     29.837      7.020   238.9809     1.4396     2.1659     0.0191      0.001     -0.098     -0.143        159 1.4927e+03 0.0000e+00
     -0.101    17.0351     5.7598     59.721  24.996292     29.700      7.023   239.6623     1.3506     2.2330     0.0190     -0.000     -0.098     -0.143        160 1.4925e+03 0.0000e+00
     -0.101    17.0498     5.7222     59.337  25.048938     29.833      7.019   239.3216     1.3749     2.1524     0.0191     -0.003     -0.098     -0.143        161 1.4773e+03 0.0000e+00
     -0.099    17.0650     5.6844     58.950  25.076078     29.793      7.021   239.7002     1.3425     2.1390     0.0191     -0.005     -0.098     -0.142        162 1.5017e+03 0.0000e+00
     -0.101    17.0723     5.6523     58.622  25.110729     29.883      7.020   241.0252     1.3749     2.2196     0.0191     -0.004     -0.099     -0.143        163 1.5482e+03 0.0000e+00
     -0.103    17.0731     5.6131     58.223  25.094739     29.805      7.021   240.6087     1.3830     2.2464     0.0191     -0.003     -0.101     -0.146        164 1.5010e+03 0.0000e+00
     -0.105    17.0730     5.5844     57.931  25.066330     29.800      7.022   240.0787     1.3749     2.2733     0.0191     -0.002     -0.102     -0.147        165 1.5150e+03 0.0000e+00
     -0.104    17.0745     5.5579     57.662  25.086797     29.800      7.019   240.5330     1.3668     2.3136     0.0191     -0.002     -0.101     -0.147        166 1.5211e+03 0.0000e+00
     -0.102    17.0793     5.5244     57.320  25.069268     29.800      7.018   240.7980     1.3587     2.3002     0.0191     -0.002     -0.100     -0.146        167 1.4953e+03 0.0000e+00
     -0.101    17.0850     5.4998     57.071  25.088143     29.799      7.021   241.1009     1.3789     2.1390     0.0191     -0.001     -0.100     -0.145        168 1.4895e+03 0.0000e+00
     -0.102    17.0904     5.4701     56.769  25.152236     29.895      7.022   240.9495     1.3789     2.1122     0.0191     -0.001     -0.100     -0.145        169 1.4955e+03 0.0000e+00
     -0.102    17.0958     5.4480     56.543  25.137719     29.858      7.020   241.7066     1.3749     2.1659     0.0191     -0.001     -0.100     -0.146        170 1.5030e+03 0.0000e+00
     -0.102    17.1008     5.4192     56.080  25.076563     29.788      7.021   241.7823     1.3668     2.0450     0.0191      0.000     -0.100     -0.146        171 1.5096e+03 0.0000e+00
     -0.102    17.1051     5.4462     55.987  25.139412     29.850      7.019   241.3659     1.3668     2.1256     0.0191      0.001     -0.099     -0.145        172 1.5179e+03 0.0000e+00
     -0.100    17.1097     5.5876     57.188  25.178076     29.913      7.017   241.6687     1.3547     2.3673     0.0191      0.002     -0.099     -0.144        173 1.5208e+03 0.0000e+00
     -0.101    17.1149     5.8707     59.934  25.147017     29.843      7.016   241.6687     1.3547     2.2464     0.0191      0.001     -0.099     -0.144        174 1.5227e+03 0.0000e+00
     -0.102    17.1202     6.2609     63.824  25.178061     29.907      7.018   241.5930     1.3668     2.3941     0.0191      0.000     -0.099     -0.143        175 1.5220e+03 0.0000e+00
     -0.099    17.1249     6.6948     68.181  25.169084     29.870      7.018   241.7445     1.3506     2.3404     0.0191      0.001     -0.097     -0.140        176 1.5096e+03 0.0000e+00
     -0.095    17.1298     7.1339     72.609  25.128546     29.833      7.018   242.1609     1.4436     2.3136     0.0191      0.003     -0.093     -0.135        177 1.4958e+03 0.0000e+00
     -0.091    17.1347     7.5312     76.633  25.139579     29.829      7.021   242.3880     1.4315     2.2196     0.0191      0.005     -0.089     -0.129        178 1.4980e+03 0.0000e+00
     -0.087    17.1400     7.8396     79.747  25.125708     29.826      7.017   242.5016     1.4113     2.3002     0.0191      0.007     -0.084     -0.122        179 1.4996e+03 0.0000e+00
     -0.079    17.1426     8.0371     81.724  25.205092     29.889      7.017   242.7666     1.4355     2.3539     0.0191      0.010     -0.077     -0.112        180 1.4344e+03 0.0000e+00
     -0.071    16.9958     8.1168     82.507  25.040786     29.753      7.018   243.2588     1.4598     2.2464     0.0191      0.015     -0.070     -0.102        181 1.5267e+03 0.0000e+00
     -0.066    16.6940     8.1117     82.439  24.203769     28.690      7.016   243.2966     1.4113     2.3270     0.0186      0.019     -0.063     -0.092        182 1.4866e+03 0.0000e+00
     -0.058    16.4745     8.0433     81.736  23.608604     28.087      7.015   243.3723     1.4355     2.2599     0.0183      0.022     -0.055     -0.081        183 1.6008e+03 0.0000e+00
     -0.046    16.3597     7.9653     80.929  23.647299     28.367      7.013   243.3345     1.4355     2.2330     0.0183      0.026     -0.043     -0.063        184 1.4142e+03 0.0000e+00
     -0.028    16.2861     7.8710     79.966  23.592508     28.444      7.012   243.2588     1.4517     2.3539     0.0183      0.031     -0.026     -0.037        185 1.2097e+03 0.0000e+00
     -0.003    16.2420     7.7933     79.186  23.499015     28.391      7.009   243.9402     1.4598     2.3404     0.0182      0.040     -0.002     -0.002        186 1.8397e+03 0.0000e+00
      0.030    16.2134     7.7302     78.548  23.526567     28.507      6.996   244.3566     1.4396     2.3136     0.0183      0.052      0.022      0.033        187 1.3769e+03 0.0000e+00
      0.040    16.2007     7.6764     77.994  23.498963     28.471      6.981   243.7888     1.4315     2.2867     0.0182      0.061      0.037      0.054        188 7.8973e+02 0.0000e+00
      0.045    16.1859     7.6334     77.542  23.533381     28.558      6.970   243.5995     1.5771     2.3941     0.0182      0.065      0.046      0.067        189 9.7079e+02 0.0000e+00
      0.056    16.1678     7.6092     77.269  23.543025     28.567      6.965   243.7888     1.5892     2.3404     0.0182      0.067      0.056      0.082        190 1.3971e+03 0.0000e+00
      0.072    16.1523     7.5784     76.928  23.486968     28.509      6.964   243.8266     1.5851     2.2330     0.0182      0.066      0.071      0.103        191 1.5497e+03 0.0000e+00
      0.090    16.1434     7.5539     76.662  23.484586     28.522      6.965   244.1295     1.5528     2.3270     0.0182      0.064      0.086      0.127        192 7.6552e+02 0.0000e+00
      0.104    16.1376     7.5387     76.503  23.486713     28.532      6.968   243.7888     1.5528     2.3136     0.0182      0.059      0.101      0.148        193 7.9350e+02 0.0000e+00
      0.118    16.1300     7.5246     76.369  23.484325     28.539      6.973   244.0538     1.5851     2.3539     0.0182      0.054      0.115      0.167        194 9.7022e+02 0.0000e+00
      0.129    16.1274     7.5138     76.251  23.487562     28.542      6.975   243.9780     1.5528     2.3539     0.0182      0.051      0.128      0.186        195 8.6073e+02 0.0000e+00
      0.145    16.1325     7.5048     76.142  23.482688     28.548      6.980   244.1295     1.5568     2.2733     0.0182      0.054      0.143      0.207        196 1.0203e+03 0.0000e+00
      0.163    16.1344     7.5023     76.099  23.490392     28.550      6.982   243.8266     1.5851     2.3136     0.0182      0.058      0.160      0.232        197 8.5786e+02 0.0000e+00
      0.180    16.1302     7.4927     75.986  23.477973     28.546      6.982   243.8266     1.6458     2.3673     0.0182      0.059      0.177      0.257        198 8.7531e+02 0.0000e+00
      0.198    16.1209     7.4858     75.912  23.498142     28.545      6.982   244.0916     1.6620     2.2464     0.0182      0.060      0.193      0.281        199 1.0565e+03 0.0000e+00
      0.214    16.1041     7.4698     75.751  23.524574     28.616      6.979   244.8488     1.6013     2.3136     0.0182      0.061      0.208      0.302        200 1.1966e+03 0.0000e+00
      0.225    16.0873     7.4499     75.548  23.445080     28.486      6.976   244.3566     1.6175     2.2196     0.0182      0.062      0.221      0.320        201 1.0622e+03 0.0000e+00
      0.236    16.0763     7.4401     75.453  23.419230     28.498      6.976   244.5080     1.6943     2.3136     0.0182      0.061      0.232      0.337        202 8.4591e+02 0.0000e+00
      0.249    16.0741     7.4303     75.362  23.438186     28.510      6.974   244.9623     1.7145     2.3270     0.0182      0.060      0.244      0.353        203 7.8539e+02 0.0000e+00
      0.258    16.0786     7.4191     75.268  23.480777     28.585      6.973   244.7730     1.6781     2.1659     0.0182      0.056      0.255      0.369        204 7.6526e+02 0.0000e+00
      0.274    16.0738     7.4129     75.221  23.484794     28.587      6.971   245.4166     1.7145     2.2464     0.0182      0.052      0.268      0.389        205 7.2653e+02 0.0000e+00
      0.288    16.0628     7.4135     75.219  23.433187     28.515      6.972   245.4923     1.7550     2.3539     0.0182      0.051      0.283      0.409        206 1.0348e+03 0.0000e+00
      0.303    16.0521     7.4173     75.245  23.426436     28.519      6.970   246.1359     1.7671     2.2464     0.0182      0.050      0.296      0.429        207 1.0101e+03 0.0000e+00
      0.314    16.0423     7.4164     75.221  23.433916     28.526      6.967   246.8930     1.7307     2.2196     0.0182      0.050      0.307      0.445        208 6.1934e+02 0.0000e+00
      0.321    16.0402     7.4225     75.273  23.423883     28.534      6.966   247.0823     1.7388     2.3002     0.0182      0.050      0.315      0.457        209 6.5551e+02 0.0000e+00
      0.329    16.0409     7.4202     75.244  23.438926     28.541      6.964   246.6280     1.9652     2.3673     0.0182      0.048      0.323      0.469        210 1.0855e+03 0.0000e+00
      0.339    16.0403     7.4231     75.264  23.474479     28.610      6.968   246.8552     1.9369     2.3002     0.0182      0.045      0.333      0.483        211 1.3794e+03 0.0000e+00
      0.351    16.0427     7.4265     75.283  23.438920     28.542      6.968   248.1423     1.9572     2.3270     0.0182      0.044      0.343      0.497        212 8.3182e+02 0.0000e+00
      0.359    16.0481     7.4252     75.251  23.423898     28.542      6.967   248.4073     1.9652     2.1927     0.0182      0.040      0.352      0.511        213 5.2812e+02 0.0000e+00
      0.368    16.0599     7.4246     75.229  23.433892     28.540      6.970   248.5209     1.9572     2.2733     0.0182      0.038      0.362      0.526        214 6.3756e+02 0.0000e+00
      0.382    16.0694     7.4212     75.183  23.426480     28.537      6.969   248.8238     2.0502     2.2464     0.0182      0.038      0.375      0.545        215 7.5870e+02 0.0000e+00
      0.399    16.0656     7.4181     75.145  23.433120     28.529      6.971   249.0888     2.0016     2.2330     0.0182      0.041      0.392      0.569        216 8.3344e+02 0.0000e+00
      0.419    16.0567     7.4221     75.183  23.425626     28.522      6.971   250.1866     2.0057     2.3002     0.0182      0.046      0.410      0.594        217 1.1119e+03 0.0000e+00
      0.434    16.0480     7.4050     75.012  23.435803     28.525      6.973   249.6566     2.0178     2.3404     0.0182      0.051      0.426      0.618        218 1.1019e+03 0.0000e+00
      0.451    16.0419     7.3946     74.915  23.479737     28.599      6.974   250.7545     2.1593     2.3673     0.0182      0.056      0.442      0.641        219 6.9315e+02 0.0000e+00
      0.466    16.0382     7.3776     74.749  23.430235     28.537      6.974   250.4138     2.1432     2.2733     0.0182      0.059      0.457      0.663        220 7.1424e+02 0.0000e+00
      0.481    16.0323     7.3613     74.593  23.378847     28.473      6.972   250.6031     2.1634     2.2599     0.0181      0.062      0.473      0.685        221 6.0444e+02 0.0000e+00
      0.499    16.0223     7.3430     74.419  23.425128     28.544      6.976   251.5116     2.1391     2.2599     0.0182      0.064      0.488      0.708        222 4.7099e+02 0.0000e+00
      0.513    16.0109     7.3271     74.262  23.431924     28.548      6.975   251.2466     2.3453     2.3136     0.0182      0.064      0.503      0.730        223 4.8390e+02 0.0000e+00
      0.529    16.0012     7.3178     74.162  23.370393     28.487      6.976   251.4359     2.3656     2.3539     0.0181      0.063      0.518      0.753        224 5.0223e+02 0.0000e+00
      0.546    15.9937     7.3166     74.145  23.383142     28.495      6.978   251.8523     2.3130     2.2867     0.0181      0.062      0.533      0.774        225 4.7725e+02 0.0000e+00
      0.556    15.9896     7.3205     74.172  23.416061     28.569      6.971   252.4202     2.3615     2.3002     0.0182      0.061      0.544      0.789        226 4.8182e+02 0.0000e+00
      0.562    15.9878     7.3281     74.234  23.388711     28.507      6.971   252.4581     2.4788     2.3404     0.0181      0.057      0.552      0.801        227 5.4727e+02 0.0000e+00
      0.572    15.9891     7.3383     74.334  23.417183     28.577      6.972   252.7231     2.4909     2.2867     0.0182      0.053      0.561      0.813        228 4.8458e+02 0.0000e+00
      0.581    15.9943     7.3471     74.418  23.380629     28.511      6.969   253.3288     2.4747     2.2733     0.0181      0.049      0.570      0.826        229 5.4288e+02 0.0000e+00
      0.589    15.9989     7.3526     74.469  23.374918     28.510      6.967   253.7831     2.4667     2.2062     0.0181      0.044      0.578      0.838        230 5.5300e+02 0.0000e+00
      0.596    16.0038     7.3647     74.583  23.424290     28.574      6.966   253.3666     2.4950     2.3136     0.0182      0.039      0.585      0.849        231 4.8569e+02 0.0000e+00
      0.605    16.0111     7.3634     74.557  23.437750     28.571      6.969   253.7074     2.4788     2.3673     0.0182      0.035      0.595      0.863        232 4.8427e+02 0.0000e+00
      0.619    16.0136     7.3562     74.489  23.476729     28.636      6.968   253.5181     2.4990     2.2599     0.0182      0.034      0.608      0.882        233 4.0682e+02 0.0000e+00
      0.635    16.0104     7.3528     74.462  23.435061     28.562      6.968   253.8209     2.4586     2.1793     0.0182      0.037      0.622      0.902        234 3.8671e+02 0.0000e+00
      0.647    16.0071     7.3484     74.424  23.430322     28.561      6.967   253.7831     2.4747     2.3270     0.0182      0.041      0.635      0.922        235 4.3575e+02 0.0000e+00
      0.662    15.9993     7.3413     74.349  23.423344     28.563      6.966   253.8588     2.6810     2.3136     0.0182      0.044      0.651      0.944        236 4.4897e+02 0.0000e+00
      0.683    15.9900     7.3343     74.269  23.384465     28.497      6.962   254.9566     2.6769     2.3136     0.0181      0.050      0.667      0.968        237 3.8824e+02 0.0000e+00
      0.694    15.9873     7.3183     74.098  23.419425     28.571      6.953   254.4645     2.6850     2.3136     0.0182      0.054      0.680      0.986        238 3.7750e+02 0.0000e+00
      0.703    15.9849     7.3009     73.913  23.379837     28.509      6.946   254.6159     2.6405     2.2464     0.0181      0.055      0.690      1.000        239 4.0864e+02 0.0000e+00
      0.714    15.9817     7.2863     73.757  23.374455     28.511      6.942   255.5245     2.8710     2.3136     0.0181      0.055      0.700      1.015        240 3.7206e+02 0.0000e+00
      0.724    15.9758     7.2748     73.639  23.426127     28.581      6.942   255.4866     2.8427     2.2733     0.0182      0.052      0.711      1.031        241 3.7411e+02 0.0000e+00
      0.737    15.9691     7.2698     73.589  23.374813     28.515      6.942   255.6759     2.8670     2.1793     0.0181      0.050      0.723      1.048        242 3.6396e+02 0.0000e+00
      0.750    15.9710     7.2666     73.558  23.379033     28.519      6.944   255.7895     2.8589     2.2464     0.0181      0.048      0.736      1.067        243 3.6609e+02 0.0000e+00
      0.764    15.9761     7.2676     73.565  23.420878     28.592      6.947   255.7895     2.9236     2.3270     0.0182      0.047      0.748      1.086        244 3.6522e+02 0.0000e+00
      0.775    15.9794     7.2739     73.627  23.382020     28.522      6.946   255.9031     2.9519     2.2733     0.0181      0.045      0.760      1.102        245 3.6456e+02 0.0000e+00
      0.785    15.9778     7.2820     73.704  23.368110     28.519      6.945   255.7895     2.9115     2.2464     0.0181      0.046      0.770      1.116        246 3.7723e+02 0.0000e+00
      0.794    15.9722     7.2962     73.845  23.378907     28.516      6.947   256.1681     2.8953     2.2733     0.0181      0.046      0.780      1.131        247 3.4599e+02 0.0000e+00
      0.805    15.9670     7.3036     73.915  23.368582     28.518      6.947   256.1302     2.9236     2.5419     0.0181      0.045      0.791      1.147        248 3.4920e+02 0.0000e+00
      0.820    15.9610     7.3064     73.942  23.380959     28.521      6.947   256.5088     2.9640     2.6359     0.0181      0.046      0.803      1.165        249 3.4493e+02 0.0000e+00
      0.831    15.9558     7.3049     73.930  23.422786     28.593      6.947   256.9252     2.9357     2.5150     0.0182      0.045      0.814      1.181        250 3.4327e+02 0.0000e+00
      0.839    15.9540     7.3028     73.913  23.375812     28.529      6.942   256.5466     2.9357     2.5419     0.0181      0.044      0.824      1.196        251 3.3890e+02 0.0000e+00
      0.851    15.9553     7.3039     73.920  23.380138     28.533      6.944   256.5845     2.9762     2.3136     0.0181      0.043      0.836      1.213        252 3.1004e+02 0.0000e+00
      0.867    15.9557     7.3032     73.907  23.358124     28.534      6.944   256.8495     3.0570     2.3270     0.0181      0.045      0.853      1.237        253 2.9923e+02 0.0000e+00
      0.891    15.9542     7.3055     73.927  23.314288     28.431      6.946   257.0766     3.1096     2.3136     0.0181      0.049      0.874      1.268        254 3.0914e+02 0.0000e+00
      0.917    15.9527     7.3037     73.908  23.405049     28.601      6.944   257.4174     3.0651     2.3136     0.0182      0.056      0.896      1.300        255 3.1411e+02 0.0000e+00
      0.933    15.9503     7.3027     73.897  23.393376     28.534      6.943   257.0009     3.0570     2.3404     0.0181      0.062      0.915      1.327        256 2.8703e+02 0.0000e+00
      0.950    15.9473     7.3059     73.931  23.358458     28.535      6.936   257.3416     3.1783     2.3539     0.0181      0.067      0.930      1.350        257 2.8306e+02 0.0000e+00
      0.964    15.9449     7.3001     73.875  23.300302     28.435      6.935   257.5309     3.2147     2.3539     0.0181      0.070      0.944      1.370        258 2.8970e+02 0.0000e+00
      0.976    15.9438     7.3021     73.895  23.287906     28.436      6.934   257.8338     3.2066     2.3136     0.0181      0.071      0.958      1.390        259 2.7307e+02 0.0000e+00
      0.992    15.9463     7.2974     73.846  23.373887     28.540      6.934   257.5309     3.1986     2.3002     0.0181      0.070      0.973      1.411        260 2.7247e+02 0.0000e+00
      1.007    15.9487     7.2896     73.764  23.371147     28.541      6.930   258.0231     3.3441     2.4076     0.0181      0.066      0.987      1.432        261 2.7208e+02 0.0000e+00
      1.022    15.9460     7.2882     73.746  23.291315     28.437      6.932   258.3259     3.3320     2.3539     0.0181      0.061      1.002      1.453        262 2.5441e+02 0.0000e+00
      1.037    15.9421     7.2873     73.735  23.295389     28.435      6.931   258.5531     3.2996     2.2733     0.0181      0.058      1.017      1.474        263 2.4611e+02 0.0000e+00
      1.051    15.9403     7.2929     73.791  23.366075     28.540      6.928   258.6667     3.3279     2.3404     0.0181      0.057      1.031      1.494        264 2.4407e+02 0.0000e+00
      1.064    15.9392     7.2918     73.776  23.381193     28.542      6.927   259.1967     3.5867     2.3270     0.0181      0.057      1.043      1.512        265 2.4158e+02 0.0000e+00
      1.074    15.9388     7.2906     73.758  23.365500     28.544      6.921   259.0831     3.5787     2.3136     0.0181      0.056      1.054      1.529        266 2.3451e+02 0.0000e+00
      1.088    15.9402     7.2882     73.730  23.385606     28.544      6.915   259.3102     3.5706     2.3404     0.0181      0.055      1.067      1.547        267 2.3198e+02 0.0000e+00
      1.101    15.9419     7.2824     73.672  23.356170     28.545      6.906   259.7267     3.5544     2.3270     0.0181      0.053      1.079      1.565        268 2.3744e+02 0.0000e+00
      1.111    15.9418     7.2760     73.609  23.313210     28.441      6.903   259.6888     4.0356     2.1659     0.0181      0.051      1.090      1.582        269 2.3080e+02 0.0000e+00
      1.126    15.9405     7.2708     73.567  23.350148     28.543      6.908   259.8781     4.0194     2.3136     0.0181      0.050      1.104      1.601        270 2.2224e+02 0.0000e+00
      1.140    15.9384     7.2611     73.479  23.339841     28.474      6.902   261.0138     4.0396     2.3539     0.0181      0.050      1.117      1.619        271 2.1771e+02 0.0000e+00
      1.148    15.9362     7.2517     73.388  23.355676     28.544      6.904   259.9159     4.0356     2.3002     0.0181      0.049      1.127      1.635        272 2.1329e+02 0.0000e+00
      1.162    15.9354     7.2536     73.408  23.389724     28.545      6.908   260.0674     4.0073     2.3136     0.0181      0.049      1.140      1.653        273 2.1624e+02 0.0000e+00
      1.176    15.9347     7.2539     73.410  23.356752     28.547      6.910   260.2945     3.9062     2.3404     0.0181      0.049      1.155      1.676        274 2.1055e+02 0.0000e+00
      1.196    15.9321     7.2583     73.450  23.307790     28.445      6.914   259.8024     3.8779     2.3673     0.0181      0.051      1.180      1.711        275 1.9532e+02 0.0000e+00
      1.238    15.9288     7.2597     73.462  23.272816     28.445      6.914   260.9759     3.8981     2.2733     0.0181      0.061      1.215      1.761        276 1.8370e+02 0.0000e+00
      1.282    15.9263     7.2601     73.468  23.311355     28.447      6.906   261.0895     3.9021     2.2330     0.0181      0.076      1.247      1.808        277 1.7554e+02 0.0000e+00
      1.291    15.9261     7.2612     73.473  23.348749     28.552      6.890   260.6352     3.9790     2.3136     0.0181      0.085      1.260      1.828        278 1.7720e+02 0.0000e+00
      1.284    15.9283     7.2617     73.470  23.315202     28.451      6.890   261.0895     3.9709     2.3270     0.0181      0.085      1.259      1.826        279 1.8275e+02 0.0000e+00
      1.277    15.9344     7.2563     73.407  23.353107     28.554      6.896   261.0138     3.9951     2.3941     0.0181      0.078      1.255      1.820        280 1.8253e+02 0.0000e+00
      1.278    15.9408     7.2537     73.377  23.390498     28.552      6.900   261.1652     3.9709     2.3673     0.0181      0.065      1.255      1.820        281 1.8029e+02 0.0000e+00
      1.285    15.9432     7.2530     73.371  23.357587     28.548      6.903   261.5059     4.0315     2.2867     0.0181      0.050      1.260      1.827        282 1.7841e+02 0.0000e+00
      1.291    15.9442     7.2504     73.347  23.394062     28.543      6.904   261.9602     4.0477     2.4613     0.0181      0.032      1.265      1.835        283 1.8068e+02 0.0000e+00
      1.294    15.9436     7.2523     73.364  23.404386     28.610      6.902   261.6574     4.0315     2.3673     0.0182      0.015      1.270      1.841        284 1.7932e+02 0.0000e+00
      1.300    15.9406     7.2524     73.361  23.315099     28.439      6.904   262.1495     4.0154     2.2330     0.0181      0.007      1.273      1.846        285 1.7518e+02 0.0000e+00
      1.298    15.9397     7.2509     73.344  23.356975     28.541      6.899   261.8467     4.3955     2.2196     0.0181      0.008      1.274      1.848        286 1.7914e+02 0.0000e+00
      1.300    15.9398     7.2514     73.345  23.381913     28.543      6.902   262.1495     4.3753     2.3002     0.0181      0.012      1.279      1.854        287 1.7568e+02 0.0000e+00
      1.314    15.9367     7.2426     73.255  23.284066     28.442      6.902   262.4524     4.4399     2.3539     0.0181      0.016      1.291      1.873        288 1.6912e+02 0.0000e+00
      1.337    15.9313     7.2424     73.254  23.300901     28.442      6.906   262.3009     4.4197     2.3002     0.0181      0.023      1.311      1.901        289 1.6463e+02 0.0000e+00
      1.360    15.9264     7.2382     73.210  23.360963     28.546      6.907   262.7174     4.2742     2.2733     0.0181      0.031      1.331      1.930        290 1.6055e+02 0.0000e+00
      1.373    15.9237     7.2412     73.237  23.387163     28.550      6.906   262.9067     4.2742     2.2464     0.0181      0.041      1.346      1.951        291 1.5946e+02 0.0000e+00
      1.382    15.9244     7.2369     73.190  23.357217     28.553      6.906   262.3009     4.3065     2.3807     0.0181      0.048      1.358      1.969        292 1.5785e+02 0.0000e+00
      1.400    15.9257     7.2311     73.130  23.338951     28.487      6.902   262.3767     4.2903     2.3136     0.0181      0.055      1.377      1.996        293 1.5283e+02 0.0000e+00
      1.430    15.9241     7.2452     73.272  23.350616     28.555      6.904   263.1338     4.2944     2.3404     0.0181      0.065      1.403      2.035        294 1.4286e+02 0.0000e+00
      1.462    15.9222     7.2409     73.228  23.313060     28.451      6.903   263.1338     4.2661     2.2733     0.0181      0.075      1.431      2.076        295 1.3721e+02 0.0000e+00
      1.487    15.9203     7.2513     73.334  23.356047     28.555      6.901   263.2095     4.2661     2.4210     0.0181      0.081      1.453      2.108        296 1.3372e+02 0.0000e+00
      1.497    15.9180     7.2447     73.266  23.297120     28.454      6.890   263.2852     4.2822     2.3270     0.0181      0.082      1.467      2.128        297 1.3254e+02 0.0000e+00
      1.504    15.9175     7.2401     73.219  23.297475     28.455      6.889   263.2852     4.2822     2.2733     0.0181      0.080      1.477      2.141        298 1.3124e+02 0.0000e+00
      1.515    15.9180     7.2427     73.244  23.355606     28.559      6.893   263.2852     4.2742     2.2196     0.0181      0.078      1.487      2.156        299 1.3063e+02 0.0000e+00
      1.525    15.9171     7.2438     73.257  23.343339     28.491      6.897   263.2852     4.2742     2.3136     0.0181      0.072      1.502      2.180        300 1.2718e+02 0.0000e+00
      1.559    15.9144     7.2483     73.303  23.342381     28.559      6.900   264.0424     4.2539     2.3539     0.0181      0.068      1.527      2.215        301 1.1836e+02 0.0000e+00
      1.587    15.9124     7.2434     73.252  23.327157     28.457      6.889   263.7017     4.2863     2.3404     0.0181      0.066      1.550      2.248        302 1.1789e+02 0.0000e+00
      1.594    15.9121     7.2406     73.221  23.332646     28.562      6.885   263.9288     4.1933     2.3673     0.0181      0.063      1.563      2.267        303 1.1612e+02 0.0000e+00
      1.604    15.9117     7.2357     73.170  23.276270     28.392      6.885   264.4210     4.2216     2.2733     0.0181      0.063      1.571      2.279        304 1.1541e+02 0.0000e+00
      1.607    15.9115     7.2270     73.082  23.338035     28.563      6.883   264.4210     4.2378     2.3404     0.0181      0.063      1.577      2.287        305 1.1552e+02 0.0000e+00
      1.614    15.9116     7.2206     73.018  23.315062     28.461      6.882   264.8374     4.2297     2.3404     0.0181      0.059      1.583      2.296        306 1.1303e+02 0.0000e+00
      1.621    15.9110     7.2144     72.955  23.275220     28.461      6.881   264.3831     4.1407     2.2867     0.0181      0.053      1.590      2.307        307 1.1303e+02 0.0000e+00
      1.630    15.9102     7.2174     72.984  23.387618     28.564      6.884   264.7617     4.1448     2.2867     0.0181      0.044      1.599      2.319        308 1.1038e+02 0.0000e+00
      1.640    15.9099     7.2268     73.078  23.353028     28.564      6.888   264.7238     4.1529     2.2867     0.0181      0.034      1.608      2.332        309 1.0883e+02 0.0000e+00
      1.648    15.9103     7.2316     73.126  23.318268     28.462      6.892   264.7617     4.1569     2.3404     0.0181      0.029      1.617      2.345        310 1.0795e+02 0.0000e+00
      1.658    15.9109     7.2365     73.174  23.341955     28.565      6.892   264.8374     4.1690     2.2196     0.0181      0.031      1.627      2.359        311 1.0616e+02 0.0000e+00
      1.670    15.9102     7.2449     73.259  23.323550     28.462      6.896   264.9510     4.1529     2.2464     0.0181      0.033      1.637      2.375        312 1.0448e+02 0.0000e+00
      1.681    15.9087     7.2497     73.308  23.341173     28.564      6.896   265.2538     4.1165     2.3404     0.0181      0.036      1.647      2.389        313 1.0318e+02 0.0000e+00
      1.686    15.9078     7.2492     73.304  23.320023     28.462      6.897   264.8374     4.1892     2.3807     0.0181      0.037      1.655      2.399        314 1.0267e+02 0.0000e+00
      1.694    15.9081     7.2516     73.328  23.349871     28.566      6.898   265.0267     4.1609     2.1927     0.0181      0.037      1.663      2.412        315 1.0014e+02 0.0000e+00
      1.707    15.9080     7.2424     73.233  23.304028     28.464      6.899   265.0267     4.1771     2.2062     0.0181      0.037      1.674      2.427        316 9.8628e+01 0.0000e+00
      1.718    15.9076     7.2366     73.174  23.288151     28.464      6.900   265.4810     4.1488     2.3404     0.0181      0.038      1.684      2.443        317 9.8290e+01 0.0000e+00
      1.728    15.9071     7.2413     73.221  23.369630     28.566      6.900   265.2917     4.1529     2.3941     0.0181      0.038      1.694      2.458        318 9.5729e+01 0.0000e+00
      1.739    15.9064     7.2387     73.195  23.291552     28.464      6.898   265.5945     4.1690     2.3807     0.0181      0.039      1.705      2.473        319 9.4015e+01 0.0000e+00
      1.749    15.9057     7.2431     73.240  23.296396     28.464      6.898   265.5945     4.1488     2.2196     0.0181      0.039      1.716      2.489        320 9.2909e+01 0.0000e+00
      1.762    15.9051     7.2421     73.231  23.363602     28.567      6.897   265.9731     4.1529     2.3002     0.0181      0.041      1.727      2.505        321 9.1387e+01 0.0000e+00
      1.773    15.9049     7.2358     73.169  23.326477     28.499      6.899   265.8595     4.1529     2.2599     0.0181      0.043      1.737      2.520        322 8.9838e+01 0.0000e+00
      1.781    15.9054     7.2386     73.200  23.283315     28.466      6.899   265.7838     4.1488     2.3136     0.0181      0.043      1.747      2.534        323 8.8542e+01 0.0000e+00
      1.792    15.9057     7.2365     73.183  23.298754     28.466      6.902   265.7460     4.1690     2.5150     0.0181      0.042      1.758      2.549        324 8.7757e+01 0.0000e+00
      1.805    15.9054     7.2346     73.165  23.366545     28.568      6.900   266.2002     4.1448     2.5687     0.0181      0.042      1.769      2.566        325 8.5925e+01 0.0000e+00
      1.815    15.9047     7.2335     73.153  23.376794     28.568      6.899   266.2760     4.1448     2.4210     0.0181      0.043      1.779      2.581        326 8.3674e+01 0.0000e+00
      1.824    15.9042     7.2357     73.174  23.285998     28.466      6.899   266.4652     4.1609     2.5687     0.0181      0.042      1.788      2.594        327 8.3355e+01 0.0000e+00
      1.832    15.9040     7.2366     73.180  23.242413     28.398      6.896   266.7681     4.2378     2.2733     0.0181      0.041      1.797      2.606        328 8.2875e+01 0.0000e+00
      1.840    15.9039     7.2330     73.141  23.282834     28.466      6.897   266.8438     4.1933     2.2599     0.0181      0.039      1.805      2.617        329 8.0518e+01 0.0000e+00
      1.849    15.9044     7.2289     73.099  23.324619     28.501      6.896   267.1845     4.2216     2.2599     0.0181      0.038      1.812      2.628        330 7.9314e+01 0.0000e+00
      1.855    15.9053     7.2224     73.033  23.368256     28.569      6.894   267.4874     4.2175     2.2330     0.0181      0.036      1.819      2.638        331 7.9703e+01 0.0000e+00
      1.861    15.9063     7.2160     72.968  23.376732     28.569      6.892   267.3360     4.3955     2.3136     0.0181      0.034      1.825      2.648        332 7.8711e+01 0.0000e+00
      1.869    15.9083     7.2138     72.944  23.284431     28.466      6.891   267.2224     4.4076     2.3136     0.0181      0.031      1.832      2.657        333 7.6826e+01 0.0000e+00
      1.874    15.9105     7.2158     72.964  23.305279     28.465      6.888   266.9952     4.4036     2.2733     0.0181      0.029      1.839      2.666        334 7.6932e+01 0.0000e+00
      1.881    15.9113     7.2107     72.912  23.350786     28.566      6.887   267.5631     4.4157     2.3270     0.0181      0.028      1.845      2.676        335 7.6549e+01 0.0000e+00
      1.889    15.9108     7.2115     72.920  23.316718     28.462      6.886   267.9038     4.4036     2.2599     0.0181      0.027      1.852      2.686        336 7.4644e+01 0.0000e+00
      1.896    15.9098     7.2116     72.921  23.347674     28.564      6.888   267.6767     4.5532     2.5150     0.0181      0.027      1.859      2.697        337 7.3987e+01 0.0000e+00
      1.903    15.9081     7.2144     72.950  23.312261     28.462      6.887   267.6388     4.5572     2.5150     0.0181      0.027      1.867      2.708        338 7.3307e+01 0.0000e+00
      1.913    15.9065     7.2148     72.954  23.360789     28.565      6.888   268.0174     4.5491     2.4613     0.0181      0.028      1.877      2.721        339 7.1704e+01 0.0000e+00
      1.925    15.9058     7.2215     73.022  23.376204     28.566      6.887   268.0931     4.5613     2.5553     0.0181      0.030      1.889      2.739        340 6.9990e+01 0.0000e+00
      1.941    15.9055     7.2194     73.001  23.293080     28.465      6.888   267.8281     4.4278     2.3404     0.0181      0.034      1.903      2.760        341 6.8681e+01 0.0000e+00
      1.956    15.9057     7.2116     72.918  23.286395     28.465      6.888   268.2445     4.3955     2.2599     0.0181      0.039      1.918      2.782        342 6.7150e+01 0.0000e+00
      1.970    15.9051     7.2134     72.929  23.295601     28.466      6.886   268.3960     4.4076     2.2867     0.0181      0.044      1.932      2.802        343 6.5472e+01 0.0000e+00
      1.984    15.9043     7.1993     72.781  23.311263     28.499      6.887   268.6231     4.4197     2.3404     0.0181      0.048      1.945      2.821        344 6.4299e+01 0.0000e+00
      1.996    15.9041     7.1884     72.669  23.296545     28.466      6.885   268.2824     4.3591     2.2867     0.0181      0.052      1.957      2.839        345 6.3130e+01 0.0000e+00
      2.007    15.9042     7.1773     72.557  23.373198     28.569      6.885   268.5474     4.3550     2.3539     0.0181      0.053      1.969      2.855        346 6.2373e+01 0.0000e+00
      2.019    15.9042     7.1651     72.433  23.364072     28.569      6.886   268.5853     4.3348     2.3404     0.0181      0.053      1.980      2.872        347 6.1583e+01 0.0000e+00
      2.032    15.9044     7.1571     72.349  23.248622     28.398      6.882   269.0774     4.3389     2.2196     0.0181      0.052      1.992      2.889        348 6.0545e+01 0.0000e+00
      2.042    15.9046     7.1568     72.344  23.279750     28.466      6.880   268.8881     4.4925     2.3270     0.0181      0.049      2.003      2.905        349 5.9417e+01 0.0000e+00
      2.054    15.9049     7.1489     72.262  23.295693     28.466      6.881   269.0774     4.4885     2.3136     0.0181      0.048      2.013      2.920        350 5.8854e+01 0.0000e+00
      2.063    15.9048     7.1475     72.248  23.288062     28.466      6.878   268.6988     4.4642     2.3807     0.0181      0.046      2.023      2.935        351 5.8649e+01 0.0000e+00
      2.074    15.9021     7.1520     72.294  23.318886     28.500      6.877   268.9260     4.4804     2.2733     0.0181      0.044      2.037      2.955        352 5.6918e+01 0.0000e+00
      2.096    15.8977     7.1546     72.321  23.286974     28.466      6.880   268.6988     4.4561     2.3673     0.0181      0.047      2.055      2.982        353 5.4944e+01 0.0000e+00
      2.118    15.8944     7.1501     72.273  23.298138     28.468      6.876   269.3424     4.4238     2.3404     0.0181      0.051      2.073      3.008        354 5.4236e+01 0.0000e+00
      2.128    15.8930     7.1557     72.327  23.364275     28.573      6.872   269.3045     4.4157     2.2196     0.0181      0.054      2.084      3.023        355 5.4009e+01 0.0000e+00
      2.129    15.8928     7.1507     72.274  23.293590     28.473      6.869   269.2667     4.4076     2.3270     0.0181      0.053      2.089      3.030        356 5.4009e+01 0.0000e+00
      2.133    15.8926     7.1446     72.212  23.297183     28.474      6.868   269.0395     4.4076     2.3539     0.0181      0.050      2.097      3.042        357 5.3060e+01 0.0000e+00
      2.154    15.8910     7.1455     72.222  23.359804     28.577      6.866   269.1153     4.5410     2.3673     0.0181      0.049      2.115      3.068        358 5.0878e+01 0.0000e+00
      2.184    15.8888     7.1385     72.151  23.334223     28.509      6.859   269.7588     4.5330     2.3539     0.0181      0.053      2.138      3.101        359 4.9390e+01 0.0000e+00
      2.200    15.8880     7.1332     72.097  23.358658     28.578      6.851   269.5317     4.5410     2.3136     0.0181      0.055      2.156      3.127        360 4.8746e+01 0.0000e+00
      2.212    15.8881     7.1234     71.998  23.299755     28.477      6.849   269.7588     4.5330     2.2733     0.0181      0.055      2.169      3.145        361 4.8257e+01 0.0000e+00
      2.222    15.8884     7.1271     72.033  23.288967     28.478      6.847   269.8345     4.5410     2.3136     0.0181      0.056      2.180      3.161        362 4.7383e+01 0.0000e+00
      2.235    15.8887     7.1212     71.971  23.372083     28.580      6.849   269.8724     4.5330     2.3002     0.0181      0.060      2.193      3.181        363 4.5831e+01 0.0000e+00
      2.255    15.8873     7.1125     71.885  23.374161     28.580      6.851   270.4403     4.5693     2.1927     0.0181      0.064      2.210      3.206        364 4.4820e+01 0.0000e+00
      2.273    15.8855     7.1128     71.889  23.375304     28.580      6.847   270.4403     4.5491     2.3136     0.0181      0.064      2.227      3.230        365 4.4314e+01 0.0000e+00
      2.285    15.8843     7.1156     71.917  23.311380     28.512      6.846   270.7431     4.6664     2.5419     0.0181      0.060      2.241      3.250        366 4.3345e+01 0.0000e+00
      2.298    15.8837     7.1222     71.984  23.305510     28.480      6.843   270.9703     4.6624     2.4076     0.0181      0.057      2.253      3.268        367 4.2684e+01 0.0000e+00
      2.309    15.8838     7.1280     72.043  23.352969     28.583      6.844   270.9703     4.6462     2.5150     0.0181      0.056      2.265      3.285        368 4.2213e+01 0.0000e+00
      2.321    15.8842     7.1329     72.092  23.311599     28.481      6.846   271.1595     4.6502     2.5150     0.0181      0.056      2.278      3.303        369 4.1266e+01 0.0000e+00
      2.337    15.8841     7.1407     72.170  23.356994     28.583      6.844   271.3867     4.4076     2.2599     0.0181      0.056      2.294      3.327        370 4.0259e+01 0.0000e+00
      2.360    15.8834     7.1407     72.169  23.296475     28.480      6.843   271.3867     4.4197     2.3270     0.0181      0.057      2.316      3.359        371 3.9048e+01 0.0000e+00
      2.389    15.8822     7.1403     72.163  23.297992     28.480      6.838   272.1060     4.4440     2.3002     0.0181      0.060      2.344      3.398        372 3.7298e+01 0.0000e+00
      2.420    15.8813     7.1403     72.163  23.355106     28.583      6.831   272.5603     4.4238     2.3136     0.0181      0.069      2.370      3.438        373 3.6217e+01 0.0000e+00
      2.441    15.8815     7.1392     72.150  23.343962     28.516      6.824   272.5224     4.4116     2.2196     0.0181      0.078      2.390      3.467        374 3.6043e+01 0.0000e+00
      2.450    15.8822     7.1437     72.194  23.341505     28.585      6.824   272.2195     4.4116     2.3807     0.0181      0.082      2.404      3.487        375 3.5240e+01 0.0000e+00
      2.465    15.8826     7.1477     72.234  23.328525     28.482      6.825   272.5981     4.4197     2.3136     0.0181      0.084      2.418      3.506        376 3.4543e+01 0.0000e+00
      2.480    15.8827     7.1506     72.263  23.330474     28.584      6.828   272.5224     4.3874     2.2196     0.0181      0.082      2.431      3.526        377 3.4293e+01 0.0000e+00
      2.490    15.8827     7.1602     72.360  23.279797     28.413      6.829   272.6360     4.3874     2.2196     0.0181      0.075      2.442      3.542        378 3.3777e+01 0.0000e+00
      2.501    15.8828     7.1651     72.411  23.332311     28.584      6.834   272.2195     4.4561     2.3270     0.0181      0.066      2.454      3.559        379 3.3120e+01 0.0000e+00
      2.516    15.8822     7.1724     72.488  23.324403     28.481      6.834   272.8631     4.4804     2.3270     0.0181      0.057      2.468      3.579        380 3.2408e+01 0.0000e+00
      2.533    15.8809     7.1759     72.525  23.289637     28.516      6.836   273.0903     4.4723     2.2330     0.0181      0.052      2.483      3.601        381 3.1944e+01 0.0000e+00
      2.546    15.8802     7.1772     72.536  23.316296     28.482      6.834   272.7496     4.4763     2.3136     0.0181      0.052      2.497      3.621        382 3.1383e+01 0.0000e+00
      2.559    15.8800     7.1763     72.527  23.350508     28.585      6.836   272.7874     4.3591     2.2464     0.0181      0.053      2.510      3.639        383 3.0716e+01 0.0000e+00
      2.573    15.8791     7.1719     72.484  23.306340     28.483      6.838   272.5981     4.3591     2.2867     0.0181      0.053      2.524      3.659        384 3.0242e+01 0.0000e+00
      2.587    15.8781     7.1669     72.435  23.282340     28.483      6.835   272.4845     4.3672     2.3673     0.0181      0.054      2.539      3.681        385 2.9534e+01 0.0000e+00
      2.606    15.8775     7.1592     72.358  23.291455     28.484      6.838   272.5224     4.3469     2.2062     0.0181      0.056      2.555      3.705        386 2.9054e+01 0.0000e+00
      2.621    15.8774     7.1493     72.259  23.235717     28.416      6.838   272.8253     4.2216     2.4210     0.0181      0.058      2.571      3.729        387 2.8574e+01 0.0000e+00
      2.638    15.8777     7.1415     72.179  23.322066     28.519      6.840   272.7496     4.2054     2.2733     0.0181      0.059      2.588      3.754        388 2.7480e+01 0.0000e+00
      2.660    15.8787     7.1286     72.044  23.361839     28.588      6.834   273.0903     4.2297     2.3002     0.0181      0.062      2.608      3.782        389 2.6859e+01 0.0000e+00
      2.678    15.8802     7.1267     72.020  23.245501     28.417      6.834   272.9388     4.2216     2.4076     0.0181      0.065      2.625      3.808        390 2.6530e+01 0.0000e+00
      2.692    15.8810     7.1163     71.913  23.289002     28.484      6.829   272.9388     4.3631     2.3807     0.0181      0.067      2.640      3.829        391 2.5920e+01 0.0000e+00
      2.706    15.8805     7.1185     71.935  23.366982     28.586      6.832   272.9767     4.3510     2.4479     0.0181      0.067      2.654      3.850        392 2.5492e+01 0.0000e+00
      2.722    15.8803     7.1183     71.933  23.296659     28.483      6.829   273.3174     4.3874     2.3270     0.0181      0.067      2.669      3.871        393 2.5034e+01 0.0000e+00
      2.737    15.8815     7.1206     71.957  23.287596     28.483      6.826   273.4310     4.3631     2.2867     0.0181      0.065      2.683      3.892        394 2.4522e+01 0.0000e+00
      2.750    15.8823     7.1250     72.000  23.289339     28.483      6.826   273.4310     4.3429     2.2196     0.0181      0.063      2.695      3.909        395 2.4283e+01 0.0000e+00
      2.759    15.8826     7.1286     72.036  23.324132     28.516      6.825   273.5446     4.5330     2.3404     0.0181      0.059      2.705      3.923        396 2.4052e+01 0.0000e+00
      2.766    15.8832     7.1312     72.062  23.362861     28.584      6.825   273.5067     4.5613     2.2464     0.0181      0.053      2.713      3.936        397 2.3795e+01 0.0000e+00
      2.776    15.8822     7.1339     72.089  23.300422     28.482      6.826   273.4310     4.5572     2.3673     0.0181      0.049      2.723      3.951        398 2.3447e+01 0.0000e+00
      2.790    15.8791     7.1313     72.064  23.283272     28.481      6.828   273.9231     4.5491     2.2599     0.0181      0.047      2.737      3.971        399 2.2940e+01 0.0000e+00
      2.808    15.8765     7.1346     72.097  23.295281     28.482      6.827   274.2260     4.2216     2.3136     0.0181      0.046      2.755      3.996        400 2.2273e+01 0.0000e+00
      2.830    15.8754     7.1359     72.112  23.285477     28.484      6.827   274.2638     4.2297     2.3539     0.0181      0.049      2.775      4.025        401 2.1572e+01 0.0000e+00
      2.851    15.8747     7.1339     72.093  23.295475     28.486      6.825   273.9988     4.2175     2.3673     0.0181      0.053      2.794      4.053        402 2.1234e+01 0.0000e+00
      2.867    15.8748     7.1364     72.121  23.312482     28.521      6.824   274.4531     4.2216     2.2867     0.0181      0.059      2.812      4.078        403 2.0865e+01 0.0000e+00
      2.885    15.8749     7.1314     72.071  23.293954     28.487      6.821   274.6803     4.4116     2.2464     0.0181      0.065      2.829      4.103        404 2.0390e+01 0.0000e+00
      2.902    15.8744     7.1281     72.038  23.288893     28.487      6.822   274.4531     4.4036     2.3136     0.0181      0.070      2.846      4.128        405 1.9992e+01 0.0000e+00
      2.919    15.8742     7.1281     72.036  23.289139     28.487      6.819   274.6424     4.4278     2.3539     0.0181      0.072      2.865      4.154        406 1.9409e+01 0.0000e+00
      2.942    15.8744     7.1255     72.007  23.293647     28.487      6.817   275.0588     4.4197     2.3404     0.0181      0.073      2.885      4.184        407 1.8806e+01 0.0000e+00
      2.965    15.8744     7.1187     71.936  23.283283     28.487      6.818   274.9831     4.6098     2.2464     0.0181      0.074      2.906      4.214        408 1.8442e+01 0.0000e+00
      2.981    15.8742     7.1179     71.925  23.302037     28.487      6.815   274.9074     4.6219     2.3136     0.0181      0.074      2.923      4.239        409 1.8133e+01 0.0000e+00
      2.995    15.8748     7.1098     71.841  23.359231     28.590      6.815   274.9074     4.5896     2.3002     0.0181      0.073      2.938      4.260        410 1.7745e+01 0.0000e+00
      3.011    15.8757     7.1039     71.779  23.301027     28.487      6.811   275.3996     4.5977     2.3404     0.0181      0.073      2.951      4.280        411 1.7556e+01 0.0000e+00
      3.019    15.8766     7.0998     71.737  23.285546     28.487      6.811   274.9453     4.4197     2.2464     0.0181      0.069      2.962      4.296        412 1.7356e+01 0.0000e+00
      3.031    15.8781     7.0892     71.630  23.289575     28.486      6.811   275.3996     4.4359     2.3404     0.0181      0.064      2.974      4.312        413 1.6962e+01 0.0000e+00
      3.047    15.8793     7.0801     71.534  23.296015     28.486      6.809   275.3617     4.4197     2.3404     0.0181      0.060      2.987      4.331        414 1.6744e+01 0.0000e+00
      3.058    15.8793     7.0804     71.536  23.366454     28.587      6.813   274.9831     4.4036     2.3136     0.0181      0.054      3.000      4.351        415 1.6481e+01 0.0000e+00
      3.072    15.8778     7.0805     71.536  23.379759     28.586      6.810   274.9453     4.3995     2.3404     0.0181      0.051      3.014      4.371        416 1.6135e+01 0.0000e+00
      3.090    15.8760     7.0840     71.572  23.368379     28.586      6.811   275.2103     4.3146     2.3404     0.0181      0.051      3.030      4.395        417 1.5784e+01 0.0000e+00
      3.108    15.8743     7.0846     71.578  23.321334     28.519      6.817   274.7938     4.3510     2.2464     0.0181      0.054      3.048      4.420        418 1.5419e+01 0.0000e+00
      3.126    15.8722     7.0878     71.607  23.290104     28.486      6.817   275.1724     4.3348     2.2867     0.0181      0.057      3.065      4.445        419 1.5171e+01 0.0000e+00
      3.142    15.8711     7.0840     71.564  23.288685     28.487      6.818   275.1724     4.3591     2.2599     0.0181      0.061      3.081      4.468        420 1.4902e+01 0.0000e+00
      3.157    15.8698     7.0801     71.516  23.293460     28.489      6.817   275.1346     4.1448     2.2196     0.0181      0.063      3.097      4.492        421 1.4611e+01 0.0000e+00
      3.176    15.8692     7.0579     71.287  23.373082     28.592      6.819   275.1346     4.1448     2.2733     0.0181      0.065      3.116      4.518        422 1.4218e+01 0.0000e+00
      3.196    15.8687     7.0559     71.263  23.367440     28.593      6.817   276.0431     4.1609     2.3136     0.0181      0.068      3.136      4.547        423 1.3803e+01 0.0000e+00
      3.219    15.8666     7.0437     71.142  23.300482     28.491      6.813   276.1567     4.1569     2.3136     0.0181      0.070      3.156      4.577        424 1.3434e+01 0.0000e+00
      3.239    15.8656     7.0259     70.980  23.308208     28.525      6.806   276.3838     4.0275     2.3270     0.0181      0.072      3.176      4.606        425 1.3175e+01 0.0000e+00
      3.259    15.8653     7.0163     70.902  23.298545     28.493      6.805   276.6867     4.0396     2.3136     0.0181      0.074      3.195      4.634        426 1.2976e+01 0.0000e+00
      3.275    15.8655     7.0050     70.791  23.371790     28.596      6.803   276.9138     4.0235     2.2196     0.0181      0.075      3.212      4.659        427 1.2646e+01 0.0000e+00
      3.294    15.8653     6.9992     70.729  23.365259     28.596      6.801   276.4974     4.0275     2.3404     0.0181      0.076      3.231      4.687        428 1.2318e+01 0.0000e+00
      3.316    15.8636     6.9973     70.712  23.306673     28.493      6.800   276.9896     4.0235     2.1927     0.0181      0.077      3.253      4.718        429 1.1996e+01 0.0000e+00
      3.341    15.8603     6.9938     70.680  23.355778     28.596      6.794   277.4817     4.0194     2.2867     0.0181      0.079      3.278      4.755        430 1.1519e+01 0.0000e+00
      3.372    15.8551     6.9898     70.648  23.393070     28.597      6.790   277.4817     4.0235     2.2464     0.0181      0.082      3.306      4.796        431 1.0996e+01 0.0000e+00
      3.405    15.8513     6.9996     70.748  23.408467     28.668      6.784   277.7846     4.0437     2.3673     0.0182      0.088      3.333      4.835        432 1.0786e+01 0.0000e+00
      3.419    15.8492     7.0173     70.919  23.336618     28.535      6.781   277.5574     3.8294     2.3673     0.0181      0.091      3.348      4.857        433 1.0779e+01 0.0000e+00
      3.419    15.8511     7.0259     70.996  23.275002     28.503      6.783   277.4060     3.8253     2.2464     0.0181      0.088      3.352      4.862        434 1.0799e+01 0.0000e+00
      3.417    15.8625     7.0406     71.137  23.307305     28.505      6.783   277.5196     3.8374     2.2464     0.0181      0.079      3.352      4.862        435 1.0850e+01 0.0000e+00
      3.418    15.8749     7.0517     71.242  23.355698     28.606      6.788   277.5953     3.8496     2.3941     0.0181      0.066      3.353      4.863        436 1.0776e+01 0.0000e+00
      3.422    15.8771     7.0599     71.320  23.303698     28.495      6.793   277.4817     3.8577     2.2733     0.0181      0.050      3.356      4.867        437 1.0690e+01 0.0000e+00
      3.426    15.8748     7.0600     71.315  23.283094     28.487      6.790   277.4817     3.5584     2.3002     0.0181      0.034      3.359      4.871        438 1.0705e+01 0.0000e+00
      3.425    15.8755     7.0628     71.340  23.381338     28.588      6.793   277.6710     3.5503     2.2330     0.0181      0.019      3.359      4.872        439 1.0729e+01 0.0000e+00
      3.424    15.8788     7.0565     71.274  23.418559     28.658      6.790   277.8224     3.5746     2.2733     0.0182      0.008      3.359      4.872        440 1.0730e+01 0.0000e+00
      3.426    15.8835     7.0521     71.228  23.384976     28.589      6.794   277.5953     3.5948     2.2867     0.0181      0.005      3.361      4.875        441 1.0724e+01 0.0000e+00
      3.431    15.8847     7.0505     71.211  23.363849     28.587      6.794   277.4438     3.7081     2.3404     0.0181      0.006      3.368      4.884        442 1.0553e+01 0.0000e+00
      3.444    15.8794     7.0484     71.187  23.296647     28.481      6.799   277.4060     3.6838     2.3673     0.0181      0.010      3.380      4.901        443 1.0281e+01 0.0000e+00
      3.462    15.8732     7.0408     71.108  23.290765     28.480      6.798   277.9739     3.6919     2.2733     0.0181      0.017      3.396      4.926        444 1.0104e+01 0.0000e+00
      3.481    15.8678     7.0413     71.111  23.371170     28.586      6.796   277.9739     3.7364     2.4210     0.0181      0.025      3.414      4.952        445 9.8505e+00 0.0000e+00
      3.500    15.8633     7.0431     71.128  23.374428     28.591      6.794   278.4281     3.6393     2.2599     0.0181      0.037      3.432      4.977        446 9.6359e+00 0.0000e+00
      3.517    15.8600     7.0383     71.078  23.316350     28.526      6.794   278.5039     3.6191     2.2733     0.0181      0.048      3.449      5.003        447 9.4747e+00 0.0000e+00
      3.536    15.8565     7.0396     71.091  23.295245     28.495      6.788   278.6931     3.6474     2.2867     0.0181      0.058      3.469      5.031        448 9.1728e+00 0.0000e+00
      3.560    15.8536     7.0308     71.001  23.371056     28.600      6.790   278.8446     3.6676     2.2330     0.0181      0.068      3.491      5.063        449 8.8657e+00 0.0000e+00
      3.583    15.8523     7.0230     70.924  23.370212     28.602      6.784   279.1853     3.5948     2.3673     0.0181      0.074      3.512      5.094        450 8.6762e+00 0.0000e+00
      3.600    15.8513     7.0187     70.880  23.296296     28.502      6.781   278.9581     3.5787     2.3002     0.0181      0.077      3.530      5.119        451 8.5026e+00 0.0000e+00
      3.616    15.8503     7.0114     70.804  23.285198     28.503      6.780   279.4503     3.5989     2.3404     0.0181      0.077      3.546      5.143        452 8.3304e+00 0.0000e+00
      3.634    15.8489     7.0044     70.731  23.295102     28.503      6.782   279.1096     3.5948     2.3673     0.0181      0.076      3.563      5.168        453 8.1676e+00 0.0000e+00
      3.650    15.8473     6.9972     70.658  23.372894     28.607      6.783   278.7310     3.5746     2.2330     0.0181      0.075      3.581      5.194        454 7.9680e+00 0.0000e+00
      3.671    15.8459     6.9897     70.586  23.366232     28.608      6.783   278.8067     3.7323     2.5284     0.0181      0.075      3.600      5.222        455 7.7740e+00 0.0000e+00
      3.693    15.8452     6.9805     70.495  23.303394     28.506      6.780   278.9581     3.6838     2.5016     0.0181      0.074      3.621      5.253        456 7.5580e+00 0.0000e+00
      3.715    15.8447     6.9761     70.452  23.362174     28.610      6.779   279.1096     3.7040     2.4747     0.0181      0.073      3.644      5.285        457 7.3719e+00 0.0000e+00
      3.739    15.8442     6.9669     70.359  23.382002     28.610      6.782   279.1096     3.7000     2.5150     0.0181      0.076      3.668      5.319        458 7.1698e+00 0.0000e+00
      3.765    15.8440     6.9602     70.292  23.367640     28.611      6.779   279.5260     3.6838     2.3673     0.0181      0.081      3.693      5.356        459 6.9097e+00 0.0000e+00
      3.794    15.8445     6.9577     70.266  23.380048     28.611      6.775   279.7531     3.6959     2.2062     0.0181      0.087      3.720      5.396        460 6.6880e+00 0.0000e+00
      3.823    15.8444     6.9698     70.385  23.366559     28.611      6.772   279.8289     3.7161     2.2733     0.0181      0.093      3.747      5.435        461 6.4666e+00 0.0000e+00
      3.847    15.8425     6.9751     70.437  23.384427     28.611      6.772   280.5103     3.7283     2.2330     0.0181      0.098      3.772      5.470        462 6.2522e+00 0.0000e+00
      3.868    15.8407     6.9897     70.583  23.357813     28.611      6.768   280.3210     3.4735     2.4479     0.0181      0.099      3.792      5.498        463 6.1005e+00 0.0000e+00
      3.883    15.8413     6.9924     70.610  23.310759     28.509      6.768   280.1696     3.4573     2.5150     0.0181      0.098      3.808      5.522        464 6.0069e+00 0.0000e+00
      3.898    15.8436     6.9981     70.669  23.354065     28.613      6.768   280.7374     3.4573     2.5150     0.0181      0.093      3.823      5.546        465 5.8818e+00 0.0000e+00
      3.916    15.8450     7.0019     70.710  23.392843     28.613      6.766   280.7753     3.4412     2.5687     0.0181      0.087      3.841      5.572        466 5.7328e+00 0.0000e+00
      3.939    15.8455     7.0020     70.712  23.351422     28.611      6.764   280.8131     3.4129     2.3673     0.0181      0.081      3.864      5.604        467 5.5475e+00 0.0000e+00
      3.966    15.8458     7.0068     70.757  23.316690     28.508      6.766   280.8889     3.3684     2.3807     0.0181      0.079      3.890      5.642        468 5.3309e+00 0.0000e+00
      3.995    15.8460     7.0024     70.712  23.406425     28.678      6.760   281.3810     3.4007     2.3270     0.0182      0.080      3.917      5.681        469 5.1978e+00 0.0000e+00
      4.021    15.8452     7.0138     70.826  23.387951     28.610      6.759   281.3053     3.3603     2.2464     0.0181      0.084      3.944      5.719        470 5.0503e+00 0.0000e+00
      4.048    15.8435     7.0076     70.763  23.369322     28.610      6.757   281.7974     3.3886     2.3136     0.0181      0.090      3.969      5.757        471 4.8560e+00 0.0000e+00
      4.075    15.8421     7.0099     70.785  23.370327     28.610      6.752   281.7974     3.4129     2.2733     0.0181      0.097      3.991      5.790        472 4.7464e+00 0.0000e+00
      4.087    15.8414     7.0015     70.699  23.297778     28.509      6.751   281.5324     3.3926     2.2733     0.0181      0.099      4.006      5.810        473 4.7297e+00 0.0000e+00
      4.092    15.8413     6.9964     70.644  23.281765     28.510      6.752   281.3053     3.3603     2.3404     0.0181      0.093      4.014      5.822        474 4.7006e+00 0.0000e+00
      4.099    15.8420     6.9952     70.631  23.301333     28.510      6.755   281.7217     3.3724     2.2062     0.0181      0.082      4.022      5.833        475 4.6826e+00 0.0000e+00
      4.111    15.8435     6.9905     70.582  23.362349     28.613      6.755   281.3431     3.3886     2.3136     0.0181      0.070      4.032      5.849        476 4.6310e+00 0.0000e+00
      4.125    15.8440     6.9908     70.585  23.324395     28.544      6.759   281.6081     3.3684     2.3539     0.0181      0.060      4.047      5.870        477 4.5113e+00 0.0000e+00
      4.145    15.8428     6.9857     70.536  23.289285     28.509      6.761   281.7974     3.4088     2.1927     0.0181      0.053      4.065      5.895        478 4.3887e+00 0.0000e+00
      4.164    15.8417     6.9862     70.543  23.376401     28.611      6.764   281.3431     3.3886     2.1927     0.0181      0.050      4.085      5.924        479 4.2694e+00 0.0000e+00
      4.186    15.8412     6.9911     70.589  23.364182     28.612      6.764   281.7974     3.4533     2.2867     0.0181      0.053      4.106      5.955        480 4.1811e+00 0.0000e+00
      4.210    15.8408     6.9887     70.563  23.304493     28.510      6.765   282.2139     3.4210     2.2733     0.0181      0.061      4.128      5.988        481 4.0845e+00 0.0000e+00
      4.232    15.8405     6.9798     70.470  23.361765     28.613      6.764   282.2896     3.4290     2.2464     0.0181      0.071      4.153      6.023        482 3.9538e+00 0.0000e+00
      4.263    15.8394     6.9833     70.502  23.381831     28.613      6.758   282.9332     3.4614     2.3270     0.0181      0.080      4.182      6.066        483 3.7415e+00 0.0000e+00
      4.299    15.8376     6.9919     70.588  23.368441     28.614      6.750   283.1603     3.5018     2.2464     0.0181      0.091      4.212      6.110        484 3.5981e+00 0.0000e+00
      4.324    15.8364     7.0066     70.734  23.289506     28.512      6.746   283.4253     3.5423     2.1793     0.0181      0.098      4.234      6.141        485 3.5610e+00 0.0000e+00
      4.330    15.8360     7.0269     70.937  23.302221     28.513      6.743   282.9332     3.5140     2.2464     0.0181      0.098      4.244      6.156        486 3.5252e+00 0.0000e+00
      4.332    15.8357     7.0478     71.146  23.352618     28.616      6.742   282.8574     3.5140     2.2733     0.0181      0.091      4.250      6.165        487 3.5149e+00 0.0000e+00
      4.341    15.8367     7.0676     71.344  23.315710     28.514      6.747   283.1603     3.5018     2.3136     0.0181      0.081      4.259      6.178        488 3.4724e+00 0.0000e+00
      4.356    15.8377     7.0884     71.552  23.407434     28.685      6.747   283.0846     3.5301     2.4210     0.0182      0.071      4.273      6.199        489 3.3990e+00 0.0000e+00
      4.377    15.8362     7.1027     71.696  23.386672     28.616      6.751   283.2360     3.5382     2.3136     0.0181      0.062      4.292      6.225        490 3.2978e+00 0.0000e+00
      4.397    15.8346     7.1067     71.734  23.311907     28.547      6.752   282.7817     3.5342     2.2867     0.0181      0.055      4.312      6.255        491 3.2098e+00 0.0000e+00
      4.419    15.8328     7.1132     71.797  23.292993     28.514      6.753   283.5767     3.7525     2.2733     0.0181      0.053      4.332      6.285        492 3.1175e+00 0.0000e+00
      4.439    15.8307     7.1173     71.835  23.291649     28.515      6.753   283.7660     3.7970     2.2330     0.0181      0.058      4.352      6.312        493 3.0592e+00 0.0000e+00
      4.455    15.8298     7.1190     71.846  23.283942     28.516      6.751   283.5767     3.7566     2.2733     0.0181      0.067      4.369      6.337        494 3.0286e+00 0.0000e+00
      4.471    15.8288     7.1217     71.871  23.243306     28.449      6.751   283.9174     3.7768     2.2464     0.0181      0.072      4.389      6.366        495 2.9370e+00 0.0000e+00
      4.501    15.8272     7.1365     72.019  23.282939     28.518      6.751   284.0689     3.7687     2.3404     0.0181      0.077      4.415      6.404        496 2.8206e+00 0.0000e+00
      4.534    15.8255     7.1446     72.100  23.293899     28.519      6.744   284.6367     4.0396     2.5150     0.0181      0.083      4.444      6.445        497 2.7331e+00 0.0000e+00
      4.558    15.8244     7.1473     72.122  23.288948     28.520      6.742   284.5610     4.0356     2.5284     0.0181      0.087      4.469      6.481        498 2.6777e+00 0.0000e+00
      4.581    15.8234     7.1503     72.147  23.318742     28.556      6.741   284.7124     4.0396     2.5956     0.0181      0.091      4.491      6.513        499 2.6049e+00 0.0000e+00
      4.601    15.8226     7.1485     72.120  23.286461     28.522      6.739   284.3717     4.0396     2.4747     0.0181      0.093      4.511      6.543        500 2.5472e+00 0.0000e+00
      4.619    15.8218     7.1498     72.123  23.240200     28.454      6.739   284.3717     4.1448     2.3404     0.0181      0.094      4.530      6.570        501 2.4800e+00 0.0000e+00
      4.637    15.8201     7.1429     72.046  23.228112     28.455      6.738   284.7124     4.1488     2.4210     0.0181      0.093      4.549      6.598        502 2.4255e+00 0.0000e+00
      4.659    15.8170     7.1324     71.932  23.242225     28.456      6.741   284.9396     4.1529     2.2196     0.0181      0.090      4.571      6.630        503 2.3728e+00 0.0000e+00
      4.687    15.8139     7.1188     71.790  23.222637     28.457      6.737   285.4696     4.1245     2.2196     0.0181      0.086      4.598      6.669        504 2.2628e+00 0.0000e+00
      4.721    15.8119     7.1056     71.655  23.252488     28.459      6.728   285.5453     4.2135     2.3807     0.0181      0.087      4.628      6.712        505 2.2114e+00 0.0000e+00
      4.749    15.8111     7.1039     71.637  23.293998     28.564      6.726   285.8103     4.2216     2.2599     0.0181      0.092      4.656      6.752        506 2.1390e+00 0.0000e+00
      4.771    15.8106     7.0786     71.373  23.259901     28.462      6.724   285.6967     4.2297     2.3002     0.0181      0.096      4.678      6.785        507 2.0623e+00 0.0000e+00
      4.791    15.8078     7.0691     71.268  23.265282     28.532      6.724   285.8482     4.2216     2.3270     0.0181      0.098      4.697      6.813        508 2.0510e+00 0.0000e+00
      4.808    15.8035     7.0512     71.084  23.257662     28.463      6.721   286.3782     4.1326     2.3002     0.0181      0.098      4.715      6.839        509 2.0032e+00 0.0000e+00
      4.827    15.7978     7.0343     70.907  23.269385     28.534      6.720   286.3024     4.1609     2.3136     0.0181      0.095      4.733      6.866        510 1.9420e+00 0.0000e+00
      4.847    15.7913     7.0331     70.886  23.250693     28.468      6.719   286.3024     4.1690     2.3136     0.0181      0.090      4.753      6.893        511 1.8872e+00 0.0000e+00
      4.865    15.7863     7.0214     70.761  23.280924     28.541      6.719   286.4917     4.1448     2.2464     0.0181      0.084      4.773      6.923        512 1.8618e+00 0.0000e+00
      4.891    15.7818     7.0118     70.658  23.320687     28.580      6.718   286.6810     3.8900     2.1927     0.0181      0.079      4.797      6.958        513 1.7973e+00 0.0000e+00
      4.920    15.7782     7.0025     70.561  23.290134     28.549      6.718   286.5674     3.9183     2.2464     0.0181      0.080      4.822      6.995        514 1.7103e+00 0.0000e+00
      4.943    15.7771     7.0015     70.547  23.289308     28.552      6.721   286.6053     3.9102     2.2599     0.0181      0.084      4.845      7.028        515 1.6997e+00 0.0000e+00
      4.960    15.7760     6.9924     70.444  23.292075     28.554      6.720   286.6810     3.8981     2.3270     0.0181      0.086      4.865      7.056        516 1.7071e+00 0.0000e+00
      4.979    15.7706     6.9863     70.372  23.286693     28.555      6.717   286.8324     3.8819     2.2464     0.0181      0.087      4.883      7.081        517 1.6574e+00 0.0000e+00
      4.997    15.7650     6.9745     70.243  23.296007     28.556      6.718   286.6432     4.2297     2.1659     0.0181      0.086      4.900      7.106        518 1.5876e+00 0.0000e+00
      5.012    15.7621     6.9641     70.133  23.280484     28.560      6.718   287.2867     4.2297     2.3807     0.0181      0.083      4.916      7.131        519 1.5931e+00 0.0000e+00
      5.031    15.7580     6.9577     70.061  23.306013     28.564      6.718   287.2867     4.2135     2.3673     0.0181      0.079      4.933      7.156        520 1.5315e+00 0.0000e+00
      5.050    15.7524     6.9478     69.931  23.412441     28.737      6.717   287.2867     4.2135     2.2867     0.0182      0.075      4.952      7.182        521 1.4852e+00 0.0000e+00
      5.068    15.7473     6.9398     69.809  23.444443     28.740      6.720   287.2489     4.2378     2.2867     0.0181      0.071      4.971      7.210        522 1.4855e+00 0.0000e+00
      5.089    15.7431     6.9286     69.657  23.414392     28.744      6.720   287.4760     4.2256     2.3002     0.0181      0.071      4.990      7.238        523 1.3875e+00 0.0000e+00
      5.108    15.7411     6.9169     69.512  23.390561     28.679      6.720   287.5896     4.2378     2.3404     0.0181      0.072      5.009      7.265        524 1.3589e+00 0.0000e+00
      5.125    15.7383     6.8869     69.196  23.414822     28.750      6.717   287.4003     4.2580     2.3941     0.0181      0.073      5.028      7.292        525 1.3800e+00 0.0000e+00
      5.147    15.7309     6.8384     68.700  23.443482     28.752      6.718   287.8167     3.8981     2.3404     0.0181      0.074      5.050      7.324        526 1.3470e+00 0.0000e+00
      5.175    15.7231     6.7553     67.860  23.532739     28.891      6.716   287.8925     3.9062     2.3941     0.0182      0.078      5.075      7.361        527 1.2750e+00 0.0000e+00
      5.202    15.7168     6.6542     66.842  23.540870     28.896      6.713   287.7410     3.8738     2.1927     0.0182      0.082      5.100      7.397        528 1.2293e+00 0.0000e+00
      5.226    15.7138     6.5394     65.687  23.492646     28.833      6.710   288.4982     3.9183     2.3002     0.0182      0.086      5.124      7.432        529 1.1997e+00 0.0000e+00
      5.249    15.7078     6.4189     64.475  23.533474     28.906      6.707   288.4225     4.2701     2.2733     0.0182      0.090      5.147      7.464        530 1.1569e+00 0.0000e+00
      5.269    15.6879     6.2979     63.259  23.549345     28.908      6.704   288.3846     4.2742     2.2464     0.0182      0.091      5.168      7.495        531 1.1472e+00 0.0000e+00
      5.291    15.6597     6.1945     62.220  23.710025     29.118      6.704   288.4603     4.2499     2.3270     0.0183      0.093      5.189      7.526        532 1.1377e+00 0.0000e+00
      5.313    15.6337     6.1095     61.365  23.896697     29.373      6.703   288.3089     4.3065     2.3136     0.0184      0.093      5.211      7.557        533 1.0691e+00 0.0000e+00
      5.334    15.6156     6.0421     60.689  23.969150     29.462      6.702   288.6117     4.2863     2.2464     0.0184      0.090      5.231      7.587        534 1.0555e+00 0.0000e+00
      5.355    15.6052     6.0024     60.289  24.034845     29.584      6.700   288.5360     4.3227     2.3136     0.0185      0.087      5.252      7.617        535 1.0373e+00 0.0000e+00
      5.378    15.5994     5.9836     60.101  24.022439     29.563      6.697   288.4603     4.3308     2.3673     0.0184      0.085      5.275      7.651        536 9.6323e-01 0.0000e+00
      5.406    15.5960     5.9734     59.998  24.014237     29.570      6.697   288.8010     4.3753     2.3270     0.0184      0.087      5.300      7.687        537 9.2893e-01 0.0000e+00
      5.430    15.5943     5.9726     59.990  24.074697     29.643      6.694   288.6875     4.3672     2.2867     0.0185      0.088      5.324      7.720        538 8.9594e-01 0.0000e+00
      5.448    15.5932     5.9866     60.130  24.065766     29.646      6.693   288.8389     4.5330     2.2733     0.0185      0.089      5.344      7.750        539 9.0673e-01 0.0000e+00
      5.471    15.5920     5.9946     60.209  24.025353     29.578      6.692   288.9903     4.5249     2.3136     0.0184      0.089      5.365      7.780        540 8.9502e-01 0.0000e+00
      5.491    15.5914     6.0135     60.394  24.065709     29.648      6.689   288.6117     4.5693     2.3002     0.0185      0.089      5.386      7.811        541 8.5899e-01 0.0000e+00
      5.516    15.5909     6.0317     60.574  24.074829     29.649      6.688   288.6875     4.5330     2.2867     0.0185      0.089      5.410      7.846        542 8.4017e-01 0.0000e+00
      5.542    15.5906     6.0490     60.742  24.073287     29.649      6.682   289.1039     4.1771     2.2464     0.0185      0.090      5.434      7.881        543 8.1277e-01 0.0000e+00
      5.565    15.5904     6.0574     60.821  24.067627     29.650      6.681   289.1039     4.1326     2.2733     0.0185      0.090      5.458      7.916        544 7.8700e-01 0.0000e+00
      5.589    15.5905     6.0668     60.911  24.081872     29.650      6.679   288.9146     4.1326     2.3270     0.0185      0.090      5.484      7.953        545 7.6258e-01 0.0000e+00
      5.623    15.5907     6.0742     60.982  24.055560     29.650      6.673   289.9746     4.1609     2.3270     0.0185      0.094      5.513      7.995        546 7.3593e-01 0.0000e+00
      5.651    15.5906     6.0578     60.814  24.041090     29.581      6.667   290.0125     3.7364     2.7164     0.0184      0.099      5.540      8.035        547 7.2067e-01 0.0000e+00
      5.674    15.5900     6.0443     60.676  24.099881     29.719      6.659   290.3532     3.7768     2.6359     0.0185      0.102      5.565      8.070        548 7.0094e-01 0.0000e+00
      5.698    15.5895     6.0378     60.608  24.041679     29.581      6.658   290.3532     3.7768     2.7164     0.0184      0.103      5.586      8.101        549 6.6592e-01 0.0000e+00
      5.715    15.5882     6.0277     60.502  24.054237     29.650      6.658   290.2017     3.7849     2.7701     0.0185      0.101      5.605      8.129        550 6.7102e-01 0.0000e+00
      5.734    15.5853     6.0102     60.321  24.084253     29.651      6.656   289.8610     3.4452     2.7567     0.0185      0.097      5.624      8.156        551 6.8117e-01 0.0000e+00
      5.755    15.5826     5.9914     60.130  24.063609     29.652      6.657   290.0882     3.4129     2.7433     0.0185      0.093      5.644      8.185        552 6.6077e-01 0.0000e+00
      5.775    15.5789     5.9728     59.942  24.079928     29.654      6.656   290.0125     3.4290     2.6761     0.0185      0.088      5.663      8.213        553 6.4250e-01 0.0000e+00
      5.793    15.5740     5.9680     59.892  24.123229     29.725      6.655   289.8989     3.4573     2.7970     0.0185      0.082      5.683      8.242        554 6.2826e-01 0.0000e+00
      5.818    15.5706     5.9599     59.810  24.128292     29.727      6.654   289.9746     3.4210     2.6493     0.0185      0.080      5.706      8.276        555 5.9036e-01 0.0000e+00
      5.845    15.5680     5.9638     59.848  24.132912     29.731      6.650   290.3910     2.9155     2.6896     0.0185      0.081      5.731      8.313        556 5.6816e-01 0.0000e+00
      5.870    15.5654     5.9656     59.862  24.117480     29.733      6.648   290.5425     2.9115     2.6493     0.0185      0.084      5.755      8.348        557 5.7600e-01 0.0000e+00
      5.891    15.5637     5.9702     59.895  24.088216     29.666      6.643   290.0882     2.9357     2.7701     0.0185      0.087      5.777      8.380        558 5.5934e-01 0.0000e+00
      5.913    15.5615     5.9830     59.997  24.110049     29.737      6.641   290.2017     2.9276     2.7701     0.0185      0.089      5.799      8.410        559 5.4352e-01 0.0000e+00
      5.934    15.5579     5.9991     60.117  24.149592     29.738      6.640   290.2017     2.8225     2.7164     0.0185      0.090      5.819      8.440        560 5.2610e-01 0.0000e+00
      5.954    15.5542     6.0097     60.192  24.216856     29.878      6.639   290.3153     2.7982     2.6761     0.0185      0.090      5.838      8.467        561 5.1155e-01 0.0000e+00
      5.971    15.5518     6.0045     60.118  24.204193     29.812      6.637   290.2017     2.8063     2.6761     0.0185      0.088      5.855      8.492        562 5.0932e-01 0.0000e+00
      5.987    15.5509     5.9782     59.825  24.224636     29.883      6.635   289.9746     2.8184     2.6761     0.0185      0.083      5.872      8.518        563 4.8976e-01 0.0000e+00
      6.009    15.5502     5.9363     59.368  24.250700     29.885      6.635   290.0503     2.7376     2.9447     0.0185      0.079      5.892      8.546        564 4.8977e-01 0.0000e+00
      6.029    15.5489     5.8635     58.604  24.231042     29.885      6.631   290.1260     2.7295     2.9044     0.0185      0.077      5.910      8.573        565 4.8630e-01 0.0000e+00
      6.043    15.5485     5.7583     57.511  24.249101     29.886      6.633   289.8989     2.7093     2.9447     0.0185      0.074      5.927      8.598        566 4.8240e-01 0.0000e+00
      6.063    15.5450     5.6437     56.259  24.228227     29.887      6.632   289.9367     2.7376     2.9850     0.0185      0.073      5.947      8.626        567 4.7142e-01 0.0000e+00
      6.088    15.5348     5.5197     54.819  24.257018     29.887      6.630   290.1639     2.7457     2.7298     0.0185      0.074      5.971      8.660        568 4.5605e-01 0.0000e+00
      6.115    15.5137     5.3970     53.353  24.420765     30.131      6.623   290.4289     2.7335     2.7433     0.0186      0.077      5.997      8.698        569 4.3793e-01 0.0000e+00
      6.142    15.4823     5.2633     51.805  24.558009     30.276      6.617   290.2775     2.7214     2.7433     0.0187      0.083      6.022      8.734        570 4.2698e-01 0.0000e+00
      6.165    15.4579     5.0917     49.921  24.679071     30.464      6.615   290.5046     2.7295     2.7164     0.0188      0.087      6.044      8.767        571 4.3131e-01 0.0000e+00
      6.184    15.4410     4.7752     46.632  24.655464     30.454      6.610   290.4289     2.8508     2.9447     0.0188      0.089      6.064      8.794        572 4.2666e-01 0.0000e+00
      6.200    15.4178     4.2911     41.745  24.676324     30.472      6.609   290.1639     2.8831     3.0253     0.0188      0.089      6.081      8.819        573 4.0566e-01 0.0000e+00
      6.218    15.3875     3.6278     35.198  24.771691     30.657      6.610   289.7475     2.8710     2.9044     0.0188      0.088      6.098      8.843        574 3.9555e-01 0.0000e+00
      6.234    15.3590     2.8529     27.634  24.892502     30.744      6.610   289.6339     2.8508     2.8776     0.0189      0.084      6.114      8.868        575 4.2943e-01 0.0000e+00
      6.253    15.3243     2.0359     19.720  24.911342     30.906      6.611   289.8232     2.8751     2.9178     0.0189      0.079      6.133      8.896        576 4.1076e-01 0.0000e+00
      6.277    15.2348     1.2134     11.757  25.103969     30.997      6.611   289.9367     2.9357     2.6896     0.0189      0.075      6.155      8.929        577 3.9697e-01 0.0000e+00
      6.302    15.0627     0.5351      5.171  25.393875     31.611      6.607   289.9746     2.9438     2.7701     0.0192      0.075      6.179      8.962        578 3.8098e-01 0.0000e+00
      6.322    14.8490     0.0209      0.201  28.463739     35.014      6.606   289.5203     2.9276     2.7164     0.0206      0.077      6.200      8.992        579 3.3397e-01 0.0000e+00
      6.342    14.6475    -0.2971     -2.857  32.638889     41.233      6.604   289.5582     2.9276     2.7164     0.0231      0.079      6.218      9.019        580 3.3674e-01 0.0000e+00
      6.358    14.4670    -0.4685     -4.500  34.548951     42.857      6.601   289.3310     2.8427     3.0521     0.0238      0.080      6.235      9.044        581 3.7739e-01 0.0000e+00
      6.376    14.2841    -0.4921     -4.721  37.474305     47.658      6.602   289.0282     2.7901     2.8910     0.0257      0.080      6.252      9.068        582 3.3729e-01 0.0000e+00
      6.393    14.1112    -0.4463     -4.274  43.324922     54.355      6.600   288.7253     2.7901     2.8373     0.0286      0.079      6.269      9.092        583 3.2438e-01 0.0000e+00
      6.409    13.9883    -0.3594     -3.439  47.916169     61.727      6.599   289.0282     2.7699     2.9715     0.0318      0.076      6.285      9.116        584 3.7109e-01 0.0000e+00
      6.425    13.9131    -0.2817     -2.693  47.723521     60.393      6.599   288.4982     2.6769     3.1193     0.0311      0.071      6.300      9.138        585 3.3099e-01 0.0000e+00
      6.440    13.9155    -0.2154     -2.056  47.155024     60.977      6.600   288.5360     2.6688     3.1730     0.0313      0.067      6.315      9.159        586 3.2563e-01 0.0000e+00
      6.455    13.9157    -0.1565     -1.492  45.537499     58.184      6.602   288.3089     2.6648     3.1730     0.0301      0.065      6.331      9.183        587 3.2488e-01 0.0000e+00
      6.474    13.8079    -0.1058     -1.008  47.718685     61.167      6.602   287.6275     2.6850     3.0924     0.0314      0.064      6.350      9.210        588 3.0397e-01 0.0000e+00
      6.496    13.6798    -0.0605     -0.575  53.492766     69.055      6.596   287.7789     2.1189     3.5087     0.0349      0.065      6.371      9.240        589 3.0600e-01 0.0000e+00
      6.520    13.5860    -0.0201     -0.191  55.566563     71.322      6.582   287.9682     2.1836     3.5490     0.0358      0.068      6.392      9.271        590 3.1173e-01 0.0000e+00
      6.539    13.5327     0.0232      0.219  56.239598     72.991      6.571   288.1575     2.1391     3.5221     0.0365      0.072      6.412      9.300        591 2.8450e-01 0.0000e+00
      6.558    13.4762     0.0655      0.619  56.099042     72.420      6.561   287.9682     2.1351     3.5490     0.0362      0.075      6.431      9.328        592 2.9591e-01 0.0000e+00
      6.579    13.4007     0.1063      1.002  56.929121     74.034      6.552   288.0439     2.2766     4.1129     0.0369      0.077      6.451      9.357        593 3.1135e-01 0.0000e+00
      6.599    13.3510     0.1354      1.273  58.056885     75.346      6.548   287.5517     2.2564     4.2203     0.0375      0.080      6.471      9.386        594 2.9612e-01 0.0000e+00
      6.618    13.3150     0.1709      1.604  58.258484     75.933      6.536   287.4003     2.2968     4.1801     0.0377      0.081      6.490      9.413        595 2.8335e-01 0.0000e+00
      6.638    13.2594     0.1933      1.810  58.459777     76.139      6.525   286.9839     2.2928     4.2069     0.0378      0.080      6.509      9.441        596 2.6583e-01 0.0000e+00
      6.657    13.1910     0.2145      2.002  59.112896     77.161      6.513   286.7189     7.1047     7.5639     0.0382      0.078      6.527      9.467        597 2.8071e-01 0.0000e+00
      6.673    13.1396     0.2332      2.171  59.613323     77.928      6.498   286.8324     7.1249     7.6310     0.0386      0.076      6.542      9.489        598 2.4899e-01 0.0000e+00
      6.684    13.0689     0.2517      2.339  60.064072     78.551      6.484   285.9996     7.1209     7.5370     0.0388      0.073      6.556      9.509        599 2.4577e-01 0.0000e+00
      6.700    12.9787     0.2664      2.470  61.254243     80.373      6.469   285.6967     7.0845     7.5505     0.0396      0.070      6.572      9.531        600 2.8332e-01 0.0000e+00
      6.721    12.8643     0.2864      2.649  62.081779     81.482      6.440   285.2046     7.0926     7.6982     0.0401      0.068      6.592      9.560        601 2.7717e-01 0.0000e+00
      6.744    12.7535     0.2944      2.716  63.043379     83.002      6.407   278.4660     8.3380     5.4691     0.0407      0.068      6.613      9.591        602 2.5855e-01 0.0000e+00
      6.766    12.6778     0.3049      2.806  63.532343     83.950      6.384   260.1809     8.3178     5.4691     0.0411      0.069      6.634      9.622        603 2.5628e-01 0.0000e+00
      6.785    12.5882     0.3076      2.824  63.611700     84.136      6.366   231.7880     8.3016     5.4826     0.0411      0.072      6.653      9.650        604 2.4768e-01 0.0000e+00
      6.802    12.4866     0.3155      2.893  64.310924     85.438      6.354   212.3672     8.3178     5.3752     0.0417      0.074      6.671      9.675        605 2.3889e-01 0.0000e+00
      6.821    12.3722     0.3189      2.922  64.652195     85.919      6.346   205.0608     2.8993     3.3878     0.0419      0.076      6.688      9.700        606 2.2948e-01 0.0000e+00
      6.836    12.2499     0.3069      2.809  64.969139     86.697      6.339   199.8365     2.9438     3.3475     0.0422      0.077      6.704      9.723        607 2.0801e-01 0.0000e+00
      6.852    12.1412     0.3095      2.829  65.401682     87.462      6.332   196.0508     2.9276     3.3475     0.0425      0.075      6.719      9.745        608 2.1335e-01 0.0000e+00
      6.866    12.0457     0.3015      2.753  65.599124     88.078      6.328   190.8265     2.9317     3.3475     0.0427      0.071      6.734      9.766        609 2.2543e-01 0.0000e+00
      6.882    11.9579     0.2956      2.698  65.703725     88.421      6.323   183.8607     2.4100     2.9178     0.0428      0.067      6.750      9.790        610 2.1338e-01 0.0000e+00
      6.901    11.8589     0.2856      2.604  65.835965     88.865      6.315   178.3336     2.4020     2.8238     0.0430      0.065      6.768      9.817        611 1.9433e-01 0.0000e+00
      6.923    11.7407     0.2824      2.569  66.088115     89.389      6.308   172.6928     2.4020     2.9715     0.0432      0.065      6.791      9.850        612 2.1110e-01 0.0000e+00
      6.952    11.6292     0.2766      2.510  66.370236     90.036      6.299   168.4150     2.4424     2.9715     0.0434      0.070      6.818      9.888        613 1.9607e-01 0.0000e+00
      6.980    11.5306     0.2772      2.510  66.584013     90.604      6.298   163.4935     2.2079     2.3807     0.0437      0.076      6.844      9.926        614 1.5265e-01 0.0000e+00
      7.004    11.4588     0.2724      2.463  66.802421     91.176      6.292   158.2692     2.2321     2.2867     0.0439      0.083      6.866      9.959        615 1.6690e-01 0.0000e+00
      7.023    11.4254     0.2716      2.453  66.870854     91.545      6.291   153.9535     2.2079     2.3941     0.0440      0.088      6.886      9.988        616 1.6890e-01 0.0000e+00
      7.041    11.3964     0.2732      2.464  66.706870     91.453      6.292   150.8113     2.2119     2.2599     0.0439      0.091      6.905     10.014        617 1.8360e-01 0.0000e+00
      7.058    11.3419     0.2744      2.471  66.917444     91.845      6.290   148.0099     2.0178     1.9376     0.0441      0.090      6.923     10.040        618 1.8560e-01 0.0000e+00
      7.080    11.2918     0.2748      2.471  67.084118     92.185      6.295   145.6249     2.0097     1.9376     0.0442      0.088      6.942     10.068        619 1.5211e-01 0.0000e+00
      7.098    11.2620     0.2708      2.434  66.945058     92.054      6.295   142.9749     2.0461     1.9645     0.0441      0.083      6.960     10.094        620 1.7601e-01 0.0000e+00
      7.112    11.2080     0.2702      2.426  67.090545     92.456      6.300   140.0599     2.0299     1.9242     0.0443      0.077      6.975     10.116        621 1.9807e-01 0.0000e+00
      7.127    11.1199     0.2660      2.386  67.437804     92.947      6.300   135.1006     2.0219     1.9376     0.0445      0.072      6.991     10.140        622 2.0088e-01 0.0000e+00
      7.148    11.0131     0.2578      2.311  67.849698     93.712      6.307   130.8984     1.8075     1.6556     0.0448      0.070      7.011     10.170        623 1.7564e-01 0.0000e+00
      7.176    10.9291     0.2460      2.203  68.390086     94.632      6.310   128.3998     1.8318     1.7228     0.0452      0.072      7.036     10.205        624 1.4421e-01 0.0000e+00
      7.200    10.8698     0.2514      2.248  68.755740     95.503      6.317   126.2041     1.8439     1.8436     0.0456      0.076      7.061     10.240        625 1.3623e-01 0.0000e+00
      7.224    10.8050     0.2463      2.199  69.147480     96.153      6.320   122.0777     1.8237     1.6690     0.0458      0.079      7.084     10.273        626 1.3585e-01 0.0000e+00
      7.246    10.7412     0.2423      2.162  69.685147     97.206      6.325   118.1405     1.7469     1.5348     0.0463      0.083      7.104     10.303        627 1.6604e-01 0.0000e+00
      7.261    10.6801     0.2327      2.075  69.958336     97.620      6.330   114.5820     1.7550     1.5079     0.0464      0.085      7.122     10.328        628 1.6009e-01 0.0000e+00
      7.279    10.6308     0.2313      2.061  70.352446     98.458      6.336   110.9477     1.7550     1.4273     0.0468      0.086      7.138     10.353        629 1.3032e-01 0.0000e+00
      7.296    10.5951     0.2334      2.079  70.709956     99.060      6.342   108.1841     1.7671     1.4945     0.0470      0.084      7.155     10.378        630 1.3724e-01 0.0000e+00
      7.313    10.5573     0.2320      2.065  70.909864     99.511      6.349   106.6319     1.7590     1.4273     0.0472      0.080      7.172     10.403        631 1.3885e-01 0.0000e+00
      7.331    10.5221     0.2195      1.953  71.292146    100.121      6.353   104.8526     1.7671     1.2931     0.0475      0.074      7.190     10.428        632 1.3383e-01 0.0000e+00
      7.350    10.4899     0.2159      1.920  71.749534    100.897      6.360   102.6191     1.7631     1.3065     0.0478      0.071      7.209     10.456        633 1.4755e-01 0.0000e+00
      7.373    10.4409     0.2100      1.866  72.182829    101.589      6.368   100.4233     1.7550     1.3333     0.0481      0.071      7.233     10.491        634 1.3129e-01 0.0000e+00
      7.404    10.3770     0.2083      1.849  73.159694    103.020      6.371    98.3412     1.8197     1.4139     0.0487      0.075      7.263     10.534        635 1.2234e-01 0.0000e+00
      7.441    10.3243     0.2072      1.839  74.277846    104.862      6.378    94.4798     1.8358     1.5885     0.0496      0.084      7.295     10.581        636 1.2743e-01 0.0000e+00
      7.471    10.2892     0.2029      1.799  74.624574    105.410      6.383    91.9812     1.8520     1.5213     0.0498      0.093      7.323     10.622        637 1.2630e-01 0.0000e+00
      7.492    10.2614     0.1981      1.756  75.046089    106.241      6.390    91.2240     1.8358     1.5885     0.0501      0.100      7.345     10.653        638 1.2440e-01 0.0000e+00
      7.507    10.2360     0.1984      1.757  75.595781    107.099      6.395    89.1797     1.8237     1.2662     0.0505      0.102      7.362     10.677        639 1.3299e-01 0.0000e+00
      7.522    10.2120     0.1984      1.757  75.901883    107.621      6.403    86.4540     1.8399     1.2393     0.0507      0.101      7.377     10.700        640 1.4844e-01 0.0000e+00
      7.539    10.1891     0.1927      1.705  76.388833    108.373      6.413    85.2047     1.8075     1.2528     0.0511      0.096      7.393     10.723        641 1.2983e-01 0.0000e+00
      7.555    10.1683     0.1956      1.731  76.772934    109.045      6.416    83.4254     1.8480     1.3468     0.0514      0.087      7.410     10.748        642 1.2248e-01 0.0000e+00
      7.576    10.1463     0.1925      1.703  77.207061    109.632      6.422    82.1004     1.8520     1.2931     0.0516      0.078      7.430     10.776        643 1.2847e-01 0.0000e+00
      7.599    10.1162     0.1811      1.601  77.988451    110.933      6.434    80.5483     1.8156     1.2796     0.0522      0.072      7.452     10.808        644 1.2211e-01 0.0000e+00
      7.622    10.0811     0.1904      1.683  78.624022    111.797      6.442    79.9804     1.8075     1.3065     0.0526      0.072      7.475     10.841        645 1.3052e-01 0.0000e+00
      7.645    10.0514     0.1868      1.651  79.388318    113.051      6.447    79.7533     1.8197     1.2662     0.0531      0.075      7.497     10.874        646 1.4729e-01 0.0000e+00
      7.668    10.0278     0.1809      1.598  79.801559    113.763      6.455    77.6333     1.7995     1.2662     0.0535      0.080      7.519     10.906        647 1.3007e-01 0.0000e+00
      7.689    10.0028     0.1825      1.611  79.863470    113.860      6.460    75.1347     1.8075     1.2931     0.0535      0.084      7.540     10.936        648 1.2304e-01 0.0000e+00
      7.709     9.9774     0.1830      1.614  80.351651    114.735      6.470    74.1883     1.8358     1.3736     0.0539      0.086      7.560     10.965        649 1.2728e-01 0.0000e+00
      7.730     9.9578     0.1785      1.573  80.650563    115.178      6.476    72.7875     1.8358     1.3468     0.0541      0.086      7.579     10.992        650 1.2448e-01 0.0000e+00
      7.746     9.9428     0.1796      1.582  80.799406    115.501      6.480    71.9925     1.8278     1.3333     0.0542      0.084      7.595     11.016        651 1.2631e-01 0.0000e+00
      7.759     9.9259     0.1796      1.582  80.969033    115.807      6.489    70.6297     1.7388     1.3065     0.0543      0.080      7.609     11.036        652 1.2518e-01 0.0000e+00
      7.773     9.9089     0.1732      1.526  81.182631    116.136      6.494    69.0397     1.7590     1.2259     0.0545      0.075      7.622     11.055        653 1.2571e-01 0.0000e+00
      7.784     9.8957     0.1776      1.564  81.484841    116.675      6.500    67.7525     1.7550     1.2931     0.0547      0.068      7.634     11.071        654 1.2547e-01 0.0000e+00
      7.794     9.8845     0.1794      1.579  81.633380    116.892      6.506    66.2004     1.7752     1.2931     0.0548      0.062      7.644     11.086        655 1.2580e-01 0.0000e+00
      7.805     9.8767     0.1755      1.544  81.859868    117.297      6.512    65.3675     1.8237     1.3602     0.0550      0.056      7.656     11.104        656 1.2555e-01 0.0000e+00
      7.820     9.8625     0.1724      1.516  81.975896    117.495      6.517    64.0804     1.8318     1.3602     0.0551      0.052      7.672     11.127        657 1.2557e-01 0.0000e+00
      7.844     9.8315     0.1715      1.508  82.440273    118.124      6.524    62.9447     1.8197     1.3199     0.0554      0.052      7.694     11.160        658 1.2561e-01 0.0000e+00
      7.875     9.7987     0.1761      1.547  83.541321    119.857      6.525    61.9225     1.8237     1.3602     0.0561      0.058      7.721     11.199        659 1.2567e-01 0.0000e+00
      7.902     9.7782     0.1716      1.507  83.965036    120.530      6.529    60.1811     1.8237     1.5079     0.0564      0.067      7.748     11.238        660 1.2556e-01 0.0000e+00
      7.926     9.7613     0.1725      1.514  83.934589    120.563      6.536    58.7046     1.8237     1.4945     0.0564      0.076      7.772     11.273        661 1.2554e-01 0.0000e+00
      7.949     9.7461     0.1705      1.497  84.500888    121.480      6.543    56.8496     1.8197     1.5348     0.0568      0.085      7.795     11.305        662 1.2567e-01 0.0000e+00
      7.970     9.7359     0.1722      1.510  84.836044    122.061      6.548    55.9789     1.8278     1.5482     0.0571      0.092      7.815     11.335        663 1.2566e-01 0.0000e+00
      7.990     9.7210     0.1672      1.467  84.914872    122.118      6.551    55.4868     1.8358     1.5616     0.0571      0.095      7.835     11.364        664 1.2550e-01 0.0000e+00
      8.009     9.7038     0.1707      1.497  85.383954    122.956      6.558    54.8054     1.8358     1.5885     0.0575      0.093      7.854     11.392        665 1.2562e-01 0.0000e+00
      8.029     9.6828     0.1654      1.450  85.619968    123.254      6.564    53.4425     1.7954     1.5348     0.0576      0.089      7.874     11.420        666 1.2573e-01 0.0000e+00
      8.050     9.6649     0.1632      1.431  86.078064    124.000      6.565    52.2689     1.8399     1.4676     0.0580      0.084      7.894     11.449        667 1.2560e-01 0.0000e+00
      8.070     9.6537     0.1550      1.359  86.508674    124.762      6.570    50.9061     1.7631     1.3333     0.0583      0.081      7.915     11.479        668 1.2569e-01 0.0000e+00
      8.093     9.6326     0.1529      1.340  86.541044    124.749      6.579    49.3539     1.7388     1.2662     0.0583      0.080      7.936     11.510        669 1.2570e-01 0.0000e+00
      8.115     9.6163     0.1541      1.351  87.108230    125.713      6.584    49.2025     1.7671     1.2259     0.0587      0.081      7.957     11.540        670 1.2562e-01 0.0000e+00
      8.133     9.6068     0.1525      1.337  87.438244    126.240      6.588    48.2560     1.7833     1.2662     0.0590      0.081      7.976     11.568        671 1.2553e-01 0.0000e+00
      8.152     9.5895     0.1513      1.325  87.349493    126.135      6.592    46.7039     1.7590     1.1991     0.0589      0.081      7.994     11.594        672 1.2559e-01 0.0000e+00
      8.169     9.5766     0.1485      1.300  87.664728    126.655      6.599    45.4925     1.7590     1.2931     0.0591      0.080      8.011     11.620        673 1.2581e-01 0.0000e+00
      8.188     9.5714     0.1475      1.290  87.848818    127.003      6.606    45.1139     1.7752     1.3065     0.0593      0.078      8.029     11.645        674 1.2567e-01 0.0000e+00
      8.206     9.5627     0.1578      1.379  87.953015    127.133      6.612    44.7353     1.7509     1.2796     0.0593      0.076      8.045     11.668        675 1.2555e-01 0.0000e+00
      8.217     9.5501     0.1635      1.428  88.308213    127.757      6.617    44.2810     1.8197     1.9913     0.0596      0.073      8.057     11.686        676 1.2565e-01 0.0000e+00
      8.224     9.5408     0.1678      1.466  88.477300    127.954      6.623    43.9782     1.8278     1.9376     0.0597      0.066      8.064     11.696        677 1.2563e-01 0.0000e+00
      8.227     9.5376     0.1640      1.432  88.486012    128.079      6.630    43.4860     1.8197     1.9645     0.0598      0.058      8.067     11.701        678 1.2566e-01 0.0000e+00
      8.227     9.5345     0.1709      1.493  88.535279    128.116      6.631    42.5775     1.8237     2.0182     0.0598      0.049      8.070     11.704        679 1.2575e-01 0.0000e+00
      8.232     9.5347     0.1638      1.430  88.683632    128.409      6.635    41.9717     1.8318     1.8705     0.0599      0.039      8.075     11.711        680 1.2569e-01 0.0000e+00
      8.242     9.5284     0.1591      1.388  88.569028    128.220      6.642    40.2303     1.7388     1.0379     0.0598      0.031      8.085     11.726        681 1.2568e-01 0.0000e+00
      8.258     9.5006     0.1540      1.343  88.826592    128.543      6.648    39.4732     1.7671     1.0782     0.0600      0.028      8.101     11.749        682 1.2582e-01 0.0000e+00
      8.281     9.4632     0.1550      1.352  89.850000    130.146      6.650    38.6024     1.7469     1.1588     0.0607      0.030      8.123     11.781        683 1.2568e-01 0.0000e+00
      8.311     9.4317     0.1480      1.291  90.566647    131.230      6.655    37.6939     1.7873     1.1588     0.0612      0.041      8.150     11.820        684 1.2556e-01 0.0000e+00
      8.340     9.4066     0.1399      1.220  91.027636    132.062      6.658    37.3532     1.8237     1.2125     0.0615      0.056      8.176     11.857        685 1.2556e-01 0.0000e+00
      8.359     9.3934     0.1471      1.282  91.566348    132.959      6.664    37.2774     1.8156     1.3333     0.0619      0.069      8.194     11.884        686 1.2550e-01 0.0000e+00
      8.368     9.3953     0.1459      1.271  91.591498    133.133      6.666    37.2396     1.8197     1.2931     0.0620      0.078      8.206     11.902        687 1.2583e-01 0.0000e+00
      8.379     9.3991     0.1510      1.316  91.561448    133.028      6.671    36.4067     1.8237     1.3199     0.0620      0.080      8.217     11.917        688 1.2571e-01 0.0000e+00
      8.390     9.3934     0.1546      1.346  91.425311    133.012      6.675    35.9146     1.8803     1.2931     0.0620      0.077      8.228     11.933        689 1.2546e-01 0.0000e+00
      8.401     9.3708     0.1489      1.297  91.760919    133.167      6.680    34.9303     1.8722     1.4139     0.0620      0.070      8.239     11.950        690 1.2573e-01 0.0000e+00
      8.414     9.3444     0.1493      1.300  92.898591    135.259      6.682    34.7789     1.8722     1.2393     0.0630      0.060      8.251     11.967        691 1.2569e-01 0.0000e+00
      8.425     9.3323     0.1523      1.326  92.983755    135.111      6.687    34.4760     1.9005     1.3333     0.0629      0.051      8.261     11.982        692 1.2560e-01 0.0000e+00
      8.433     9.3389     0.1519      1.322  92.874396    135.293      6.694    34.2867     1.7509     1.3199     0.0630      0.045      8.271     11.996        693 1.2567e-01 0.0000e+00
      8.443     9.3435     0.1507      1.311  92.796769    135.100      6.694    33.8324     1.7671     1.3065     0.0629      0.043      8.281     12.012        694 1.2573e-01 0.0000e+00
      8.459     9.3268     0.1432      1.246  93.050632    135.438      6.699    32.3181     1.7590     1.1722     0.0630      0.044      8.296     12.032        695 1.2554e-01 0.0000e+00
      8.477     9.3038     0.1492      1.298  94.313379    137.336      6.702    31.2581     1.7833     1.2662     0.0639      0.046      8.313     12.057        696 1.2541e-01 0.0000e+00
      8.494     9.2832     0.1436      1.250  95.181363    138.630      6.701    30.8039     1.8439     1.2259     0.0645      0.049      8.331     12.083        697 1.2562e-01 0.0000e+00
      8.513     9.2677     0.1453      1.264  95.658922    139.418      6.707    29.9331     1.8439     1.3736     0.0649      0.053      8.349     12.109        698 1.2562e-01 0.0000e+00
      8.532     9.2572     0.1403      1.221  96.158340    140.237      6.711    29.2517     1.8075     1.2259     0.0652      0.058      8.366     12.134        699 1.2570e-01 0.0000e+00
      8.548     9.2521     0.1407      1.225  96.285234    140.507      6.715    29.2517     1.8237     1.3468     0.0653      0.063      8.383     12.158        700 1.2584e-01 0.0000e+00
      8.563     9.2528     0.1310      1.140  95.887748    139.933      6.716    28.2674     1.8844     1.3065     0.0651      0.066      8.398     12.181        701 1.2563e-01 0.0000e+00
      8.580     9.2449     0.1383      1.203  95.968815    140.039      6.720    27.8510     1.8803     1.2528     0.0651      0.068      8.414     12.204        702 1.2564e-01 0.0000e+00
      8.596     9.2318     0.1303      1.133  96.749580    141.259      6.724    27.6996     1.8763     1.2125     0.0657      0.068      8.430     12.227        703 1.2561e-01 0.0000e+00
      8.612     9.2203     0.1342      1.167  97.087751    141.745      6.725    27.6996     1.9248     1.1722     0.0659      0.066      8.446     12.249        704 1.2544e-01 0.0000e+00
      8.628     9.2153     0.1361      1.183  97.154415    141.881      6.731    27.2074     1.8601     1.2528     0.0660      0.065      8.461     12.270        705 1.2571e-01 0.0000e+00
      8.641     9.2257     0.1345      1.168  97.112875    141.928      6.729    27.2453     1.9086     1.2662     0.0660      0.063      8.473     12.289        706 1.2581e-01 0.0000e+00
      8.650     9.2385     0.1374      1.193  96.603977    141.132      6.735    26.5638     1.8844     1.2662     0.0656      0.060      8.483     12.304        707 1.2566e-01 0.0000e+00
      8.661     9.2417     0.1381      1.199  96.359776    140.759      6.741    25.8446     1.9127     1.3333     0.0654      0.057      8.493     12.319        708 1.2570e-01 0.0000e+00
      8.671     9.2381     0.1434      1.245  96.613545    141.075      6.745    25.3524     1.9086     1.2662     0.0656      0.053      8.502     12.332        709 1.2576e-01 0.0000e+00
      8.678     9.2338     0.1429      1.241  96.912879    141.511      6.749    25.0874     1.7388     1.3065     0.0658      0.048      8.510     12.343        710 1.2565e-01 0.0000e+00
      8.684     9.2346     0.1436      1.247  97.028469    141.692      6.751    24.3681     1.7428     1.2125     0.0659      0.043      8.517     12.353        711 1.2555e-01 0.0000e+00
      8.691     9.2332     0.1418      1.231  96.737441    141.298      6.755    23.5731     1.7671     1.2662     0.0657      0.038      8.525     12.364        712 1.2570e-01 0.0000e+00
      8.703     9.2155     0.1336      1.160  96.769327    141.257      6.760    22.3238     1.7388     1.2796     0.0657      0.035      8.536     12.380        713 1.2567e-01 0.0000e+00
      8.717     9.1895     0.1406      1.221  97.643289    142.650      6.764    21.6803     1.6498     1.1722     0.0663      0.035      8.551     12.403        714 1.2557e-01 0.0000e+00
      8.739     9.1673     0.1400      1.216  98.148811    143.424      6.768    20.8474     1.6134     1.3468     0.0667      0.039      8.573     12.434        715 1.2565e-01 0.0000e+00
      8.772     9.1504     0.1397      1.213  99.264071    145.049      6.772    20.0903     1.6458     1.3871     0.0674      0.049      8.600     12.474        716 1.2557e-01 0.0000e+00
      8.798     9.1391     0.1366      1.186 100.926565    147.852      6.775    19.4845     1.6539     1.3333     0.0687      0.061      8.626     12.511        717 1.2555e-01 0.0000e+00
      8.818     9.1356     0.1383      1.200 101.197510    148.048      6.781    19.4088     1.7267     1.3199     0.0688      0.072      8.645     12.539        718 1.2573e-01 0.0000e+00
      8.831     9.1379     0.1360      1.181 100.979940    147.974      6.785    18.8410     1.7024     1.2393     0.0687      0.079      8.658     12.559        719 1.2566e-01 0.0000e+00
      8.839     9.1392     0.1401      1.216 100.899791    147.702      6.788    18.3110     1.6984     1.2796     0.0686      0.081      8.668     12.571        720 1.2552e-01 0.0000e+00
      8.846     9.1363     0.1362      1.182 100.940195    147.896      6.790    17.3645     1.6943     1.2662     0.0687      0.076      8.675     12.581        721 1.2567e-01 0.0000e+00
      8.852     9.1348     0.1325      1.150 101.137942    148.056      6.798    16.3045     1.6984     1.7093     0.0688      0.067      8.682     12.592        722 1.2569e-01 0.0000e+00
      8.861     9.1362     0.1291      1.121 101.070273    148.108      6.797    15.4338     1.6984     1.7630     0.0688      0.055      8.690     12.604        723 1.2575e-01 0.0000e+00
      8.871     9.1425     0.1300      1.128 100.875635    147.667      6.801    14.2602     1.7064     1.6959     0.0686      0.044      8.699     12.617        724 1.2570e-01 0.0000e+00
      8.879     9.1438     0.1289      1.119 100.368494    147.121      6.805    13.5031     1.6984     1.7765     0.0683      0.036      8.709     12.630        725 1.2572e-01 0.0000e+00
      8.891     9.1281     0.1342      1.163 100.481451    146.937      6.809    13.0488     1.4881     1.3333     0.0682      0.034      8.719     12.645        726 1.2570e-01 0.0000e+00
      8.902     9.1202     0.1366      1.184 101.419442    148.726      6.811    12.2538     1.4881     1.3199     0.0691      0.034      8.729     12.660        727 1.2551e-01 0.0000e+00
      8.910     9.1244     0.1310      1.135 101.373310    148.357      6.813    11.7995     1.5002     1.3065     0.0689      0.036      8.737     12.672        728 1.2555e-01 0.0000e+00
      8.915     9.1280     0.1340      1.161 101.074452    148.217      6.816    11.3831     1.4679     1.2393     0.0688      0.036      8.742     12.680        729 1.2563e-01 0.0000e+00
      8.919     9.1300     0.1325      1.147 101.315283    148.328      6.822    10.8152     1.4962     1.2931     0.0689      0.035      8.746     12.685        730 1.2575e-01 0.0000e+00
      8.921     9.1317     0.1400      1.211 101.519938    148.841      6.827    10.7395     1.4921     1.3065     0.0691      0.031      8.749     12.690        731 1.2570e-01 0.0000e+00
      8.925     9.1330     0.1330      1.150 101.414874    148.467      6.827    10.2852     1.5124     1.3333     0.0689      0.027      8.753     12.695        732 1.2571e-01 0.0000e+00
      8.929     9.1302     0.1354      1.171 101.505539    148.743      6.829    10.0581     1.5043     1.4542     0.0691      0.023      8.758     12.702        733 1.2583e-01 0.0000e+00
      8.938     9.1211     0.1322      1.144 101.407104    148.536      6.835     8.9602     1.5002     1.5482     0.0690      0.020      8.766     12.714        734 1.2562e-01 0.0000e+00
      8.951     9.0958     0.1301      1.125 101.775423    148.997      6.836     8.4681     1.4800     1.4676     0.0692      0.020      8.778     12.732        735 1.2551e-01 0.0000e+00
      8.965     9.0585     0.1344      1.163 103.576558    151.833      6.838     7.6731     1.4962     1.5213     0.0705      0.024      8.792     12.751        736 1.2563e-01 0.0000e+00
      8.979     9.0411     0.1247      1.079 104.641127    153.464      6.841     7.5216     1.5083     1.4273     0.0712      0.030      8.803     12.768        737 1.2556e-01 0.0000e+00
      8.986     9.0455     0.1334      1.154 104.170455    152.938      6.843     7.5216     1.4517     1.2796     0.0710      0.035      8.813     12.783        738 1.2551e-01 0.0000e+00
      8.998     9.0327     0.1280      1.108 103.715936    152.273      6.847     6.2724     1.4477     1.2796     0.0707      0.040      8.826     12.802        739 1.2570e-01 0.0000e+00
      9.018     9.0010     0.1332      1.152 104.730641    153.774      6.850     5.3259     1.4355     1.2259     0.0714      0.046      8.843     12.826        740 1.2582e-01 0.0000e+00
      9.035     8.9746     0.1335      1.154 106.092098    155.932      6.854     4.8338     1.4234     1.3736     0.0724      0.051      8.859     12.848        741 1.2564e-01 0.0000e+00
      9.045     8.9578     0.1317      1.138 106.366811    156.373      6.853     3.5845     1.4234     1.3333     0.0725      0.053      8.869     12.864        742 1.2555e-01 0.0000e+00
      9.053     8.9589     0.1251      1.081 106.323337    156.489      6.859     2.4488     1.5124     1.6019     0.0726      0.052      8.877     12.874        743 1.2562e-01 0.0000e+00
      9.057     8.9732     0.1299      1.121 106.086711    156.200      6.861     1.8809     1.5366     1.4273     0.0724      0.049      8.882     12.882        744 1.2559e-01 0.0000e+00
      9.063     8.9801     0.1291      1.113 105.679140    155.572      6.864     1.2752     1.4962     1.5213     0.0721      0.045      8.887     12.890        745 1.2558e-01 0.0000e+00
      9.067     8.9803     0.1294      1.116 105.699575    155.547      6.866     0.2909     1.4962     1.4945     0.0721      0.040      8.892     12.897        746 1.2568e-01 0.0000e+00
      9.071     8.9814     0.1340      1.155 105.763641    155.639      6.868    -0.2391     1.5568     1.2931     0.0722      0.033      8.897     12.903        747 1.2567e-01 0.0000e+00
      9.077     8.9821     0.1344      1.158 105.956549    155.847      6.870    -0.6555     1.5690     1.2931     0.0723      0.026      8.903     12.912        748 1.2564e-01 0.0000e+00
      9.085     8.9793     0.1375      1.185 106.292856    156.458      6.873    -1.2991     1.5851     1.3333     0.0726      0.023      8.910     12.924        749 1.2555e-01 0.0000e+00
      9.096     8.9637     0.1412      1.217 106.446335    156.540      6.876    -1.8670     1.5528     1.2393     0.0726      0.023      8.920     12.937        750 1.2548e-01 0.0000e+00
      9.105     8.9445     0.1318      1.136 106.866786    157.292      6.881    -2.3970     1.5892     1.3333     0.0730      0.025      8.930     12.951        751 1.2558e-01 0.0000e+00
      9.116     8.9290     0.1261      1.087 107.108983    157.655      6.881    -2.2834     1.5730     1.2393     0.0731      0.028      8.941     12.967        752 1.2556e-01 0.0000e+00
      9.129     8.9040     0.1259      1.084 107.335502    158.078      6.884    -2.6998     1.5487     1.2931     0.0733      0.032      8.955     12.988        753 1.2559e-01 0.0000e+00
      9.149     8.8748     0.1164      1.003 108.370811    159.674      6.886    -4.8198     1.5447     1.2125     0.0740      0.039      8.975     13.018        754 1.2562e-01 0.0000e+00
      9.179     8.8491     0.1200      1.034 109.481783    161.493      6.888    -5.7663     1.5568     1.4945     0.0749      0.049      9.003     13.059        755 1.2565e-01 0.0000e+00
      9.216     8.8270     0.1144      0.985 110.209600    162.623      6.890    -5.8041     1.5568     1.5079     0.0754      0.063      9.036     13.106        756 1.2567e-01 0.0000e+00
      9.248     8.8175     0.1252      1.079 110.620496    163.453      6.893    -6.1448     1.5690     1.5213     0.0757      0.078      9.064     13.147        757 1.2562e-01 0.0000e+00
      9.266     8.8209     0.1249      1.076 110.339828    163.061      6.896    -6.4855     1.5649     1.5482     0.0755      0.089      9.084     13.175        758 1.2561e-01 0.0000e+00
      9.276     8.8236     0.1273      1.096 110.142150    162.820      6.899    -6.4855     1.7145     1.5348     0.0754      0.094      9.095     13.192        759 1.2560e-01 0.0000e+00
      9.284     8.8226     0.1311      1.129 110.360443    163.172      6.901    -7.0155     1.6701     1.5213     0.0756      0.092      9.103     13.204        760 1.2576e-01 0.0000e+00
      9.290     8.8199     0.1321      1.138 110.425392    163.204      6.908    -7.2048     1.7186     1.5616     0.0756      0.084      9.110     13.214        761 1.2569e-01 0.0000e+00
      9.298     8.8172     0.1283      1.105 110.448315    163.289      6.911    -7.9998     1.6903     1.4139     0.0757      0.071      9.118     13.225        762 1.2552e-01 0.0000e+00
      9.307     8.8146     0.1259      1.084 110.510532    163.345      6.917    -8.6055     1.6781     1.5750     0.0757      0.056      9.127     13.238        763 1.2551e-01 0.0000e+00
      9.316     8.8096     0.1257      1.081 110.645663    163.606      6.916    -9.2491     1.6741     1.4139     0.0758      0.043      9.136     13.251        764 1.2558e-01 0.0000e+00
      9.325     8.8058     0.1233      1.060 110.786232    163.784      6.918    -9.8927     1.6903     1.4676     0.0759      0.035      9.145     13.264        765 1.2555e-01 0.0000e+00
      9.335     8.8027     0.1245      1.071 110.752373    163.809      6.923   -10.0441     1.6862     1.5482     0.0759      0.033      9.155     13.278        766 1.2557e-01 0.0000e+00
      9.346     8.7998     0.1252      1.077 110.806884    163.828      6.925   -10.2334     1.7752     1.4005     0.0759      0.034      9.165     13.293        767 1.2572e-01 0.0000e+00
      9.357     8.7964     0.1305      1.122 110.986330    164.215      6.928   -10.8391     1.7873     1.5885     0.0761      0.036      9.176     13.309        768 1.2557e-01 0.0000e+00
      9.368     8.7939     0.1341      1.152 111.064919    164.231      6.932   -10.9527     1.7671     1.5348     0.0761      0.038      9.187     13.325        769 1.2564e-01 0.0000e+00
      9.380     8.7923     0.1278      1.098 111.185406    164.535      6.931   -11.2934     1.7833     1.5213     0.0762      0.040      9.199     13.342        770 1.2566e-01 0.0000e+00
      9.394     8.7868     0.1257      1.080 111.282943    164.593      6.939   -12.0884     1.8884     1.5348     0.0762      0.042      9.212     13.361        771 1.2554e-01 0.0000e+00
      9.406     8.7781     0.1252      1.076 111.449636    164.928      6.940   -12.7320     1.8965     1.5348     0.0764      0.044      9.226     13.380        772 1.2572e-01 0.0000e+00
      9.423     8.7606     0.1241      1.066 111.632917    165.166      6.942   -13.5648     1.8803     1.4139     0.0765      0.047      9.241     13.403        773 1.2559e-01 0.0000e+00
      9.441     8.7417     0.1258      1.081 112.096844    165.912      6.948   -13.9434     1.8763     1.4810     0.0768      0.051      9.259     13.429        774 1.2554e-01 0.0000e+00
      9.460     8.7357     0.1157      0.994 112.420413    166.539      6.949   -14.3598     1.8925     1.4542     0.0771      0.055      9.277     13.455        775 1.2563e-01 0.0000e+00
      9.477     8.7339     0.1148      0.987 112.242498    166.261      6.951   -15.0791     1.9572     1.7093     0.0770      0.059      9.294     13.479        776 1.2559e-01 0.0000e+00
      9.494     8.7286     0.1184      1.018 112.348051    166.538      6.953   -16.1391     1.9693     1.7093     0.0771      0.063      9.309     13.502        777 1.2558e-01 0.0000e+00
      9.508     8.7228     0.1272      1.093 112.527245    166.754      6.957   -16.6691     1.9652     1.7899     0.0772      0.065      9.324     13.524        778 1.2565e-01 0.0000e+00
      9.523     8.7187     0.1195      1.026 112.555398    166.864      6.961   -17.8427     1.9248     1.7362     0.0773      0.065      9.339     13.545        779 1.2564e-01 0.0000e+00
      9.538     8.7150     0.1226      1.053 112.580971    166.893      6.963   -18.8270     1.7590     1.7630     0.0773      0.065      9.353     13.565        780 1.2565e-01 0.0000e+00
      9.552     8.7110     0.1223      1.050 112.703835    167.121      6.967   -19.1299     1.7671     1.7093     0.0774      0.063      9.366     13.585        781 1.2581e-01 0.0000e+00
      9.563     8.7089     0.1213      1.041 112.849090    167.348      6.969   -19.0920     1.7590     1.6556     0.0775      0.060      9.377     13.600        782 1.2569e-01 0.0000e+00
      9.571     8.7083     0.1255      1.077 112.876569    167.409      6.971   -19.0920     1.7631     1.6690     0.0775      0.055      9.385     13.612        783 1.2562e-01 0.0000e+00
      9.577     8.7094     0.1205      1.035 112.848277    167.379      6.976   -19.4706     1.6862     1.6690     0.0775      0.051      9.392     13.622        784 1.2572e-01 0.0000e+00
      9.585     8.7120     0.1200      1.030 112.824758    167.338      6.978   -19.3949     1.6862     1.7765     0.0775      0.045      9.400     13.633        785 1.2563e-01 0.0000e+00
      9.594     8.7113     0.1197      1.028 112.905842    167.461      6.977   -19.5463     1.6943     1.6690     0.0775      0.041      9.409     13.647        786 1.2555e-01 0.0000e+00
      9.605     8.7072     0.1240      1.064 112.926004    167.485      6.981   -19.7734     1.7024     1.7765     0.0775      0.038      9.423     13.666        787 1.2559e-01 0.0000e+00
      9.625     8.6983     0.1235      1.060 113.067619    167.658      6.981   -21.5527     1.7590     1.4676     0.0776      0.038      9.443     13.695        788 1.2574e-01 0.0000e+00
      9.658     8.6856     0.1160      0.996 113.473936    168.342      6.986   -23.9377     1.7671     1.4945     0.0779      0.045      9.473     13.739        789 1.2579e-01 0.0000e+00
      9.697     8.6749     0.1175      1.008 113.611291    168.555      6.985   -24.0134     1.7752     1.4945     0.0780      0.059      9.504     13.785        790 1.2556e-01 0.0000e+00
      9.720     8.6692     0.1161      0.996 113.611262    168.618      6.989   -24.2784     1.7671     1.5079     0.0781      0.074      9.529     13.820        791 1.2560e-01 0.0000e+00
      9.734     8.6684     0.1153      0.989 113.593088    168.673      6.992   -25.1492     1.7307     1.4005     0.0781      0.084      9.546     13.845        792 1.2557e-01 0.0000e+00
      9.749     8.6681     0.1144      0.981 113.514829    168.533      6.993   -25.0734     1.7469     1.4676     0.0780      0.090      9.561     13.867        793 1.2548e-01 0.0000e+00
      9.765     8.6661     0.1200      1.029 113.589567    168.705      6.998   -25.4142     1.7671     1.5348     0.0781      0.091      9.576     13.889        794 1.2563e-01 0.0000e+00
      9.779     8.6642     0.1114      0.956 113.619178    168.705      6.998   -26.4363     1.7873     1.4945     0.0781      0.087      9.591     13.910        795 1.2565e-01 0.0000e+00
      9.795     8.6607     0.1158      0.993 113.656623    168.800      7.002   -26.8527     1.6984     1.2796     0.0781      0.079      9.606     13.932        796 1.2563e-01 0.0000e+00
      9.812     8.6572     0.1187      1.018 113.721611    168.891      7.004   -27.7613     1.6943     1.3468     0.0782      0.069      9.623     13.957        797 1.2557e-01 0.0000e+00
      9.832     8.6546     0.1173      1.006 113.776498    168.993      7.006   -27.8370     1.6781     1.3333     0.0782      0.063      9.642     13.985        798 1.2566e-01 0.0000e+00
      9.853     8.6490     0.1177      1.009 113.975388    169.303      7.010   -29.1620     1.7064     1.3468     0.0784      0.064      9.664     14.017        799 1.2571e-01 0.0000e+00
      9.880     8.6434     0.1255      1.076 114.337560    169.857      7.012   -30.3735     1.6377     1.4139     0.0786      0.069      9.688     14.050        800 1.2563e-01 0.0000e+00
      9.901     8.6394     0.1200      1.029 114.427447    170.052      7.017   -29.8813     1.6094     1.4945     0.0787      0.074      9.708     14.079        801 1.2561e-01 0.0000e+00
      9.915     8.6338     0.1206      1.034 114.339927    169.872      7.018   -29.9949     1.6013     1.4408     0.0786      0.077      9.723     14.101        802 1.2567e-01 0.0000e+00
      9.926     8.6287     0.1259      1.079 114.416712    170.100      7.021   -30.2978     1.6094     1.5079     0.0787      0.077      9.735     14.119        803 1.2562e-01 0.0000e+00
      9.938     8.6249     0.1148      0.984 114.480774    170.129      7.024   -30.6006     1.7064     1.5482     0.0787      0.074      9.746     14.135        804 1.2550e-01 0.0000e+00
      9.949     8.6209     0.1177      1.009 114.498410    170.281      7.024   -31.6985     1.6862     1.4542     0.0788      0.068      9.756     14.150        805 1.2561e-01 0.0000e+00
      9.960     8.6172     0.1123      0.962 114.603197    170.341      7.027   -32.1906     1.7064     1.5482     0.0788      0.061      9.767     14.165        806 1.2569e-01 0.0000e+00
      9.970     8.6140     0.1109      0.951 114.945885    170.988      7.030   -33.1370     1.6701     1.5213     0.0791      0.054      9.777     14.180        807 1.2571e-01 0.0000e+00
      9.979     8.6134     0.1095      0.939 115.560737    171.799      7.031   -33.5535     1.6539     1.4945     0.0795      0.047      9.786     14.193        808 1.2564e-01 0.0000e+00
      9.987     8.6096     0.1137      0.975 115.684151    172.191      7.035   -33.2128     1.6094     1.5616     0.0797      0.042      9.794     14.206        809 1.2565e-01 0.0000e+00
      9.997     8.6042     0.1155      0.990 116.281137    172.737      7.032   -33.6670     1.6377     1.5213     0.0799      0.040      9.803     14.219        810 1.2571e-01 0.0000e+00
     10.006     8.6007 -9.990e-29 -9.990e-29 120.267522    178.933      7.033   -33.3642     1.6175     1.5213     0.0828      0.039      9.812     14.231        811 1.2562e-01 0.0000e+00
     10.014     8.5913 -9.990e-29 -9.990e-29 126.031820    187.529      7.035   -34.7649     1.6256     1.5348     0.0868      0.037      9.820     14.243        812 1.2552e-01 0.0000e+00
     10.021     8.5826 -9.990e-29 -9.990e-29 130.346359    194.017      7.036   -35.0678     1.7024     1.3602     0.0898      0.035      9.827     14.253        813 1.2543e-01 0.0000e+00
     10.028     8.5791 -9.990e-29 -9.990e-29 137.006474    203.568      7.040   -38.3992     1.6903     1.2931     0.0943      0.034      9.834     14.263        814 1.2568e-01 0.0000e+00
     10.035     8.5792 -9.990e-29 -9.990e-29 144.031325    215.035      7.040   -37.3013     1.6701     1.2528     0.0997      0.032      9.841     14.273        815 1.2576e-01 0.0000e+00
     10.042     8.5814 -9.990e-29 -9.990e-29 144.498349    214.852      7.043   -37.0363     1.7064     1.2125     0.0996      0.031      9.848     14.282        816 1.2566e-01 0.0000e+00
     10.048     8.5835 -9.990e-29 -9.990e-29 143.282133    213.468      7.040   -38.5506     1.6094     1.2931     0.0989      0.030      9.853     14.290        817 1.2563e-01 0.0000e+00
     10.052     8.5854 -9.990e-29 -9.990e-29 143.129628    213.037      7.041   -39.2321     1.6296     1.3065     0.0987      0.027      9.857     14.296        818 1.2549e-01 0.0000e+00
     10.055     8.5877 -9.990e-29 -9.990e-29 142.302753    211.894      7.045   -39.7999     1.6377     1.2931     0.0982      0.025      9.860     14.301        819 1.2561e-01 0.0000e+00
     10.058     8.5896 -9.990e-29 -9.990e-29 141.061229    209.999      7.044   -40.8221     1.6256     1.3602     0.0973      0.022      9.863     14.306        820 1.2566e-01 0.0000e+00
     10.061 -9.990e-29 -9.990e-29 -9.990e-29 140.470768    208.982      7.048   -41.5035     1.6701     1.5616     0.0968      0.020      9.867     14.310        821 1.2556e-01 0.0000e+00
     10.063 -9.990e-29 -9.990e-29 -9.990e-29 140.801488    209.721      7.049   -43.2828     1.7064     1.4676     0.0972      0.017      9.868     14.312        822 1.2552e-01 0.0000e+00
