* Sea-Bird SBE19plus  Data File:
* FileName = C:\DATA\101518_fcr_0011.hex
* Software version 2.6.3.104
* Temperature SN = 7809
* Conductivity SN = 7809
* System UpLoad Time = Oct 29 2018 16:39:58
* <ApplicationData>
* <Seaterm232>
* <SoftwareVersion>2.6.3.104</SoftwareVersion>
* <BuildDate>30-Jun-2017</BuildDate>
* </Seaterm232>
* </ApplicationData>
* <InstrumentState>
* <HardwareData DeviceType='SBE19plus' SerialNumber='01907809'>
*
*    <Manufacturer>Sea-Bird Electronics, Inc.</Manufacturer>
*
*    <FirmwareVersion>3.1.8</FirmwareVersion>
*
*    <FirmwareDate>Mar  9 2016 16:22:29</FirmwareDate>
*
*    <CommandSetVersion>1.4</CommandSetVersion>
*
*    <PCBAssembly PCBSerialNum='120721' AssemblyNum='41054J'/>
*
*    <PCBAssembly PCBSerialNum='120715' AssemblyNum='41967A'/>
*
*    <PCBAssembly PCBSerialNum='116699' AssemblyNum='41606'/>
*
*    <PCBAssembly PCBSerialNum='120719' AssemblyNum='41059D'/>
*
*    <MfgDate>28-Apr-2017</MfgDate>
*
*    <InternalSensors>
*
*       <Sensor id='Main Temperature'>
*
*          <type>temperature0</type>
*
*          <SerialNumber>01907809</SerialNumber>
*
*       </Sensor>
*
*       <Sensor id='Main Conductivity'>
*
*          <type>conductivity-0</type>
*
*          <SerialNumber>01907809</SerialNumber>
*
*       </Sensor>
*
*       <Sensor id='Main Pressure'>
*
*          <type>strain-0</type>
*
*          <SerialNumber>10586018</SerialNumber>
*
*       </Sensor>
*
*    </InternalSensors>
*
*    <ExternalSensors>
*
*       <Sensor id='volt 0'>
*
*          <type>pH</type>
*
*          <SerialNumber>27-0363</SerialNumber>
*
*       </Sensor>
*
*       <Sensor id='volt 1'>
*
*          <type>ORP</type>
*
*          <SerialNumber>27-0363</SerialNumber>
*
*       </Sensor>
*
*       <Sensor id='volt 2'>
*
*          <type>OXY</type>
*
*          <SerialNumber>43-0434</SerialNumber>
*
*       </Sensor>
*
*       <Sensor id='volt 3'>
*
*          <type>PAR</type>
*
*          <SerialNumber>1122</SerialNumber>
*
*       </Sensor>
*
*       <Sensor id='volt 4'>
*
*          <type>ECO AFL/FL</type>
*
*          <SerialNumber>FLNTURT-2496</SerialNumber>
*
*       </Sensor>
*
*       <Sensor id='volt 5'>
*
*          <type>ECO-NTU</type>
*
*          <SerialNumber>FLNTURT-2496</SerialNumber>
*
*       </Sensor>
*
*       <Sensor id='serial'>
*
*          <type>not assigned</type>
*
*          <SerialNumber>not assigned</SerialNumber>
*
*       </Sensor>
*
*    </ExternalSensors>
*
* </HardwareData>
* <StatusData DeviceType='SBE19plus' SerialNumber='01907809'>
*
*    <DateTime>2018-10-29T20:36:07</DateTime>
*
*    <LoggingState>not logging</LoggingState>
*
*    <EventSummary numEvents='0'/>
*
*    <Power>
*
*       <vMain>12.7</vMain>
*
*       <vLith>8.4</vLith>
*
*       <iMain>63.3</iMain>
*
*       <iPump>138.1</iPump>
*
*       <iExt01>14.7</iExt01>
*
*       <iExt2345>45.2</iExt2345>
*
*    </Power>
*
*    <MemorySummary>
*
*       <Bytes>262706</Bytes>
*
*       <Samples>11422</Samples>
*
*       <SamplesFree>2849366</SamplesFree>
*
*       <SampleLength>23</SampleLength>
*
*       <Profiles>17</Profiles>
*
*    </MemorySummary>
*
* </StatusData>
* <ConfigurationData DeviceType='SBE19plus' SerialNumber='01907809'>
*
*    <ProfileMode>
*
*       <ScansToAverage>1</ScansToAverage>
*
*       <MinimumCondFreq>5</MinimumCondFreq>
*
*       <PumpDelay>45</PumpDelay>
*
*       <AutoRun>no</AutoRun>
*
*       <IgnoreSwitch>no</IgnoreSwitch>
*
*    </ProfileMode>
*
*    <Battery>
*
*       <Type>alkaline</Type>
*
*       <CutOff>7.5</CutOff>
*
*    </Battery>
*
*    <DataChannels>
*
*       <ExtVolt0>yes</ExtVolt0>
*
*       <ExtVolt1>yes</ExtVolt1>
*
*       <ExtVolt2>yes</ExtVolt2>
*
*       <ExtVolt3>yes</ExtVolt3>
*
*       <ExtVolt4>yes</ExtVolt4>
*
*       <ExtVolt5>yes</ExtVolt5>
*
*       <SBE38>no</SBE38>
*
*       <WETLABS>no</WETLABS>
*
*       <OPTODE>no</OPTODE>
*
*       <SBE63>no</SBE63>
*
*       <SeaFET>no</SeaFET>
*
*       <GTD>no</GTD>
*
*    </DataChannels>
*
*    <EchoCharacters>yes</EchoCharacters>
*
*    <OutputExecutedTag>yes</OutputExecutedTag>
*
*    <OutputFormat>raw HEX</OutputFormat>
*
* </ConfigurationData>
* <CalibrationCoefficients DeviceType='SBE19plus' SerialNumber='01907809'>
*
*    <Calibration format='TEMP1' id='Main Temperature'>
*
*       <SerialNum>01907809</SerialNum>
*
*       <CalDate>09-Mar-18</CalDate>
*
*       <TA0>1.210932e-03</TA0>
*
*       <TA1>2.843566e-04</TA1>
*
*       <TA2>-1.945074e-06</TA2>
*
*       <TA3>2.128067e-07</TA3>
*
*       <TOFFSET>0.000000e+00</TOFFSET>
*
*    </Calibration>
*
*    <Calibration format='WBCOND0' id='Main Conductivity'>
*
*       <SerialNum>01907809</SerialNum>
*
*       <CalDate>09-Mar-18</CalDate>
*
*       <G>-1.006721e+00</G>
*
*       <H>1.269065e-01</H>
*
*       <I>-1.405844e-04</I>
*
*       <J>2.478371e-05</J>
*
*       <CPCOR>-9.570000e-08</CPCOR>
*
*       <CTCOR>3.250000e-06</CTCOR>
*
*       <CSLOPE>1.000000e+00</CSLOPE>
*
*    </Calibration>
*
*    <Calibration format='STRAIN0' id='Main Pressure'>
*
*       <SerialNum>10586018</SerialNum>
*
*       <CalDate>07-Mar-18</CalDate>
*
*       <PA0>-4.081764e-02</PA0>
*
*       <PA1>4.851884e-04</PA1>
*
*       <PA2>-3.511682e-12</PA2>
*
*       <PTCA0>5.252134e+05</PTCA0>
*
*       <PTCA1>1.795324e+00</PTCA1>
*
*       <PTCA2>-2.843535e-01</PTCA2>
*
*       <PTCB0>2.516687e+01</PTCB0>
*
*       <PTCB1>3.750000e-04</PTCB1>
*
*       <PTCB2>0.000000e+00</PTCB2>
*
*       <PTEMPA0>-5.378069e+01</PTEMPA0>
*
*       <PTEMPA1>5.366207e+01</PTEMPA1>
*
*       <PTEMPA2>4.872143e-02</PTEMPA2>
*
*       <POFFSET>5.000000e-01</POFFSET>
*
*       <PRANGE>1.600000e+02</PRANGE>
*
*    </Calibration>
*
*    <Calibration format='VOLT0' id='Volt 0'>
*
*       <OFFSET>-4.920000e-02</OFFSET>
*
*       <SLOPE>1.248122e+00</SLOPE>
*
*    </Calibration>
*
*    <Calibration format='VOLT0' id='Volt 1'>
*
*       <OFFSET>-4.784000e-02</OFFSET>
*
*       <SLOPE>1.248871e+00</SLOPE>
*
*    </Calibration>
*
*    <Calibration format='VOLT0' id='Volt 2'>
*
*       <OFFSET>-4.864632e-02</OFFSET>
*
*       <SLOPE>1.248714e+00</SLOPE>
*
*    </Calibration>
*
*    <Calibration format='VOLT0' id='Volt 3'>
*
*       <OFFSET>-4.743790e-02</OFFSET>
*
*       <SLOPE>1.248571e+00</SLOPE>
*
*    </Calibration>
*
*    <Calibration format='VOLT0' id='Volt 4'>
*
*       <OFFSET>-4.671263e-02</OFFSET>
*
*       <SLOPE>1.248951e+00</SLOPE>
*
*    </Calibration>
*
*    <Calibration format='VOLT0' id='Volt 5'>
*
*       <OFFSET>-4.871053e-02</OFFSET>
*
*       <SLOPE>1.249136e+00</SLOPE>
*
*    </Calibration>
*
*    <Calibration format='FREQ0' id='external frequency channel'>
*
*       <EXTFREQSF>1.000014e+00</EXTFREQSF>
*
*    </Calibration>
*
* </CalibrationCoefficients>
* <EventCounters DeviceType='SBE19plus' SerialNumber='01907809'>
*
*    <EventSummary numEvents='0'/>
*
* </EventCounters></InstrumentState>
* <Headers>
*
* cast  11 22 Oct 2018 15:26:42 samples 7070 to 7795, avg = 1, stop = mag switch
*
# nquan = 17
# nvalues = 567                         
# units = specified
# name 0 = depFM: Depth [fresh water, m]
# name 1 = tv290C: Temperature [ITS-90, deg C]
# name 2 = sbeox0Mg/L: Oxygen, SBE 43 [mg/l]
# name 3 = sbeox0PS: Oxygen, SBE 43 [% saturation]
# name 4 = c0uS/cm: Conductivity [uS/cm]
# name 5 = specc: Specific Conductance [uS/cm]
# name 6 = ph: pH
# name 7 = orp: Oxidation Reduction Potential [mV]
# name 8 = flECO-AFL: Fluorescence, WET Labs ECO-AFL/FL [mg/m^3]
# name 9 = turbWETntu0: Turbidity, WET Labs ECO [NTU]
# name 10 = sal00: Salinity, Practical [PSU]
# name 11 = dz/dtM: Descent Rate [m/s]
# name 12 = prdM: Pressure, Strain Gauge [db]
# name 13 = prdE: Pressure, Strain Gauge [psi]
# name 14 = scan: Scan Count
# name 15 = par/sat/log: PAR/Logarithmic, Satlantic
# name 16 = flag:  0.000e+00
# span 0 =     -0.517,      7.312       
# span 1 =    11.6892,    14.5283       
# span 2 =     5.0377,    10.6521       
# span 3 =     48.748,    100.379       
# span 4 =   0.283521,  30.522817       
# span 5 =      0.538,     38.772       
# span 6 =      6.380,      7.574       
# span 7 =   251.0195,   854.3884       
# span 8 =    -0.9543,   257.8670       
# span 9 =    -5.2463,     8.8664       
# span 10 =     0.0060,     0.0217      
# span 11 =     -0.188,      0.155      
# span 12 =     -0.507,      7.169      
# span 13 =     -0.735,     10.399      
# span 14 =          1,        567      
# span 15 = 1.2406e-01, 3.2586e+03      
# span 16 = 0.0000e+00, 0.0000e+00      
# interval = seconds: 0.25
# start_time = Oct 22 2018 15:26:42 [Instrument's time stamp, header]
# bad_flag = -9.990e-29
# <Sensors count="9" >
#   <sensor Channel="1" >
#     <!-- Count, Temperature -->
#     <TemperatureSensor SensorID="58" >
#       <SerialNumber>7809</SerialNumber>
#       <CalibrationDate>09-Mar-18</CalibrationDate>
#       <A0>1.21093245e-003</A0>
#       <A1>2.84356597e-004</A1>
#       <A2>-1.94507398e-006</A2>
#       <A3>2.12806664e-007</A3>
#       <Slope>1.00000000</Slope>
#       <Offset>0.0000</Offset>
#     </TemperatureSensor>
#   </sensor>
#   <sensor Channel="2" >
#     <!-- Frequency 0, Conductivity -->
#     <ConductivitySensor SensorID="3" >
#       <SerialNumber>7809</SerialNumber>
#       <CalibrationDate>09-Mar-18</CalibrationDate>
#       <UseG_J>1</UseG_J>
#       <!-- Cell const and series R are applicable only for wide range sensors. -->
#       <SeriesR>0.0000</SeriesR>
#       <CellConst>2000.0000</CellConst>
#       <ConductivityType>0</ConductivityType>
#       <Coefficients equation="0" >
#         <A>0.00000000e+000</A>
#         <B>0.00000000e+000</B>
#         <C>0.00000000e+000</C>
#         <D>0.00000000e+000</D>
#         <M>0.0</M>
#         <CPcor>-9.57000000e-008</CPcor>
#       </Coefficients>
#       <Coefficients equation="1" >
#         <G>-1.00672082e+000</G>
#         <H>1.26906489e-001</H>
#         <I>-1.40584351e-004</I>
#         <J>2.47837121e-005</J>
#         <CPcor>-9.57000000e-008</CPcor>
#         <CTcor>3.2500e-006</CTcor>
#         <!-- WBOTC not applicable unless ConductivityType = 1. -->
#         <WBOTC>0.00000000e+000</WBOTC>
#       </Coefficients>
#       <Slope>1.00000000</Slope>
#       <Offset>0.00000</Offset>
#     </ConductivitySensor>
#   </sensor>
#   <sensor Channel="3" >
#     <!-- Count, Pressure, Strain Gauge -->
#     <PressureSensor SensorID="46" >
#       <SerialNumber>7809</SerialNumber>
#       <CalibrationDate>07-Mar-18</CalibrationDate>
#       <PA0>-4.08176359e-002</PA0>
#       <PA1>4.85188419e-004</PA1>
#       <PA2>-3.51168169e-012</PA2>
#       <PTEMPA0>-5.37806900e+001</PTEMPA0>
#       <PTEMPA1>5.36620721e+001</PTEMPA1>
#       <PTEMPA2>4.87214332e-002</PTEMPA2>
#       <PTCA0>5.25213435e+005</PTCA0>
#       <PTCA1>1.79532409e+000</PTCA1>
#       <PTCA2>-2.84353509e-001</PTCA2>
#       <PTCB0>2.51668750e+001</PTCB0>
#       <PTCB1>3.75000000e-004</PTCB1>
#       <PTCB2>0.00000000e+000</PTCB2>
#       <Offset>0.000000</Offset>
#     </PressureSensor>
#   </sensor>
#   <sensor Channel="4" >
#     <!-- A/D voltage 0, pH -->
#     <pH_Sensor SensorID="43" >
#       <SerialNumber>0363</SerialNumber>
#       <CalibrationDate>16-Mar-18</CalibrationDate>
#       <Slope>4.6194</Slope>
#       <Offset>2.5947</Offset>
#     </pH_Sensor>
#   </sensor>
#   <sensor Channel="5" >
#     <!-- A/D voltage 1, Oxidation Reduction Potential -->
#     <OxidationReductionPotentialSensor SensorID="41" >
#       <SerialNumber>0363</SerialNumber>
#       <CalibrationDate>16-Mar-18</CalibrationDate>
#       <B>2.499480</B>
#       <M>-0.496195</M>
#       <Offset>0.0</Offset>
#     </OxidationReductionPotentialSensor>
#   </sensor>
#   <sensor Channel="6" >
#     <!-- A/D voltage 2, Oxygen, SBE 43 -->
#     <OxygenSensor SensorID="38" >
#       <SerialNumber>0434</SerialNumber>
#       <CalibrationDate>13-Mar-18</CalibrationDate>
#       <Use2007Equation>1</Use2007Equation>
#       <CalibrationCoefficients equation="0" >
#         <!-- Coefficients for Owens-Millard equation. -->
#         <Boc>0.0000</Boc>
#         <Soc>0.0000e+000</Soc>
#         <offset>0.0000</offset>
#         <Pcor>0.00e+000</Pcor>
#         <Tcor>0.0000</Tcor>
#         <Tau>0.0</Tau>
#       </CalibrationCoefficients>
#       <CalibrationCoefficients equation="1" >
#         <!-- Coefficients for Sea-Bird equation - SBE calibration in 2007 and later. -->
#         <Soc>4.5718e-001</Soc>
#         <offset>-0.6113</offset>
#         <A>-4.0649e-003</A>
#         <B> 2.0945e-004</B>
#         <C>-3.3182e-006</C>
#         <D0> 2.5826e+000</D0>
#         <D1> 1.92634e-004</D1>
#         <D2>-4.64803e-002</D2>
#         <E> 3.6000e-002</E>
#         <Tau20> 1.2200</Tau20>
#         <H1>-3.3000e-002</H1>
#         <H2> 5.0000e+003</H2>
#         <H3> 1.4500e+003</H3>
#       </CalibrationCoefficients>
#     </OxygenSensor>
#   </sensor>
#   <sensor Channel="7" >
#     <!-- A/D voltage 3, PAR/Logarithmic, Satlantic -->
#     <PARLog_SatlanticSensor SensorID="76" >
#       <SerialNumber>1122</SerialNumber>
#       <CalibrationDate>22-Jun-2017</CalibrationDate>
#       <a0>9.6090e-001</a0>
#       <a1>8.0780e-001</a1>
#       <Im>1.3589e+000</Im>
#       <Multiplier>1.0000e+000</Multiplier>
#     </PARLog_SatlanticSensor>
#   </sensor>
#   <sensor Channel="8" >
#     <!-- A/D voltage 4, Fluorometer, WET Labs ECO-AFL/FL -->
#     <FluoroWetlabECO_AFL_FL_Sensor SensorID="20" >
#       <SerialNumber>FLNTURT-2496</SerialNumber>
#       <CalibrationDate>25-Jan-2017</CalibrationDate>
#       <ScaleFactor>5.30000000e+001</ScaleFactor>
#       <!-- Dark output -->
#       <Vblank>0.0560</Vblank>
#     </FluoroWetlabECO_AFL_FL_Sensor>
#   </sensor>
#   <sensor Channel="9" >
#     <!-- A/D voltage 5, Turbidity Meter, WET Labs, ECO-NTU -->
#     <TurbidityMeter SensorID="67" >
#       <SerialNumber>FLNTURT-2496</SerialNumber>
#       <CalibrationDate>25-Jan-2017</CalibrationDate>
#       <ScaleFactor>176.000000</ScaleFactor>
#       <!-- Dark output -->
#       <DarkVoltage>0.072000</DarkVoltage>
#     </TurbidityMeter>
#   </sensor>
# </Sensors>
# datcnv_date = Oct 29 2018 16:48:38, 7.26.7.114 [datcnv_vars = 16]
# datcnv_in = C:\DATA\102218_fcr45.hex C:\DATA\SBE19plusV2_7809.xmlcon
# datcnv_skipover = 0
# datcnv_ox_hysteresis_correction = yes
# datcnv_ox_tau_correction = yes
# filter_date = Oct 29 2018 16:49:04, 7.26.7.114
# filter_in = C:\DATA\102218_fcr45.cnv
# filter_low_pass_tc_A = 0.030
# filter_low_pass_tc_B = 0.150
# filter_low_pass_A_vars = tv290C c0uS/cm par/sat/log
# filter_low_pass_B_vars = prdM prdE
# alignctd_date = Oct 29 2018 16:49:26, 7.26.7.114
# alignctd_in = C:\DATA\102218_fcr45.cnv
# alignctd_adv = tv290C 0.500, sbeox0Mg/L 3.000, sbeox0PS 3.000                                                                                                                                                                      
# file_type = ascii
*END*
     -0.514    11.9045    10.6282     98.063   0.408802      0.538      6.381   764.4017    -0.9543     1.9376     0.0062 2.1053e-16     -0.505     -0.732          1 1.2248e+02 0.0000e+00
     -0.515    11.8605    10.6268     98.037   0.557801      0.765      6.394   754.7481    -0.8977     1.8705     0.0062     -0.000     -0.505     -0.732          2 1.2339e+02 0.0000e+00
     -0.515    11.8227    10.6293     98.036   0.620323      0.841      6.416   728.7023    -0.9098     1.8705     0.0062     -0.000     -0.505     -0.732          3 1.4842e+02 0.0000e+00
     -0.515    11.7967    10.6302     98.009   0.567855      0.767      6.428   722.1530    -0.1900    -0.6674     0.0061     -0.000     -0.505     -0.733          4 1.5664e+02 0.0000e+00
     -0.515    11.7802    10.6386     98.049   0.563881      0.768      6.430   720.8658    -0.2062    -0.7211     0.0061     -0.000     -0.505     -0.733          5 1.5719e+02 0.0000e+00
     -0.515    11.7696    10.6448     98.084   0.566054      0.768      6.426   717.5344    -0.2062    -0.7077     0.0061     -0.001     -0.506     -0.733          6 1.6124e+02 0.0000e+00
     -0.515    11.7628    10.6424     98.056   0.565152      0.768      6.419   724.6894    -0.2062    -0.6271     0.0061     -0.001     -0.506     -0.733          7 1.5931e+02 0.0000e+00
     -0.516    11.7608    10.6422     98.058   0.565003      0.769      6.408   731.4659    -0.1860    -0.6406     0.0061     -0.001     -0.506     -0.733          8 1.6120e+02 0.0000e+00
     -0.515    11.7593    10.6495     98.128   0.507024      0.693      6.396   731.3523    -0.2183    -0.6540     0.0061     -0.001     -0.506     -0.733          9 1.6203e+02 0.0000e+00
     -0.516    11.7556    10.6477     98.115   0.459661      0.617      6.388   728.4373    -0.2305    -0.7614     0.0061     -0.000     -0.506     -0.733         10 1.6391e+02 0.0000e+00
     -0.516    11.7512    10.6498     98.139   0.505515      0.693      6.380   730.0652    -0.1698    -0.6943     0.0061     -0.000     -0.506     -0.733         11 1.6134e+02 0.0000e+00
     -0.516    11.7452    10.6521     98.165   0.449960      0.617      6.381   739.3023    -0.2021    -0.6271     0.0061     -0.000     -0.506     -0.733         12 1.6200e+02 0.0000e+00
     -0.516    11.7346    10.6487     98.138   0.469584      0.617      6.383   746.1923    -0.1941    -0.7748     0.0061     -0.000     -0.506     -0.733         13 1.6274e+02 0.0000e+00
     -0.516    11.7187    10.6459     98.118   0.362663      0.541      6.388   728.0587    -0.1981    -0.6943     0.0061     -0.000     -0.506     -0.734         14 1.5538e+02 0.0000e+00
     -0.516    11.7026    10.6487     98.157   0.464592      0.542      6.397   733.5480    -0.2183    -0.5734     0.0061     -0.000     -0.506     -0.734         15 1.4572e+02 0.0000e+00
     -0.517    11.6921    10.6455     98.143   0.283521      0.542      6.397   770.4967    -0.2183    -0.6406     0.0060     -0.000     -0.507     -0.735         16 1.3993e+02 0.0000e+00
     -0.517    11.6892    10.6326     98.064   0.647218      0.618      6.401   729.0051    -0.2102    -0.6540     0.0060     -0.000     -0.507     -0.735         17 1.4067e+02 0.0000e+00
     -0.516    11.6907    10.5361     98.065   3.683579      5.181      6.418   730.1787    -0.2102    -0.6809     0.0072     -0.000     -0.507     -0.735         18 1.4419e+02 0.0000e+00
     -0.517    11.6928    10.3783     98.031   5.062204      6.969      6.438   733.0937    -0.2062    -0.6271     0.0078     -0.000     -0.507     -0.735         19 1.4853e+02 0.0000e+00
     -0.516    11.6936    10.2801     98.067   3.758090      5.029      6.465   733.6237    -0.2021    -0.6943     0.0072     -0.000     -0.506     -0.734         20 1.4670e+02 0.0000e+00
     -0.516    11.6966    10.2111     98.031   3.026352      4.192      6.490   731.6173    -0.2021    -0.6943     0.0069     -0.000     -0.506     -0.734         21 1.4518e+02 0.0000e+00
     -0.517    11.6975    10.1653     98.021   2.745105      3.660      6.501   727.1501    -0.2021    -0.5734     0.0068     -0.000     -0.506     -0.734         22 1.4402e+02 0.0000e+00
     -0.516    11.7017    10.1370     98.004   2.390652      3.355      6.495   727.5666    -0.1860    -0.7077     0.0067      0.000     -0.506     -0.734         23 1.4192e+02 0.0000e+00
     -0.516    11.7010    10.1104     98.030   2.312653      3.013      6.509   727.6801    -0.2183    -0.6943     0.0066      0.000     -0.506     -0.734         24 1.4027e+02 0.0000e+00
     -0.517    11.7123    10.0761     98.025   1.953869      2.861      6.515   733.7752    -0.2224    -0.7077     0.0065      0.000     -0.506     -0.734         25 1.3560e+02 0.0000e+00
     -0.516    11.7095    10.0494     98.021   2.215345      2.709      6.532   716.6637    -0.2021    -0.6674     0.0065     -0.000     -0.506     -0.734         26 1.3270e+02 0.0000e+00
     -0.516    11.7441    10.0354     98.048   1.365452      2.366      6.595   854.3884    -0.1779    -0.6674     0.0064     -0.000     -0.505     -0.733         27 1.3325e+02 0.0000e+00
     -0.517    12.1401    10.1393     99.184   2.981940      3.164      6.892   419.0300    -0.2102    -0.7480     0.0066     -0.000     -0.498     -0.722         28 1.3482e+02 0.0000e+00
     -0.487    12.7768    10.2193    100.045   1.772983      3.922      7.113   406.9535    -0.1941    -0.7480     0.0069      0.007     -0.478     -0.692         29 1.4024e+02 0.0000e+00
     -0.459    13.2275    10.2482    100.379   5.090748      4.405      7.239   403.1299     2.4464     2.1122     0.0072      0.021     -0.452     -0.654         30 1.5859e+02 0.0000e+00
     -0.437    13.5109    10.1966     99.898  16.122298     24.091      7.337   297.7732     2.4343     2.0719     0.0150      0.036     -0.424     -0.614         31 2.1142e+02 0.0000e+00
     -0.401    13.7087    10.0005     97.981  19.028798     22.424      7.474   277.2546     2.4545     2.1524     0.0145      0.055     -0.385     -0.558         32 3.5943e+02 0.0000e+00
     -0.338    13.8304     9.6743     94.778  26.273186     35.965      7.555   271.7274     2.4181     2.1927     0.0203      0.084     -0.333     -0.483         33 5.5156e+02 0.0000e+00
     -0.281    13.9614     9.1967     90.094  30.522817     38.379      7.574   270.5917   257.8347    -5.1926     0.0214      0.115     -0.283     -0.410         34 7.2387e+02 0.0000e+00
     -0.248    14.1127     8.6782     85.005  29.391175     38.477      7.566   270.9703   257.8670    -5.1524     0.0215      0.140     -0.246     -0.357         35 8.8412e+02 0.0000e+00
     -0.222    14.2317     8.1299     79.632  30.320201     38.527      7.547   269.1153   257.8509    -5.2463     0.0216      0.154     -0.219     -0.317         36 1.0335e+03 0.0000e+00
     -0.198    14.3095     7.6376     74.807  29.841014     38.377      7.538   268.6610   257.8468    -5.2195     0.0216      0.155     -0.193     -0.280         37 1.1064e+03 0.0000e+00
     -0.169    14.3645     7.2110     70.614  30.135710     38.260      7.504   264.5345     1.3506     8.8664     0.0216      0.152     -0.165     -0.239         38 1.2211e+03 0.0000e+00
     -0.137    14.4010     6.9168     67.736  30.012710     38.256      7.456   260.8624     1.3627     8.8530     0.0216      0.146     -0.135     -0.195         39 1.3117e+03 0.0000e+00
     -0.107    14.4240     6.6981     65.595  30.112653     38.202      7.430   259.6509     1.3183     8.7993     0.0216      0.134     -0.104     -0.150         40 1.5139e+03 0.0000e+00
     -0.074    14.4357     6.5741     64.374  29.922358     37.990      7.408   251.8523     1.3021     8.7993     0.0215      0.121     -0.071     -0.103         41 1.5212e+03 0.0000e+00
     -0.035    14.4371     6.5177     63.824  29.953010     37.967      7.385   251.7766     1.4638     4.8917     0.0215      0.117     -0.034     -0.049         42 1.8336e+03 0.0000e+00
      0.005    14.4342     6.4841     63.501  29.866944     37.886      7.362   251.5495     1.4719     4.8380     0.0215      0.123      0.005      0.006         43 1.6752e+03 0.0000e+00
      0.043    14.4313     6.4829     63.488  29.792257     37.742      7.339   251.2466     1.4760     4.8380     0.0214      0.131      0.044      0.063         44 3.7088e+02 0.0000e+00
      0.088    14.4268     6.4898     63.553  29.808753     37.816      7.312   251.8902     1.4436     4.7575     0.0214      0.140      0.082      0.119         45 4.4789e+02 0.0000e+00
      0.121    14.4255     6.4679     63.337  29.816766     37.783      7.279   251.0195     1.4517     4.7172     0.0214      0.145      0.112      0.163         46 1.5499e+03 0.0000e+00
      0.135    14.4226     6.4761     63.421  29.871238     37.894      7.262   251.0573     1.5932     4.6769     0.0215      0.142      0.129      0.188         47 2.1089e+03 0.0000e+00
      0.141    14.4143     6.4583     63.247  29.948517     37.967      7.242   251.1331     1.5528     4.5829     0.0215      0.132      0.138      0.201         48 8.5192e+02 0.0000e+00
      0.148    14.4152     6.4392     63.060  30.017098     38.075      7.231   251.6252     1.5649     4.5829     0.0216      0.115      0.144      0.209         49 5.7120e+02 0.0000e+00
      0.150    14.4162     6.4085     62.768  30.023097     38.084      7.221   251.7766     1.5892     4.4755     0.0216      0.092      0.149      0.216         50 1.0263e+03 0.0000e+00
      0.160    14.4115     6.3787     62.482  30.030006     38.082      7.211   252.3066     1.6862     4.5023     0.0216      0.071      0.158      0.230         51 1.1363e+03 0.0000e+00
      0.176    14.4135     6.3478     62.182  29.949199     38.011      7.200   252.7231     1.6781     4.5695     0.0215      0.054      0.171      0.248         52 1.7933e+03 0.0000e+00
      0.186    14.4171     6.3149     61.860  29.678904     37.626      7.186   252.9502     1.6458     4.5560     0.0214      0.040      0.178      0.258         53 7.7262e+02 0.0000e+00
      0.180    14.4167     6.3087     61.798  29.595477     37.552      7.176   252.8366     1.6458     4.5023     0.0213      0.031      0.175      0.254         54 5.7995e+02 0.0000e+00
      0.168    14.4145     6.3006     61.721  29.786172     37.762      7.168   252.9881     1.5932     4.5695     0.0214      0.023      0.169      0.245         55 1.1300e+03 0.0000e+00
      0.169    14.4137     6.3011     61.731  29.915991     37.975      7.154   253.0638     1.6013     4.5560     0.0215      0.017      0.169      0.245         56 1.3866e+03 0.0000e+00
      0.179    14.4163     6.3032     61.753  29.967623     37.977      7.140   254.2374     1.5771     4.5158     0.0215      0.013      0.177      0.256         57 2.5603e+03 0.0000e+00
      0.193    14.4166     6.3151     61.869  30.048071     38.155      7.131   253.8588     1.5892     4.6098     0.0216      0.013      0.187      0.271         58 2.8942e+03 0.0000e+00
      0.198    14.4171     6.3319     62.029  29.964127     37.975      7.124   254.4645     1.6579     4.4083     0.0215      0.012      0.191      0.276         59 8.4872e+02 0.0000e+00
      0.191    14.4228     6.3452     62.150  29.923835     37.975      7.118   254.1995     1.6620     4.4352     0.0215      0.009      0.186      0.271         60 4.3889e+02 0.0000e+00
      0.181    14.4275     6.3547     62.232  29.949959     37.975      7.109   254.6538     1.6660     4.3278     0.0215      0.006      0.180      0.261         61 1.2270e+03 0.0000e+00
      0.180    14.4293     6.3672     62.353  30.020568     38.075      7.101   255.4109     1.6539     4.4083     0.0216      0.007      0.179      0.260         62 7.7932e+02 0.0000e+00
      0.188    14.4291     6.3758     62.434  30.013867     38.071      7.095   255.7516     1.7064     4.5560     0.0216      0.007      0.184      0.267         63 1.0536e+03 0.0000e+00
      0.194    14.4283     6.3760     62.436  29.958296     37.963      7.090   254.5781     1.7428     4.6635     0.0215      0.005      0.188      0.273         64 8.0257e+02 0.0000e+00
      0.193    14.4303     6.3857     62.532  30.000773     38.069      7.088   254.1995     1.6984     4.5023     0.0216      0.002      0.188      0.273         65 4.0630e+02 0.0000e+00
      0.188    14.4335     6.3765     62.441  29.961006     37.964      7.083   254.2752     1.7388     4.5695     0.0215     -0.002      0.185      0.268         66 4.6864e+02 0.0000e+00
      0.183    14.4349     6.3655     62.335  30.007784     38.068      7.082   254.0859     1.7064     4.5292     0.0216     -0.002      0.182      0.264         67 9.0567e+02 0.0000e+00
      0.186    14.4340     6.3483     62.161  30.031510     38.065      7.081   254.0102     1.6539     4.3681     0.0216      0.001      0.184      0.267         68 1.3303e+03 0.0000e+00
      0.193    14.4313     6.3289     61.963  30.020433     38.064      7.080   259.3102     1.6741     4.4083     0.0216      0.003      0.190      0.275         69 1.0623e+03 0.0000e+00
      0.201    14.4242     6.3024     61.685  30.021568     38.064      7.074   260.7867     1.6539     4.3546     0.0216      0.005      0.196      0.285         70 9.0659e+02 0.0000e+00
      0.207    14.4169     6.2802     61.462  29.970795     37.996      7.069   255.3352     1.6296     4.3143     0.0215      0.006      0.201      0.292         71 6.3421e+02 0.0000e+00
      0.208    14.4150     6.2545     61.219  29.935368     37.967      7.068   254.3509     1.7145     4.5560     0.0215      0.009      0.204      0.295         72 4.4068e+02 0.0000e+00
      0.209    14.4133     6.2318     61.006  29.947057     37.975      7.064   254.4266     1.7307     4.6500     0.0215      0.012      0.204      0.296         73 6.4526e+02 0.0000e+00
      0.208    14.4127     6.2156     60.857  29.926601     37.976      7.058   254.7295     1.7307     4.5829     0.0215      0.014      0.202      0.293         74 1.1505e+03 0.0000e+00
      0.201    14.4133     6.1945     60.656  29.960827     37.978      7.058   254.9945     1.7145     4.6098     0.0215      0.011      0.198      0.288         75 1.3932e+03 0.0000e+00
      0.198    14.4136     6.1729     60.448  30.052716     38.156      7.053   254.9945     1.6620     4.5158     0.0216      0.006      0.196      0.284         76 1.4319e+03 0.0000e+00
      0.199    14.4137     6.1579     60.291  30.049451     38.084      7.048   255.0324     1.6458     4.5292     0.0216      0.000      0.197      0.286         77 1.1717e+03 0.0000e+00
      0.205    14.4107     6.1352     60.046  30.053842     38.155      7.045   255.1838     1.5973     4.6098     0.0216     -0.002      0.202      0.293         78 5.2108e+02 0.0000e+00
      0.214    14.4033     6.1075     59.774  30.047251     38.084      7.037   254.9188     1.6620     4.5829     0.0216     -0.001      0.210      0.304         79 6.4915e+02 0.0000e+00
      0.223    14.3907     6.0756     59.474  29.998352     38.087      7.035   255.2595     1.7145     4.5023     0.0216      0.004      0.217      0.315         80 7.2560e+02 0.0000e+00
      0.227    14.3859     6.0542     59.273  29.907145     37.916      7.029   254.9566     1.7307     4.5963     0.0215      0.010      0.221      0.320         81 7.0069e+02 0.0000e+00
      0.226    14.3920     6.0401     59.131  29.923556     38.000      7.025   254.8809     1.7145     4.6232     0.0215      0.014      0.221      0.321         82 1.0209e+03 0.0000e+00
      0.225    14.3996     6.0338     59.057  30.037232     38.111      7.024   254.7674     1.7469     4.5560     0.0216      0.017      0.221      0.321         83 7.4997e+02 0.0000e+00
      0.225    14.4060     6.0338     59.044  30.062183     38.176      7.016   254.8809     1.7186     4.5695     0.0216      0.016      0.222      0.321         84 4.5757e+02 0.0000e+00
      0.228    14.4108     6.0269     58.963  30.040756     38.098      7.013   254.7674     1.7064     4.4486     0.0216      0.013      0.225      0.325         85 5.3631e+02 0.0000e+00
      0.233    14.4136     6.0139     58.832  30.063895     38.162      7.008   254.8809     1.7186     4.5023     0.0216      0.010      0.230      0.332         86 3.8813e+02 0.0000e+00
      0.240    14.4051     5.9971     58.676  30.092687     38.158      7.006   255.1838     1.7428     4.5158     0.0216      0.009      0.235      0.340         87 6.7069e+02 0.0000e+00
      0.244    14.3891     5.9682     58.389  30.004923     38.084      7.001   255.1838     1.7186     4.5023     0.0216      0.009      0.237      0.344         88 9.1744e+02 0.0000e+00
      0.241    14.3872     5.9273     57.971  29.965560     37.985      6.995   255.4488     1.7752     4.5695     0.0215      0.010      0.236      0.342         89 4.7056e+02 0.0000e+00
      0.236    14.3972     5.8905     57.622  29.993424     38.109      6.993   255.4109     1.7914     4.5963     0.0216      0.009      0.234      0.339         90 8.1229e+02 0.0000e+00
      0.239    14.4036     5.8461     57.204  29.970252     38.003      6.992   255.9409     1.7833     4.4755     0.0215      0.008      0.235      0.342         91 1.5399e+03 0.0000e+00
      0.246    14.4003     5.8105     56.864  30.053699     38.171      6.988   256.0545     1.8035     4.6098     0.0216      0.008      0.240      0.349         92 1.0578e+03 0.0000e+00
      0.250    14.3909     5.7819     56.584  30.037826     38.094      6.986   256.4709     1.7914     4.5292     0.0216      0.008      0.244      0.355         93 6.3989e+02 0.0000e+00
      0.252    14.3809     5.7496     56.266  30.019655     38.097      6.982   256.9252     1.7671     4.5292     0.0216      0.007      0.246      0.356         94 4.4351e+02 0.0000e+00
      0.249    14.3710     5.7157     55.934  30.017012     38.106      6.976   257.0009     1.7711     4.5829     0.0216      0.006      0.243      0.352         95 4.8711e+02 0.0000e+00
      0.242    14.3675     5.6875     55.655  29.952166     38.009      6.974   256.5845     1.7833     4.5829     0.0215      0.004      0.239      0.347         96 8.9605e+02 0.0000e+00
      0.240    14.3735     5.6466     55.250  29.952106     38.054      6.964   256.3574     1.7833     4.6232     0.0215      0.003      0.240      0.349         97 4.1890e+02 0.0000e+00
      0.254    14.3695     5.6161     54.947  29.957788     38.023      6.961   256.7738     1.7914     4.6232     0.0215      0.004      0.251      0.365         98 3.3464e+02 0.0000e+00
      0.275    14.3583     5.5863     54.650  30.004397     38.123      6.948   257.3416     1.7671     4.6366     0.0216      0.009      0.265      0.385         99 2.8078e+02 0.0000e+00
      0.280    14.3651     5.5507     54.299  29.953404     38.020      6.938   257.4174     1.7752     4.6769     0.0215      0.014      0.271      0.393        100 2.5218e+02 0.0000e+00
      0.273    14.3786     5.5186     53.984  29.872996     37.961      6.929   257.2659     1.8480     4.5829     0.0215      0.016      0.266      0.387        101 5.9839e+02 0.0000e+00
      0.262    14.3844     5.4972     53.767  29.837611     37.882      6.925   256.9252     1.8561     4.6232     0.0214      0.015      0.257      0.373        102 7.7001e+02 0.0000e+00
      0.253    14.3850     5.4750     53.543  29.849188     37.905      6.922   257.4552     1.8399     4.5560     0.0215      0.011      0.250      0.363        103 1.3379e+03 0.0000e+00
      0.250    14.3836     5.4494     53.286  29.888235     37.935      6.914   257.7581     1.8197     4.4889     0.0215      0.006      0.247      0.358        104 1.2780e+03 0.0000e+00
      0.252    14.3828     5.4287     53.073  29.877966     37.935      6.911   258.0609     1.8722     4.5023     0.0215     -0.002      0.248      0.359        105 5.7992e+02 0.0000e+00
      0.256    14.3807     5.4150     52.930  29.832317     37.865      6.909   258.0609     1.8520     4.5829     0.0214     -0.009      0.251      0.364        106 5.6786e+02 0.0000e+00
      0.258    14.3768     5.3945     52.722  29.826444     37.866      6.902   258.2124     1.8358     4.4889     0.0214     -0.013      0.253      0.367        107 7.7164e+02 0.0000e+00
      0.259    14.3724     5.3868     52.642  29.825975     37.868      6.902   258.1367     1.8278     4.5426     0.0214     -0.009      0.254      0.369        108 6.7300e+02 0.0000e+00
      0.261    14.3680     5.3747     52.523  29.803250     37.836      6.902   258.0609     1.8358     4.6098     0.0214     -0.003      0.255      0.369        109 7.1162e+02 0.0000e+00
      0.258    14.3660     5.3588     52.365  29.765774     37.805      6.899   258.6288     1.9288     4.5292     0.0214      0.002      0.251      0.363        110 5.5273e+02 0.0000e+00
      0.247    14.3651     5.3399     52.177  29.665063     37.667      6.898   258.5909     1.9248     4.5560     0.0214      0.001      0.242      0.351        111 5.7021e+02 0.0000e+00
      0.234    14.3591     5.3327     52.099  29.602434     37.598      6.901   258.7045     1.8965     4.6232     0.0213     -0.005      0.232      0.338        112 6.0559e+02 0.0000e+00
      0.230    14.3525     5.3273     52.044  29.665817     37.669      6.900   258.7045     1.9127     4.5829     0.0214     -0.011      0.229      0.333        113 6.2454e+02 0.0000e+00
      0.237    14.3471     5.3136     51.918  29.764085     37.817      6.898   258.6667     1.9288     4.5963     0.0214     -0.015      0.233      0.338        114 1.0326e+03 0.0000e+00
      0.244    14.3381     5.3000     51.769  29.776642     37.824      6.897   259.1588     1.9208     4.5158     0.0214     -0.013      0.237      0.344        115 1.0936e+03 0.0000e+00
      0.242    14.3302     5.2892     51.635  29.739143     37.793      6.895   258.7424     1.9086     4.4352     0.0214     -0.012      0.236      0.343        116 7.5777e+02 0.0000e+00
      0.238    14.3241     5.2757     51.478  29.662505     37.696      6.894   259.2724     1.9208     4.5023     0.0214     -0.009      0.233      0.338        117 6.9736e+02 0.0000e+00
      0.233    14.3198     5.2562     51.259  29.664470     37.703      6.893   260.0295     1.9046     4.6635     0.0214     -0.006      0.230      0.334        118 7.6647e+02 0.0000e+00
      0.233    14.3184     5.2422     51.114  29.707052     37.780      6.893   259.3481     1.9208     4.6098     0.0214     -0.003      0.230      0.334        119 6.2054e+02 0.0000e+00
      0.238    14.3161     5.2268     50.969  29.728117     37.784      6.891   259.2345     1.9046     4.6232     0.0214      0.001      0.233      0.338        120 8.1506e+02 0.0000e+00
      0.241    14.3129     5.2097     50.815  29.756857     37.856      6.889   259.7645     1.8925     4.4755     0.0214      0.001      0.236      0.342        121 9.7789e+02 0.0000e+00
      0.242    14.3070     5.2044     50.764  29.700935     37.752      6.887   259.6509     2.0502     4.5560     0.0214     -0.000      0.237      0.343        122 1.1044e+03 0.0000e+00
      0.240    14.3062     5.1954     50.671  29.649461     37.720      6.883   259.8024     2.0744     4.6500     0.0214     -0.000      0.233      0.337        123 8.3526e+02 0.0000e+00
      0.229    14.3110     5.1995     50.705  29.554068     37.583      6.881   260.5217     2.0623     4.6366     0.0213     -0.001      0.224      0.324        124 5.4763e+02 0.0000e+00
      0.214    14.2974     5.1937     50.648  29.463852     37.478      6.877   260.1052     2.0704     4.5426     0.0213     -0.006      0.214      0.309        125 5.7962e+02 0.0000e+00
      0.209    14.2730     5.1927     50.604  29.554183     37.579      6.873   262.4145     1.8965     4.6098     0.0213     -0.011      0.211      0.305        126 7.3240e+02 0.0000e+00
      0.221    14.2491     5.1854     50.448  29.649201     37.734      6.862   260.7488     1.9127     4.5695     0.0214     -0.013      0.217      0.315        127 1.4153e+03 0.0000e+00
      0.234    14.2251     5.1777     50.290  29.671757     37.759      6.853   261.4302     1.9410     4.6098     0.0214     -0.011      0.225      0.327        128 1.0927e+03 0.0000e+00
      0.234    14.2163     5.1620     50.093  29.674372     37.816      6.847   261.6195     1.9167     4.5829     0.0214     -0.007      0.229      0.332        129 8.9835e+02 0.0000e+00
      0.234    14.2222     5.1435     49.912  29.675607     37.805      6.843   260.6352     1.9167     4.5560     0.0214     -0.002      0.230      0.334        130 1.1424e+03 0.0000e+00
      0.238    14.2319     5.1247     49.737  29.699879     37.883      6.842   261.5817     1.7995     4.5292     0.0214      0.004      0.234      0.339        131 4.8216e+02 0.0000e+00
      0.245    14.2337     5.1101     49.595  29.733120     37.879      6.838   260.8624     1.7873     4.5695     0.0214      0.013      0.239      0.346        132 3.6773e+02 0.0000e+00
      0.248    14.2282     5.1114     49.602  29.693538     37.868      6.837   261.8467     1.7509     4.6098     0.0214      0.018      0.243      0.352        133 2.6692e+02 0.0000e+00
      0.251    14.2244     5.1135     49.618  29.630536     37.725      6.835   261.8088     1.7631     4.5426     0.0213      0.018      0.246      0.356        134 3.2758e+02 0.0000e+00
      0.254    14.2224     5.1159     49.600  29.603974     37.765      6.837   261.6195     1.8278     4.6635     0.0213      0.014      0.247      0.359        135 7.7878e+02 0.0000e+00
      0.253    14.1905     5.1266     49.647  29.489396     37.556      6.838   261.6574     1.8197     4.5829     0.0213      0.012      0.246      0.357        136 4.8519e+02 0.0000e+00
      0.246    14.1159     5.1300     49.675  29.387679     37.486      6.837   261.6574     1.8803     4.6098     0.0212      0.010      0.241      0.349        137 1.9208e+02 0.0000e+00
      0.237    14.0402     5.1284     49.664  29.374764     37.444      6.836   262.0738     1.8965     4.5292     0.0212      0.004      0.231      0.335        138 2.8141e+02 0.0000e+00
      0.222    14.0005     5.1220     49.597  29.386885     37.589      6.834   261.5059     1.9531     4.6098     0.0212     -0.006      0.221      0.320        139 4.3964e+02 0.0000e+00
      0.216    13.9980     5.1012     49.394  29.431920     37.661      6.835   261.6574     1.9208     4.5560     0.0212     -0.015      0.217      0.315        140 2.4957e+02 0.0000e+00
      0.226    14.0054     5.0875     49.259  29.555943     37.916      6.833   261.5817     1.9127     4.7306     0.0213     -0.017      0.225      0.326        141 2.7554e+02 0.0000e+00
      0.246    14.0045     5.0751     49.134  29.677304     38.024      6.830   261.5059     1.9167     4.6098     0.0214     -0.013      0.239      0.346        142 3.5960e+02 0.0000e+00
      0.257    14.0003     5.0635     49.003  29.695992     38.089      6.829   261.5438     1.8318     4.6366     0.0214     -0.004      0.248      0.360        143 3.7727e+02 0.0000e+00
      0.255    13.9948     5.0494     48.856  29.562337     37.874      6.826   261.6574     1.8278     4.6098     0.0213      0.004      0.247      0.358        144 5.6354e+02 0.0000e+00
      0.243    13.9566     5.0399     48.761  29.458186     37.772      6.826   261.3545     1.8520     4.6635     0.0213      0.009      0.239      0.346        145 4.2854e+02 0.0000e+00
      0.232    13.9074     5.0377     48.748  29.410507     37.704      6.828   261.7709     1.8722     4.5292     0.0212      0.010      0.231      0.334        146 2.4875e+02 0.0000e+00
      0.231    13.9001     5.0390     48.774  29.414129     37.741      6.825   261.8845     1.8439     4.3143     0.0212      0.008      0.229      0.333        147 3.0623e+02 0.0000e+00
      0.239    13.9048     5.0541     48.925  29.542642     37.971      6.823   262.0738     1.8318     4.4083     0.0213      0.004      0.233      0.338        148 2.5853e+02 0.0000e+00
      0.244    13.9010     5.0620     48.973  29.547087     37.976      6.823   261.7331     1.8439     4.4218     0.0213     -0.002      0.236      0.342        149 3.1266e+02 0.0000e+00
      0.238    13.8984     5.0806     49.127  29.467903     37.864      6.818   261.7709     1.8601     4.4218     0.0213     -0.008      0.231      0.335        150 9.8048e+02 0.0000e+00
      0.226    13.8975     5.0951     49.267  29.403988     37.796      6.814   261.7709     1.8439     4.3546     0.0212     -0.011      0.220      0.320        151 1.2377e+03 0.0000e+00
      0.210    13.8920     5.1154     49.471  29.359780     37.726      6.815   262.1495     1.7914     4.5292     0.0212     -0.014      0.207      0.300        152 7.5859e+02 0.0000e+00
      0.197    13.8761     5.1276     49.596  29.345022     37.728      6.813   262.0738     1.7833     4.6232     0.0212     -0.017      0.194      0.283        153 6.9874e+02 0.0000e+00
      0.187    13.8646     5.1447     49.751  29.333408     37.696      6.812   261.8845     1.7833     4.5963     0.0212     -0.023      0.189      0.275        154 9.8594e+02 0.0000e+00
      0.197    13.8632     5.1615     49.903  29.463185     37.893      6.813   261.9224     1.7752     4.5158     0.0213     -0.027      0.198      0.287        155 6.0076e+02 0.0000e+00
      0.224    13.8698     5.1795     50.075  29.598617     38.083      6.804   262.4524     1.7792     4.5829     0.0213     -0.022      0.213      0.310        156 4.9669e+02 0.0000e+00
      0.231    13.8828     5.1945     50.224  29.550317     38.013      6.794   262.8688     1.7752     4.5829     0.0213     -0.011      0.221      0.321        157 6.5814e+02 0.0000e+00
      0.222    13.8860     5.2076     50.356  29.463995     37.898      6.789   262.6417     1.7954     4.5292     0.0213     -0.001      0.217      0.314        158 5.4613e+02 0.0000e+00
      0.211    13.8616     5.2057     50.343  29.409543     37.814      6.789   262.4524     1.7873     4.4755     0.0212      0.006      0.208      0.302        159 7.6834e+02 0.0000e+00
      0.204    13.8381     5.2226     50.510  29.410529     37.809      6.790   262.7931     1.8358     4.5560     0.0212      0.008      0.203      0.295        160 7.0520e+02 0.0000e+00
      0.208    13.8369     5.2205     50.491  29.492417     37.943      6.790   262.7931     1.8520     4.5560     0.0213      0.008      0.206      0.299        161 1.0617e+03 0.0000e+00
      0.218    13.8445     5.2134     50.425  29.544841     38.038      6.788   262.5281     1.8197     4.5426     0.0213      0.006      0.214      0.310        162 1.5592e+03 0.0000e+00
      0.228    13.8494     5.2045     50.342  29.552843     38.038      6.790   262.5281     1.8763     4.6366     0.0213      0.003      0.223      0.323        163 5.6649e+02 0.0000e+00
      0.236    13.8412     5.1928     50.235  29.541758     38.031      6.787   262.7174     1.9127     4.6098     0.0213      0.002      0.229      0.332        164 8.7370e+02 0.0000e+00
      0.237    13.8308     5.1905     50.221  29.469685     37.918      6.791   262.6417     1.9046     4.5560     0.0213      0.007      0.230      0.334        165 1.0974e+03 0.0000e+00
      0.232    13.8296     5.1756     50.085  29.464639     37.926      6.794   262.9824     1.9005     4.6232     0.0213      0.013      0.227      0.329        166 1.7742e+03 0.0000e+00
      0.225    13.8327     5.1760     50.094  29.429442     37.901      6.792   263.3231     1.9208     4.5829     0.0212      0.014      0.222      0.320        167 3.2586e+03 0.0000e+00
      0.219    13.8375     5.1481     49.826  29.365241     37.794      6.798   263.0202     2.0138     4.5829     0.0212      0.010      0.217      0.313        168 1.4369e+03 0.0000e+00
      0.219    13.8425     5.1437     49.787  29.455587     37.935      6.798   263.2474     1.9733     4.6366     0.0213      0.002      0.215      0.311        169 4.6515e+02 0.0000e+00
      0.219    13.8459     5.1482     49.844  29.465256     37.930      6.800   263.4367     1.9612     4.6098     0.0213     -0.005      0.215      0.312        170 7.5342e+02 0.0000e+00
      0.219    13.8476     5.1300     49.786  29.412505     37.853      6.798   263.4367     1.9895     4.4755     0.0212     -0.009      0.215      0.312        171 7.5955e+02 0.0000e+00
      0.220    13.8492     5.1253     49.953  29.461933     37.922      6.795   263.4367     1.9895     4.5829     0.0213     -0.010      0.217      0.314        172 5.9058e+02 0.0000e+00
      0.224    13.8519     5.2011     50.841  29.551992     38.028      6.795   266.3517     2.0016     4.5292     0.0213     -0.007      0.222      0.322        173 4.6155e+02 0.0000e+00
      0.237    13.8570     5.3678     52.553  29.596927     38.098      6.794   266.2760     1.9652     4.5560     0.0213      0.001      0.232      0.337        174 6.1246e+02 0.0000e+00
      0.249    13.8647     5.5976     54.846  29.613562     38.096      6.794   267.6767     1.9935     4.5023     0.0213      0.011      0.243      0.353        175 4.2351e+02 0.0000e+00
      0.257    13.8729     5.8752     57.590  29.590588     38.091      6.794   267.2224     1.9895     4.6232     0.0213      0.019      0.250      0.363        176 3.7388e+02 0.0000e+00
      0.260    13.8767     6.1473     60.274  29.566214     38.011      6.792   266.9195     1.7873     4.5829     0.0213      0.024      0.253      0.367        177 7.1628e+02 0.0000e+00
      0.257    13.8790     6.4099     62.856  29.584592     38.075      6.794   266.6545     1.7954     4.6500     0.0213      0.025      0.252      0.366        178 1.1198e+03 0.0000e+00
      0.254    13.8816     6.6352     65.066  29.567714     37.999      6.790   266.1245     1.7671     4.5963     0.0213      0.023      0.251      0.364        179 5.3487e+02 0.0000e+00
      0.257    13.8966     6.7918     66.598  29.557566     38.033      6.790   267.0710     1.7752     4.5292     0.0213      0.019      0.254      0.367        180 1.8856e+02 0.0000e+00
      0.265    14.0056     6.8894     67.554  29.686170     38.138      6.790   267.4874     1.9329     4.4755     0.0214      0.015      0.260      0.377        181 4.2876e+02 0.0000e+00
      0.272    14.1946     6.9148     67.807  30.059973     38.664      6.788   267.3360     1.9288     4.5560     0.0216      0.012      0.267      0.387        182 6.5766e+02 0.0000e+00
      0.279    14.3327     6.9042     67.709  30.248728     38.772      6.789   267.5631     1.9127     4.5292     0.0217      0.011      0.274      0.397        183 5.3075e+02 0.0000e+00
      0.287    14.4026     6.8925     67.601  30.192488     38.508      6.786   268.0553     1.9005     4.5963     0.0216      0.014      0.281      0.408        184 4.1518e+02 0.0000e+00
      0.293    14.4396     6.8383     67.081  30.248499     38.447      6.784   267.5631     1.9855     4.5426     0.0217      0.019      0.289      0.419        185 3.1151e+02 0.0000e+00
      0.302    14.4587     6.7929     66.646  30.297571     38.448      6.783   267.2602     1.9774     4.5829     0.0217      0.024      0.304      0.442        186 3.0440e+02 0.0000e+00
      0.337    14.4713     6.7683     66.411  30.249991     38.343      6.783   264.4967     1.9774     4.5963     0.0217      0.035      0.336      0.487        187 6.0707e+02 0.0000e+00
      0.386    14.4769     6.7354     66.090  30.189091     38.253      6.773   266.1624     1.9572     4.5560     0.0216      0.053      0.381      0.552        188 5.1042e+02 0.0000e+00
      0.446    14.4776     6.7155     65.894  30.195446     38.241      6.751   266.4274     2.0663     4.6098     0.0216      0.078      0.429      0.622        189 3.8646e+02 0.0000e+00
      0.482    14.4753     6.6978     65.721  30.242079     38.306      6.734   266.7302     2.0663     4.5560     0.0217      0.103      0.457      0.664        190 3.4307e+02 0.0000e+00
      0.473    14.4745     6.6858     65.604  30.190356     38.235      6.730   266.4274     2.0623     4.4755     0.0216      0.114      0.450      0.654        191 3.3068e+02 0.0000e+00
      0.425    14.4772     6.6774     65.523  30.200511     38.237      6.731   266.1624     2.0299     4.5963     0.0216      0.102      0.410      0.594        192 3.4291e+02 0.0000e+00
      0.358    14.4813     6.6697     65.450  30.288742     38.379      6.731   265.5567     2.0259     4.5023     0.0217      0.065      0.347      0.504        193 2.0463e+02 0.0000e+00
      0.278    14.4861     6.6600     65.359  30.258459     38.306      6.733   264.8374     2.3494     4.6366     0.0217      0.005      0.276      0.400        194 5.0042e+02 0.0000e+00
      0.207    14.4933     6.6534     65.298  30.238198     38.302      6.734   265.2917     2.3170     4.5292     0.0217     -0.070      0.214      0.310        195 8.6997e+02 0.0000e+00
      0.170    14.5009     6.6436     65.204  30.254652     38.297      6.737   264.6102     2.2928     4.5426     0.0217     -0.137      0.176      0.255        196 7.9394e+02 0.0000e+00
      0.159    14.5053     6.6393     65.164  30.237978     38.290      6.738   264.6102     2.3130     4.5023     0.0217     -0.181      0.161      0.234        197 5.9979e+02 0.0000e+00
      0.163    14.5065     6.6348     65.122  30.258947     38.283      6.740   264.6481     1.9895     4.5560     0.0217     -0.188      0.161      0.234        198 6.5490e+02 0.0000e+00
      0.173    14.5060     6.6322     65.097  30.287856     38.349      6.739   264.6102     1.9855     4.5695     0.0217     -0.163      0.161      0.233        199 8.3899e+02 0.0000e+00
      0.155    14.5060     6.6313     65.090  30.261299     38.277      6.738   264.1938     1.9895     4.6903     0.0217     -0.125      0.142      0.205        200 9.7779e+02 0.0000e+00
      0.105    14.5068     6.6193     64.973  30.232693     38.278      6.741   266.1245     1.9733     4.6500     0.0217     -0.095      0.099      0.143        201 1.4241e+03 0.0000e+00
      0.044    14.5079     6.6201     64.980  30.264154     38.278      6.741   265.8217     1.6620     4.3009     0.0217     -0.082      0.047      0.067        202 1.4495e+03 0.0000e+00
     -0.006    14.5099     6.6059     64.840  30.281448     38.348      6.747   265.4052     1.6781     4.3546     0.0217     -0.088      0.006      0.007        203 1.3248e+03 0.0000e+00
     -0.020    14.5125     6.6015     64.799  30.270473     38.276      6.752   264.8374     1.6256     4.4218     0.0217     -0.102     -0.013     -0.020        204 1.4426e+03 0.0000e+00
     -0.017    14.5151     6.5898     64.684  30.277812     38.345      6.751   264.2695     1.6660     4.4621     0.0217     -0.113     -0.016     -0.023        205 1.3793e+03 0.0000e+00
     -0.014    14.5173     6.5843     64.630  30.272312     38.272      6.749   264.0424     1.7348     4.4083     0.0217     -0.114     -0.015     -0.022        206 1.5246e+03 0.0000e+00
     -0.017    14.5187     6.5821     64.608  30.277315     38.340      6.747   264.2317     1.7024     4.4352     0.0217     -0.103     -0.018     -0.026        207 1.3638e+03 0.0000e+00
     -0.025    14.5195     6.5826     64.611  30.271585     38.267      6.744   264.4588     1.7348     4.3412     0.0217     -0.079     -0.023     -0.033        208 8.0681e+02 0.0000e+00
     -0.027    14.5202     6.5892     64.673  30.279444     38.336      6.746   263.8152     1.7226     4.3278     0.0217     -0.049     -0.024     -0.034        209 1.1226e+03 0.0000e+00
     -0.020    14.5212     6.5901     64.682  30.267535     38.265      6.748   264.1560     1.6458     4.5695     0.0217     -0.021     -0.019     -0.029        210 1.5008e+03 0.0000e+00
     -0.014    14.5216     6.6069     64.847  30.286403     38.335      6.747   264.1181     1.6539     4.6098     0.0217     -0.004     -0.014     -0.021        211 1.4347e+03 0.0000e+00
     -0.010    14.5214     6.6087     64.872  30.315263     38.334      6.751   264.2317     1.6781     4.7038     0.0217      0.002     -0.010     -0.016        212 1.4475e+03 0.0000e+00
     -0.008    14.5217     6.6132     64.922  30.290921     38.334      6.755   264.6860     1.6660     4.6098     0.0217      0.004     -0.007     -0.011        213 1.4181e+03 0.0000e+00
     -0.004    14.5221     6.6179     64.968  30.257395     38.263      6.755   264.4967     1.6256     4.5158     0.0217      0.007     -0.004     -0.006        214 1.4274e+03 0.0000e+00
     -0.000    14.5223     6.6210     64.994  30.297684     38.334      6.756   265.7460     1.4921     6.8791     0.0217      0.011      0.001      0.001        215 1.4219e+03 0.0000e+00
      0.006    14.5227     6.6209     64.991  30.300085     38.333      6.756   266.1245     1.5043     6.8925     0.0217      0.016      0.008      0.012        216 1.4147e+03 0.0000e+00
      0.017    14.5225     6.6214     64.993  30.254407     38.262      6.755   266.7681     1.5124     6.9328     0.0217      0.019      0.018      0.027        217 1.4370e+03 0.0000e+00
      0.032    14.5209     6.6216     64.993  30.295227     38.333      6.759   266.5410     1.5407     6.8657     0.0217      0.022      0.033      0.048        218 1.4258e+03 0.0000e+00
      0.051    14.5196     6.6188     64.966  30.249285     38.262      6.752   267.0331     1.5892     4.5560     0.0217      0.029      0.053      0.078        219 1.4896e+03 0.0000e+00
      0.081    14.5190     6.6203     64.983  30.252280     38.263      6.744   267.1088     1.5932     4.7440     0.0217      0.041      0.082      0.120        220 1.7174e+03 0.0000e+00
      0.120    14.5194     6.6211     64.991  30.291502     38.336      6.738   267.3360     1.6013     4.5963     0.0217      0.059      0.118      0.171        221 1.4973e+03 0.0000e+00
      0.159    14.5237     6.6202     64.980  30.259778     38.265      6.727   268.1310     1.5851     4.5023     0.0217      0.078      0.154      0.223        222 1.0954e+03 0.0000e+00
      0.192    14.5283     6.6156     64.935  30.291761     38.336      6.720   267.6388     1.7469     4.8380     0.0217      0.097      0.185      0.268        223 9.1759e+02 0.0000e+00
      0.215    14.5281     6.6122     64.902  30.311000     38.331      6.713   265.8974     1.7186     4.8380     0.0217      0.110      0.208      0.301        224 5.4803e+02 0.0000e+00
      0.229    14.5253     6.6070     64.853  30.295136     38.327      6.712   266.5410     1.7226     4.7843     0.0217      0.115      0.223      0.323        225 4.6738e+02 0.0000e+00
      0.240    14.5233     6.6081     64.863  30.252201     38.256      6.711   267.8660     1.7509     4.7843     0.0217      0.111      0.234      0.340        226 5.6005e+02 0.0000e+00
      0.249    14.5217     6.6014     64.796  30.245827     38.259      6.711   267.3738     1.8480     4.6098     0.0217      0.101      0.244      0.354        227 6.0210e+02 0.0000e+00
      0.258    14.5204     6.6096     64.873  30.243768     38.261      6.716   265.8595     1.8399     4.6232     0.0217      0.085      0.251      0.365        228 8.1781e+02 0.0000e+00
      0.262    14.5210     6.6109     64.867  30.254766     38.263      6.719   265.6324     1.8439     4.5695     0.0217      0.066      0.253      0.367        229 7.9157e+02 0.0000e+00
      0.254    14.5223     6.6078     64.815  30.291443     38.335      6.720   265.6324     1.8884     4.5695     0.0217      0.045      0.247      0.358        230 1.2701e+03 0.0000e+00
      0.241    14.5224     6.6129     64.862  30.257425     38.263      6.725   265.4810     1.8601     4.5963     0.0217      0.026      0.236      0.343        231 1.1992e+03 0.0000e+00
      0.229    14.5214     6.6073     64.820  30.297100     38.333      6.724   265.7081     1.8520     4.6769     0.0217      0.009      0.228      0.331        232 6.7915e+02 0.0000e+00
      0.229    14.5209     6.5966     64.725  30.301370     38.333      6.726   265.7838     1.8439     4.6366     0.0217     -0.004      0.229      0.332        233 9.4938e+02 0.0000e+00
      0.242    14.5217     6.5964     64.726  30.252111     38.263      6.728   265.9731     1.8844     4.6635     0.0217     -0.009      0.240      0.348        234 6.0657e+02 0.0000e+00
      0.262    14.5227     6.5868     64.624  30.299100     38.334      6.728   266.0488     1.8642     4.5560     0.0217     -0.006      0.260      0.377        235 4.0283e+02 0.0000e+00
      0.289    14.5222     6.5893     64.642  30.302195     38.334      6.728   266.6545     1.9652     4.5426     0.0217      0.006      0.291      0.422        236 6.0394e+02 0.0000e+00
      0.340    14.5214     6.5874     64.622  30.248259     38.262      6.716   267.4117     1.9855     4.5560     0.0217      0.031      0.333      0.483        237 4.8293e+02 0.0000e+00
      0.389    14.5179     6.5777     64.528  30.247619     38.262      6.707   267.4874     1.9814     4.5292     0.0217      0.065      0.377      0.546        238 3.6147e+02 0.0000e+00
      0.421    14.5050     6.5781     64.535  30.243690     38.263      6.706   267.9038     1.9935     4.6903     0.0217      0.096      0.412      0.597        239 3.1544e+02 0.0000e+00
      0.453    14.4899     6.5831     64.576  30.193848     38.195      6.705   268.2445     2.1068     4.7440     0.0216      0.121      0.437      0.634        240 4.0087e+02 0.0000e+00
      0.464    14.4880     6.5718     64.450  30.191047     38.208      6.703   268.3203     2.1472     4.7575     0.0216      0.130      0.446      0.647        241 3.7773e+02 0.0000e+00
      0.449    14.4970     6.5637     64.358  30.247181     38.294      6.707   268.0931     2.1391     4.8515     0.0217      0.120      0.440      0.637        242 5.2859e+02 0.0000e+00
      0.434    14.5048     6.5623     64.337  30.301901     38.366      6.711   268.3960     2.0906     4.8112     0.0217      0.097      0.430      0.624        243 6.4933e+02 0.0000e+00
      0.433    14.5062     6.5586     64.294  30.300854     38.357      6.715   268.6231     2.1189     4.5829     0.0217      0.067      0.430      0.624        244 5.4961e+02 0.0000e+00
      0.449    14.5013     6.5592     64.298  30.248480     38.279      6.720   268.5474     2.0946     4.5829     0.0217      0.039      0.441      0.641        245 6.6787e+02 0.0000e+00
      0.467    14.4962     6.5615     64.317  30.248474     38.277      6.719   269.2667     2.1108     4.5560     0.0217      0.021      0.456      0.661        246 5.8899e+02 0.0000e+00
      0.476    14.4952     6.5601     64.299  30.241560     38.283      6.720   269.3045     2.1027     4.5829     0.0217      0.014      0.466      0.676        247 5.0531e+02 0.0000e+00
      0.482    14.4965     6.5612     64.306  30.197784     38.217      6.719   269.4560     2.1391     4.5963     0.0216      0.014      0.476      0.691        248 3.6750e+02 0.0000e+00
      0.499    14.4977     6.5601     64.292  30.243650     38.288      6.721   269.6453     2.1229     4.5695     0.0217      0.024      0.494      0.717        249 3.1285e+02 0.0000e+00
      0.533    14.4925     6.5505     64.198  30.243782     38.287      6.724   270.0238     2.1229     4.5695     0.0217      0.043      0.524      0.760        250 4.9731e+02 0.0000e+00
      0.571    14.4817     6.5453     64.148  30.197621     38.215      6.720   270.2888     2.1149     4.5829     0.0216      0.063      0.560      0.812        251 3.0058e+02 0.0000e+00
      0.609    14.4730     6.5352     64.048  30.241797     38.291      6.718   270.3267     2.1674     5.0395     0.0217      0.080      0.594      0.861        252 2.3754e+02 0.0000e+00
      0.635    14.4671     6.5323     64.020  30.248111     38.301      6.719   270.5160     2.1917     4.9723     0.0217      0.092      0.620      0.899        253 3.0059e+02 0.0000e+00
      0.653    14.4628     6.5314     64.011  30.189767     38.239      6.715   270.9703     2.1310     4.9723     0.0216      0.101      0.636      0.924        254 2.8071e+02 0.0000e+00
      0.659    14.4613     6.5339     64.038  30.195805     38.245      6.710   271.0081     2.1998     5.0932     0.0216      0.104      0.646      0.938        255 2.6282e+02 0.0000e+00
      0.664    14.4592     6.5357     64.057  30.181298     38.249      6.710   270.8188     2.3656     4.6366     0.0216      0.099      0.656      0.951        256 2.5886e+02 0.0000e+00
      0.684    14.4556     6.5408     64.106  30.148521     38.180      6.710   271.4245     2.3939     4.6769     0.0216      0.089      0.670      0.972        257 2.6330e+02 0.0000e+00
      0.702    14.4528     6.5423     64.120  30.177294     38.252      6.712   271.1974     2.3575     4.5695     0.0216      0.075      0.688      0.999        258 2.4222e+02 0.0000e+00
      0.722    14.4510     6.5420     64.117  30.204793     38.256      6.712   271.5381     2.3656     4.5695     0.0216      0.065      0.708      1.027        259 2.4626e+02 0.0000e+00
      0.743    14.4509     6.5449     64.145  30.232903     38.330      6.715   271.9167     2.3696     4.6098     0.0217      0.060      0.728      1.057        260 2.4121e+02 0.0000e+00
      0.763    14.4515     6.5382     64.079  30.201614     38.261      6.713   271.9924     2.3979     4.5829     0.0216      0.062      0.750      1.088        261 2.6868e+02 0.0000e+00
      0.790    14.4513     6.5303     64.001  30.184432     38.261      6.715   272.9010     2.3656     4.5963     0.0216      0.069      0.774      1.122        262 2.1848e+02 0.0000e+00
      0.815    14.4510     6.5235     63.934  30.194987     38.260      6.710   272.3710     2.3413     4.6232     0.0216      0.078      0.797      1.156        263 2.2532e+02 0.0000e+00
      0.833    14.4513     6.5147     63.848  30.188480     38.260      6.709   273.0903     2.3575     4.5829     0.0216      0.084      0.819      1.188        264 2.5589e+02 0.0000e+00
      0.859    14.4530     6.5148     63.850  30.192530     38.261      6.708   273.5067     2.5111     4.5963     0.0216      0.087      0.842      1.220        265 2.2015e+02 0.0000e+00
      0.882    14.4539     6.5154     63.854  30.189947     38.260      6.705   273.5067     2.5071     4.6635     0.0216      0.089      0.862      1.249        266 2.0806e+02 0.0000e+00
      0.894    14.4533     6.5124     63.822  30.191695     38.259      6.702   273.6581     2.4788     4.5829     0.0216      0.088      0.875      1.269        267 2.1283e+02 0.0000e+00
      0.902    14.4527     6.5108     63.805  30.190354     38.258      6.703   273.6581     2.5030     4.5158     0.0216      0.082      0.884      1.282        268 2.0349e+02 0.0000e+00
      0.909    14.4524     6.5211     63.905  30.191616     38.258      6.703   273.9988     2.5960     4.5963     0.0216      0.074      0.893      1.294        269 1.9231e+02 0.0000e+00
      0.918    14.4523     6.5216     63.908  30.190125     38.259      6.702   274.2260     2.6527     4.6098     0.0216      0.063      0.900      1.304        270 1.9316e+02 0.0000e+00
      0.924    14.4520     6.5287     63.978  30.192209     38.259      6.704   273.9988     2.6769     4.5560     0.0216      0.053      0.905      1.312        271 1.9570e+02 0.0000e+00
      0.926    14.4516     6.5308     63.998  30.189021     38.259      6.705   274.2260     2.6284     4.5426     0.0216      0.043      0.908      1.316        272 1.8753e+02 0.0000e+00
      0.927    14.4514     6.5305     63.994  30.194091     38.260      6.707   274.2260     2.6850     4.7038     0.0216      0.031      0.911      1.321        273 1.7719e+02 0.0000e+00
      0.935    14.4514     6.5297     63.987  30.245202     38.331      6.703   274.4910     2.6971     4.6098     0.0217      0.025      0.919      1.333        274 2.0150e+02 0.0000e+00
      0.950    14.4516     6.5213     63.904  30.244019     38.331      6.705   274.8696     2.7012     4.6232     0.0217      0.024      0.931      1.350        275 1.8068e+02 0.0000e+00
      0.961    14.4509     6.5134     63.826  30.195564     38.260      6.705   275.2860     2.7012     4.5023     0.0216      0.026      0.945      1.370        276 1.8825e+02 0.0000e+00
      0.979    14.4491     6.5081     63.773  30.186899     38.260      6.708   275.5131     2.7052     4.5560     0.0216      0.031      0.963      1.396        277 2.0081e+02 0.0000e+00
      1.004    14.4480     6.5105     63.796  30.195500     38.261      6.705   275.3617     2.9438     4.5829     0.0216      0.039      0.988      1.433        278 1.7196e+02 0.0000e+00
      1.041    14.4473     6.4972     63.664  30.184860     38.262      6.701   276.4974     2.9883     4.5023     0.0216      0.054      1.023      1.483        279 1.7333e+02 0.0000e+00
      1.083    14.4465     6.5023     63.713  30.200141     38.263      6.692   276.9138     2.9276     4.4889     0.0216      0.074      1.062      1.540        280 1.7153e+02 0.0000e+00
      1.124    14.4460     6.5067     63.754  30.235788     38.335      6.681   277.1788     2.9600     4.5560     0.0217      0.095      1.097      1.591        281 1.6105e+02 0.0000e+00
      1.148    14.4457     6.5019     63.706  30.199802     38.265      6.675   277.0653     2.9519     4.6098     0.0216      0.110      1.119      1.623        282 1.4964e+02 0.0000e+00
      1.151    14.4456     6.4978     63.664  30.185622     38.265      6.670   276.8003     2.9559     4.6098     0.0216      0.113      1.127      1.635        283 1.6622e+02 0.0000e+00
      1.150    14.4456     6.4941     63.626  30.194132     38.266      6.673   277.0653     2.9640     4.5426     0.0216      0.107      1.132      1.641        284 1.6607e+02 0.0000e+00
      1.161    14.4453     6.4863     63.549  30.189213     38.266      6.675   276.8381     2.9438     4.5963     0.0216      0.095      1.144      1.659        285 1.3835e+02 0.0000e+00
      1.187    14.4446     6.4807     63.494  30.191744     38.266      6.677   277.2546     3.0247     4.7038     0.0216      0.082      1.171      1.699        286 1.2860e+02 0.0000e+00
      1.235    14.4443     6.4711     63.400  30.190981     38.266      6.671   278.4660     3.0409     4.5560     0.0216      0.076      1.211      1.757        287 1.3131e+02 0.0000e+00
      1.282    14.4435     6.4683     63.374  30.190164     38.267      6.663   278.6174     3.0166     4.6232     0.0216      0.080      1.251      1.815        288 1.2827e+02 0.0000e+00
      1.309    14.4425     6.4679     63.370  30.192765     38.267      6.661   278.6174     3.0489     4.5829     0.0216      0.088      1.279      1.855        289 1.2418e+02 0.0000e+00
      1.320    14.4422     6.4752     63.440  30.187745     38.268      6.661   278.3903     3.1986     4.6366     0.0216      0.098      1.294      1.877        290 1.1961e+02 0.0000e+00
      1.329    14.4409     6.4796     63.481  30.196410     38.269      6.663   278.6931     3.1339     4.5695     0.0216      0.106      1.305      1.894        291 1.1339e+02 0.0000e+00
      1.344    14.4393     6.4843     63.525  30.181981     38.269      6.664   278.6553     3.1379     4.6366     0.0216      0.106      1.319      1.914        292 1.1356e+02 0.0000e+00
      1.362    14.4381     6.4870     63.550  30.146400     38.199      6.670   278.9581     3.1379     4.5963     0.0216      0.098      1.338      1.941        293 1.1386e+02 0.0000e+00
      1.387    14.4371     6.4941     63.618  30.181388     38.272      6.668   279.4124     3.1258     4.7709     0.0216      0.086      1.359      1.971        294 1.0902e+02 0.0000e+00
      1.408    14.4367     6.4951     63.628  30.197742     38.273      6.668   279.0339     3.0934     4.7575     0.0216      0.074      1.378      1.998        295 1.0312e+02 0.0000e+00
      1.419    14.4366     6.4863     63.542  30.185352     38.274      6.671   279.1096     3.0813     4.8112     0.0216      0.066      1.390      2.016        296 1.0312e+02 0.0000e+00
      1.425    14.4369     6.4876     63.555  30.196808     38.274      6.670   279.6017     3.0934     4.8112     0.0216      0.063      1.395      2.025        297 1.0077e+02 0.0000e+00
      1.424    14.4376     6.4825     63.503  30.183485     38.275      6.671   279.1853     3.0570     4.7306     0.0216      0.059      1.400      2.032        298 1.0543e+02 0.0000e+00
      1.436    14.4377     6.4765     63.446  30.201932     38.274      6.672   279.0339     3.0328     4.6098     0.0216      0.054      1.414      2.052        299 1.0306e+02 0.0000e+00
      1.468    14.4363     6.4720     63.402  30.233153     38.344      6.673   279.4503     3.0125     4.5560     0.0217      0.053      1.444      2.094        300 9.0142e+01 0.0000e+00
      1.513    14.4347     6.4686     63.368  30.203933     38.273      6.669   279.6774     3.0287     4.6098     0.0216      0.059      1.483      2.151        301 8.3782e+01 0.0000e+00
      1.556    14.4332     6.4617     63.301  30.178994     38.275      6.664   280.0939     3.0328     4.5426     0.0216      0.072      1.523      2.209        302 7.9979e+01 0.0000e+00
      1.590    14.4320     6.4592     63.276  30.204887     38.276      6.657   280.4724     3.0692     4.4755     0.0216      0.089      1.555      2.255        303 7.6903e+01 0.0000e+00
      1.611    14.4316     6.4583     63.267  30.171710     38.278      6.658   280.5103     3.0651     4.5292     0.0216      0.105      1.575      2.285        304 7.5744e+01 0.0000e+00
      1.619    14.4313     6.4487     63.170  30.160982     38.208      6.657   280.3210     3.1379     4.6098     0.0216      0.113      1.585      2.299        305 7.4870e+01 0.0000e+00
      1.617    14.4314     6.4513     63.192  30.218239     38.350      6.655   280.0560     3.0611     4.6366     0.0217      0.110      1.589      2.304        306 7.3299e+01 0.0000e+00
      1.624    14.4312     6.4492     63.172  30.159756     38.209      6.657   280.4346     3.0853     4.6232     0.0216      0.096      1.599      2.319        307 7.0757e+01 0.0000e+00
      1.649    14.4308     6.4406     63.088  30.174461     38.280      6.658   280.3589     3.0570     4.6500     0.0216      0.079      1.623      2.354        308 6.5941e+01 0.0000e+00
      1.692    14.4313     6.4421     63.097  30.199941     38.280      6.654   280.8131     3.0853     4.6098     0.0216      0.070      1.661      2.409        309 6.2365e+01 0.0000e+00
      1.740    14.4313     6.4371     63.043  30.187349     38.280      6.653   281.0781     3.0934     4.6769     0.0216      0.073      1.701      2.466        310 5.8997e+01 0.0000e+00
      1.770    14.4310     6.4273     62.945  30.190130     38.280      6.649   281.2674     2.9883     4.7440     0.0216      0.084      1.730      2.508        311 5.7486e+01 0.0000e+00
      1.781    14.4310     6.4263     62.934  30.196480     38.280      6.649   280.8131     2.9438     4.8112     0.0216      0.095      1.745      2.531        312 5.7848e+01 0.0000e+00
      1.788    14.4313     6.4230     62.900  30.179447     38.280      6.651   281.6081     2.9559     4.8112     0.0216      0.101      1.755      2.546        313 5.6811e+01 0.0000e+00
      1.801    14.4307     6.4159     62.830  30.152026     38.209      6.651   281.3431     2.9681     4.8112     0.0216      0.103      1.770      2.567        314 5.5782e+01 0.0000e+00
      1.825    14.4284     6.4080     62.752  30.230606     38.350      6.654   281.6839     2.8953     4.5963     0.0217      0.097      1.792      2.599        315 5.3474e+01 0.0000e+00
      1.856    14.4264     6.4077     62.749  30.200260     38.280      6.652   281.9489     2.8751     4.6232     0.0216      0.089      1.819      2.638        316 5.1127e+01 0.0000e+00
      1.882    14.4267     6.4049     62.722  30.130490     38.211      6.651   281.5324     2.8831     4.5963     0.0216      0.081      1.845      2.677        317 5.0015e+01 0.0000e+00
      1.907    14.4265     6.4080     62.750  30.198830     38.285      6.652   281.8353     2.8993     4.5695     0.0216      0.078      1.874      2.718        318 4.6759e+01 0.0000e+00
      1.947    14.4231     6.4095     62.757  30.233815     38.355      6.650   282.4410     2.8629     4.8112     0.0217      0.087      1.908      2.767        319 4.4133e+01 0.0000e+00
      1.982    14.4197     6.4134     62.786  30.146256     38.213      6.643   282.4031     2.8346     4.8783     0.0216      0.101      1.941      2.816        320 4.3236e+01 0.0000e+00
      2.009    14.4179     6.4177     62.823  30.129894     38.217      6.643   282.5167     2.8144     4.7575     0.0216      0.112      1.970      2.857        321 4.1029e+01 0.0000e+00
      2.037    14.4167     6.4253     62.896  30.194877     38.291      6.638   282.3653     2.8144     4.8112     0.0216      0.118      1.996      2.894        322 3.9717e+01 0.0000e+00
      2.059    14.4157     6.4390     63.030  30.183988     38.293      6.639   282.4031     2.7901     4.8515     0.0216      0.118      2.016      2.923        323 3.9279e+01 0.0000e+00
      2.070    14.4151     6.4480     63.118  30.143445     38.223      6.638   282.5546     3.0206     4.6366     0.0216      0.112      2.029      2.942        324 3.8827e+01 0.0000e+00
      2.077    14.4149     6.4622     63.256  30.186033     38.295      6.639   282.3653     3.0409     4.5695     0.0216      0.101      2.038      2.955        325 3.8744e+01 0.0000e+00
      2.087    14.4148     6.4759     63.391  30.190291     38.295      6.642   282.5167     3.0085     4.5560     0.0216      0.087      2.048      2.970        326 3.7655e+01 0.0000e+00
      2.100    14.4150     6.4836     63.463  30.138145     38.225      6.641   282.3274     3.0125     4.5829     0.0216      0.072      2.064      2.993        327 3.6595e+01 0.0000e+00
      2.124    14.4131     6.4898     63.521  30.191627     38.296      6.643   282.6682     2.9155     4.5695     0.0216      0.063      2.089      3.030        328 3.4838e+01 0.0000e+00
      2.165    14.4075     6.4923     63.544  30.183036     38.295      6.638   283.3496     2.9074     4.6366     0.0216      0.065      2.124      3.080        329 3.2413e+01 0.0000e+00
      2.205    14.4014     6.4957     63.578  30.089535     38.155      6.633   283.8796     2.8831     4.5829     0.0216      0.074      2.161      3.134        330 3.0857e+01 0.0000e+00
      2.238    14.3978     6.4949     63.569  30.070782     38.161      6.628   283.9174     2.8548     4.5158     0.0216      0.087      2.192      3.179        331 2.9601e+01 0.0000e+00
      2.264    14.3963     6.5025     63.642  30.087772     38.167      6.626   283.8417     3.0247     4.8112     0.0216      0.102      2.215      3.214        332 2.8948e+01 0.0000e+00
      2.276    14.3959     6.5105     63.719  30.068394     38.170      6.626   284.1067     3.0247     4.8380     0.0216      0.110      2.230      3.234        333 2.8839e+01 0.0000e+00
      2.281    14.3960     6.5172     63.786  30.094901     38.172      6.624   284.1067     3.0247     4.9320     0.0216      0.108      2.239      3.246        334 2.8470e+01 0.0000e+00
      2.291    14.3958     6.5234     63.846  30.114087     38.243      6.629   284.0689     3.0085     4.7709     0.0216      0.099      2.249      3.261        335 2.7672e+01 0.0000e+00
      2.308    14.3954     6.5278     63.888  30.044517     38.101      6.631   284.0310     2.9276     4.8112     0.0216      0.085      2.265      3.285        336 2.6943e+01 0.0000e+00
      2.330    14.3939     6.5351     63.959  30.062878     38.172      6.633   284.1446     2.9559     4.7440     0.0216      0.071      2.285      3.315        337 2.6253e+01 0.0000e+00
      2.354    14.3916     6.5393     64.002  30.091238     38.173      6.635   284.0689     2.9640     4.8380     0.0216      0.064      2.308      3.348        338 2.5454e+01 0.0000e+00
      2.377    14.3906     6.5398     64.009  30.068524     38.174      6.634   284.6746     2.9357     4.8112     0.0216      0.063      2.330      3.380        339 2.4691e+01 0.0000e+00
      2.398    14.3907     6.5426     64.035  30.031844     38.105      6.635   284.3339     2.9519     4.8246     0.0216      0.067      2.352      3.412        340 2.4083e+01 0.0000e+00
      2.421    14.3902     6.5405     64.015  30.077587     38.177      6.636   284.1446     2.9802     4.6366     0.0216      0.075      2.377      3.447        341 2.3052e+01 0.0000e+00
      2.452    14.3891     6.5348     63.958  30.070901     38.177      6.635   284.7503     2.9438     4.6098     0.0216      0.085      2.406      3.491        342 2.1930e+01 0.0000e+00
      2.488    14.3886     6.5362     63.970  30.040165     38.107      6.633   284.5989     2.9721     4.5292     0.0216      0.095      2.441      3.541        343 2.0835e+01 0.0000e+00
      2.528    14.3888     6.5383     63.989  29.997235     38.108      6.626   285.0153     2.9640     4.6500     0.0216      0.104      2.476      3.591        344 1.9679e+01 0.0000e+00
      2.557    14.3887     6.5378     63.983  29.976075     38.002      6.622   284.9017     2.9964     4.6232     0.0215      0.111      2.504      3.632        345 1.9245e+01 0.0000e+00
      2.576    14.3883     6.5350     63.954  30.036848     38.179      6.620   285.2046     3.0409     4.5560     0.0216      0.115      2.528      3.667        346 1.8556e+01 0.0000e+00
      2.603    14.3882     6.5403     64.009  29.980905     38.002      6.619   285.2424     3.0247     4.5023     0.0215      0.117      2.556      3.707        347 1.7521e+01 0.0000e+00
      2.642    14.3891     6.5409     64.012  29.986395     38.109      6.614   285.9239     2.9762     4.6232     0.0216      0.120      2.590      3.757        348 1.6822e+01 0.0000e+00
      2.677    14.3902     6.5446     64.045  29.970715     38.002      6.612   286.3403     3.2066     4.5963     0.0215      0.122      2.625      3.807        349 1.6075e+01 0.0000e+00
      2.710    14.3903     6.5418     64.016  30.000417     38.108      6.610   286.2646     3.2228     4.6366     0.0216      0.123      2.657      3.854        350 1.5423e+01 0.0000e+00
      2.742    14.3898     6.5411     64.008  30.097684     38.178      6.601   286.6810     3.2471     4.5023     0.0216      0.122      2.687      3.898        351 1.4956e+01 0.0000e+00
      2.768    14.3890     6.5384     63.977  30.057224     38.178      6.603   286.6810     3.2390     4.6635     0.0216      0.122      2.714      3.936        352 1.4456e+01 0.0000e+00
      2.791    14.3880     6.5555     64.139  29.961817     38.001      6.605   286.5674     3.2147     4.5426     0.0215      0.121      2.736      3.968        353 1.4103e+01 0.0000e+00
      2.811    14.3873     6.5555     64.129  29.919909     38.002      6.605   286.4917     3.2228     4.5829     0.0215      0.119      2.755      3.997        354 1.3748e+01 0.0000e+00
      2.829    14.3861     6.5642     64.204  29.961127     38.003      6.604   286.4160     3.2066     4.5426     0.0215      0.111      2.775      4.025        355 1.3409e+01 0.0000e+00
      2.848    14.3857     6.5829     64.379  29.999476     38.110      6.604   286.5296     3.2107     4.5023     0.0216      0.100      2.798      4.058        356 1.2905e+01 0.0000e+00
      2.883    14.3866     6.6067     64.607  29.990786     38.040      6.607   286.6810     3.2754     4.5560     0.0215      0.095      2.830      4.104        357 1.2115e+01 0.0000e+00
      2.926    14.3852     6.6305     64.835  30.001593     38.111      6.604   287.2867     3.2875     4.5426     0.0216      0.097      2.867      4.158        358 1.1491e+01 0.0000e+00
      2.962    14.3828     6.6583     65.105  29.956378     38.004      6.602   287.3624     3.2754     4.5560     0.0215      0.103      2.900      4.206        359 1.1061e+01 0.0000e+00
      2.984    14.3821     6.6892     65.412  30.017405     38.112      6.603   287.3246     3.2673     4.6366     0.0216      0.109      2.923      4.238        360 1.0937e+01 0.0000e+00
      2.994    14.3811     6.7210     65.726  30.014597     38.114      6.601   287.5517     3.2794     4.5560     0.0216      0.110      2.936      4.258        361 1.0828e+01 0.0000e+00
      3.003    14.3779     6.7614     66.122  29.841271     37.866      6.602   287.3246     3.3360     4.7306     0.0214      0.106      2.944      4.270        362 1.0751e+01 0.0000e+00
      3.008    14.3732     6.7908     66.408  29.877302     37.938      6.606   287.5896     3.3441     4.8380     0.0215      0.095      2.952      4.281        363 1.0721e+01 0.0000e+00
      3.017    14.3666     6.8085     66.583  29.910458     37.977      6.607   287.5139     3.3239     4.8112     0.0215      0.081      2.963      4.297        364 1.0461e+01 0.0000e+00
      3.037    14.3593     6.8178     66.676  29.829661     37.875      6.609   287.2867     3.3441     4.8112     0.0214      0.065      2.982      4.324        365 1.0121e+01 0.0000e+00
      3.065    14.3541     6.8160     66.652  29.770301     37.810      6.611   287.6275     3.3846     4.2741     0.0214      0.056      3.008      4.363        366 9.6643e+00 0.0000e+00
      3.100    14.3503     6.8120     66.606  29.776780     37.817      6.610   287.6275     3.4048     4.3143     0.0214      0.058      3.040      4.410        367 9.1730e+00 0.0000e+00
      3.135    14.3468     6.8052     66.538  29.762300     37.822      6.607   288.3089     3.3846     4.3949     0.0214      0.070      3.073      4.458        368 8.7482e+00 0.0000e+00
      3.168    14.3459     6.7942     66.430  29.788324     37.826      6.603   288.1575     3.4210     4.4755     0.0214      0.086      3.103      4.501        369 8.4550e+00 0.0000e+00
      3.189    14.3487     6.7895     66.381  29.833347     37.936      6.605   287.9682     3.8132     4.6366     0.0215      0.100      3.125      4.533        370 8.2363e+00 0.0000e+00
      3.205    14.3514     6.7855     66.340  29.795222     37.830      6.604   288.0439     3.7970     4.5829     0.0214      0.107      3.140      4.555        371 8.1153e+00 0.0000e+00
      3.214    14.3517     6.7898     66.381  29.806121     37.899      6.606   288.2332     3.7970     4.5158     0.0214      0.105      3.150      4.569        372 8.1176e+00 0.0000e+00
      3.217    14.3509     6.7901     66.380  29.790133     37.825      6.607   288.2332     3.7930     4.5560     0.0214      0.094      3.156      4.578        373 8.0623e+00 0.0000e+00
      3.224    14.3523     6.7899     66.370  29.815117     37.896      6.610   288.3846     4.0477     4.3412     0.0214      0.077      3.165      4.591        374 7.9154e+00 0.0000e+00
      3.242    14.3530     6.7974     66.432  29.834330     37.896      6.612   288.2710     4.0518     4.3278     0.0214      0.063      3.184      4.618        375 7.5895e+00 0.0000e+00
      3.274    14.3492     6.8040     66.483  29.795873     37.859      6.610   288.0439     4.0477     4.2338     0.0214      0.056      3.212      4.659        376 7.2506e+00 0.0000e+00
      3.309    14.3447     6.8011     66.448  29.774025     37.823      6.610   288.7632     4.0356     4.4218     0.0214      0.059      3.243      4.704        377 7.0006e+00 0.0000e+00
      3.338    14.3431     6.8191     66.611  29.772570     37.827      6.611   288.4603     3.8294     4.4352     0.0214      0.069      3.271      4.745        378 6.7553e+00 0.0000e+00
      3.361    14.3429     6.8406     66.808  29.768034     37.831      6.607   288.6117     3.8577     4.4083     0.0214      0.081      3.294      4.778        379 6.5811e+00 0.0000e+00
      3.378    14.3416     6.8609     66.996  29.779672     37.833      6.608   288.7253     3.8577     4.3278     0.0214      0.090      3.311      4.802        380 6.4791e+00 0.0000e+00
      3.389    14.3397     6.8852     67.229  29.817390     37.904      6.608   288.8389     3.8577     4.3681     0.0214      0.095      3.326      4.824        381 6.3666e+00 0.0000e+00
      3.408    14.3389     6.9133     67.501  29.780394     37.834      6.613   288.4982     3.8658     4.3009     0.0214      0.094      3.346      4.854        382 6.0882e+00 0.0000e+00
      3.441    14.3364     6.9445     67.805  29.796062     37.872      6.610   289.0282     3.8536     4.4486     0.0214      0.091      3.376      4.896        383 5.7296e+00 0.0000e+00
      3.479    14.3310     6.9747     68.101  29.768243     37.837      6.608   289.5960     3.8415     4.3412     0.0214      0.090      3.409      4.945        384 5.4837e+00 0.0000e+00
      3.509    14.3228     6.9983     68.332  29.666765     37.697      6.605   289.5203     3.8374     4.4083     0.0214      0.092      3.438      4.987        385 5.3340e+00 0.0000e+00
      3.531    14.3145     7.0085     68.431  29.655500     37.703      6.604   289.7096     3.8455     4.3009     0.0214      0.096      3.462      5.021        386 5.1944e+00 0.0000e+00
      3.551    14.3087     7.0150     68.492  29.663664     37.710      6.604   289.6717     3.6070     4.5829     0.0214      0.100      3.484      5.053        387 5.0293e+00 0.0000e+00
      3.577    14.3005     7.0200     68.540  29.656608     37.719      6.600   289.5203     3.6150     4.5560     0.0214      0.104      3.511      5.092        388 4.8291e+00 0.0000e+00
      3.615    14.2913     7.0187     68.526  29.575333     37.617      6.600   290.1639     3.6150     4.5963     0.0213      0.110      3.545      5.141        389 4.5969e+00 0.0000e+00
      3.652    14.2848     7.0125     68.466  29.557262     37.590      6.600   290.2396     3.5908     4.5023     0.0213      0.113      3.579      5.190        390 4.4031e+00 0.0000e+00
      3.681    14.2813     7.0029     68.371  29.590152     37.669      6.597   290.3532     3.5423     4.3278     0.0213      0.114      3.607      5.230        391 4.2841e+00 0.0000e+00
      3.700    14.2800     6.9981     68.323  29.564057     37.605      6.593   290.2396     3.5544     4.3815     0.0213      0.111      3.622      5.253        392 4.2795e+00 0.0000e+00
      3.699    14.2796     6.9890     68.233  29.589739     37.679      6.599   289.8989     3.5301     4.3412     0.0213      0.105      3.626      5.259        393 4.3700e+00 0.0000e+00
      3.693    14.2801     6.9797     68.142  29.617492     37.680      6.603   290.3153     3.5503     4.3815     0.0213      0.092      3.627      5.260        394 4.3397e+00 0.0000e+00
      3.702    14.2802     6.9729     68.074  29.618469     37.716      6.604   290.4289     3.6474     4.1398     0.0213      0.077      3.637      5.274        395 4.1899e+00 0.0000e+00
      3.729    14.2799     6.9628     67.977  29.558873     37.609      6.605   290.6560     3.6797     4.1532     0.0213      0.063      3.663      5.313        396 3.9900e+00 0.0000e+00
      3.775    14.2790     6.9482     67.834  29.543410     37.609      6.605   290.8832     3.6717     4.1666     0.0213      0.059      3.705      5.373        397 3.6635e+00 0.0000e+00
      3.830    14.2779     6.9340     67.693  29.608064     37.680      6.600   291.6025     3.6474     4.1801     0.0213      0.069      3.753      5.442        398 3.4432e+00 0.0000e+00
      3.875    14.2775     6.9234     67.585  29.597012     37.681      6.595   291.2996     4.1084     4.4218     0.0213      0.089      3.794      5.502        399 3.2998e+00 0.0000e+00
      3.901    14.2771     6.9147     67.496  29.557164     37.611      6.595   291.3375     4.1448     4.3278     0.0213      0.110      3.820      5.540        400 3.2318e+00 0.0000e+00
      3.909    14.2764     6.9038     67.389  29.598355     37.683      6.596   291.2239     4.1326     4.4755     0.0213      0.125      3.836      5.563        401 3.2402e+00 0.0000e+00
      3.926    14.2752     6.9003     67.355  29.575401     37.648      6.597   291.4510     4.1326     4.4486     0.0213      0.130      3.855      5.591        402 3.1096e+00 0.0000e+00
      3.957    14.2748     6.8961     67.312  29.556080     37.612      6.600   290.8832     4.1165     4.3278     0.0213      0.128      3.883      5.632        403 2.9664e+00 0.0000e+00
      3.995    14.2744     6.8968     67.315  29.652050     37.756      6.596   291.4132     4.1084     4.0995     0.0214      0.120      3.919      5.683        404 2.8446e+00 0.0000e+00
      4.036    14.2740     6.8946     67.293  29.663520     37.756      6.594   291.7160     4.1205     4.1801     0.0214      0.113      3.957      5.738        405 2.6890e+00 0.0000e+00
      4.073    14.2747     6.8915     67.261  29.601107     37.686      6.595   292.0189     4.1124     4.1532     0.0213      0.110      3.992      5.790        406 2.5483e+00 0.0000e+00
      4.104    14.2746     6.8786     67.134  29.611122     37.686      6.593   291.5267     4.1165     4.1264     0.0213      0.115      4.024      5.835        407 2.4629e+00 0.0000e+00
      4.131    14.2728     6.8753     67.101  29.621406     37.721      6.594   292.1703     4.0639     4.1666     0.0213      0.123      4.051      5.875        408 2.4078e+00 0.0000e+00
      4.158    14.2701     6.8626     66.977  29.617958     37.685      6.595   292.0567     4.0477     4.1666     0.0213      0.130      4.074      5.909        409 2.3453e+00 0.0000e+00
      4.175    14.2674     6.8505     66.858  29.645064     37.758      6.598   292.3217     4.0275     4.1264     0.0214      0.127      4.090      5.933        410 2.3056e+00 0.0000e+00
      4.181    14.2668     6.8428     66.783  29.617326     37.690      6.599   291.8675     4.0598     4.1532     0.0213      0.114      4.099      5.944        411 2.3013e+00 0.0000e+00
      4.182    14.2671     6.8361     66.716  29.652479     37.764      6.602   292.1703     3.9102     3.9786     0.0214      0.094      4.104      5.952        412 2.2759e+00 0.0000e+00
      4.192    14.2654     6.8290     66.647  29.660616     37.764      6.606   292.0189     3.9062     4.0324     0.0214      0.075      4.116      5.970        413 2.2038e+00 0.0000e+00
      4.218    14.2633     6.8314     66.669  29.607199     37.693      6.611   291.9810     3.9345     3.8981     0.0213      0.063      4.140      6.005        414 2.1131e+00 0.0000e+00
      4.256    14.2620     6.8350     66.705  29.630006     37.730      6.609   291.9432     3.9224     4.0861     0.0213      0.062      4.173      6.053        415 2.0071e+00 0.0000e+00
      4.293    14.2610     6.8351     66.705  29.602584     37.696      6.607   292.0946     4.0720     4.2606     0.0213      0.068      4.208      6.103        416 1.9190e+00 0.0000e+00
      4.323    14.2603     6.8418     66.767  29.611677     37.698      6.613   292.4353     4.0396     4.1666     0.0213      0.079      4.237      6.146        417 1.8951e+00 0.0000e+00
      4.346    14.2599     6.8417     66.761  29.648342     37.770      6.610   292.2082     4.0437     4.0995     0.0214      0.091      4.258      6.177        418 1.8521e+00 0.0000e+00
      4.358    14.2595     6.8379     66.725  29.616255     37.699      6.613   291.8675     4.0679     4.1801     0.0213      0.101      4.273      6.198        419 1.8391e+00 0.0000e+00
      4.368    14.2594     6.8419     66.764  29.651607     37.771      6.615   291.8675     4.3591     4.0995     0.0214      0.102      4.286      6.216        420 1.8042e+00 0.0000e+00
      4.385    14.2595     6.8440     66.784  29.633998     37.735      6.618   292.1703     4.3753     4.1801     0.0213      0.097      4.302      6.239        421 1.7298e+00 0.0000e+00
      4.405    14.2589     6.8583     66.924  29.608520     37.700      6.616   292.1325     4.3672     4.0995     0.0213      0.086      4.321      6.267        422 1.6970e+00 0.0000e+00
      4.427    14.2585     6.8730     67.071  29.653664     37.771      6.616   292.4353     4.3672     4.1532     0.0214      0.076      4.342      6.298        423 1.6625e+00 0.0000e+00
      4.451    14.2582     6.8930     67.270  29.607468     37.701      6.615   292.3596     4.3672     4.1264     0.0213      0.071      4.365      6.332        424 1.6215e+00 0.0000e+00
      4.475    14.2577     6.9130     67.467  29.606710     37.701      6.617   292.6246     4.3186     4.0726     0.0213      0.072      4.390      6.367        425 1.5571e+00 0.0000e+00
      4.504    14.2572     6.9247     67.580  29.654607     37.772      6.616   292.8139     4.2742     4.1801     0.0214      0.078      4.417      6.406        426 1.4926e+00 0.0000e+00
      4.532    14.2551     6.9374     67.704  29.607163     37.702      6.614   293.2303     4.3065     4.2069     0.0213      0.087      4.444      6.445        427 1.4250e+00 0.0000e+00
      4.558    14.2524     6.9446     67.772  29.547155     37.631      6.612   293.1546     4.3186     4.0995     0.0213      0.095      4.469      6.482        428 1.3852e+00 0.0000e+00
      4.581    14.2525     6.9485     67.808  29.551386     37.633      6.611   292.9275     4.5693     4.1801     0.0213      0.098      4.491      6.513        429 1.3658e+00 0.0000e+00
      4.599    14.2527     6.9381     67.705  29.601898     37.707      6.612   292.7003     4.5613     4.1264     0.0213      0.099      4.508      6.538        430 1.3561e+00 0.0000e+00
      4.608    14.2518     6.9400     67.722  29.602894     37.707      6.609   292.7382     4.5693     4.1801     0.0213      0.094      4.518      6.553        431 1.3349e+00 0.0000e+00
      4.614    14.2525     6.9327     67.650  29.609447     37.706      6.610   292.9653     4.5491     4.2069     0.0213      0.084      4.527      6.565        432 1.3423e+00 0.0000e+00
      4.626    14.2550     6.9354     67.675  29.593744     37.707      6.610   292.9275     4.3874     3.9921     0.0213      0.074      4.540      6.585        433 1.3383e+00 0.0000e+00
      4.649    14.2575     6.9391     67.709  29.563137     37.636      6.612   293.2303     4.3833     4.0055     0.0213      0.065      4.564      6.619        434 1.2511e+00 0.0000e+00
      4.687    14.2586     6.9408     67.725  29.588236     37.704      6.610   293.7982     4.3672     3.9921     0.0213      0.065      4.597      6.667        435 1.1823e+00 0.0000e+00
      4.726    14.2583     6.9458     67.773  29.562508     37.631      6.606   293.8360     4.3672     3.9518     0.0213      0.072      4.633      6.719        436 1.1297e+00 0.0000e+00
      4.758    14.2577     6.9555     67.853  29.535856     37.630      6.599   293.9118     4.2135     4.1666     0.0213      0.084      4.664      6.765        437 1.0998e+00 0.0000e+00
      4.784    14.2570     6.9612     67.895  29.562105     37.630      6.602   293.8739     4.1933     4.1532     0.0213      0.096      4.689      6.800        438 1.0854e+00 0.0000e+00
      4.801    14.2554     6.9632     67.906  29.589141     37.702      6.599   293.6846     4.1852     4.1129     0.0213      0.106      4.705      6.824        439 1.0438e+00 0.0000e+00
      4.809    14.2538     6.9668     67.937  29.561508     37.631      6.602   293.7982     4.1650     4.0861     0.0213      0.108      4.715      6.839        440 1.0431e+00 0.0000e+00
      4.814    14.2531     6.9714     67.970  29.596494     37.704      6.602   293.7982     4.5087     3.9115     0.0213      0.099      4.721      6.847        441 1.0406e+00 0.0000e+00
      4.818    14.2525     6.9872     68.090  29.604903     37.706      6.604   293.4953     4.5087     4.0055     0.0213      0.083      4.729      6.859        442 9.9738e-01 0.0000e+00
      4.834    14.2514     7.0010     68.192  29.551045     37.635      6.606   293.5710     4.5087     3.9249     0.0213      0.065      4.747      6.884        443 9.9211e-01 0.0000e+00
      4.868    14.2502     7.0088     68.247  29.544921     37.636      6.605   293.9875     4.4966     3.8578     0.0213      0.057      4.777      6.929        444 9.6375e-01 0.0000e+00
      4.913    14.2504     7.0226     68.378  29.553225     37.637      6.600   294.4039     4.4966     3.9115     0.0213      0.062      4.817      6.987        445 8.9119e-01 0.0000e+00
      4.955    14.2484     7.0352     68.509  29.540710     37.638      6.598   294.6310     4.4359     4.1801     0.0213      0.076      4.856      7.044        446 8.5849e-01 0.0000e+00
      4.988    14.2397     7.0487     68.656  29.560496     37.638      6.594   294.5932     4.4399     4.1801     0.0213      0.094      4.888      7.089        447 8.3529e-01 0.0000e+00
      5.008    14.2306     7.0630     68.782  29.528603     37.639      6.592   294.7068     4.4480     4.2472     0.0213      0.109      4.908      7.119        448 7.9931e-01 0.0000e+00
      5.018    14.2247     7.0743     68.863  29.432152     37.470      6.594   294.4796     4.4238     3.9921     0.0212      0.116      4.922      7.139        449 7.6625e-01 0.0000e+00
      5.032    14.2220     7.0808     68.911  29.443331     37.550      6.596   294.2903     4.5572     4.1935     0.0213      0.115      4.936      7.160        450 7.7346e-01 0.0000e+00
      5.051    14.2131     7.0797     68.903  29.425745     37.484      6.596   294.0253     4.5572     4.1264     0.0212      0.106      4.953      7.185        451 8.0166e-01 0.0000e+00
      5.070    14.1912     7.0804     68.932  29.454041     37.558      6.599   294.1768     4.5774     4.1935     0.0213      0.092      4.973      7.212        452 7.4074e-01 0.0000e+00
      5.092    14.1689     7.0841     68.986  29.437769     37.530      6.601   294.5175     4.5613     4.1801     0.0212      0.079      4.991      7.238        453 7.0751e-01 0.0000e+00
      5.104    14.1558     7.0880     69.025  29.357050     37.445      6.601   294.5553     4.3672     4.0861     0.0212      0.070      5.002      7.255        454 7.2779e-01 0.0000e+00
      5.105    14.1525     7.0853     69.000  29.406253     37.537      6.603   294.3282     4.3631     4.1801     0.0212      0.061      5.006      7.260        455 7.1955e-01 0.0000e+00
      5.105    14.1594     7.0840     68.986  29.465494     37.622      6.606   294.2146     4.3793     4.2338     0.0213      0.054      5.007      7.263        456 7.1706e-01 0.0000e+00
      5.109    14.1683     7.0891     69.036  29.461230     37.624      6.606   294.2525     4.3672     4.1264     0.0213      0.047      5.012      7.269        457 6.9391e-01 0.0000e+00
      5.118    14.1600     7.0874     69.008  29.411562     37.547      6.606   294.2146     4.3591     4.2338     0.0212      0.039      5.022      7.283        458 6.8234e-01 0.0000e+00
      5.135    14.1413     7.0898     69.033  29.408705     37.537      6.609   294.4796     4.3874     4.1532     0.0212      0.034      5.038      7.307        459 6.8043e-01 0.0000e+00
      5.159    14.1306     7.0853     68.987  29.375836     37.510      6.613   294.7446     4.3591     4.2069     0.0212      0.034      5.061      7.339        460 6.6384e-01 0.0000e+00
      5.186    14.1323     7.0871     68.998  29.363521     37.493      6.611   294.6310     4.3591     4.1935     0.0212      0.040      5.086      7.376        461 6.6140e-01 0.0000e+00
      5.214    14.1472     7.0827     68.936  29.394386     37.574      6.614   294.7068     4.3591     4.1666     0.0212      0.053      5.111      7.415        462 6.2913e-01 0.0000e+00
      5.239    14.1584     7.0866     68.942  29.426378     37.573      6.612   294.8582     4.3591     4.0324     0.0212      0.069      5.136      7.450        463 6.0618e-01 0.0000e+00
      5.261    14.1602     7.0827     68.877  29.442307     37.630      6.612   294.7068     4.3874     4.1129     0.0213      0.082      5.158      7.481        464 6.0560e-01 0.0000e+00
      5.279    14.1601     7.0798     68.836  29.433858     37.547      6.610   294.7825     4.3753     4.2203     0.0212      0.090      5.176      7.507        465 5.6750e-01 0.0000e+00
      5.294    14.1602     7.0897     68.933  29.466538     37.653      6.613   294.5932     4.3591     4.1264     0.0213      0.091      5.193      7.531        466 5.6967e-01 0.0000e+00
      5.312    14.1588     7.0904     68.927  29.431285     37.545      6.613   295.0096     4.3025     4.1398     0.0212      0.088      5.210      7.557        467 5.7951e-01 0.0000e+00
      5.334    14.1535     7.0918     68.924  29.448080     37.618      6.613   294.6689     4.3348     4.1935     0.0213      0.084      5.230      7.586        468 5.2557e-01 0.0000e+00
      5.354    14.1529     7.0968     68.971  29.415987     37.546      6.612   294.5932     4.3106     4.1801     0.0212      0.079      5.248      7.612        469 5.1465e-01 0.0000e+00
      5.367    14.1521     7.1062     69.070  29.352626     37.482      6.613   294.6310     4.3429     4.2338     0.0212      0.074      5.262      7.633        470 5.3377e-01 0.0000e+00
      5.378    14.1472     7.1080     69.101  29.408335     37.552      6.613   295.0096     3.6595     4.1264     0.0212      0.070      5.275      7.651        471 4.9542e-01 0.0000e+00
      5.392    14.1350     7.1208     69.240  29.435609     37.590      6.616   295.0475     3.6393     4.1264     0.0212      0.066      5.290      7.672        472 4.6823e-01 0.0000e+00
      5.412    14.1137     7.1294     69.335  29.348334     37.487      6.615   295.3503     3.6555     4.1935     0.0212      0.065      5.310      7.701        473 5.0097e-01 0.0000e+00
      5.439    14.0959     7.1446     69.479  29.309402     37.427      6.616   295.2368     3.6717     4.1532     0.0212      0.067      5.337      7.740        474 4.6926e-01 0.0000e+00
      5.476    14.0878     7.1489     69.508  29.335816     37.519      6.614   295.5018     3.6514     4.1666     0.0212      0.073      5.368      7.786        475 4.1840e-01 0.0000e+00
      5.507    14.0870     7.1593     69.593  29.315470     37.465      6.611   295.4260     3.6595     4.1129     0.0212      0.081      5.397      7.828        476 4.5021e-01 0.0000e+00
      5.527    14.0796     7.1585     69.580  29.334731     37.544      6.609   295.5396     3.6838     4.1935     0.0212      0.089      5.418      7.858        477 4.5674e-01 0.0000e+00
      5.541    14.0685     7.1565     69.565  29.311850     37.473      6.607   295.6532     3.6838     4.2069     0.0212      0.094      5.433      7.879        478 4.4745e-01 0.0000e+00
      5.553    14.0674     7.1563     69.556  29.314297     37.516      6.611   295.6910     4.1852     4.0055     0.0212      0.094      5.443      7.895        479 4.5249e-01 0.0000e+00
      5.558    14.0726     7.1533     69.496  29.302038     37.492      6.611   295.2746     4.1933     3.9518     0.0212      0.088      5.448      7.902        480 4.3020e-01 0.0000e+00
      5.556    14.0809     7.1411     69.333  29.297458     37.492      6.613   295.6910     4.1973     3.8309     0.0212      0.073      5.447      7.901        481 4.2987e-01 0.0000e+00
      5.550    14.0911     7.1380     69.254  29.349647     37.559      6.614   295.9182     4.1650     3.9921     0.0212      0.053      5.443      7.896        482 4.4674e-01 0.0000e+00
      5.546    14.0979     7.1395     69.225  29.355688     37.550      6.616   295.8425     3.7202     3.9652     0.0212      0.032      5.445      7.899        483 4.2647e-01 0.0000e+00
      5.563    14.0958     7.1335     69.146  29.349237     37.541      6.616   295.7289     3.7525     3.8981     0.0212      0.020      5.465      7.928        484 4.1308e-01 0.0000e+00
      5.614    14.0872     7.1397     69.199  29.328021     37.498      6.614   296.5618     3.7202     4.0055     0.0212      0.026      5.505      7.985        485 4.1500e-01 0.0000e+00
      5.664    14.0773     7.1526     69.315  29.293140     37.465      6.608   296.1453     3.7283     3.9518     0.0212      0.044      5.545      8.044        486 4.0278e-01 0.0000e+00
      5.686    14.0737     7.1694     69.462  29.303699     37.473      6.608   296.7510     3.7404     3.9384     0.0212      0.064      5.570      8.079        487 3.9629e-01 0.0000e+00
      5.692    14.0763     7.1866     69.607  29.344533     37.554      6.608   296.2210     4.0558     4.2338     0.0212      0.080      5.582      8.096        488 3.6838e-01 0.0000e+00
      5.697    14.0714     7.2115     69.832  29.360924     37.558      6.610   296.1453     4.0639     4.2741     0.0212      0.090      5.593      8.112        489 3.4006e-01 0.0000e+00
      5.723    14.0515     7.2214     69.919  29.283304     37.483      6.610   296.1075     4.0720     4.1398     0.0212      0.096      5.615      8.144        490 3.4509e-01 0.0000e+00
      5.758    14.0222     7.2319     70.015  29.203935     37.345      6.610   296.7132     4.0558     4.1935     0.0211      0.099      5.647      8.190        491 3.3620e-01 0.0000e+00
      5.794    13.9903     7.2363     70.057  29.192855     37.400      6.610   296.7510     4.1852     3.9786     0.0211      0.097      5.679      8.237        492 3.2781e-01 0.0000e+00
      5.822    13.9625     7.2452     70.147  29.148854     37.321      6.611   296.9025     4.2054     3.9518     0.0211      0.091      5.707      8.277        493 3.2070e-01 0.0000e+00
      5.842    13.9482     7.2475     70.173  29.169757     37.423      6.611   296.7510     4.1812     3.8846     0.0211      0.091      5.728      8.307        494 3.2021e-01 0.0000e+00
      5.858    13.9427     7.2505     70.196  29.137204     37.378      6.610   296.8268     4.1812     4.0189     0.0211      0.096      5.744      8.330        495 3.1848e-01 0.0000e+00
      5.869    13.9370     7.2535     70.218  29.130078     37.392      6.612   296.8268     3.7970     3.9518     0.0211      0.098      5.760      8.354        496 3.0264e-01 0.0000e+00
      5.893    13.9268     7.2497     70.173  29.178632     37.469      6.614   296.6375     3.7970     3.9518     0.0211      0.096      5.788      8.394        497 2.8942e-01 0.0000e+00
      5.944    13.9127     7.2502     70.161  29.106433     37.367      6.611   297.1675     3.7687     3.9384     0.0211      0.097      5.831      8.457        498 2.8136e-01 0.0000e+00
      6.000    13.9023     7.2414     70.055  29.071683     37.340      6.611   296.9403     3.7768     3.8444     0.0210      0.104      5.877      8.525        499 2.6423e-01 0.0000e+00
      6.035    13.8964     7.2346     69.973  29.073632     37.354      6.610   296.9025     3.7121     3.8578     0.0210      0.113      5.913      8.576        500 2.6274e-01 0.0000e+00
      6.054    13.8930     7.2206     69.825  29.074364     37.364      6.612   297.0160     3.7161     3.9786     0.0210      0.122      5.934      8.606        501 2.6707e-01 0.0000e+00
      6.065    13.8926     7.2180     69.788  29.130076     37.442      6.612   296.9025     3.7525     4.0189     0.0211      0.125      5.944      8.622        502 2.3966e-01 0.0000e+00
      6.066    13.8950     7.2200     69.791  29.122899     37.445      6.612   297.3189     3.7121     3.8712     0.0211      0.120      5.949      8.628        503 2.3769e-01 0.0000e+00
      6.067    13.8971     7.2181     69.760  29.083298     37.373      6.616   297.0539     4.0801     4.0055     0.0210      0.105      5.954      8.635        504 2.6440e-01 0.0000e+00
      6.080    13.8939     7.2200     69.765  29.090411     37.407      6.617   297.2810     4.0639     3.9115     0.0211      0.084      5.970      8.659        505 2.4716e-01 0.0000e+00
      6.116    13.8887     7.2246     69.793  29.084396     37.369      6.617   297.3189     4.0477     3.8712     0.0210      0.066      6.002      8.706        506 1.9607e-01 0.0000e+00
      6.166    13.8836     7.2305     69.838  29.061134     37.372      6.617   297.6975     4.0639     3.8578     0.0210      0.063      6.045      8.769        507 1.8514e-01 0.0000e+00
      6.212    13.8730     7.2278     69.808  29.000765     37.269      6.616   297.3946     4.0396     3.9652     0.0210      0.076      6.088      8.831        508 2.1040e-01 0.0000e+00
      6.248    13.8593     7.2288     69.816  28.981632     37.274      6.614   297.7732     3.2916     3.9249     0.0210      0.096      6.123      8.881        509 2.1147e-01 0.0000e+00
      6.272    13.8485     7.2296     69.828  28.996001     37.284      6.613   297.6218     3.2916     3.9249     0.0210      0.114      6.148      8.916        510 1.9032e-01 0.0000e+00
      6.287    13.8408     7.2360     69.894  28.982887     37.298      6.615   297.6218     3.2996     4.0592     0.0210      0.126      6.163      8.939        511 1.7913e-01 0.0000e+00
      6.294    13.8322     7.2345     69.876  28.997955     37.308      6.618   297.2432     3.2875     3.9249     0.0210      0.126      6.174      8.955        512 1.9858e-01 0.0000e+00
      6.309    13.8222     7.2338     69.863  28.977253     37.315      6.620   297.2053     3.0247     3.9921     0.0210      0.115      6.191      8.980        513 2.2823e-01 0.0000e+00
      6.337    13.8142     7.2291     69.814  28.949358     37.251      6.620   297.6218     3.0206     3.9786     0.0210      0.099      6.218      9.019        514 1.9757e-01 0.0000e+00
      6.375    13.8056     7.2258     69.783  28.973377     37.333      6.619   297.5461     3.0287     3.9921     0.0210      0.089      6.253      9.070        515 2.0962e-01 0.0000e+00
      6.418    13.7947     7.2204     69.731  28.888067     37.197      6.619   298.0003     3.0085     3.9249     0.0209      0.089      6.293      9.127        516 1.9551e-01 0.0000e+00
      6.458    13.7874     7.2225     69.749  28.877634     37.205      6.618   297.8868     2.7457     3.9249     0.0209      0.098      6.331      9.182        517 1.3510e-01 0.0000e+00
      6.493    13.7843     7.2187     69.711  28.927067     37.288      6.617   298.1896     2.7618     3.8578     0.0210      0.112      6.361      9.225        518 1.4480e-01 0.0000e+00
      6.505    13.7834     7.2230     69.758  28.885851     37.223      6.617   297.9625     2.7861     4.0055     0.0209      0.121      6.375      9.245        519 1.5863e-01 0.0000e+00
      6.501    13.7861     7.2224     69.756  28.869632     37.225      6.617   297.8868     2.7821     4.0458     0.0209      0.119      6.377      9.249        520 1.8608e-01 0.0000e+00
      6.500    13.7883     7.2243     69.775  28.887954     37.226      6.618   298.0382     2.7538     3.8041     0.0209      0.104      6.380      9.254        521 1.8115e-01 0.0000e+00
      6.517    13.7862     7.2320     69.847  28.922348     37.296      6.621   298.0382     2.7538     3.7772     0.0210      0.086      6.395      9.276        522 1.5970e-01 0.0000e+00
      6.547    13.7827     7.2296     69.823  28.886127     37.222      6.618   298.1896     2.7416     3.7369     0.0209      0.071      6.418      9.309        523 1.6253e-01 0.0000e+00
      6.568    13.7803     7.2241     69.770  28.873733     37.224      6.618   298.1139     2.7982     3.7369     0.0209      0.060      6.438      9.337        524 1.6276e-01 0.0000e+00
      6.577    13.7801     7.2223     69.746  28.937773     37.299      6.622   298.0003     2.5677     3.8309     0.0210      0.052      6.448      9.353        525 1.3693e-01 0.0000e+00
      6.581    13.7806     7.2193     69.708  28.984326     37.374      6.621   298.2653     2.5718     3.9652     0.0210      0.049      6.456      9.365        526 1.3925e-01 0.0000e+00
      6.592    13.7791     7.2103     69.618  28.934396     37.302      6.619   298.2653     2.5718     3.9249     0.0210      0.052      6.471      9.386        527 1.5808e-01 0.0000e+00
      6.622    13.7786     7.2077     69.591  28.881313     37.229      6.624   298.3789     2.5637     4.0055     0.0209      0.060      6.501      9.429        528 1.3038e-01 0.0000e+00
      6.674    13.7818     7.2144     69.652  28.872494     37.230      6.620   298.4925     2.5839     3.9384     0.0209      0.073      6.545      9.492        529 1.2694e-01 0.0000e+00
      6.725    13.7843     7.2164     69.669  28.886074     37.231      6.620   298.8332     2.6324     3.9786     0.0209      0.087      6.588      9.555        530 1.2727e-01 0.0000e+00
      6.754    13.7843     7.2204     69.708  28.923710     37.300      6.618   298.6439     2.6405     3.8981     0.0210      0.100      6.617      9.597        531 1.2546e-01 0.0000e+00
      6.763    13.7835     7.2286     69.789  28.884954     37.225      6.621   298.6061     2.5920     4.0055     0.0209      0.110      6.632      9.619        532 1.2481e-01 0.0000e+00
      6.772    13.7827     7.2367     69.871  28.875007     37.226      6.620   298.9846     2.6244     4.0592     0.0209      0.114      6.644      9.636        533 1.2817e-01 0.0000e+00
      6.789    13.7826     7.2429     69.931  28.876791     37.226      6.620   298.6439     2.5597     4.0055     0.0209      0.113      6.662      9.662        534 1.4160e-01 0.0000e+00
      6.819    13.7784     7.2481     69.979  28.823436     37.155      6.623   298.7953     2.5637     3.9115     0.0209      0.107      6.689      9.702        535 1.2859e-01 0.0000e+00
      6.855    13.7723     7.2328     69.835  28.882108     37.227      6.624   298.8332     2.5677     4.0861     0.0209      0.099      6.723      9.751        536 1.2406e-01 0.0000e+00
      6.892    13.7705     7.2289     69.794  28.922371     37.303      6.624   298.9089     2.5637     3.9921     0.0210      0.093      6.758      9.801        537 1.2694e-01 0.0000e+00
      6.926    13.7691     7.2261     69.749  28.891928     37.237      6.621   298.8332     2.7012     4.0458     0.0209      0.095      6.790      9.848        538 1.2514e-01 0.0000e+00
      6.955    13.7667     7.2182     69.663  28.919997     37.311      6.622   298.7953     2.7093     3.9249     0.0210      0.105      6.818      9.888        539 1.2608e-01 0.0000e+00
      6.976    13.7654     7.2157     69.633  28.887442     37.240      6.623   299.1361     2.6850     3.8846     0.0209      0.114      6.841      9.922        540 1.2540e-01 0.0000e+00
      6.999    13.7653     7.2112     69.590  28.873146     37.242      6.623   298.6818     2.7052     3.9384     0.0209      0.118      6.866      9.957        541 1.2584e-01 0.0000e+00
      7.030    13.7664     7.2067     69.548  28.878491     37.244      6.623   298.9468     2.6284     4.1666     0.0209      0.118      6.892      9.996        542 1.2561e-01 0.0000e+00
      7.057    13.7690     7.2072     69.556  28.880789     37.244      6.621   298.6439     2.6365     4.1264     0.0209      0.114      6.917     10.033        543 1.2571e-01 0.0000e+00
      7.075    13.7693     7.2132     69.617  28.929584     37.315      6.620   298.8711     2.6082     4.1532     0.0210      0.106      6.937     10.061        544 1.2568e-01 0.0000e+00
      7.089    13.7680     7.2163     69.649  28.877065     37.240      6.623   298.9089     2.6446     4.1129     0.0209      0.098      6.953     10.085        545 1.2570e-01 0.0000e+00
      7.107    13.7702     7.2142     69.630  28.827552     37.168      6.624   298.9089     2.7740     3.9786     0.0209      0.090      6.975     10.117        546 1.2562e-01 0.0000e+00
      7.143    13.7673     7.2147     69.636  28.872605     37.241      6.621   298.3411     2.7538     3.9115     0.0209      0.090      7.010     10.168        547 1.2576e-01 0.0000e+00
      7.199    13.7572     7.2153     69.642  28.880294     37.239      6.621   297.9625     2.7699     4.0189     0.0209      0.099      7.054     10.230        548 1.2568e-01 0.0000e+00
      7.235    13.7501     7.2176     69.664  28.877282     37.242      6.618   298.4168     2.7740     4.0055     0.0209      0.108      7.086     10.278        549 1.2567e-01 0.0000e+00
      7.244    13.7466     7.2250     69.734  28.876356     37.252      6.616   298.1139     2.7659     3.8981     0.0209      0.111      7.101     10.299        550 1.2570e-01 0.0000e+00
      7.246    13.7464     7.2229     69.711  28.881450     37.258      6.618   298.0382     2.8953     3.8981     0.0209      0.108      7.105     10.305        551 1.2569e-01 0.0000e+00
      7.246    13.7478     7.2247     69.727  28.870946     37.262      6.619   297.9625     2.8953     3.9249     0.0209      0.099      7.106     10.306        552 1.2580e-01 0.0000e+00
      7.246    13.7497     7.2325     69.803  28.830132     37.190      6.618   297.8868     2.8831     3.8309     0.0209      0.085      7.106     10.306        553 1.2579e-01 0.0000e+00
      7.247    13.7516     7.2275     69.754  28.872943     37.261      6.617   297.8489     2.8872     3.9652     0.0209      0.064      7.108     10.309        554 1.2571e-01 0.0000e+00
      7.251    13.7525     7.2147     69.632  28.876965     37.259      6.620   297.5461     2.5111     3.9115     0.0209      0.039      7.112     10.314        555 1.2577e-01 0.0000e+00
      7.257    13.7536 -9.990e-29 -9.990e-29  28.884424     37.257      6.620   297.7732     2.4990     3.9115     0.0209      0.019      7.117     10.322        556 1.2563e-01 0.0000e+00
      7.263    13.7543 -9.990e-29 -9.990e-29  28.922959     37.328      6.622   297.7732     2.5192     3.9921     0.0210      0.011      7.123     10.330        557 1.2553e-01 0.0000e+00
      7.269    13.7546 -9.990e-29 -9.990e-29  28.888309     37.255      6.623   297.7353     2.5111     3.9249     0.0209      0.012      7.129     10.339        558 1.2564e-01 0.0000e+00
      7.274    13.7546 -9.990e-29 -9.990e-29  28.868247     37.254      6.624   297.8489     2.7295     3.9249     0.0209      0.015      7.134     10.347        559 1.2569e-01 0.0000e+00
      7.280    13.7536 -9.990e-29 -9.990e-29  28.829329     37.182      6.621   297.5839     2.7052     3.9518     0.0209      0.018      7.140     10.356        560 1.2587e-01 0.0000e+00
      7.288    13.7520 -9.990e-29 -9.990e-29  28.818147     37.182      6.626   297.4703     2.6891     3.8712     0.0209      0.022      7.147     10.366        561 1.2581e-01 0.0000e+00
      7.295    13.7508 -9.990e-29 -9.990e-29  28.941462     37.327      6.625   296.9782     2.7133     4.0055     0.0210      0.024      7.154     10.376        562 1.2571e-01 0.0000e+00
      7.301    13.7510 -9.990e-29 -9.990e-29  29.031654     37.473      6.623   296.6753     2.7012     3.9786     0.0210      0.025      7.159     10.385        563 1.2575e-01 0.0000e+00
      7.306    13.7515 -9.990e-29 -9.990e-29  28.943097     37.330      6.624   296.9025     2.7214     3.8981     0.0210      0.025      7.164     10.391        564 1.2573e-01 0.0000e+00
      7.309    13.7517 -9.990e-29 -9.990e-29  28.873774     37.258      6.623   296.5996     2.6810     3.9115     0.0209      0.024      7.167     10.395        565 1.2576e-01 0.0000e+00
      7.311 -9.990e-29 -9.990e-29 -9.990e-29  28.880731     37.257      6.625   296.6375     2.6850     3.9786     0.0209      0.022      7.169     10.398        566 1.2572e-01 0.0000e+00
      7.312 -9.990e-29 -9.990e-29 -9.990e-29  28.875141     37.257      6.626   296.7132     3.1541     3.9518     0.0209      0.019      7.169     10.399        567 1.2566e-01 0.0000e+00
