* Sea-Bird SBE19plus  Data File:
* FileName = C:\DATA\101518_fcr_0009.hex
* Software version 2.6.3.104
* Temperature SN = 7809
* Conductivity SN = 7809
* System UpLoad Time = Oct 29 2018 16:39:16
* <ApplicationData>
* <Seaterm232>
* <SoftwareVersion>2.6.3.104</SoftwareVersion>
* <BuildDate>30-Jun-2017</BuildDate>
* </Seaterm232>
* </ApplicationData>
* <InstrumentState>
* <HardwareData DeviceType='SBE19plus' SerialNumber='01907809'>
*
*    <Manufacturer>Sea-Bird Electronics, Inc.</Manufacturer>
*
*    <FirmwareVersion>3.1.8</FirmwareVersion>
*
*    <FirmwareDate>Mar  9 2016 16:22:29</FirmwareDate>
*
*    <CommandSetVersion>1.4</CommandSetVersion>
*
*    <PCBAssembly PCBSerialNum='120721' AssemblyNum='41054J'/>
*
*    <PCBAssembly PCBSerialNum='120715' AssemblyNum='41967A'/>
*
*    <PCBAssembly PCBSerialNum='116699' AssemblyNum='41606'/>
*
*    <PCBAssembly PCBSerialNum='120719' AssemblyNum='41059D'/>
*
*    <MfgDate>28-Apr-2017</MfgDate>
*
*    <InternalSensors>
*
*       <Sensor id='Main Temperature'>
*
*          <type>temperature0</type>
*
*          <SerialNumber>01907809</SerialNumber>
*
*       </Sensor>
*
*       <Sensor id='Main Conductivity'>
*
*          <type>conductivity-0</type>
*
*          <SerialNumber>01907809</SerialNumber>
*
*       </Sensor>
*
*       <Sensor id='Main Pressure'>
*
*          <type>strain-0</type>
*
*          <SerialNumber>10586018</SerialNumber>
*
*       </Sensor>
*
*    </InternalSensors>
*
*    <ExternalSensors>
*
*       <Sensor id='volt 0'>
*
*          <type>pH</type>
*
*          <SerialNumber>27-0363</SerialNumber>
*
*       </Sensor>
*
*       <Sensor id='volt 1'>
*
*          <type>ORP</type>
*
*          <SerialNumber>27-0363</SerialNumber>
*
*       </Sensor>
*
*       <Sensor id='volt 2'>
*
*          <type>OXY</type>
*
*          <SerialNumber>43-0434</SerialNumber>
*
*       </Sensor>
*
*       <Sensor id='volt 3'>
*
*          <type>PAR</type>
*
*          <SerialNumber>1122</SerialNumber>
*
*       </Sensor>
*
*       <Sensor id='volt 4'>
*
*          <type>ECO AFL/FL</type>
*
*          <SerialNumber>FLNTURT-2496</SerialNumber>
*
*       </Sensor>
*
*       <Sensor id='volt 5'>
*
*          <type>ECO-NTU</type>
*
*          <SerialNumber>FLNTURT-2496</SerialNumber>
*
*       </Sensor>
*
*       <Sensor id='serial'>
*
*          <type>not assigned</type>
*
*          <SerialNumber>not assigned</SerialNumber>
*
*       </Sensor>
*
*    </ExternalSensors>
*
* </HardwareData>
* <StatusData DeviceType='SBE19plus' SerialNumber='01907809'>
*
*    <DateTime>2018-10-29T20:36:07</DateTime>
*
*    <LoggingState>not logging</LoggingState>
*
*    <EventSummary numEvents='0'/>
*
*    <Power>
*
*       <vMain>12.7</vMain>
*
*       <vLith>8.4</vLith>
*
*       <iMain>63.3</iMain>
*
*       <iPump>138.1</iPump>
*
*       <iExt01>14.7</iExt01>
*
*       <iExt2345>45.2</iExt2345>
*
*    </Power>
*
*    <MemorySummary>
*
*       <Bytes>262706</Bytes>
*
*       <Samples>11422</Samples>
*
*       <SamplesFree>2849366</SamplesFree>
*
*       <SampleLength>23</SampleLength>
*
*       <Profiles>17</Profiles>
*
*    </MemorySummary>
*
* </StatusData>
* <ConfigurationData DeviceType='SBE19plus' SerialNumber='01907809'>
*
*    <ProfileMode>
*
*       <ScansToAverage>1</ScansToAverage>
*
*       <MinimumCondFreq>5</MinimumCondFreq>
*
*       <PumpDelay>45</PumpDelay>
*
*       <AutoRun>no</AutoRun>
*
*       <IgnoreSwitch>no</IgnoreSwitch>
*
*    </ProfileMode>
*
*    <Battery>
*
*       <Type>alkaline</Type>
*
*       <CutOff>7.5</CutOff>
*
*    </Battery>
*
*    <DataChannels>
*
*       <ExtVolt0>yes</ExtVolt0>
*
*       <ExtVolt1>yes</ExtVolt1>
*
*       <ExtVolt2>yes</ExtVolt2>
*
*       <ExtVolt3>yes</ExtVolt3>
*
*       <ExtVolt4>yes</ExtVolt4>
*
*       <ExtVolt5>yes</ExtVolt5>
*
*       <SBE38>no</SBE38>
*
*       <WETLABS>no</WETLABS>
*
*       <OPTODE>no</OPTODE>
*
*       <SBE63>no</SBE63>
*
*       <SeaFET>no</SeaFET>
*
*       <GTD>no</GTD>
*
*    </DataChannels>
*
*    <EchoCharacters>yes</EchoCharacters>
*
*    <OutputExecutedTag>yes</OutputExecutedTag>
*
*    <OutputFormat>raw HEX</OutputFormat>
*
* </ConfigurationData>
* <CalibrationCoefficients DeviceType='SBE19plus' SerialNumber='01907809'>
*
*    <Calibration format='TEMP1' id='Main Temperature'>
*
*       <SerialNum>01907809</SerialNum>
*
*       <CalDate>09-Mar-18</CalDate>
*
*       <TA0>1.210932e-03</TA0>
*
*       <TA1>2.843566e-04</TA1>
*
*       <TA2>-1.945074e-06</TA2>
*
*       <TA3>2.128067e-07</TA3>
*
*       <TOFFSET>0.000000e+00</TOFFSET>
*
*    </Calibration>
*
*    <Calibration format='WBCOND0' id='Main Conductivity'>
*
*       <SerialNum>01907809</SerialNum>
*
*       <CalDate>09-Mar-18</CalDate>
*
*       <G>-1.006721e+00</G>
*
*       <H>1.269065e-01</H>
*
*       <I>-1.405844e-04</I>
*
*       <J>2.478371e-05</J>
*
*       <CPCOR>-9.570000e-08</CPCOR>
*
*       <CTCOR>3.250000e-06</CTCOR>
*
*       <CSLOPE>1.000000e+00</CSLOPE>
*
*    </Calibration>
*
*    <Calibration format='STRAIN0' id='Main Pressure'>
*
*       <SerialNum>10586018</SerialNum>
*
*       <CalDate>07-Mar-18</CalDate>
*
*       <PA0>-4.081764e-02</PA0>
*
*       <PA1>4.851884e-04</PA1>
*
*       <PA2>-3.511682e-12</PA2>
*
*       <PTCA0>5.252134e+05</PTCA0>
*
*       <PTCA1>1.795324e+00</PTCA1>
*
*       <PTCA2>-2.843535e-01</PTCA2>
*
*       <PTCB0>2.516687e+01</PTCB0>
*
*       <PTCB1>3.750000e-04</PTCB1>
*
*       <PTCB2>0.000000e+00</PTCB2>
*
*       <PTEMPA0>-5.378069e+01</PTEMPA0>
*
*       <PTEMPA1>5.366207e+01</PTEMPA1>
*
*       <PTEMPA2>4.872143e-02</PTEMPA2>
*
*       <POFFSET>5.000000e-01</POFFSET>
*
*       <PRANGE>1.600000e+02</PRANGE>
*
*    </Calibration>
*
*    <Calibration format='VOLT0' id='Volt 0'>
*
*       <OFFSET>-4.920000e-02</OFFSET>
*
*       <SLOPE>1.248122e+00</SLOPE>
*
*    </Calibration>
*
*    <Calibration format='VOLT0' id='Volt 1'>
*
*       <OFFSET>-4.784000e-02</OFFSET>
*
*       <SLOPE>1.248871e+00</SLOPE>
*
*    </Calibration>
*
*    <Calibration format='VOLT0' id='Volt 2'>
*
*       <OFFSET>-4.864632e-02</OFFSET>
*
*       <SLOPE>1.248714e+00</SLOPE>
*
*    </Calibration>
*
*    <Calibration format='VOLT0' id='Volt 3'>
*
*       <OFFSET>-4.743790e-02</OFFSET>
*
*       <SLOPE>1.248571e+00</SLOPE>
*
*    </Calibration>
*
*    <Calibration format='VOLT0' id='Volt 4'>
*
*       <OFFSET>-4.671263e-02</OFFSET>
*
*       <SLOPE>1.248951e+00</SLOPE>
*
*    </Calibration>
*
*    <Calibration format='VOLT0' id='Volt 5'>
*
*       <OFFSET>-4.871053e-02</OFFSET>
*
*       <SLOPE>1.249136e+00</SLOPE>
*
*    </Calibration>
*
*    <Calibration format='FREQ0' id='external frequency channel'>
*
*       <EXTFREQSF>1.000014e+00</EXTFREQSF>
*
*    </Calibration>
*
* </CalibrationCoefficients>
* <EventCounters DeviceType='SBE19plus' SerialNumber='01907809'>
*
*    <EventSummary numEvents='0'/>
*
* </EventCounters></InstrumentState>
* <Headers>
*
* cast   9 22 Oct 2018 14:45:07 samples 5759 to 6351, avg = 1, stop = mag switch
*
# nquan = 17
# nvalues = 444                         
# units = specified
# name 0 = depFM: Depth [fresh water, m]
# name 1 = tv290C: Temperature [ITS-90, deg C]
# name 2 = sbeox0Mg/L: Oxygen, SBE 43 [mg/l]
# name 3 = sbeox0PS: Oxygen, SBE 43 [% saturation]
# name 4 = c0uS/cm: Conductivity [uS/cm]
# name 5 = specc: Specific Conductance [uS/cm]
# name 6 = ph: pH
# name 7 = orp: Oxidation Reduction Potential [mV]
# name 8 = flECO-AFL: Fluorescence, WET Labs ECO-AFL/FL [mg/m^3]
# name 9 = turbWETntu0: Turbidity, WET Labs ECO [NTU]
# name 10 = sal00: Salinity, Practical [PSU]
# name 11 = dz/dtM: Descent Rate [m/s]
# name 12 = prdM: Pressure, Strain Gauge [db]
# name 13 = prdE: Pressure, Strain Gauge [psi]
# name 14 = scan: Scan Count
# name 15 = par/sat/log: PAR/Logarithmic, Satlantic
# name 16 = flag:  0.000e+00
# span 0 =     -0.529,      3.714       
# span 1 =     9.8234,    14.0359       
# span 2 =     5.7141,    11.1471       
# span 3 =     54.900,     99.523       
# span 4 =   0.424296,  29.786717       
# span 5 =      0.647,     39.678       
# span 6 =     -3.004,     10.058       
# span 7 =  -975.1769,  1240.2295       
# span 8 =    -1.0675,     4.8767       
# span 9 =    -0.7480,     7.5639       
# span 10 =     0.0051,     0.0215      
# span 11 =     -0.156,      0.171      
# span 12 =     -0.518,      3.642      
# span 13 =     -0.752,      5.282      
# span 14 =          1,        444      
# span 15 = 3.6272e+00, 1.5942e+03      
# span 16 = 0.0000e+00, 0.0000e+00      
# interval = seconds: 0.25
# start_time = Oct 22 2018 14:45:07 [Instrument's time stamp, header]
# bad_flag = -9.990e-29
# <Sensors count="9" >
#   <sensor Channel="1" >
#     <!-- Count, Temperature -->
#     <TemperatureSensor SensorID="58" >
#       <SerialNumber>7809</SerialNumber>
#       <CalibrationDate>09-Mar-18</CalibrationDate>
#       <A0>1.21093245e-003</A0>
#       <A1>2.84356597e-004</A1>
#       <A2>-1.94507398e-006</A2>
#       <A3>2.12806664e-007</A3>
#       <Slope>1.00000000</Slope>
#       <Offset>0.0000</Offset>
#     </TemperatureSensor>
#   </sensor>
#   <sensor Channel="2" >
#     <!-- Frequency 0, Conductivity -->
#     <ConductivitySensor SensorID="3" >
#       <SerialNumber>7809</SerialNumber>
#       <CalibrationDate>09-Mar-18</CalibrationDate>
#       <UseG_J>1</UseG_J>
#       <!-- Cell const and series R are applicable only for wide range sensors. -->
#       <SeriesR>0.0000</SeriesR>
#       <CellConst>2000.0000</CellConst>
#       <ConductivityType>0</ConductivityType>
#       <Coefficients equation="0" >
#         <A>0.00000000e+000</A>
#         <B>0.00000000e+000</B>
#         <C>0.00000000e+000</C>
#         <D>0.00000000e+000</D>
#         <M>0.0</M>
#         <CPcor>-9.57000000e-008</CPcor>
#       </Coefficients>
#       <Coefficients equation="1" >
#         <G>-1.00672082e+000</G>
#         <H>1.26906489e-001</H>
#         <I>-1.40584351e-004</I>
#         <J>2.47837121e-005</J>
#         <CPcor>-9.57000000e-008</CPcor>
#         <CTcor>3.2500e-006</CTcor>
#         <!-- WBOTC not applicable unless ConductivityType = 1. -->
#         <WBOTC>0.00000000e+000</WBOTC>
#       </Coefficients>
#       <Slope>1.00000000</Slope>
#       <Offset>0.00000</Offset>
#     </ConductivitySensor>
#   </sensor>
#   <sensor Channel="3" >
#     <!-- Count, Pressure, Strain Gauge -->
#     <PressureSensor SensorID="46" >
#       <SerialNumber>7809</SerialNumber>
#       <CalibrationDate>07-Mar-18</CalibrationDate>
#       <PA0>-4.08176359e-002</PA0>
#       <PA1>4.85188419e-004</PA1>
#       <PA2>-3.51168169e-012</PA2>
#       <PTEMPA0>-5.37806900e+001</PTEMPA0>
#       <PTEMPA1>5.36620721e+001</PTEMPA1>
#       <PTEMPA2>4.87214332e-002</PTEMPA2>
#       <PTCA0>5.25213435e+005</PTCA0>
#       <PTCA1>1.79532409e+000</PTCA1>
#       <PTCA2>-2.84353509e-001</PTCA2>
#       <PTCB0>2.51668750e+001</PTCB0>
#       <PTCB1>3.75000000e-004</PTCB1>
#       <PTCB2>0.00000000e+000</PTCB2>
#       <Offset>0.000000</Offset>
#     </PressureSensor>
#   </sensor>
#   <sensor Channel="4" >
#     <!-- A/D voltage 0, pH -->
#     <pH_Sensor SensorID="43" >
#       <SerialNumber>0363</SerialNumber>
#       <CalibrationDate>16-Mar-18</CalibrationDate>
#       <Slope>4.6194</Slope>
#       <Offset>2.5947</Offset>
#     </pH_Sensor>
#   </sensor>
#   <sensor Channel="5" >
#     <!-- A/D voltage 1, Oxidation Reduction Potential -->
#     <OxidationReductionPotentialSensor SensorID="41" >
#       <SerialNumber>0363</SerialNumber>
#       <CalibrationDate>16-Mar-18</CalibrationDate>
#       <B>2.499480</B>
#       <M>-0.496195</M>
#       <Offset>0.0</Offset>
#     </OxidationReductionPotentialSensor>
#   </sensor>
#   <sensor Channel="6" >
#     <!-- A/D voltage 2, Oxygen, SBE 43 -->
#     <OxygenSensor SensorID="38" >
#       <SerialNumber>0434</SerialNumber>
#       <CalibrationDate>13-Mar-18</CalibrationDate>
#       <Use2007Equation>1</Use2007Equation>
#       <CalibrationCoefficients equation="0" >
#         <!-- Coefficients for Owens-Millard equation. -->
#         <Boc>0.0000</Boc>
#         <Soc>0.0000e+000</Soc>
#         <offset>0.0000</offset>
#         <Pcor>0.00e+000</Pcor>
#         <Tcor>0.0000</Tcor>
#         <Tau>0.0</Tau>
#       </CalibrationCoefficients>
#       <CalibrationCoefficients equation="1" >
#         <!-- Coefficients for Sea-Bird equation - SBE calibration in 2007 and later. -->
#         <Soc>4.5718e-001</Soc>
#         <offset>-0.6113</offset>
#         <A>-4.0649e-003</A>
#         <B> 2.0945e-004</B>
#         <C>-3.3182e-006</C>
#         <D0> 2.5826e+000</D0>
#         <D1> 1.92634e-004</D1>
#         <D2>-4.64803e-002</D2>
#         <E> 3.6000e-002</E>
#         <Tau20> 1.2200</Tau20>
#         <H1>-3.3000e-002</H1>
#         <H2> 5.0000e+003</H2>
#         <H3> 1.4500e+003</H3>
#       </CalibrationCoefficients>
#     </OxygenSensor>
#   </sensor>
#   <sensor Channel="7" >
#     <!-- A/D voltage 3, PAR/Logarithmic, Satlantic -->
#     <PARLog_SatlanticSensor SensorID="76" >
#       <SerialNumber>1122</SerialNumber>
#       <CalibrationDate>22-Jun-2017</CalibrationDate>
#       <a0>9.6090e-001</a0>
#       <a1>8.0780e-001</a1>
#       <Im>1.3589e+000</Im>
#       <Multiplier>1.0000e+000</Multiplier>
#     </PARLog_SatlanticSensor>
#   </sensor>
#   <sensor Channel="8" >
#     <!-- A/D voltage 4, Fluorometer, WET Labs ECO-AFL/FL -->
#     <FluoroWetlabECO_AFL_FL_Sensor SensorID="20" >
#       <SerialNumber>FLNTURT-2496</SerialNumber>
#       <CalibrationDate>25-Jan-2017</CalibrationDate>
#       <ScaleFactor>5.30000000e+001</ScaleFactor>
#       <!-- Dark output -->
#       <Vblank>0.0560</Vblank>
#     </FluoroWetlabECO_AFL_FL_Sensor>
#   </sensor>
#   <sensor Channel="9" >
#     <!-- A/D voltage 5, Turbidity Meter, WET Labs, ECO-NTU -->
#     <TurbidityMeter SensorID="67" >
#       <SerialNumber>FLNTURT-2496</SerialNumber>
#       <CalibrationDate>25-Jan-2017</CalibrationDate>
#       <ScaleFactor>176.000000</ScaleFactor>
#       <!-- Dark output -->
#       <DarkVoltage>0.072000</DarkVoltage>
#     </TurbidityMeter>
#   </sensor>
# </Sensors>
# datcnv_date = Oct 29 2018 16:48:37, 7.26.7.114 [datcnv_vars = 16]
# datcnv_in = C:\DATA\102218_fcr20.hex C:\DATA\SBE19plusV2_7809.xmlcon
# datcnv_skipover = 0
# datcnv_ox_hysteresis_correction = yes
# datcnv_ox_tau_correction = yes
# filter_date = Oct 29 2018 16:49:04, 7.26.7.114
# filter_in = C:\DATA\102218_fcr20.cnv
# filter_low_pass_tc_A = 0.030
# filter_low_pass_tc_B = 0.150
# filter_low_pass_A_vars = tv290C c0uS/cm par/sat/log
# filter_low_pass_B_vars = prdM prdE
# alignctd_date = Oct 29 2018 16:49:26, 7.26.7.114
# alignctd_in = C:\DATA\102218_fcr20.cnv
# alignctd_adv = tv290C 0.500, sbeox0Mg/L 3.000, sbeox0PS 3.000                                                                                                                                                                      
# file_type = ascii
*END*
     -0.529    10.0640    11.0695     98.183   0.424296      0.647      6.772  -600.0872    -0.1819    -0.2780     0.0051 -6.316e-16     -0.518     -0.751          1 7.8354e+02 0.0000e+00
     -0.528    10.0627    11.0667     98.155   0.501738      0.647      6.359  -382.3323    -0.2224    -0.1706     0.0051      0.000     -0.518     -0.751          2 8.2061e+02 0.0000e+00
     -0.528    10.0611    11.0716     98.185   0.493815      0.806      6.055    -5.6148    -0.2021    -0.2646     0.0052      0.001     -0.518     -0.751          3 5.5174e+02 0.0000e+00
     -0.528    10.0593    11.0716     98.161   0.848661      1.045      5.926   225.6173    -0.2021     0.0577     0.0052      0.001     -0.518     -0.751          4 1.8380e+02 0.0000e+00
     -0.529    10.0575    11.0784     98.185   2.310408      3.432      5.981   185.1857    -0.2224     0.0040     0.0058      0.001     -0.518     -0.752          5 2.9909e+02 0.0000e+00
     -0.529    10.0560    11.0845     98.198   2.819986      3.990      5.957   190.2207    -0.2385    -0.0497     0.0060      0.000     -0.518     -0.752          6 1.1666e+03 0.0000e+00
     -0.528    10.0547    11.0878     98.186   3.086644      4.348      6.048     2.0702    -0.2062     0.0308     0.0061      0.000     -0.518     -0.751          7 1.5103e+03 0.0000e+00
     -0.528    10.0535    11.0943     98.194   3.666401      5.343      6.256  -479.7390    -0.2102     0.0040     0.0064      0.000     -0.518     -0.751          8 1.5140e+03 0.0000e+00
     -0.528    10.0525    11.1048     98.225   3.046062      4.269      6.380  -975.1769    -0.2224    -0.0497     0.0061     -0.000     -0.518     -0.751          9 1.5942e+03 0.0000e+00
     -0.528    10.0514    11.1097     98.202   2.437299      3.513      7.340  -908.6996    -0.2385     0.0308     0.0058     -0.000     -0.518     -0.751         10 1.4014e+03 0.0000e+00
     -0.528    10.0505    11.1230     98.256   2.232775      3.155     10.058  -779.6442    -0.2224    -0.0497     0.0057      0.000     -0.518     -0.751         11 1.1365e+03 0.0000e+00
     -0.528    10.0487    11.1315     98.277   2.086559      2.995      8.945   601.3884    -0.2224    -0.1169     0.0057      0.000     -0.518     -0.751         12 8.5520e+02 0.0000e+00
     -0.528    10.0430    11.1399     98.306   1.967841      2.796      6.625   359.4427    -0.2102    -0.3452     0.0056      0.000     -0.518     -0.751         13 5.6427e+02 0.0000e+00
     -0.527    10.0324    11.1409     98.289   1.788322      2.558      1.002   895.9178    -0.2183    -0.3183     0.0056      0.000     -0.517     -0.750         14 4.5675e+02 0.0000e+00
     -0.527    10.0170    11.1471     98.345   1.628948      2.319     -2.996   897.6592    -0.2224    -0.1706     0.0055      0.001     -0.517     -0.750         15 4.2461e+02 0.0000e+00
     -0.528     9.9993    11.1443     98.331   1.455556      2.081     -2.997   894.5928    -0.1738    -0.2243     0.0054      0.000     -0.517     -0.750         16 3.2601e+02 0.0000e+00
     -0.527     9.9815    11.1398     98.302   1.323097      1.883     -2.997   893.2299    -0.2102    -0.3183     0.0054      0.000     -0.517     -0.750         17 3.2994e+02 0.0000e+00
     -0.527     9.9601    11.1369     98.283   1.260831      1.804     -2.998   893.0785    -0.2102    -0.1974     0.0053      0.001     -0.517     -0.749         18 3.6307e+02 0.0000e+00
     -0.527     9.9334    11.1351     98.271   1.207349      1.725     -2.998   893.4192    -0.2021    -0.2243     0.0053      0.000     -0.517     -0.749         19 4.0098e+02 0.0000e+00
     -0.527     9.9046    11.1384     98.310   1.152785      1.646     -2.999   893.2678    -0.2305    -0.2512     0.0053      0.000     -0.517     -0.750         20 3.9851e+02 0.0000e+00
     -0.527     9.8775    11.1373     98.311   1.269518      1.807     -3.000   893.3056    -0.2102    -0.2914     0.0053      0.000     -0.517     -0.750         21 3.7012e+02 0.0000e+00
     -0.527     9.8540    11.1380     98.329   1.239730      1.809     -3.001   893.3435    -0.2102    -0.1706     0.0053      0.000     -0.517     -0.750         22 3.1948e+02 0.0000e+00
     -0.527     9.8347    11.1354     98.318   1.456333      2.010     -3.002   893.0406    -0.1779    -0.2512     0.0053      0.000     -0.517     -0.750         23 2.7658e+02 0.0000e+00
     -0.528     9.8237    11.1408     98.380   2.213942      3.253     -3.003   893.0785    -0.2021    -0.2914     0.0057     -0.000     -0.518     -0.751         24 2.2874e+02 0.0000e+00
     -0.528     9.8234    11.1403     98.399   2.547228      3.615     -3.004   893.1921    -0.2143    -0.3452     0.0058     -0.000     -0.518     -0.751         25 1.8887e+02 0.0000e+00
     -0.527     9.8282    11.0374     98.338   3.173499      4.537     -3.004   893.0785    -0.2102    -0.1572     0.0060     -0.000     -0.518     -0.751         26 1.6106e+02 0.0000e+00
     -0.528     9.8330    10.8005     98.233   6.142972      8.705     -3.004   893.3056    -0.2183    -0.2512     0.0075     -0.000     -0.518     -0.751         27 1.4784e+02 0.0000e+00
     -0.528     9.8355    10.6278     98.230   6.344011      9.585     -3.004   893.2299    -0.2102    -0.2780     0.0079     -0.000     -0.518     -0.751         28 2.2045e+02 0.0000e+00
     -0.528     9.8375    10.5067     98.207   5.588543      7.260     -3.004   892.9649    -0.2102    -0.3586     0.0070     -0.000     -0.518     -0.751         29 2.6650e+02 0.0000e+00
     -0.528     9.8417    10.4225     98.175   7.557121     11.666     -3.004   893.1921    -0.2305    -0.2646     0.0087     -0.000     -0.518     -0.751         30 3.1393e+02 0.0000e+00
     -0.529     9.8462    10.3649     98.198   6.441178      8.621     -3.004   892.9271    -0.2224    -0.1974     0.0075     -0.000     -0.518     -0.752         31 3.5798e+02 0.0000e+00
     -0.529     9.8512    10.3160     98.179   4.667175      7.178     -3.003   892.6242    -0.2021    -0.2914     0.0070     -0.000     -0.518     -0.752         32 3.8051e+02 0.0000e+00
     -0.529     9.8566    10.2816     98.157   4.552473      6.056     -3.003   892.6620    -0.2224    -0.2109     0.0066     -0.000     -0.518     -0.752         33 4.0950e+02 0.0000e+00
     -0.529     9.8626    10.2415     98.120   4.510920      6.936     -3.003   892.3970    -0.2021    -0.0229     0.0069     -0.001     -0.518     -0.752         34 4.4819e+02 0.0000e+00
     -0.528     9.8728    10.2038     98.113   3.978562      5.294     -3.003  1240.2295    -0.2021    -0.0497     0.0063     -0.000     -0.517     -0.750         35 4.8416e+02 0.0000e+00
     -0.525    10.2619    10.1812     98.134   4.060073      6.133     -0.148  1240.2295    -0.2224    -0.1034     0.0066      0.000     -0.513     -0.743         36 4.2151e+02 0.0000e+00
     -0.515    11.1087    10.1708     98.182   4.320624      5.971      3.036  1240.2295    -0.1819    -0.0497     0.0066      0.004     -0.502     -0.728         37 3.3646e+02 0.0000e+00
     -0.496    11.8302    10.2127     98.690   5.608807      8.008      4.909  1240.2295    -0.2021    -0.7480     0.0075      0.011     -0.485     -0.703         38 4.1270e+02 0.0000e+00
     -0.474    12.3108    10.2654     99.270   9.238993     12.717      6.069  1240.2295    -0.2183    -0.7211     0.0097      0.022     -0.460     -0.666         39 4.0200e+02 0.0000e+00
     -0.432    12.6616    10.2860     99.523  17.783174     23.847      6.827   245.4166    -0.1900    -0.7346     0.0145      0.041     -0.426     -0.617         40 1.5186e+02 0.0000e+00
     -0.397    12.9162    10.2453     99.151  26.946027     36.705      7.227   243.5238    -0.2345    -0.6137     0.0201      0.062     -0.390     -0.565         41 1.0135e+02 0.0000e+00
     -0.362    13.1188    10.1048     97.793  28.657408     37.706      7.449   236.6337    -1.0473     1.2125     0.0207      0.084     -0.355     -0.514         42 9.9465e+01 0.0000e+00
     -0.325    13.2615     9.8543     95.395  28.487899     37.782      7.560   235.1573    -1.0432     1.1991     0.0208      0.105     -0.319     -0.462         43 1.1267e+02 0.0000e+00
     -0.287    13.4196     9.5177     92.134  28.876458     37.728      7.613   234.9302    -1.0675     1.2931     0.0209      0.122     -0.282     -0.408         44 7.5610e+01 0.0000e+00
     -0.250    13.5814     9.1286     88.307  28.855694     37.808      7.619   234.4002    -1.0554     1.3468     0.0210      0.134     -0.243     -0.353         45 1.4377e+02 0.0000e+00
     -0.206    13.6924     8.7096     84.223  29.047356     37.725      7.617   233.7187    -1.0473     1.2259     0.0210      0.143     -0.203     -0.294         46 2.8642e+01 0.0000e+00
     -0.166    13.7607     8.3128     80.369  29.052966     37.710      7.575   231.6744     0.5904     7.5639     0.0211      0.149     -0.165     -0.239         47 2.2820e+02 0.0000e+00
     -0.133    13.8079     7.9556     76.927  29.026550     37.458      7.558   230.1223     0.5823     7.4968     0.0210      0.149     -0.129     -0.188         48 8.9006e+02 0.0000e+00
     -0.098    13.8409     7.6982     74.466  29.050535     37.500      7.549   223.3837     0.5378     7.4699     0.0210      0.149     -0.092     -0.134         49 3.8274e+02 0.0000e+00
     -0.052    13.8651     7.5229     72.798  29.082385     37.455      7.534   222.8158     0.5702     7.5639     0.0210      0.151     -0.049     -0.071         50 5.5609e+02 0.0000e+00
      0.001    13.8751     7.4148     71.773  28.986895     37.315      7.522   224.0273     2.3373     3.9518     0.0210      0.156     -0.000     -0.001         51 1.2126e+03 0.0000e+00
      0.049    13.8766     7.3597     71.259  28.932164     37.220      7.509   225.7687     2.3575     3.9518     0.0210      0.162      0.047      0.068         52 7.1597e+02 0.0000e+00
      0.095    13.8890     7.3435     71.114  28.824347     37.066      7.493   226.8666     2.3453     3.9249     0.0209      0.167      0.091      0.133         53 7.0854e+02 0.0000e+00
      0.136    13.8864     7.3273     70.963  28.705983     36.922      7.476   228.4187     2.3373     3.8846     0.0208      0.171      0.130      0.188         54 5.9548e+02 0.0000e+00
      0.166    13.8579     7.3221     70.912  28.664381     36.838      7.460   227.5101     2.5111     3.7101     0.0208      0.171      0.160      0.232         55 3.5820e+02 0.0000e+00
      0.189    13.8387     7.3288     70.976  28.757523     36.983      7.443   228.2673     2.4950     3.7101     0.0209      0.167      0.183      0.266         56 6.5076e+02 0.0000e+00
      0.206    13.8312     7.3114     70.806  28.827262     37.084      7.429   228.9109     2.4586     3.6832     0.0209      0.154      0.200      0.290         57 5.2436e+02 0.0000e+00
      0.218    13.8369     7.2974     70.666  28.933386     37.245      7.413   230.9551     2.4869     3.6564     0.0210      0.134      0.211      0.306         58 5.7264e+02 0.0000e+00
      0.221    13.8545     7.2870     70.558  29.070195     37.433      7.406   230.1601     2.4869     3.7504     0.0210      0.109      0.215      0.312         59 5.9150e+02 0.0000e+00
      0.219    13.8710     7.2740     70.428  29.042446     37.391      7.400   231.8637     2.5192     3.7772     0.0210      0.082      0.212      0.307         60 3.9213e+02 0.0000e+00
      0.207    13.8851     7.2464     70.158  28.938268     37.230      7.396   232.0909     2.5030     3.6967     0.0210      0.055      0.204      0.295         61 4.4912e+02 0.0000e+00
      0.195    13.8965     7.2249     69.948  28.932994     37.214      7.389   235.0059     2.4626     3.6832     0.0210      0.029      0.195      0.282         62 4.6558e+02 0.0000e+00
      0.193    13.9048     7.2221     69.920  28.930406     37.201      7.387   233.3023     2.6122     3.7772     0.0210      0.009      0.193      0.280         63 5.3354e+02 0.0000e+00
      0.202    13.9083     7.2292     69.984  28.882184     37.118      7.378   234.5137     2.6446     3.6564     0.0209     -0.003      0.200      0.290         64 5.2109e+02 0.0000e+00
      0.216    13.9079     7.2347     70.033  28.874406     37.110      7.369   235.2709     2.6203     3.7504     0.0209     -0.006      0.210      0.305         65 4.2453e+02 0.0000e+00
      0.224    13.9073     7.2433     70.112  28.880786     37.107      7.363   235.6494     2.6122     3.7101     0.0209     -0.003      0.218      0.317         66 4.9375e+02 0.0000e+00
      0.228    13.9066     7.2455     70.130  28.874242     37.107      7.354   236.4444     2.5960     3.7772     0.0209      0.004      0.222      0.322         67 3.5729e+02 0.0000e+00
      0.226    13.9037     7.2467     70.142  28.882549     37.108      7.345   236.3687     2.7538     3.7369     0.0209      0.011      0.223      0.323         68 2.3773e+02 0.0000e+00
      0.227    13.8994     7.2448     70.122  28.929747     37.180      7.338   236.4823     2.7497     3.6967     0.0210      0.017      0.224      0.324         69 3.1768e+02 0.0000e+00
      0.231    13.8966     7.2358     70.034  28.934102     37.183      7.329   237.7694     2.7618     3.6832     0.0210      0.020      0.226      0.328         70 3.2570e+02 0.0000e+00
      0.233    13.8941     7.2122     69.807  28.936428     37.187      7.318   238.1480     2.7538     3.6564     0.0210      0.018      0.227      0.330         71 5.2823e+02 0.0000e+00
      0.233    13.8934     7.1773     69.468  28.986151     37.262      7.310   238.6402     2.7740     3.7235     0.0210      0.012      0.226      0.328         72 3.4952e+02 0.0000e+00
      0.226    13.8926     7.1642     69.337  28.990820     37.264      7.305   238.9430     2.7821     3.7504     0.0210      0.005      0.222      0.323         73 1.4502e+02 0.0000e+00
      0.223    13.8898     7.1324     69.028  28.989918     37.265      7.301   239.7380     2.7538     3.7235     0.0210      0.001      0.220      0.320         74 4.1622e+02 0.0000e+00
      0.225    13.8871     7.1108     68.817  28.987275     37.265      7.298   239.8895     2.7295     3.7638     0.0210     -0.001      0.222      0.321         75 2.3374e+02 0.0000e+00
      0.230    13.8840     7.0820     68.534  28.994110     37.268      7.294   240.7980     2.7982     3.6429     0.0210     -0.001      0.224      0.325         76 2.4375e+02 0.0000e+00
      0.229    13.8825     7.0637     68.352  28.981413     37.271      7.292   241.1009     2.8225     3.7235     0.0210     -0.001      0.225      0.326         77 5.1560e+02 0.0000e+00
      0.229    13.8821     7.0462     68.178  29.003078     37.274      7.290   241.7823     2.7861     3.7369     0.0210     -0.002      0.225      0.326         78 1.9483e+02 0.0000e+00
      0.230    13.8811     7.0281     68.001  29.026449     37.347      7.285   242.0852     2.7861     3.7369     0.0210     -0.001      0.225      0.326         79 9.0541e+01 0.0000e+00
      0.229    13.8809     7.0120     67.843  28.952327     37.204      7.285   242.6152     2.9357     3.7504     0.0210      0.001      0.225      0.326         80 1.3912e+02 0.0000e+00
      0.229    13.8811     6.9938     67.669  28.976722     37.277      7.281   244.0159     2.9438     3.7907     0.0210      0.003      0.225      0.327         81 1.4601e+02 0.0000e+00
      0.230    13.8803     6.9803     67.543  28.996090     37.277      7.280   244.0159     2.9802     3.7235     0.0210      0.003      0.227      0.330         82 1.1473e+02 0.0000e+00
      0.236    13.8786     6.9653     67.388  28.987524     37.277      7.276   244.0538     2.9438     3.6295     0.0210      0.003      0.231      0.335         83 1.6863e+02 0.0000e+00
      0.239    13.8774     6.9510     67.240  28.987382     37.277      7.275   244.5080     3.0085     3.9652     0.0210      0.004      0.234      0.339         84 2.6578e+02 0.0000e+00
      0.241    13.8760     6.9370     67.109  28.996267     37.279      7.265   245.0002     3.0125     3.9249     0.0210      0.006      0.236      0.343         85 1.6302e+02 0.0000e+00
      0.243    13.8733     6.9143     66.889  29.035767     37.352      7.265   245.0759     3.0166     3.9786     0.0210      0.007      0.239      0.346         86 8.2883e+01 0.0000e+00
      0.246    13.8695     6.9028     66.763  28.997523     37.281      7.261   245.1138     3.0085     3.8981     0.0210      0.009      0.242      0.351         87 2.0248e+02 0.0000e+00
      0.250    13.8668     6.8821     66.545  28.984562     37.284      7.257   245.7195     3.0247     3.8444     0.0210      0.011      0.245      0.355         88 3.8302e+02 0.0000e+00
      0.253    13.8652     6.8686     66.400  28.992600     37.288      7.254   246.0602     3.0570     3.8981     0.0210      0.012      0.248      0.359         89 2.0947e+02 0.0000e+00
      0.255    13.8637     6.8446     66.153  28.987522     37.290      7.249   246.6280     3.0772     4.0726     0.0210      0.012      0.250      0.362         90 2.1794e+02 0.0000e+00
      0.255    13.8658     6.8264     65.981  28.990882     37.292      7.247   247.3852     3.0772     3.8981     0.0210      0.010      0.251      0.365         91 2.4626e+02 0.0000e+00
      0.258    13.8679     6.8048     65.787  29.047718     37.365      7.238   247.4988     3.0772     3.9384     0.0210      0.010      0.254      0.370         92 3.2279e+02 0.0000e+00
      0.267    13.8619     6.7881     65.641  29.065038     37.399      7.238   248.1423     3.1986     3.6564     0.0210      0.011      0.259      0.377         93 2.8768e+02 0.0000e+00
      0.271    13.8560     6.7908     65.676  28.998976     37.289      7.230   248.5966     3.2147     3.6429     0.0210      0.013      0.262      0.381         94 1.7788e+02 0.0000e+00
      0.265    13.8580     6.7882     65.661  28.981685     37.295      7.226   248.8238     3.2147     3.7772     0.0210      0.011      0.261      0.379         95 2.6048e+02 0.0000e+00
      0.264    13.8576     6.7940     65.716  28.997611     37.301      7.226   248.7481     3.1824     3.7369     0.0210      0.009      0.261      0.379         96 1.7415e+02 0.0000e+00
      0.271    13.8479     6.7995     65.738  28.979158     37.298      7.221   249.5809     3.0934     3.9786     0.0210      0.009      0.265      0.385         97 5.5984e+02 0.0000e+00
      0.276    13.8361     6.8048     65.754  29.004649     37.299      7.214   249.8081     3.1217     4.0055     0.0210      0.009      0.270      0.391         98 7.0121e+02 0.0000e+00
      0.279    13.8257     6.7672     65.364  29.025187     37.380      7.210   250.1488     3.1258     3.9786     0.0210      0.010      0.272      0.395         99 2.4919e+02 0.0000e+00
      0.278    13.8168     6.7606     65.292  28.953603     37.248      7.206   250.6409     3.1500     3.8309     0.0210      0.009      0.270      0.392        100 1.7307e+02 0.0000e+00
      0.271    13.8184     6.7301     64.999  28.915845     37.257      7.204   250.6409     3.2188     3.9249     0.0210      0.005      0.263      0.382        101 1.4503e+02 0.0000e+00
      0.258    13.8288     6.7043     64.755  28.894286     37.195      7.198   250.6409     3.2228     4.0324     0.0209      0.000      0.253      0.366        102 1.0521e+02 0.0000e+00
      0.244    13.8388     6.6758     64.497  28.921136     37.265      7.196   250.0352     3.1783     3.9786     0.0210     -0.006      0.242      0.350        103 1.5262e+02 0.0000e+00
      0.236    13.8456     6.6547     64.316  29.001026     37.327      7.194   250.6031     3.2147     3.9384     0.0210     -0.015      0.234      0.339        104 1.4058e+02 0.0000e+00
      0.234    13.8528     6.6404     64.175  29.032053     37.389      7.188   250.4895     3.1298     3.9115     0.0210     -0.023      0.231      0.336        105 3.0157e+02 0.0000e+00
      0.239    13.8512     6.6259     63.982  29.001116     37.311      7.184   251.2088     3.1702     3.9384     0.0210     -0.026      0.236      0.342        106 3.2283e+02 0.0000e+00
      0.250    13.8307     6.6175     63.864  28.980226     37.304      7.181   251.5873     3.1177     3.8846     0.0210     -0.022      0.243      0.352        107 1.5036e+02 0.0000e+00
      0.253    13.8059     6.5815     63.509  28.998750     37.304      7.177   251.7766     3.1379     3.9518     0.0210     -0.014      0.246      0.357        108 2.2629e+02 0.0000e+00
      0.252    13.7881     6.5610     63.291  28.978064     37.325      7.171   252.0416     3.1419     3.8309     0.0210     -0.005      0.246      0.357        109 2.5592e+02 0.0000e+00
      0.248    13.7819     6.5461     63.113  28.887379     37.205      7.168   252.4202     3.3320     3.8578     0.0209      0.002      0.244      0.354        110 1.2694e+02 0.0000e+00
      0.248    13.7828     6.5230     62.879  28.874422     37.222      7.165   252.6852     3.3279     3.9786     0.0209      0.007      0.244      0.354        111 1.4088e+02 0.0000e+00
      0.251    13.7870     6.5002     62.653  28.875600     37.228      7.163   253.0638     3.3279     3.9115     0.0209      0.008      0.245      0.356        112 1.2548e+02 0.0000e+00
      0.252    13.7988     6.4755     62.411  28.767322     37.083      7.157   253.0638     3.3360     4.0055     0.0209      0.007      0.245      0.356        113 1.2078e+02 0.0000e+00
      0.247    13.8148     6.4473     62.132  28.712684     37.007      7.155   253.2909     3.2673     3.9786     0.0208      0.002      0.241      0.350        114 2.1202e+02 0.0000e+00
      0.239    13.8108     6.4227     61.888  28.706402     36.995      7.151   253.0259     3.2996     3.9518     0.0208     -0.004      0.234      0.340        115 2.8677e+02 0.0000e+00
      0.232    13.7760     6.3925     61.593  28.656540     36.909      7.150   253.8588     3.2713     3.8175     0.0208     -0.008      0.229      0.332        116 2.8099e+02 0.0000e+00
      0.230    13.7497     6.3576     61.248  28.656139     36.911      7.145   253.8588     3.2713     4.0458     0.0208     -0.010      0.229      0.331        117 1.6469e+02 0.0000e+00
      0.238    13.7439     6.3153     60.832  28.736553     37.054      7.143   254.1995     3.2349     4.0189     0.0209     -0.010      0.234      0.340        118 1.1113e+02 0.0000e+00
      0.249    13.7286     6.2778     60.460  28.764017     37.115      7.142   254.8809     3.2713     4.0055     0.0209     -0.006      0.242      0.350        119 1.3073e+02 0.0000e+00
      0.252    13.7059     6.2365     60.064  28.770213     37.120      7.138   255.0324     3.2592     3.8846     0.0209     -0.002      0.245      0.355        120 1.1709e+02 0.0000e+00
      0.247    13.6956     6.2095     59.814  28.699199     37.062      7.134   254.9566     3.2713     3.9249     0.0208      0.001      0.242      0.351        121 1.1823e+02 0.0000e+00
      0.241    13.6925     6.1682     59.410  28.615210     36.941      7.131   254.9188     3.3441     3.8041     0.0208      0.004      0.239      0.346        122 2.2025e+02 0.0000e+00
      0.243    13.6891     6.1364     59.083  28.637553     37.022      7.130   255.1838     3.3360     3.7504     0.0208      0.006      0.240      0.348        123 1.6958e+02 0.0000e+00
      0.251    13.6839     6.1027     58.740  28.671398     37.025      7.127   256.0924     3.3401     3.6967     0.0208      0.008      0.245      0.355        124 1.7137e+02 0.0000e+00
      0.254    13.6790     6.0731     58.444  28.662039     37.064      7.123   256.2438     3.3360     3.7101     0.0208      0.007      0.247      0.359        125 3.2239e+02 0.0000e+00
      0.253    13.6757     6.0384     58.102  28.530607     36.853      7.118   256.5845     3.3805     3.9518     0.0207      0.004      0.247      0.358        126 2.4384e+02 0.0000e+00
      0.248    13.6699     6.0097     57.813  28.508831     36.857      7.114   256.7359     3.4088     3.9786     0.0207      0.001      0.244      0.354        127 1.1462e+02 0.0000e+00
      0.248    13.6626     5.9885     57.593  28.600195     36.969      7.114   256.8874     3.4129     3.9518     0.0208      0.001      0.243      0.353        128 1.9204e+02 0.0000e+00
      0.248    13.6556     5.9647     57.352  28.594799     36.974      7.109   257.2659     3.4210     3.7907     0.0208      0.002      0.243      0.353        129 6.0433e+02 0.0000e+00
      0.247    13.6568     5.9528     57.237  28.604494     36.981      7.109   257.5309     3.3886     3.9249     0.0208      0.002      0.241      0.350        130 4.2968e+02 0.0000e+00
      0.242    13.6637     5.9345     57.068  28.558483     36.952      7.107   257.6824     3.4371     3.7369     0.0208     -0.002      0.236      0.342        131 4.0435e+02 0.0000e+00
      0.231    13.6591     5.9205     56.940  28.474169     36.807      7.106   263.0960     3.5018     3.6564     0.0207     -0.008      0.229      0.332        132 6.5444e+02 0.0000e+00
      0.227    13.6436     5.9072     56.814  28.501882     36.871      7.106   262.6795     3.4897     3.6967     0.0207     -0.012      0.226      0.327        133 2.7082e+02 0.0000e+00
      0.231    13.6292     5.8993     56.732  28.523995     36.876      7.102   263.5502     3.4695     3.7504     0.0207     -0.012      0.226      0.328        134 7.4761e+01 0.0000e+00
      0.232    13.6205     5.9015     56.739  28.505948     36.891      7.098   263.2852     3.4250     3.7504     0.0207     -0.011      0.228      0.331        135 4.7083e+02 0.0000e+00
      0.236    13.6143     5.8931     56.644  28.524345     36.905      7.094   263.4367     3.4129     3.6564     0.0207     -0.009      0.231      0.336        136 8.4121e+02 0.0000e+00
      0.240    13.6039     5.8842     56.550  28.590052     37.022      7.093   263.0202     3.3967     3.7772     0.0208     -0.006      0.233      0.339        137 4.6888e+02 0.0000e+00
      0.239    13.5914     5.8762     56.490  28.572423     36.991      7.084   263.0960     3.3967     3.6967     0.0208     -0.002      0.233      0.338        138 1.6946e+02 0.0000e+00
      0.235    13.5825     5.8685     56.434  28.516638     36.929      7.075   263.7017     3.5180     3.9786     0.0207      0.002      0.231      0.336        139 2.1329e+02 0.0000e+00
      0.235    13.5811     5.8534     56.298  28.511237     36.941      7.069   263.4745     3.5220     3.9786     0.0207      0.004      0.231      0.336        140 4.1330e+02 0.0000e+00
      0.239    13.5870     5.8438     56.195  28.519851     36.950      7.064   264.7995     3.5544     4.0055     0.0207      0.004      0.236      0.342        141 2.9996e+02 0.0000e+00
      0.246    13.5927     5.8466     56.086  28.594865     37.060      7.063   264.8374     3.5180     3.8712     0.0208      0.005      0.241      0.350        142 1.1179e+02 0.0000e+00
      0.251    13.5937     5.8518     56.018  28.595775     37.054      7.062   263.4367     3.4735     3.8981     0.0208      0.007      0.246      0.356        143 1.6845e+02 0.0000e+00
      0.255    13.5890     5.8481     55.950  28.578015     37.012      7.061   264.4967     3.4493     3.8444     0.0208      0.008      0.249      0.361        144 1.5413e+02 0.0000e+00
      0.256    13.5783     5.8364     55.860  28.587317     37.047      7.059   264.4967     3.4493     3.9115     0.0208      0.010      0.250      0.362        145 2.2289e+02 0.0000e+00
      0.253    13.5664     5.8317     55.820  28.524901     36.943      7.062   265.2917     3.4735     3.9384     0.0207      0.011      0.250      0.362        146 3.5387e+02 0.0000e+00
      0.254    13.5603     5.8327     55.834  28.448152     36.881      7.056   264.6481     3.3886     3.8712     0.0207      0.011      0.253      0.366        147 3.5332e+02 0.0000e+00
      0.265    13.5739     5.8430     55.948  28.475296     36.893      7.056   262.3767     3.3805     3.8846     0.0207      0.012      0.263      0.381        148 1.7752e+02 0.0000e+00
      0.286    13.5859     5.8582     56.096  28.639368     37.152      7.053   262.8688     3.4129     3.8981     0.0208      0.016      0.279      0.406        149 2.2747e+02 0.0000e+00
      0.306    13.5977     5.8772     56.264  28.659046     37.140      7.049   263.5502     3.3967     3.9249     0.0208      0.024      0.293      0.426        150 2.9671e+02 0.0000e+00
      0.306    13.5811     5.8827     56.304  28.569398     37.017      7.041   262.7931     3.4048     3.8981     0.0208      0.029      0.293      0.425        151 1.8380e+02 0.0000e+00
      0.285    13.4801     5.8884     56.349  28.454445     36.865      7.039   262.4524     3.5382     3.9786     0.0207      0.027      0.278      0.403        152 6.1060e+02 0.0000e+00
      0.260    13.3821     5.8988     56.438  28.416671     36.801      7.038   261.9224     3.5140     3.8578     0.0207      0.017      0.260      0.377        153 9.1123e+02 0.0000e+00
      0.251    13.3581     5.9031     56.462  28.497824     37.051      7.038   261.8845     3.5261     3.9921     0.0207      0.005      0.253      0.366        154 6.4928e+02 0.0000e+00
      0.262    13.3724     5.9001     56.418  28.531375     37.142      7.040   262.4524     3.5140     3.9786     0.0207     -0.005      0.259      0.376        155 6.7956e+02 0.0000e+00
      0.279    13.3784     5.8966     56.382  28.641787     37.350      7.035   263.2095     3.5140     3.9786     0.0208     -0.011      0.269      0.392        156 5.8530e+02 0.0000e+00
      0.284    13.3815     5.8964     56.398  28.627265     37.296      7.031   263.2474     3.5342     3.9249     0.0208     -0.014      0.274      0.398        157 5.3124e+02 0.0000e+00
      0.276    13.3943     5.8875     56.342  28.519796     37.147      7.030   263.6260     3.4857     3.8846     0.0207     -0.013      0.269      0.391        158 2.9933e+02 0.0000e+00
      0.265    13.3953     5.8941     56.414  28.508693     37.143      7.031   265.8217     3.5220     4.0324     0.0207     -0.008      0.262      0.380        159 3.7724e+02 0.0000e+00
      0.260    13.3849     5.8929     56.407  28.463191     37.058      7.030   266.3138     3.7202     3.7638     0.0207     -0.001      0.258      0.374        160 6.3807e+02 0.0000e+00
      0.265    13.3744     5.8941     56.438  28.457824     37.056      7.031   265.9731     3.7161     3.6967     0.0207      0.003      0.259      0.377        161 3.3244e+02 0.0000e+00
      0.269    13.3669     5.8910     56.426  28.456073     37.067      7.027   265.7081     3.7242     3.6698     0.0207      0.002      0.263      0.382        162 3.2471e+02 0.0000e+00
      0.272    13.3584     5.8835     56.368  28.465374     37.077      7.027   263.7017     3.7202     3.7235     0.0207     -0.003      0.266      0.385        163 3.8272e+02 0.0000e+00
      0.272    13.3452     5.8702     56.246  28.505551     37.158      7.024   266.2760     3.7323     4.0055     0.0207     -0.005      0.265      0.383        164 3.6839e+02 0.0000e+00
      0.263    13.3330     5.8565     56.112  28.465372     37.092      7.021   264.3831     3.7444     3.8981     0.0207     -0.005      0.260      0.376        165 4.4203e+02 0.0000e+00
      0.259    13.3309     5.8413     55.959  28.456082     37.106      7.017   264.3831     3.7040     3.9518     0.0207     -0.003      0.258      0.374        166 7.8956e+02 0.0000e+00
      0.267    13.3456     5.8161     55.718  28.517119     37.190      7.014   264.6481     3.7161     3.9384     0.0207      0.000      0.265      0.385        167 6.8337e+02 0.0000e+00
      0.285    13.3678     5.7978     55.550  28.596956     37.302      7.011   264.8752     3.6474     3.9115     0.0208      0.005      0.279      0.405        168 2.9235e+02 0.0000e+00
      0.302    13.3751     5.7811     55.393  28.653212     37.361      7.008   265.0645     3.6434     3.9786     0.0208      0.011      0.293      0.426        169 2.4915e+02 0.0000e+00
      0.311    13.3792     5.7496     55.088  28.565700     37.229      7.000   264.8374     3.6312     3.9115     0.0208      0.019      0.300      0.436        170 3.7393e+02 0.0000e+00
      0.305    13.3939     5.7195     54.900  28.468668     37.077      6.997   264.7238     3.6434     3.9249     0.0207      0.023      0.299      0.434        171 4.9323e+02 0.0000e+00
      0.300    13.4087     5.7141     55.095  28.507125     37.146      6.993   265.0267     3.6231     3.8578     0.0207      0.024      0.297      0.430        172 4.0281e+02 0.0000e+00
      0.303    13.4192     5.7833     55.938  28.517838     37.131      6.996   265.1781     3.6595     3.9249     0.0207      0.025      0.300      0.435        173 6.9123e+02 0.0000e+00
      0.315    13.4237     5.9642     57.780  28.514628     37.117      6.996   265.7838     3.6555     3.8712     0.0207      0.024      0.309      0.448        174 5.3441e+02 0.0000e+00
      0.326    13.4214     6.2373     60.478  28.600059     37.215      6.998   265.6324     3.6231     3.9384     0.0208      0.021      0.319      0.462        175 3.1415e+02 0.0000e+00
      0.333    13.4160     6.5629     63.668  28.589407     37.211      6.995   265.6702     3.6555     4.0055     0.0208      0.018      0.326      0.472        176 4.3617e+02 0.0000e+00
      0.335    13.4160     6.9257     67.202  28.527883     37.104      6.995   267.1845     3.7889     3.8981     0.0207      0.017      0.328      0.475        177 3.2410e+02 0.0000e+00
      0.332    13.4219     7.2891     70.733  28.498736     37.110      6.992   265.7838     3.7687     3.9115     0.0207      0.017      0.326      0.472        178 4.4554e+02 0.0000e+00
      0.328    13.4245     7.5927     73.679  28.536738     37.110      6.991   266.1245     3.7970     3.9249     0.0207      0.018      0.322      0.467        179 5.2904e+02 0.0000e+00
      0.326    13.4221     7.8126     75.815  28.480590     37.104      6.994   266.2002     3.7485     4.0189     0.0207      0.015      0.321      0.465        180 6.5586e+02 0.0000e+00
      0.327    13.5094     7.9429     77.076  28.568608     37.102      6.991   266.2002     3.8577     3.7772     0.0207      0.009      0.322      0.466        181 5.8916e+02 0.0000e+00
      0.331    13.7032     7.9973     77.600  29.020177     37.831      6.993   266.9195     3.8374     3.7907     0.0211      0.003      0.324      0.470        182 3.3150e+02 0.0000e+00
      0.333    13.8502     7.9884     77.510  29.223165     37.895      6.992   267.2224     3.8374     3.6967     0.0211     -0.000      0.326      0.474        183 5.2071e+02 0.0000e+00
      0.334    13.9216     7.9586     77.219  29.294375     37.877      6.992   267.1088     3.8051     3.7101     0.0212     -0.000      0.329      0.477        184 5.7396e+02 0.0000e+00
      0.337    13.9629     7.9098     76.748  29.257636     37.630      6.991   267.6388     3.7040     3.8846     0.0211      0.002      0.336      0.487        185 4.4984e+02 0.0000e+00
      0.356    13.9844     7.8612     76.280  29.239180     37.559      6.991   267.7524     3.7444     3.9249     0.0211      0.009      0.358      0.520        186 5.1740e+02 0.0000e+00
      0.403    13.9957     7.8229     75.912  29.287661     37.593      6.983   269.0017     3.7000     3.8981     0.0212      0.027      0.400      0.581        187 3.2221e+02 0.0000e+00
      0.463    13.9982     7.7954     75.649  29.256583     37.500      6.964   271.8410     3.6959     3.9384     0.0211      0.054      0.457      0.663        188 2.7047e+02 0.0000e+00
      0.536    13.9987     7.7770     75.475  29.277848     37.561      6.945   269.9481     3.7000     3.9518     0.0212      0.091      0.515      0.747        189 4.4879e+02 0.0000e+00
      0.575    13.9992     7.7632     75.342  29.231544     37.451      6.938   270.5917     3.7161     3.9518     0.0211      0.125      0.550      0.798        190 3.3497e+02 0.0000e+00
      0.574    13.9979     7.7565     75.276  29.284554     37.558      6.935   270.3645     3.7081     4.0055     0.0212      0.143      0.550      0.798        191 3.1225e+02 0.0000e+00
      0.536    13.9952     7.7379     75.097  29.300825     37.557      6.939   270.5160     3.7444     3.9384     0.0212      0.137      0.518      0.752        192 4.0096e+02 0.0000e+00
      0.478    13.9932     7.7134     74.861  29.240947     37.487      6.943   269.8724     3.7081     4.0324     0.0211      0.102      0.465      0.675        193 3.0185e+02 0.0000e+00
      0.410    13.9924     7.7025     74.757  29.240475     37.490      6.946   269.3045     3.9790     3.9518     0.0211      0.041      0.405      0.588        194 2.9946e+02 0.0000e+00
      0.352    13.9937     7.6867     74.604  29.242113     37.492      6.946   268.9638     3.9830     4.0592     0.0211     -0.034      0.354      0.513        195 3.2247e+02 0.0000e+00
      0.320    13.9956     7.6726     74.466  29.268558     37.528      6.942   270.0995     3.9911     3.9786     0.0212     -0.101      0.322      0.467        196 5.1448e+02 0.0000e+00
      0.312    13.9979     7.6748     74.483  29.237214     37.491      6.931   269.7210     3.9790     3.9115     0.0211     -0.146      0.310      0.450        197 6.2604e+02 0.0000e+00
      0.315    14.0005     7.6608     74.346  29.251471     37.489      6.925   269.6074     3.5099     3.6967     0.0211     -0.156      0.311      0.452        198 3.9339e+02 0.0000e+00
      0.325    14.0026     7.6515     74.258  29.280465     37.559      6.925   269.7967     3.5382     3.7772     0.0212     -0.136      0.318      0.461        199 7.6979e+02 0.0000e+00
      0.331    14.0035     7.6473     74.224  29.260430     37.485      6.926   269.7210     3.5342     3.7235     0.0211     -0.099      0.323      0.468        200 1.3345e+03 0.0000e+00
      0.331    14.0035     7.6471     74.225  29.276402     37.554      6.927   269.6074     3.5301     3.7772     0.0212     -0.058      0.324      0.469        201 9.0956e+02 0.0000e+00
      0.329    14.0039     7.6318     74.075  29.260585     37.482      6.933   269.9481     3.1905     3.7369     0.0211     -0.023      0.321      0.464        202 3.2394e+02 0.0000e+00
      0.321    14.0049     7.6255     74.014  29.309762     37.589      6.934   270.3267     3.1945     3.8309     0.0212     -0.003      0.311      0.451        203 2.7938e+02 0.0000e+00
      0.303    14.0063     7.6196     73.956  29.304152     37.553      6.934   270.8945     3.1986     3.7504     0.0212     -0.001      0.293      0.426        204 4.4624e+02 0.0000e+00
      0.274    14.0066     7.6140     73.904  29.237918     37.481      6.936   269.6074     3.2147     3.7772     0.0211     -0.013      0.267      0.387        205 8.4229e+02 0.0000e+00
      0.239    14.0051     7.6122     73.888  29.243940     37.479      6.938   269.8724     3.3441     3.8981     0.0211     -0.034      0.236      0.343        206 8.1690e+02 0.0000e+00
      0.209    14.0030     7.6122     73.890  29.237358     37.479      6.935   269.7588     3.3360     4.0055     0.0211     -0.057      0.210      0.305        207 7.5424e+02 0.0000e+00
      0.194    14.0021     7.6119     73.886  29.246109     37.480      6.940   269.6831     3.3522     3.9249     0.0211     -0.074      0.198      0.287        208 6.9378e+02 0.0000e+00
      0.202    14.0040     7.6109     73.875  29.262699     37.518      6.939   269.6831     3.3279     3.9249     0.0212     -0.079      0.200      0.290        209 5.8731e+02 0.0000e+00
      0.215    14.0075     7.6230     73.992  29.246362     37.483      6.938   269.9481     3.2754     3.9518     0.0211     -0.071      0.204      0.296        210 7.6007e+02 0.0000e+00
      0.206    14.0090     7.6268     74.029  29.236790     37.481      6.935   269.8345     3.2633     3.8309     0.0211     -0.060      0.191      0.277        211 2.6574e+02 0.0000e+00
      0.164    14.0089     7.6290     74.053  29.244961     37.478      6.938   269.7967     3.2511     3.8981     0.0211     -0.053      0.156      0.225        212 3.6635e+02 0.0000e+00
      0.105    14.0089     7.6294     74.059  29.236193     37.476      6.938   269.9103     3.2875     3.9249     0.0211     -0.058      0.109      0.158        213 1.2385e+03 0.0000e+00
      0.064    14.0086     7.6296     74.063  29.247701     37.477      6.938   269.9860     3.2552     3.9249     0.0211     -0.070      0.074      0.107        214 9.3180e+02 0.0000e+00
      0.057    14.0093     7.6291     74.059  29.289938     37.548      6.939   270.0238     3.3279     3.8309     0.0212     -0.081      0.062      0.090        215 6.3798e+02 0.0000e+00
      0.071    14.0106     7.6265     74.035  29.272577     37.513      6.935   270.5160     3.3320     4.0189     0.0212     -0.087      0.065      0.094        216 1.0230e+03 0.0000e+00
      0.071    14.0117     7.6286     74.056  29.239657     37.476      6.917   270.3267     3.3279     3.8981     0.0211     -0.089      0.061      0.088        217 1.0502e+03 0.0000e+00
      0.043    14.0118     7.6254     74.026  29.241958     37.475      6.906   270.2888     3.3360     3.9518     0.0211     -0.087      0.039      0.057        218 1.0889e+03 0.0000e+00
      0.007    14.0108     7.6278     74.049  29.240062     37.474      6.911   270.2131     3.1986     4.0189     0.0211     -0.080      0.011      0.016        219 1.0909e+03 0.0000e+00
     -0.015    14.0100     7.6232     74.005  29.242015     37.474      6.917   270.2131     3.1986     3.8578     0.0211     -0.068     -0.009     -0.013        220 9.5915e+02 0.0000e+00
     -0.018    14.0106     7.6259     74.030  29.239527     37.475      6.922   270.1753     3.2309     3.9652     0.0211     -0.056     -0.014     -0.021        221 1.0018e+03 0.0000e+00
     -0.011    14.0121     7.6267     74.037  29.272809     37.512      6.922   270.4403     3.2107     4.0055     0.0212     -0.050     -0.012     -0.018        222 1.0728e+03 0.0000e+00
     -0.010    14.0135     7.6189     73.960  29.289546     37.547      6.919   270.5917     3.2633     3.7369     0.0212     -0.049     -0.012     -0.017        223 1.0773e+03 0.0000e+00
     -0.014    14.0146     7.6174     73.945  29.248347     37.474      6.900   270.8188     3.2633     3.7772     0.0211     -0.047     -0.014     -0.020        224 1.0082e+03 0.0000e+00
     -0.018    14.0152     7.6174     73.943  29.235131     37.472      6.885   270.6674     3.2511     3.7101     0.0211     -0.037     -0.017     -0.024        225 9.0350e+02 0.0000e+00
     -0.018    14.0158     7.6208     73.973  29.246695     37.471      6.885   270.7431     3.2835     3.6832     0.0211     -0.020     -0.017     -0.025        226 8.9265e+02 0.0000e+00
     -0.015    14.0162     7.6150     73.915  29.233956     37.471      6.899   271.0460     3.0692     3.9786     0.0211     -0.007     -0.013     -0.020        227 9.1587e+02 0.0000e+00
     -0.009    14.0167     7.6176     73.940  29.250984     37.470      6.911   271.1595     3.0489     3.8981     0.0211      0.001     -0.008     -0.012        228 1.0019e+03 0.0000e+00
     -0.003    14.0171     7.6183     73.947  29.314452     37.577      6.917   271.5760     3.0692     3.9518     0.0212      0.003     -0.004     -0.006        229 1.0915e+03 0.0000e+00
      0.000    14.0169     7.6132     73.899  29.303218     37.541      6.915   271.5381     3.0692     3.9384     0.0212      0.005     -0.001     -0.001        230 1.1195e+03 0.0000e+00
      0.001    14.0164     7.6144     73.912  29.235314     37.469      6.917   271.5381     3.1460     3.9249     0.0211      0.008      0.001      0.001        231 1.1373e+03 0.0000e+00
      0.001    14.0159     7.6061     73.830  29.250710     37.469      6.918   271.5381     3.1460     3.9115     0.0211      0.011      0.001      0.001        232 1.1490e+03 0.0000e+00
      0.001    14.0153     7.6040     73.809  29.284059     37.541      6.920   271.8788     3.1460     3.9249     0.0212      0.011      0.001      0.001        233 1.1562e+03 0.0000e+00
      0.001    14.0142     7.6081     73.854  29.253110     37.470      6.924   271.8410     3.1339     3.9518     0.0211      0.010      0.001      0.002        234 1.1277e+03 0.0000e+00
      0.002    14.0132     7.6121     73.897  29.259576     37.506      6.927   272.2574     3.1298     3.8578     0.0212      0.007      0.002      0.003        235 1.1293e+03 0.0000e+00
      0.004    14.0121     7.6145     73.922  29.305662     37.543      6.928   271.9924     3.2592     3.8578     0.0212      0.005      0.004      0.007        236 1.1080e+03 0.0000e+00
      0.007    14.0107     7.6160     73.940  29.284704     37.544      6.927   272.1060     3.2875     3.9115     0.0212      0.004      0.008      0.012        237 1.1417e+03 0.0000e+00
      0.014    14.0101     7.6209     73.992  29.196710     37.402      6.928   271.9545     3.2592     3.9249     0.0211      0.005      0.016      0.023        238 1.1231e+03 0.0000e+00
      0.028    14.0106     7.6243     74.025  29.237274     37.475      6.928   272.1817     3.2390     4.0055     0.0211      0.010      0.027      0.039        239 1.1528e+03 0.0000e+00
      0.040    14.0115     7.6257     74.038  29.293523     37.547      6.928   272.1817     3.3482     3.9786     0.0212      0.017      0.038      0.055        240 1.1130e+03 0.0000e+00
      0.049    14.0119     7.6239     74.019  29.245307     37.475      6.928   272.7117     3.3320     3.8846     0.0211      0.024      0.048      0.069        241 1.1656e+03 0.0000e+00
      0.057    14.0111     7.6179     73.962  29.267628     37.510      6.920   272.9388     3.3199     3.9115     0.0212      0.030      0.058      0.084        242 8.7173e+02 0.0000e+00
      0.071    14.0113     7.6099     73.885  29.295395     37.545      6.916   272.8253     3.3320     3.8309     0.0212      0.035      0.074      0.108        243 9.8634e+02 0.0000e+00
      0.101    14.0140     7.6028     73.814  29.240403     37.475      6.909   273.5067     3.2390     4.0055     0.0211      0.045      0.103      0.149        244 1.1570e+03 0.0000e+00
      0.144    14.0167     7.5990     73.777  29.247118     37.474      6.898   273.6960     3.2673     3.9786     0.0211      0.060      0.141      0.204        245 8.5198e+02 0.0000e+00
      0.184    14.0178     7.5985     73.772  29.287038     37.543      6.891   273.9231     3.2754     3.9518     0.0212      0.077      0.177      0.256        246 1.3592e+03 0.0000e+00
      0.212    14.0198     7.5969     73.761  29.250019     37.469      6.887   273.6960     3.2592     4.0055     0.0211      0.092      0.203      0.294        247 1.1971e+03 0.0000e+00
      0.224    14.0223     7.6042     73.836  29.263536     37.504      6.884   273.8474     3.1945     3.6967     0.0212      0.102      0.217      0.314        248 7.1153e+02 0.0000e+00
      0.228    14.0226     7.6072     73.872  29.240567     37.466      6.884   273.6581     3.2188     3.7504     0.0211      0.104      0.223      0.323        249 4.6065e+02 0.0000e+00
      0.230    14.0221     7.6102     73.906  29.189657     37.392      6.884   273.6203     3.2390     3.7369     0.0211      0.097      0.228      0.331        250 3.6088e+02 0.0000e+00
      0.241    14.0215     7.6092     73.898  29.237944     37.464      6.888   273.2796     3.2390     3.7504     0.0211      0.084      0.237      0.344        251 5.5954e+02 0.0000e+00
      0.254    14.0220     7.6095     73.902  29.239771     37.464      6.887   273.9988     3.2066     3.7504     0.0211      0.066      0.246      0.356        252 5.8128e+02 0.0000e+00
      0.255    14.0223     7.6128     73.935  29.246681     37.465      6.887   273.9610     3.1541     3.8981     0.0211      0.047      0.249      0.361        253 3.8515e+02 0.0000e+00
      0.252    14.0213     7.6072     73.880  29.258995     37.500      6.887   273.8853     3.1541     4.0189     0.0212      0.031      0.247      0.358        254 4.8557e+02 0.0000e+00
      0.248    14.0209     7.6149     73.952  29.194798     37.392      6.890   273.8853     3.1379     4.0592     0.0211      0.020      0.243      0.353        255 4.2301e+02 0.0000e+00
      0.245    14.0217     7.6090     73.895  29.237625     37.465      6.895   274.0746     3.1015     3.9249     0.0211      0.013      0.243      0.353        256 3.4203e+02 0.0000e+00
      0.252    14.0238     7.6105     73.908  29.294646     37.537      6.897   274.0746     3.0570     3.6967     0.0212      0.010      0.248      0.360        257 6.0442e+02 0.0000e+00
      0.263    14.0265     7.6142     73.939  29.242435     37.464      6.900   274.4910     3.0732     3.7235     0.0211      0.009      0.257      0.371        258 3.8655e+02 0.0000e+00
      0.268    14.0306     7.6161     73.956  29.243301     37.462      6.899   274.5667     3.0692     3.6698     0.0211      0.008      0.262      0.379        259 5.6320e+02 0.0000e+00
      0.269    14.0335     7.6177     73.972  29.293567     37.531      6.896   274.4910     3.0570     3.7772     0.0212      0.008      0.264      0.382        260 8.8641e+02 0.0000e+00
      0.270    14.0346     7.6208     74.002  29.268828     37.492      6.897   274.4910     3.1945     3.8981     0.0212      0.011      0.264      0.383        261 4.7820e+02 0.0000e+00
      0.269    14.0353     7.6215     74.006  29.244437     37.453      6.898   274.5667     3.1824     3.9652     0.0211      0.013      0.262      0.381        262 7.3343e+02 0.0000e+00
      0.264    14.0359     7.6219     74.005  29.234970     37.452      6.897   274.7181     3.2309     4.0055     0.0211      0.012      0.258      0.376        263 1.1124e+03 0.0000e+00
      0.259    14.0357     7.6252     74.029  29.250960     37.451      6.897   274.7181     3.2147     3.9518     0.0211      0.007      0.257      0.374        264 4.0946e+02 0.0000e+00
      0.266    14.0343     7.6205     73.978  29.283838     37.522      6.896   274.5288     3.0853     3.8041     0.0212      0.002      0.267      0.387        265 2.8694e+02 0.0000e+00
      0.292    14.0339     7.6146     73.918  29.312652     37.523      6.896   274.3774     3.0449     3.9921     0.0212      0.005      0.289      0.419        266 5.8007e+02 0.0000e+00
      0.326    14.0331     7.6047     73.820  29.304050     37.560      6.893   274.4531     3.0692     3.8712     0.0212      0.018      0.320      0.464        267 3.2762e+02 0.0000e+00
      0.361    14.0305     7.6003     73.777  29.264894     37.453      6.886   274.8317     3.0732     4.0324     0.0211      0.038      0.351      0.510        268 4.2512e+02 0.0000e+00
      0.388    14.0292     7.6003     73.776  29.272432     37.525      6.881   275.5888     3.2066     3.9115     0.0212      0.059      0.376      0.546        269 5.0941e+02 0.0000e+00
      0.401    14.0294     7.5946     73.720  29.265020     37.456      6.866   275.3996     3.1945     3.9786     0.0211      0.076      0.391      0.567        270 3.6874e+02 0.0000e+00
      0.407    14.0291     7.5947     73.720  29.274118     37.529      6.862   275.8538     3.2147     4.0592     0.0212      0.086      0.401      0.581        271 5.8769e+02 0.0000e+00
      0.419    14.0278     7.5971     73.742  29.261109     37.457      6.865   276.0431     3.1945     3.9518     0.0211      0.088      0.414      0.600        272 4.7207e+02 0.0000e+00
      0.441    14.0246     7.5959     73.730  29.281211     37.529      6.869   276.5731     3.2026     3.8981     0.0212      0.084      0.438      0.635        273 4.4521e+02 0.0000e+00
      0.480    14.0200     7.5965     73.735  29.278753     37.494      6.868   277.6710     3.4048     3.7101     0.0212      0.081      0.475      0.688        274 3.6897e+02 0.0000e+00
      0.531    14.0165     7.5876     73.647  29.234519     37.461      6.861   278.1253     3.3846     3.6832     0.0211      0.085      0.519      0.752        275 2.7649e+02 0.0000e+00
      0.576    14.0147     7.5862     73.633  29.188013     37.394      6.859   278.3146     3.4007     3.7369     0.0211      0.097      0.557      0.808        276 3.0667e+02 0.0000e+00
      0.598    14.0137     7.5845     73.614  29.188384     37.398      6.855   278.3524     3.4169     3.8846     0.0211      0.109      0.579      0.839        277 2.2813e+02 0.0000e+00
      0.596    14.0131     7.5833     73.600  29.234060     37.471      6.854   278.5039     3.5342     3.8578     0.0211      0.115      0.584      0.847        278 2.7129e+02 0.0000e+00
      0.593    14.0129     7.5821     73.588  29.249770     37.472      6.857   278.3903     3.5180     3.9115     0.0211      0.110      0.588      0.852        279 3.1216e+02 0.0000e+00
      0.610    14.0126     7.5821     73.589  29.257782     37.508      6.866   278.6931     3.5180     3.8041     0.0212      0.099      0.603      0.875        280 3.5298e+02 0.0000e+00
      0.642    14.0120     7.5827     73.595  29.253738     37.473      6.867   279.2989     3.5342     3.9384     0.0211      0.087      0.632      0.917        281 2.6479e+02 0.0000e+00
      0.682    14.0112     7.5822     73.591  29.284452     37.545      6.869   279.1096     3.5180     3.9786     0.0212      0.079      0.670      0.971        282 2.7206e+02 0.0000e+00
      0.725    14.0108     7.5836     73.604  29.249208     37.474      6.864   280.0939     3.5261     3.9518     0.0211      0.078      0.705      1.022        283 2.4726e+02 0.0000e+00
      0.747    14.0103     7.5863     73.630  29.238300     37.474      6.857   279.5260     3.5140     3.9249     0.0211      0.084      0.728      1.055        284 3.0744e+02 0.0000e+00
      0.754    14.0097     7.5906     73.668  29.238729     37.475      6.856   279.9046     3.5342     3.8444     0.0211      0.093      0.741      1.074        285 2.4566e+02 0.0000e+00
      0.764    14.0090     7.5945     73.690  29.248674     37.475      6.857   279.7531     3.6474     3.9786     0.0211      0.099      0.753      1.092        286 2.0646e+02 0.0000e+00
      0.784    14.0075     7.6034     73.740  29.255572     37.512      6.864   279.8289     3.6555     3.9249     0.0212      0.099      0.775      1.124        287 2.4776e+02 0.0000e+00
      0.825    14.0060     7.6049     73.728  29.200496     37.405      6.864   280.6239     3.6312     3.9249     0.0211      0.097      0.807      1.170        288 1.8679e+02 0.0000e+00
      0.858    14.0057     7.5993     73.668  29.228269     37.478      6.864   280.5860     3.6353     3.8712     0.0211      0.093      0.837      1.215        289 1.8048e+02 0.0000e+00
      0.880    14.0059     7.5928     73.600  29.250660     37.480      6.860   280.6239     3.8011     4.2472     0.0211      0.090      0.859      1.246        290 1.9850e+02 0.0000e+00
      0.891    14.0063     7.5820     73.490  29.231929     37.480      6.857   280.8131     3.7768     4.1801     0.0211      0.087      0.871      1.263        291 2.8558e+02 0.0000e+00
      0.894    14.0067     7.5626     73.297  29.251579     37.479      6.857   280.6239     3.7889     4.1398     0.0211      0.085      0.877      1.273        292 2.4364e+02 0.0000e+00
      0.902    14.0069     7.5489     73.160  29.255857     37.515      6.858   280.6996     3.7404     4.0592     0.0212      0.082      0.887      1.288        293 2.2575e+02 0.0000e+00
      0.920    14.0067     7.5231     72.908  29.256255     37.479      6.860   280.7374     3.7768     3.9652     0.0211      0.075      0.907      1.316        294 1.8444e+02 0.0000e+00
      0.953    14.0047     7.5143     72.821  29.280733     37.550      6.861   281.4567     3.8698     3.8712     0.0212      0.069      0.936      1.358        295 1.4557e+02 0.0000e+00
      0.991    13.9940     7.5010     72.690  29.255044     37.479      6.861   281.7217     3.8738     3.8981     0.0211      0.068      0.970      1.406        296 1.6945e+02 0.0000e+00
      1.022    13.9723     7.4846     72.531  29.228926     37.481      6.856   281.9110     3.8738     3.9249     0.0211      0.074      0.999      1.449        297 1.5046e+02 0.0000e+00
      1.043    13.9559     7.4760     72.447  29.194641     37.419      6.853   282.1003     3.8294     3.9518     0.0211      0.084      1.018      1.476        298 1.4829e+02 0.0000e+00
      1.047    13.9517     7.4739     72.423  29.179118     37.440      6.850   281.7974     4.0477     3.9652     0.0211      0.090      1.028      1.491        299 1.4935e+02 0.0000e+00
      1.054    13.9493     7.4724     72.403  29.218603     37.492      6.851   282.2896     4.0477     3.9384     0.0211      0.091      1.038      1.506        300 1.2988e+02 0.0000e+00
      1.076    13.9459     7.4713     72.387  29.234458     37.532      6.855   282.2139     4.0315     3.8309     0.0211      0.088      1.058      1.535        301 1.2558e+02 0.0000e+00
      1.107    13.9427     7.4886     72.550  29.189038     37.462      6.857   282.6682     4.0558     3.9652     0.0211      0.083      1.086      1.575        302 1.2481e+02 0.0000e+00
      1.138    13.9402     7.4979     72.639  29.186181     37.465      6.855   282.9332     4.2418     3.9384     0.0211      0.079      1.113      1.614        303 1.1558e+02 0.0000e+00
      1.159    13.9391     7.5045     72.705  29.178717     37.469      6.852   283.0089     4.2499     3.9518     0.0211      0.077      1.134      1.644        304 1.1953e+02 0.0000e+00
      1.172    13.9374     7.5145     72.804  29.139031     37.399      6.852   282.7060     4.2297     3.9518     0.0211      0.077      1.147      1.664        305 1.1598e+02 0.0000e+00
      1.179    13.9362     7.5174     72.833  29.205922     37.508      6.854   283.0467     4.2378     3.8846     0.0211      0.078      1.154      1.675        306 1.1201e+02 0.0000e+00
      1.181    13.9364     7.5221     72.879  29.184419     37.474      6.853   283.3496     4.2297     3.9652     0.0211      0.075      1.161      1.685        307 1.1019e+02 0.0000e+00
      1.193    13.9359     7.5219     72.879  29.136140     37.403      6.854   283.1603     4.2418     3.9518     0.0211      0.069      1.177      1.708        308 1.0932e+02 0.0000e+00
      1.228    13.9337     7.5274     72.933  29.177055     37.475      6.854   283.7660     4.2499     3.9921     0.0211      0.064      1.206      1.749        309 1.0985e+02 0.0000e+00
      1.266    13.9304     7.5232     72.893  29.192800     37.475      6.851   284.2203     4.2378     3.8981     0.0211      0.064      1.239      1.797        310 1.0460e+02 0.0000e+00
      1.294    13.9269     7.5171     72.836  29.235145     37.549      6.848   284.4853     4.1529     3.8578     0.0211      0.070      1.267      1.838        311 9.8072e+01 0.0000e+00
      1.318    13.9240     7.5233     72.897  29.183658     37.481      6.845   284.2582     4.1933     3.9786     0.0211      0.080      1.290      1.871        312 1.0088e+02 0.0000e+00
      1.333    13.9229     7.5168     72.823  29.167929     37.448      6.844   284.2582     4.1771     3.9384     0.0211      0.089      1.306      1.894        313 8.4538e+01 0.0000e+00
      1.343    13.9241     7.5193     72.828  29.225072     37.559      6.841   284.6367     4.1771     3.9249     0.0211      0.093      1.318      1.911        314 9.1690e+01 0.0000e+00
      1.356    13.9259     7.5164     72.785  29.201493     37.488      6.845   284.3717     4.1245     3.8444     0.0211      0.092      1.331      1.930        315 9.8144e+01 0.0000e+00
      1.373    13.9265     7.5145     72.757  29.226921     37.558      6.848   284.4096     4.2742     3.9786     0.0211      0.085      1.349      1.956        316 9.0205e+01 0.0000e+00
      1.398    13.9272     7.5147     72.746  29.193427     37.485      6.847   284.4853     4.2863     3.9249     0.0211      0.075      1.372      1.990        317 9.5939e+01 0.0000e+00
      1.425    13.9283     7.5173     72.755  29.183879     37.484      6.849   284.9017     4.2984     3.9518     0.0211      0.071      1.397      2.027        318 8.0908e+01 0.0000e+00
      1.451    13.9286     7.5123     72.701  29.209156     37.520      6.848   285.0532     4.3146     3.9249     0.0211      0.073      1.422      2.062        319 7.5433e+01 0.0000e+00
      1.472    13.9288     7.5070     72.640  29.191619     37.482      6.847   284.9774     4.2984     3.8309     0.0211      0.077      1.442      2.092        320 7.5161e+01 0.0000e+00
      1.487    13.9300     7.5018     72.584  29.176053     37.482      6.847   285.0910     4.2944     3.9518     0.0211      0.082      1.460      2.117        321 7.6161e+01 0.0000e+00
      1.506    13.9304     7.4935     72.491  29.139579     37.410      6.849   285.1667     4.2903     4.0055     0.0211      0.085      1.478      2.145        322 7.3310e+01 0.0000e+00
      1.530    13.9237     7.4862     72.402  29.177712     37.481      6.850   285.2803     4.3267     4.0861     0.0211      0.086      1.501      2.178        323 6.8454e+01 0.0000e+00
      1.558    13.9120     7.4744     72.274  29.187896     37.480      6.850   285.8482     4.3348     4.0055     0.0211      0.087      1.527      2.215        324 6.7473e+01 0.0000e+00
      1.584    13.9023     7.4597     72.129  29.186205     37.487      6.850   285.8860     4.3591     4.0055     0.0211      0.087      1.553      2.252        325 6.1721e+01 0.0000e+00
      1.608    13.8965     7.4534     72.070  29.209469     37.534      6.844   286.1889     4.3793     4.0189     0.0211      0.088      1.577      2.287        326 6.2888e+01 0.0000e+00
      1.632    13.8884     7.4558     72.096  29.129299     37.436      6.843   286.6810     4.3753     3.9786     0.0211      0.090      1.599      2.319        327 5.9103e+01 0.0000e+00
      1.650    13.8791     7.4482     72.027  29.078433     37.370      6.843   286.5674     4.3348     3.9384     0.0210      0.092      1.619      2.349        328 5.8290e+01 0.0000e+00
      1.674    13.8742     7.4543     72.082  29.124527     37.449      6.842   286.5674     4.3510     3.8981     0.0211      0.093      1.642      2.382        329 5.7491e+01 0.0000e+00
      1.702    13.8694     7.4562     72.074  29.131238     37.459      6.840   286.4917     4.3753     3.8981     0.0211      0.095      1.668      2.420        330 5.4285e+01 0.0000e+00
      1.727    13.8646     7.4641     72.104  29.188683     37.534      6.836   287.0596     4.3591     3.9518     0.0211      0.094      1.697      2.461        331 5.1151e+01 0.0000e+00
      1.764    13.8572     7.4674     72.102  29.141989     37.504      6.828   287.5896     4.4116     4.1935     0.0211      0.097      1.728      2.507        332 4.6245e+01 0.0000e+00
      1.797    13.8461     7.4642     72.054  29.100402     37.400      6.825   287.5139     4.4278     4.2069     0.0210      0.102      1.758      2.550        333 4.4431e+01 0.0000e+00
      1.819    13.8373     7.4592     72.000  29.151492     37.551      6.822   287.7789     4.4278     4.1264     0.0211      0.106      1.781      2.582        334 4.3849e+01 0.0000e+00
      1.832    13.8354     7.4476     71.886  29.108062     37.418      6.819   287.5896     4.4359     4.2069     0.0210      0.106      1.794      2.602        335 4.4659e+01 0.0000e+00
      1.836    13.8367     7.4432     71.841  29.154454     37.571      6.815   287.5896     4.4197     4.0995     0.0211      0.100      1.801      2.612        336 4.5290e+01 0.0000e+00
      1.839    13.8381     7.4308     71.718  29.153059     37.500      6.815   287.4003     4.5006     3.8981     0.0211      0.087      1.808      2.622        337 4.5158e+01 0.0000e+00
      1.855    13.8406     7.4100     71.516  29.139448     37.535      6.817   287.5896     4.4885     3.9518     0.0211      0.074      1.823      2.643        338 4.4522e+01 0.0000e+00
      1.880    13.8386     7.3955     71.358  29.141743     37.498      6.820   287.7032     4.4966     3.8981     0.0211      0.065      1.847      2.679        339 4.1783e+01 0.0000e+00
      1.915    13.8216     7.3921     71.292  29.120552     37.495      6.820   288.0439     4.4804     3.9921     0.0211      0.061      1.879      2.725        340 3.9684e+01 0.0000e+00
      1.951    13.7932     7.3839     71.183  29.136171     37.497      6.818   288.4603     4.5087     3.9249     0.0211      0.067      1.911      2.771        341 3.7993e+01 0.0000e+00
      1.978    13.7711     7.3574     70.891  29.063010     37.441      6.816   288.5360     4.5087     3.9384     0.0210      0.078      1.935      2.807        342 3.7027e+01 0.0000e+00
      1.991    13.7608     7.3679     70.967  29.004062     37.361      6.814   288.3846     4.4804     3.9786     0.0210      0.088      1.950      2.829        343 3.6283e+01 0.0000e+00
      1.999    13.7568     7.3496     70.782  29.061294     37.490      6.813   288.4603     4.5087     4.0592     0.0210      0.093      1.960      2.843        344 3.6220e+01 0.0000e+00
      2.006    13.7555     7.3332     70.621  29.110390     37.537      6.811   288.2710     4.5613     4.0995     0.0211      0.090      1.968      2.855        345 3.6041e+01 0.0000e+00
      2.016    13.7539     7.3134     70.424  29.120863     37.576      6.816   288.6875     4.5774     4.2069     0.0211      0.080      1.980      2.872        346 3.4242e+01 0.0000e+00
      2.036    13.7522     7.2770     70.063  29.077913     37.505      6.820   288.3846     4.5410     4.1264     0.0210      0.069      1.998      2.897        347 3.3227e+01 0.0000e+00
      2.058    13.7513     7.2423     69.715  29.074895     37.507      6.821   288.3089     4.5532     4.1801     0.0210      0.060      2.018      2.927        348 3.1921e+01 0.0000e+00
      2.080    13.7396     7.2086     69.371  29.065320     37.509      6.824   288.6496     4.8443     4.0995     0.0210      0.056      2.040      2.959        349 3.0895e+01 0.0000e+00
      2.104    13.7189     7.1854     69.128  29.000881     37.401      6.821   288.8389     4.8362     4.1532     0.0210      0.060      2.065      2.996        350 3.0452e+01 0.0000e+00
      2.136    13.6990     7.1590     68.859  29.036493     37.484      6.821   289.3310     4.8362     4.1532     0.0210      0.071      2.095      3.039        351 2.9531e+01 0.0000e+00
      2.169    13.6766     7.1368     68.635  28.991356     37.433      6.814   289.4825     4.8079     4.1666     0.0210      0.084      2.124      3.081        352 2.8557e+01 0.0000e+00
      2.193    13.6601     7.1147     68.414  28.938466     37.379      6.811   289.6717     4.8443     4.1935     0.0210      0.095      2.148      3.115        353 2.7422e+01 0.0000e+00
      2.208    13.6543     7.0928     68.197  28.983728     37.474      6.810   289.3689     4.8767     4.2741     0.0210      0.099      2.165      3.140        354 2.7006e+01 0.0000e+00
      2.223    13.6528     7.0767     68.030  28.994335     37.490      6.808   289.4446     4.8564     4.1264     0.0210      0.097      2.180      3.162        355 2.6319e+01 0.0000e+00
      2.238    13.6490     7.0666     67.911  28.984569     37.495      6.807   289.5203     4.8605     4.0995     0.0210      0.093      2.195      3.183        356 2.5483e+01 0.0000e+00
      2.253    13.6416     7.0542     67.762  28.995884     37.497      6.807   290.0882     4.8564     4.1935     0.0210      0.086      2.212      3.207        357 2.4941e+01 0.0000e+00
      2.274    13.6325     7.0427     67.625  28.980255     37.500      6.806   290.0125     4.6987     3.9518     0.0210      0.078      2.232      3.237        358 2.4437e+01 0.0000e+00
      2.300    13.6201     7.0459     67.628  28.944722     37.435      6.806   290.0882     4.6987     4.0189     0.0210      0.073      2.258      3.274        359 2.3653e+01 0.0000e+00
      2.333    13.6072     7.0536     67.682  28.921510     37.444      6.805   290.8832     4.6704     4.0055     0.0210      0.074      2.289      3.319        360 2.2354e+01 0.0000e+00
      2.368    13.5978     7.0647     67.766  28.890549     37.384      6.799   291.2239     4.6543     3.8846     0.0209      0.083      2.321      3.366        361 2.1270e+01 0.0000e+00
      2.398    13.5905     7.0769     67.858  28.923960     37.469      6.792   291.6782     4.7594     4.0055     0.0210      0.093      2.349      3.406        362 2.0617e+01 0.0000e+00
      2.419    13.5850     7.0896     67.959  28.939235     37.478      6.790   291.4889     4.7554     4.0726     0.0210      0.102      2.369      3.436        363 2.0357e+01 0.0000e+00
      2.429    13.5804     7.1047     68.094  28.930843     37.485      6.784   291.0346     4.7432     3.9652     0.0210      0.103      2.382      3.455        364 1.9992e+01 0.0000e+00
      2.441    13.5727     7.1270     68.302  28.934407     37.490      6.785   291.3753     4.7715     3.9384     0.0210      0.099      2.395      3.475        365 1.9367e+01 0.0000e+00
      2.460    13.5579     7.1456     68.480  28.934801     37.495      6.787   291.1103     4.1690     3.8309     0.0210      0.092      2.413      3.500        366 1.8784e+01 0.0000e+00
      2.482    13.5385     7.1660     68.687  28.871057     37.430      6.785   291.2617     4.1690     3.9921     0.0209      0.084      2.433      3.530        367 1.8283e+01 0.0000e+00
      2.502    13.5201     7.1866     68.898  28.835845     37.371      6.789   291.4510     4.1892     3.9249     0.0209      0.076      2.452      3.558        368 1.7920e+01 0.0000e+00
      2.519    13.5022     7.2170     69.192  28.860031     37.463      6.788   290.8832     4.1690     3.9249     0.0209      0.070      2.472      3.585        369 1.7382e+01 0.0000e+00
      2.541    13.4879     7.2437     69.437  28.781668     37.336      6.790   291.2239     4.5693     4.0324     0.0209      0.069      2.495      3.618        370 1.6630e+01 0.0000e+00
      2.570    13.4742     7.2702     69.680  28.755481     37.353      6.790   291.2239     4.5491     3.8309     0.0209      0.074      2.523      3.659        371 1.5861e+01 0.0000e+00
      2.606    13.4570     7.2840     69.796  28.714733     37.294      6.793   290.9589     4.5855     4.0055     0.0209      0.085      2.554      3.704        372 1.5131e+01 0.0000e+00
      2.637    13.4432     7.2904     69.839  28.654492     37.235      6.792   291.2996     4.5653     3.9249     0.0208      0.094      2.582      3.744        373 1.4800e+01 0.0000e+00
      2.654    13.4365     7.2908     69.845  28.652564     37.252      6.791   291.4889     4.4116     3.9115     0.0208      0.098      2.600      3.770        374 1.4652e+01 0.0000e+00
      2.662    13.4329     7.2906     69.850  28.598546     37.193      6.789   291.3753     4.4561     3.9786     0.0208      0.097      2.609      3.783        375 1.4562e+01 0.0000e+00
      2.663    13.4332     7.2982     69.927  28.603128     37.199      6.791   291.4889     4.4399     3.9921     0.0208      0.089      2.612      3.787        376 1.4529e+01 0.0000e+00
      2.663    13.4403     7.3044     69.986  28.676512     37.312      6.790   291.2996     4.4278     3.9786     0.0208      0.077      2.613      3.790        377 1.4551e+01 0.0000e+00
      2.666    13.4491     7.3132     70.032  28.714761     37.348      6.794   291.4889     4.4561     3.9115     0.0209      0.060      2.618      3.797        378 1.4292e+01 0.0000e+00
      2.681    13.4510     7.3270     70.108  28.703770     37.341      6.794   291.4889     4.1609     3.7504     0.0209      0.045      2.631      3.816        379 1.3761e+01 0.0000e+00
      2.700    13.4444     7.3340     70.133  28.601243     37.187      6.795   291.4132     4.1690     3.6564     0.0208      0.035      2.651      3.845        380 1.3344e+01 0.0000e+00
      2.727    13.4366     7.3402     70.161  28.605163     37.185      6.793   291.5267     4.1771     3.7101     0.0208      0.035      2.676      3.881        381 1.2756e+01 0.0000e+00
      2.759    13.4257     7.3462     70.195  28.580296     37.192      6.792   291.8675     4.1892     3.7235     0.0208      0.046      2.703      3.921        382 1.2176e+01 0.0000e+00
      2.784    13.4149     7.3589     70.310  28.483951     37.017      6.790   292.0946     4.5491     3.9249     0.0207      0.061      2.726      3.954        383 1.1970e+01 0.0000e+00
      2.797    13.4155     7.3751     70.467  28.547178     37.173      6.790   291.9432     4.5491     3.9384     0.0208      0.074      2.740      3.973        384 1.1893e+01 0.0000e+00
      2.798    13.4202     7.4008     70.648  28.531264     37.111      6.787   291.8675     4.5653     3.9786     0.0207      0.078      2.745      3.981        385 1.1957e+01 0.0000e+00
      2.802    13.4233     7.4521     70.938  28.503757     37.110      6.786   292.0189     4.5613     3.9249     0.0207      0.075      2.752      3.992        386 1.1819e+01 0.0000e+00
      2.819    13.4215     7.4892     71.157  28.611057     37.215      6.788   291.8675     4.4763     3.6967     0.0208      0.068      2.772      4.021        387 1.1147e+01 0.0000e+00
      2.861    13.3983     7.5318     71.487  28.575621     37.212      6.786   292.7760     4.4683     3.7504     0.0208      0.067      2.806      4.069        388 1.0521e+01 0.0000e+00
      2.902    13.3624     7.5762     71.859  28.369966     36.886      6.780   293.0410     4.4723     3.7772     0.0206      0.071      2.842      4.122        389 1.0016e+01 0.0000e+00
      2.932    13.3354     7.6246     72.289  28.274025     36.836      6.774   293.0032     4.5249     3.7369     0.0206      0.078      2.871      4.164        390 9.6598e+00 0.0000e+00
      2.952    13.3147     7.6873     72.880  28.250304     36.798      6.768   293.0789     4.6462     3.9384     0.0206      0.088      2.891      4.193        391 9.5177e+00 0.0000e+00
      2.960    13.3009     7.7383     73.375  28.162316     36.751      6.765   293.0789     4.6300     3.8846     0.0206      0.095      2.902      4.208        392 9.4415e+00 0.0000e+00
      2.965    13.2956     7.7831     73.818  28.146350     36.697      6.763   293.0789     4.6179     3.9115     0.0205      0.097      2.908      4.217        393 9.4162e+00 0.0000e+00
      2.970    13.2985     7.8387     74.313  28.151589     36.784      6.761   293.3060     4.6543     3.9249     0.0206      0.089      2.917      4.230        394 9.2100e+00 0.0000e+00
      2.988    13.2518     7.8802     74.658  27.948269     36.460      6.766   293.2303     4.7068     3.6295     0.0204      0.076      2.933      4.254        395 8.8544e+00 0.0000e+00
      3.015    13.1340     7.9095     74.933  27.687838     36.167      6.770   293.4196     4.6704     3.6295     0.0203      0.063      2.960      4.293        396 8.3850e+00 0.0000e+00
      3.056    13.0446     7.9217     75.062  27.556623     35.987      6.769   293.5332     4.6987     3.6564     0.0202      0.062      2.993      4.341        397 7.9850e+00 0.0000e+00
      3.084    13.0003     7.9354     75.194  27.488991     36.069      6.765   293.2303     4.7109     3.7235     0.0202      0.069      3.020      4.381        398 7.7965e+00 0.0000e+00
      3.101    12.9676     7.9407     75.246  27.416277     36.002      6.765   293.7225     4.6826     3.7907     0.0201      0.078      3.040      4.409        399 7.6064e+00 0.0000e+00
      3.117    12.9510     7.9425     75.282  27.439618     36.120      6.766   293.9496     4.3510     3.6832     0.0202      0.087      3.054      4.429        400 7.5204e+00 0.0000e+00
      3.123    12.9478     7.9376     75.248  27.459963     36.149      6.768   293.4953     4.3591     3.8041     0.0202      0.090      3.061      4.439        401 7.5017e+00 0.0000e+00
      3.124    12.9561     7.9249     75.125  27.450263     36.167      6.768   293.6846     4.3672     3.7504     0.0201      0.083      3.064      4.444        402 7.5115e+00 0.0000e+00
      3.126    12.9651     7.9116     74.992  27.510989     36.242      6.772   293.5332     4.3591     3.7907     0.0202      0.069      3.069      4.452        403 7.4237e+00 0.0000e+00
      3.140    12.9467     7.8888     74.771  27.473334     36.199      6.775   293.5332     4.2661     3.6161     0.0202      0.053      3.083      4.471        404 7.1763e+00 0.0000e+00
      3.164    12.9183     7.8649     74.540  27.348888     36.004      6.775   293.6468     4.2580     3.4952     0.0201      0.043      3.103      4.501        405 7.0069e+00 0.0000e+00
      3.189    12.9160     7.8311     74.223  27.339743     36.023      6.777   293.4575     4.2054     3.4415     0.0201      0.043      3.127      4.535        406 6.8108e+00 0.0000e+00
      3.212    12.9240     7.8003     73.928  27.455073     36.198      6.778   293.6468     4.2135     3.5087     0.0201      0.050      3.150      4.568        407 6.5730e+00 0.0000e+00
      3.234    12.9249     7.7771     73.670  27.501837     36.273      6.780   293.7982     4.3429     3.6161     0.0202      0.059      3.172      4.600        408 6.4786e+00 0.0000e+00
      3.255    12.9269     7.7600     73.354  27.459430     36.192      6.780   293.5710     4.3672     3.4952     0.0201      0.071      3.195      4.635        409 6.3211e+00 0.0000e+00
      3.287    12.9376     7.7405     73.000  27.567142     36.338      6.782   294.0632     4.3753     3.5221     0.0202      0.083      3.225      4.678        410 5.9698e+00 0.0000e+00
      3.324    12.9455     7.7269     72.708  27.812499     36.668      6.781   293.9875     4.3510     3.4952     0.0204      0.095      3.259      4.726        411 5.7151e+00 0.0000e+00
      3.358    12.9433     7.7145     72.482  27.865619     36.731      6.781   294.0632     4.4399     3.5221     0.0204      0.104      3.289      4.771        412 5.5650e+00 0.0000e+00
      3.381    12.9400     7.7095     72.413  27.886447     36.723      6.779   294.1389     4.4480     3.4818     0.0204      0.108      3.313      4.804        413 5.4847e+00 0.0000e+00
      3.396    12.9361     7.7273     72.619  27.964464     36.873      6.777   294.2146     4.4076     3.4012     0.0204      0.108      3.329      4.828        414 5.4311e+00 0.0000e+00
      3.408    12.9348     7.7584     72.973  27.946416     36.802      6.776   294.3660     4.4319     3.4952     0.0204      0.104      3.343      4.848        415 5.3572e+00 0.0000e+00
      3.421    12.9348     7.8055     73.477  27.908909     36.806      6.777   294.0632     4.4278     3.4818     0.0204      0.097      3.358      4.871        416 5.2491e+00 0.0000e+00
      3.445    12.9354     7.8544     73.981  27.951846     36.808      6.779   294.1010     4.4278     3.4952     0.0204      0.089      3.382      4.905        417 5.0302e+00 0.0000e+00
      3.479    12.9072     7.9145     74.508  27.892983     36.806      6.775   294.6310     4.4399     3.6027     0.0204      0.084      3.414      4.953        418 4.8139e+00 0.0000e+00
      3.522    12.8187     7.9510     74.807  27.922869     36.734      6.771   295.3125     4.4480     3.4550     0.0204      0.086      3.453      5.009        419 4.5576e+00 0.0000e+00
      3.564    12.7127     7.9725     74.990  27.973951     36.978      6.761   295.4260     4.4116     3.5355     0.0205      0.095      3.491      5.064        420 4.3594e+00 0.0000e+00
      3.593    12.6151     7.9766     75.032  27.621896     36.442      6.752   294.8582     3.9345     3.4550     0.0202      0.107      3.520      5.104        421 4.2759e+00 0.0000e+00
      3.609    12.5476     7.9691     74.988  27.471604     36.467      6.749   294.8582     3.9102     3.4415     0.0202      0.116      3.537      5.129        422 4.2161e+00 0.0000e+00
      3.616    12.5334     7.9531     74.868  27.479134     36.490      6.748   294.7446     3.9143     3.5758     0.0201      0.116      3.545      5.142        423 4.2004e+00 0.0000e+00
      3.620    12.5574     7.9406     74.782  27.464324     36.593      6.750   294.0632     3.9102     3.6295     0.0202      0.107      3.550      5.149        424 4.1612e+00 0.0000e+00
      3.626    12.5938     7.9275     74.662  27.579001     36.718      6.752   294.4418     3.6838     3.5758     0.0202      0.090      3.556      5.157        425 4.1252e+00 0.0000e+00
      3.632    12.6329     7.9326     74.710  27.632899     36.806      6.754   294.2903     3.6636     3.5624     0.0203      0.069      3.562      5.166        426 4.1253e+00 0.0000e+00
      3.637    12.6558     7.9217     74.610  27.841951     36.992      6.753   294.2525     3.6797     3.4415     0.0204      0.048      3.568      5.175        427 4.0831e+00 0.0000e+00
      3.645    12.6351     7.9054     74.464  27.822833     37.029      6.754   294.1389     3.6231     3.5490     0.0204      0.033      3.575      5.186        428 4.0381e+00 0.0000e+00
      3.656    12.6079     7.8901     74.337  27.449149     36.373      6.755   294.2146     3.5787     3.5624     0.0201      0.027      3.585      5.199        429 4.0217e+00 0.0000e+00
      3.665    12.5971     7.8552     74.027  27.536156     36.619      6.761   294.4039     3.6191     3.6564     0.0202      0.026      3.594      5.213        430 3.9716e+00 0.0000e+00
      3.675    12.5989     7.8048     73.563  27.773850     36.904      6.759   294.3282     3.5948     3.5624     0.0203      0.029      3.603      5.226        431 3.9446e+00 0.0000e+00
      3.683    12.6137     7.7268     72.836  27.746297     36.915      6.763   293.7982     3.5787     3.5221     0.0203      0.032      3.611      5.238        432 3.8934e+00 0.0000e+00
      3.689    12.6334 -9.990e-29 -9.990e-29  27.837277     36.988      6.765   293.8739     3.6636     3.5221     0.0204      0.033      3.617      5.246        433 3.8256e+00 0.0000e+00
      3.694    12.6504 -9.990e-29 -9.990e-29  27.897808     37.121      6.765   293.7982     3.6636     3.5892     0.0204      0.033      3.622      5.253        434 3.7978e+00 0.0000e+00
      3.697    12.6536 -9.990e-29 -9.990e-29  27.908143     37.029      6.770   294.1768     3.6838     3.4952     0.0204      0.031      3.626      5.258        435 3.7865e+00 0.0000e+00
      3.701    12.6525 -9.990e-29 -9.990e-29  27.824408     37.010      6.767   293.9118     3.6353     3.6564     0.0204      0.027      3.630      5.264        436 3.7514e+00 0.0000e+00
      3.707    12.6547 -9.990e-29 -9.990e-29  27.942713     37.008      6.770   293.9875     3.1864     3.4684     0.0204      0.024      3.635      5.271        437 3.6455e+00 0.0000e+00
      3.711    12.6592 -9.990e-29 -9.990e-29  29.391590     39.049      6.766   294.1010     3.2066     3.4415     0.0213      0.021      3.638      5.277        438 3.6320e+00 0.0000e+00
      3.712    12.6697 -9.990e-29 -9.990e-29  29.786717     39.678      6.766   292.7382     3.1945     3.6027     0.0215      0.018      3.640      5.280        439 3.6893e+00 0.0000e+00
      3.712    12.6800 -9.990e-29 -9.990e-29  28.518348     37.707      6.769   293.1168     3.2188     3.6161     0.0207      0.015      3.641      5.280        440 3.6696e+00 0.0000e+00
      3.713    12.6878 -9.990e-29 -9.990e-29  28.212669     37.549      6.770   294.3282     3.1945     3.5490     0.0206      0.013      3.641      5.281        441 3.6334e+00 0.0000e+00
      3.713    12.6921 -9.990e-29 -9.990e-29  28.239927     37.389      6.771   294.1768     3.4654     3.7101     0.0206      0.010      3.642      5.282        442 3.6272e+00 0.0000e+00
      3.714 -9.990e-29 -9.990e-29 -9.990e-29  28.187942     37.457      6.770   294.0632     3.4654     3.7369     0.0206      0.008      3.642      5.282        443 3.6404e+00 0.0000e+00
      3.714 -9.990e-29 -9.990e-29 -9.990e-29  28.277360     37.451      6.773   294.1768     3.4614     3.7235     0.0206      0.005      3.642      5.282        444 3.6513e+00 0.0000e+00
