* Sea-Bird SBE19plus  Data File:
* FileName = C:\DATA\120618_fcr50_0001.hex
* Software version 2.6.3.104
* Temperature SN = 7809
* Conductivity SN = 7809
* System UpLoad Time = Dec 06 2018 16:36:23
* <ApplicationData>
* <Seaterm232>
* <SoftwareVersion>2.6.3.104</SoftwareVersion>
* <BuildDate>30-Jun-2017</BuildDate>
* </Seaterm232>
* </ApplicationData>
* <InstrumentState>
* <HardwareData DeviceType='SBE19plus' SerialNumber='01907809'>
*
*    <Manufacturer>Sea-Bird Electronics, Inc.</Manufacturer>
*
*    <FirmwareVersion>3.1.8</FirmwareVersion>
*
*    <FirmwareDate>Mar  9 2016 16:22:29</FirmwareDate>
*
*    <CommandSetVersion>1.4</CommandSetVersion>
*
*    <PCBAssembly PCBSerialNum='120721' AssemblyNum='41054J'/>
*
*    <PCBAssembly PCBSerialNum='120715' AssemblyNum='41967A'/>
*
*    <PCBAssembly PCBSerialNum='116699' AssemblyNum='41606'/>
*
*    <PCBAssembly PCBSerialNum='120719' AssemblyNum='41059D'/>
*
*    <MfgDate>28-Apr-2017</MfgDate>
*
*    <InternalSensors>
*
*       <Sensor id='Main Temperature'>
*
*          <type>temperature0</type>
*
*          <SerialNumber>01907809</SerialNumber>
*
*       </Sensor>
*
*       <Sensor id='Main Conductivity'>
*
*          <type>conductivity-0</type>
*
*          <SerialNumber>01907809</SerialNumber>
*
*       </Sensor>
*
*       <Sensor id='Main Pressure'>
*
*          <type>strain-0</type>
*
*          <SerialNumber>10586018</SerialNumber>
*
*       </Sensor>
*
*    </InternalSensors>
*
*    <ExternalSensors>
*
*       <Sensor id='volt 0'>
*
*          <type>pH</type>
*
*          <SerialNumber>27-0363</SerialNumber>
*
*       </Sensor>
*
*       <Sensor id='volt 1'>
*
*          <type>ORP</type>
*
*          <SerialNumber>27-0363</SerialNumber>
*
*       </Sensor>
*
*       <Sensor id='volt 2'>
*
*          <type>OXY</type>
*
*          <SerialNumber>43-0434</SerialNumber>
*
*       </Sensor>
*
*       <Sensor id='volt 3'>
*
*          <type>PAR</type>
*
*          <SerialNumber>1122</SerialNumber>
*
*       </Sensor>
*
*       <Sensor id='volt 4'>
*
*          <type>ECO AFL/FL</type>
*
*          <SerialNumber>FLNTURT-2496</SerialNumber>
*
*       </Sensor>
*
*       <Sensor id='volt 5'>
*
*          <type>ECO-NTU</type>
*
*          <SerialNumber>FLNTURT-2496</SerialNumber>
*
*       </Sensor>
*
*       <Sensor id='serial'>
*
*          <type>not assigned</type>
*
*          <SerialNumber>not assigned</SerialNumber>
*
*       </Sensor>
*
*    </ExternalSensors>
*
* </HardwareData>
* <StatusData DeviceType='SBE19plus' SerialNumber='01907809'>
*
*    <DateTime>2018-12-06T21:35:51</DateTime>
*
*    <LoggingState>not logging</LoggingState>
*
*    <EventSummary numEvents='0'/>
*
*    <Power>
*
*       <vMain>12.7</vMain>
*
*       <vLith>8.3</vLith>
*
*       <iMain>63.1</iMain>
*
*       <iPump>89.3</iPump>
*
*       <iExt01>14.6</iExt01>
*
*       <iExt2345>45.5</iExt2345>
*
*    </Power>
*
*    <MemorySummary>
*
*       <Bytes>35719</Bytes>
*
*       <Samples>1553</Samples>
*
*       <SamplesFree>2859235</SamplesFree>
*
*       <SampleLength>23</SampleLength>
*
*       <Profiles>2</Profiles>
*
*    </MemorySummary>
*
* </StatusData>
* <ConfigurationData DeviceType='SBE19plus' SerialNumber='01907809'>
*
*    <ProfileMode>
*
*       <ScansToAverage>1</ScansToAverage>
*
*       <MinimumCondFreq>5</MinimumCondFreq>
*
*       <PumpDelay>45</PumpDelay>
*
*       <AutoRun>no</AutoRun>
*
*       <IgnoreSwitch>no</IgnoreSwitch>
*
*    </ProfileMode>
*
*    <Battery>
*
*       <Type>alkaline</Type>
*
*       <CutOff>7.5</CutOff>
*
*    </Battery>
*
*    <DataChannels>
*
*       <ExtVolt0>yes</ExtVolt0>
*
*       <ExtVolt1>yes</ExtVolt1>
*
*       <ExtVolt2>yes</ExtVolt2>
*
*       <ExtVolt3>yes</ExtVolt3>
*
*       <ExtVolt4>yes</ExtVolt4>
*
*       <ExtVolt5>yes</ExtVolt5>
*
*       <SBE38>no</SBE38>
*
*       <WETLABS>no</WETLABS>
*
*       <OPTODE>no</OPTODE>
*
*       <SBE63>no</SBE63>
*
*       <SeaFET>no</SeaFET>
*
*       <GTD>no</GTD>
*
*    </DataChannels>
*
*    <EchoCharacters>yes</EchoCharacters>
*
*    <OutputExecutedTag>yes</OutputExecutedTag>
*
*    <OutputFormat>raw HEX</OutputFormat>
*
* </ConfigurationData>
* <CalibrationCoefficients DeviceType='SBE19plus' SerialNumber='01907809'>
*
*    <Calibration format='TEMP1' id='Main Temperature'>
*
*       <SerialNum>01907809</SerialNum>
*
*       <CalDate>09-Mar-18</CalDate>
*
*       <TA0>1.210932e-03</TA0>
*
*       <TA1>2.843566e-04</TA1>
*
*       <TA2>-1.945074e-06</TA2>
*
*       <TA3>2.128067e-07</TA3>
*
*       <TOFFSET>0.000000e+00</TOFFSET>
*
*    </Calibration>
*
*    <Calibration format='WBCOND0' id='Main Conductivity'>
*
*       <SerialNum>01907809</SerialNum>
*
*       <CalDate>09-Mar-18</CalDate>
*
*       <G>-1.006721e+00</G>
*
*       <H>1.269065e-01</H>
*
*       <I>-1.405844e-04</I>
*
*       <J>2.478371e-05</J>
*
*       <CPCOR>-9.570000e-08</CPCOR>
*
*       <CTCOR>3.250000e-06</CTCOR>
*
*       <CSLOPE>1.000000e+00</CSLOPE>
*
*    </Calibration>
*
*    <Calibration format='STRAIN0' id='Main Pressure'>
*
*       <SerialNum>10586018</SerialNum>
*
*       <CalDate>07-Mar-18</CalDate>
*
*       <PA0>-4.081764e-02</PA0>
*
*       <PA1>4.851884e-04</PA1>
*
*       <PA2>-3.511682e-12</PA2>
*
*       <PTCA0>5.252134e+05</PTCA0>
*
*       <PTCA1>1.795324e+00</PTCA1>
*
*       <PTCA2>-2.843535e-01</PTCA2>
*
*       <PTCB0>2.516687e+01</PTCB0>
*
*       <PTCB1>3.750000e-04</PTCB1>
*
*       <PTCB2>0.000000e+00</PTCB2>
*
*       <PTEMPA0>-5.378069e+01</PTEMPA0>
*
*       <PTEMPA1>5.366207e+01</PTEMPA1>
*
*       <PTEMPA2>4.872143e-02</PTEMPA2>
*
*       <POFFSET>5.000000e-01</POFFSET>
*
*       <PRANGE>1.600000e+02</PRANGE>
*
*    </Calibration>
*
*    <Calibration format='VOLT0' id='Volt 0'>
*
*       <OFFSET>-4.920000e-02</OFFSET>
*
*       <SLOPE>1.248122e+00</SLOPE>
*
*    </Calibration>
*
*    <Calibration format='VOLT0' id='Volt 1'>
*
*       <OFFSET>-4.784000e-02</OFFSET>
*
*       <SLOPE>1.248871e+00</SLOPE>
*
*    </Calibration>
*
*    <Calibration format='VOLT0' id='Volt 2'>
*
*       <OFFSET>-4.864632e-02</OFFSET>
*
*       <SLOPE>1.248714e+00</SLOPE>
*
*    </Calibration>
*
*    <Calibration format='VOLT0' id='Volt 3'>
*
*       <OFFSET>-4.743790e-02</OFFSET>
*
*       <SLOPE>1.248571e+00</SLOPE>
*
*    </Calibration>
*
*    <Calibration format='VOLT0' id='Volt 4'>
*
*       <OFFSET>-4.671263e-02</OFFSET>
*
*       <SLOPE>1.248951e+00</SLOPE>
*
*    </Calibration>
*
*    <Calibration format='VOLT0' id='Volt 5'>
*
*       <OFFSET>-4.871053e-02</OFFSET>
*
*       <SLOPE>1.249136e+00</SLOPE>
*
*    </Calibration>
*
*    <Calibration format='FREQ0' id='external frequency channel'>
*
*       <EXTFREQSF>1.000014e+00</EXTFREQSF>
*
*    </Calibration>
*
* </CalibrationCoefficients>
* <EventCounters DeviceType='SBE19plus' SerialNumber='01907809'>
*
*    <EventSummary numEvents='0'/>
*
* </EventCounters></InstrumentState>
* <Headers>
*
* cast   1 06 Dec 2018 15:38:22 samples 1 to 818, avg = 1, stop = mag switch
*
# nquan = 17
# nvalues = 626                         
# units = specified
# name 0 = depFM: Depth [fresh water, m]
# name 1 = tv290C: Temperature [ITS-90, deg C]
# name 2 = sbeox0Mg/L: Oxygen, SBE 43 [mg/l]
# name 3 = sbeox0PS: Oxygen, SBE 43 [% saturation]
# name 4 = c0uS/cm: Conductivity [uS/cm]
# name 5 = specc: Specific Conductance [uS/cm]
# name 6 = ph: pH
# name 7 = orp: Oxidation Reduction Potential [mV]
# name 8 = flECO-AFL: Fluorescence, WET Labs ECO-AFL/FL [mg/m^3]
# name 9 = turbWETntu0: Turbidity, WET Labs ECO [NTU]
# name 10 = sal00: Salinity, Practical [PSU]
# name 11 = dz/dtM: Descent Rate [m/s]
# name 12 = prdM: Pressure, Strain Gauge [db]
# name 13 = prdE: Pressure, Strain Gauge [psi]
# name 14 = scan: Scan Count
# name 15 = par/sat/log: PAR/Logarithmic, Satlantic
# name 16 = flag:  0.000e+00
# span 0 =     -0.567,      9.806       
# span 1 =     2.2541,     5.4726       
# span 2 =     2.6180,    13.4142       
# span 3 =     20.688,    104.358       
# span 4 =   0.798912, 115.320624       
# span 5 =      1.241,    190.611       
# span 6 =     -3.279,     16.504       
# span 7 = -1240.7455,  1240.2295       
# span 8 =    -0.3154,     4.4319       
# span 9 =    -0.3854,     7.3625       
# span 10 =     0.0002,     0.0862      
# span 11 =     -0.057,      0.321      
# span 12 =     -0.556,      9.616      
# span 13 =     -0.807,     13.947      
# span 14 =          1,        626      
# span 15 = 1.2390e-01, 1.2062e+03      
# span 16 = 0.0000e+00, 0.0000e+00      
# interval = seconds: 0.25
# start_time = Dec 06 2018 15:38:22 [Instrument's time stamp, header]
# bad_flag = -9.990e-29
# <Sensors count="9" >
#   <sensor Channel="1" >
#     <!-- Count, Temperature -->
#     <TemperatureSensor SensorID="58" >
#       <SerialNumber>7809</SerialNumber>
#       <CalibrationDate>09-Mar-18</CalibrationDate>
#       <A0>1.21093245e-003</A0>
#       <A1>2.84356597e-004</A1>
#       <A2>-1.94507398e-006</A2>
#       <A3>2.12806664e-007</A3>
#       <Slope>1.00000000</Slope>
#       <Offset>0.0000</Offset>
#     </TemperatureSensor>
#   </sensor>
#   <sensor Channel="2" >
#     <!-- Frequency 0, Conductivity -->
#     <ConductivitySensor SensorID="3" >
#       <SerialNumber>7809</SerialNumber>
#       <CalibrationDate>09-Mar-18</CalibrationDate>
#       <UseG_J>1</UseG_J>
#       <!-- Cell const and series R are applicable only for wide range sensors. -->
#       <SeriesR>0.0000</SeriesR>
#       <CellConst>2000.0000</CellConst>
#       <ConductivityType>0</ConductivityType>
#       <Coefficients equation="0" >
#         <A>0.00000000e+000</A>
#         <B>0.00000000e+000</B>
#         <C>0.00000000e+000</C>
#         <D>0.00000000e+000</D>
#         <M>0.0</M>
#         <CPcor>-9.57000000e-008</CPcor>
#       </Coefficients>
#       <Coefficients equation="1" >
#         <G>-1.00672082e+000</G>
#         <H>1.26906489e-001</H>
#         <I>-1.40584351e-004</I>
#         <J>2.47837121e-005</J>
#         <CPcor>-9.57000000e-008</CPcor>
#         <CTcor>3.2500e-006</CTcor>
#         <!-- WBOTC not applicable unless ConductivityType = 1. -->
#         <WBOTC>0.00000000e+000</WBOTC>
#       </Coefficients>
#       <Slope>1.00000000</Slope>
#       <Offset>0.00000</Offset>
#     </ConductivitySensor>
#   </sensor>
#   <sensor Channel="3" >
#     <!-- Count, Pressure, Strain Gauge -->
#     <PressureSensor SensorID="46" >
#       <SerialNumber>7809</SerialNumber>
#       <CalibrationDate>07-Mar-18</CalibrationDate>
#       <PA0>-4.08176359e-002</PA0>
#       <PA1>4.85188419e-004</PA1>
#       <PA2>-3.51168169e-012</PA2>
#       <PTEMPA0>-5.37806900e+001</PTEMPA0>
#       <PTEMPA1>5.36620721e+001</PTEMPA1>
#       <PTEMPA2>4.87214332e-002</PTEMPA2>
#       <PTCA0>5.25213435e+005</PTCA0>
#       <PTCA1>1.79532409e+000</PTCA1>
#       <PTCA2>-2.84353509e-001</PTCA2>
#       <PTCB0>2.51668750e+001</PTCB0>
#       <PTCB1>3.75000000e-004</PTCB1>
#       <PTCB2>0.00000000e+000</PTCB2>
#       <Offset>0.000000</Offset>
#     </PressureSensor>
#   </sensor>
#   <sensor Channel="4" >
#     <!-- A/D voltage 0, pH -->
#     <pH_Sensor SensorID="43" >
#       <SerialNumber>0363</SerialNumber>
#       <CalibrationDate>16-Mar-18</CalibrationDate>
#       <Slope>4.6194</Slope>
#       <Offset>2.5947</Offset>
#     </pH_Sensor>
#   </sensor>
#   <sensor Channel="5" >
#     <!-- A/D voltage 1, Oxidation Reduction Potential -->
#     <OxidationReductionPotentialSensor SensorID="41" >
#       <SerialNumber>0363</SerialNumber>
#       <CalibrationDate>16-Mar-18</CalibrationDate>
#       <B>2.499480</B>
#       <M>-0.496195</M>
#       <Offset>0.0</Offset>
#     </OxidationReductionPotentialSensor>
#   </sensor>
#   <sensor Channel="6" >
#     <!-- A/D voltage 2, Oxygen, SBE 43 -->
#     <OxygenSensor SensorID="38" >
#       <SerialNumber>0434</SerialNumber>
#       <CalibrationDate>13-Mar-18</CalibrationDate>
#       <Use2007Equation>1</Use2007Equation>
#       <CalibrationCoefficients equation="0" >
#         <!-- Coefficients for Owens-Millard equation. -->
#         <Boc>0.0000</Boc>
#         <Soc>0.0000e+000</Soc>
#         <offset>0.0000</offset>
#         <Pcor>0.00e+000</Pcor>
#         <Tcor>0.0000</Tcor>
#         <Tau>0.0</Tau>
#       </CalibrationCoefficients>
#       <CalibrationCoefficients equation="1" >
#         <!-- Coefficients for Sea-Bird equation - SBE calibration in 2007 and later. -->
#         <Soc>4.5718e-001</Soc>
#         <offset>-0.6113</offset>
#         <A>-4.0649e-003</A>
#         <B> 2.0945e-004</B>
#         <C>-3.3182e-006</C>
#         <D0> 2.5826e+000</D0>
#         <D1> 1.92634e-004</D1>
#         <D2>-4.64803e-002</D2>
#         <E> 3.6000e-002</E>
#         <Tau20> 1.2200</Tau20>
#         <H1>-3.3000e-002</H1>
#         <H2> 5.0000e+003</H2>
#         <H3> 1.4500e+003</H3>
#       </CalibrationCoefficients>
#     </OxygenSensor>
#   </sensor>
#   <sensor Channel="7" >
#     <!-- A/D voltage 3, PAR/Logarithmic, Satlantic -->
#     <PARLog_SatlanticSensor SensorID="76" >
#       <SerialNumber>1122</SerialNumber>
#       <CalibrationDate>22-Jun-2017</CalibrationDate>
#       <a0>9.6090e-001</a0>
#       <a1>8.0780e-001</a1>
#       <Im>1.3589e+000</Im>
#       <Multiplier>1.0000e+000</Multiplier>
#     </PARLog_SatlanticSensor>
#   </sensor>
#   <sensor Channel="8" >
#     <!-- A/D voltage 4, Fluorometer, WET Labs ECO-AFL/FL -->
#     <FluoroWetlabECO_AFL_FL_Sensor SensorID="20" >
#       <SerialNumber>FLNTURT-2496</SerialNumber>
#       <CalibrationDate>25-Jan-2017</CalibrationDate>
#       <ScaleFactor>5.30000000e+001</ScaleFactor>
#       <!-- Dark output -->
#       <Vblank>0.0560</Vblank>
#     </FluoroWetlabECO_AFL_FL_Sensor>
#   </sensor>
#   <sensor Channel="9" >
#     <!-- A/D voltage 5, Turbidity Meter, WET Labs, ECO-NTU -->
#     <TurbidityMeter SensorID="67" >
#       <SerialNumber>FLNTURT-2496</SerialNumber>
#       <CalibrationDate>25-Jan-2017</CalibrationDate>
#       <ScaleFactor>176.000000</ScaleFactor>
#       <!-- Dark output -->
#       <DarkVoltage>0.072000</DarkVoltage>
#     </TurbidityMeter>
#   </sensor>
# </Sensors>
# datcnv_date = Dec 06 2018 16:38:09, 7.26.7.114 [datcnv_vars = 16]
# datcnv_in = C:\DATA\120618_fcr50.hex C:\DATA\SBE19plusV2_7809.xmlcon
# datcnv_skipover = 0
# datcnv_ox_hysteresis_correction = yes
# datcnv_ox_tau_correction = yes
# filter_date = Dec 06 2018 16:39:23, 7.26.7.114
# filter_in = C:\DATA\120618_fcr50.cnv
# filter_low_pass_tc_A = 0.030
# filter_low_pass_tc_B = 0.150
# filter_low_pass_A_vars = tv290C c0uS/cm par/sat/log
# filter_low_pass_B_vars = prdM prdE
# alignctd_date = Dec 06 2018 16:39:44, 7.26.7.114
# alignctd_in = C:\DATA\120618_fcr50.cnv
# alignctd_adv = tv290C 0.500, sbeox0Mg/L 3.000, sbeox0PS 3.000                                                                                                                                                                      
# file_type = ascii
*END*
     -0.567     2.2716    13.3973     97.600   1.179748      2.111      6.241 -1240.7455    -0.2507    -0.2377     0.0004      0.000     -0.556     -0.806          1 1.2062e+03 0.0000e+00
     -0.567     2.2727    13.3968     97.598   1.223367      2.315     -0.165 -1240.7455    -0.2102    -0.1706     0.0005     -0.000     -0.556     -0.807          2 1.1054e+03 0.0000e+00
     -0.567     2.2738    13.4030     97.637   1.138827      2.008      7.181 -1240.7455    -0.2426    -0.3049     0.0004     -0.000     -0.556     -0.807          3 1.1142e+03 0.0000e+00
     -0.567     2.2739    13.4140     97.709   1.433003      2.673     13.642  -734.8212    -0.2264    -0.0900     0.0006     -0.000     -0.556     -0.807          4 8.9622e+02 0.0000e+00
     -0.567     2.2739    13.4142     97.707   1.449458      2.673     15.939  1240.2295    -0.2102    -0.1169     0.0006     -0.000     -0.556     -0.807          5 2.4564e+02 0.0000e+00
     -0.567     2.2744    13.4021     97.615   1.444053      2.571      9.404   921.0550    -0.2224    -0.0900     0.0006     -0.000     -0.556     -0.807          6 7.3007e+01 0.0000e+00
     -0.567     2.2755    13.3758     97.617   1.232463      2.418     -0.176   920.8278    -0.2385    -0.0497     0.0006     -0.000     -0.556     -0.807          7 2.3482e+02 0.0000e+00
     -0.567     2.2753    13.1191     97.434   0.913329      1.446     -3.278   920.6386    -0.2345    -0.1303     0.0002     -0.000     -0.556     -0.807          8 5.7663e+01 0.0000e+00
     -0.567     2.2764    12.8517     97.220   1.071370      2.213     -2.195   164.3264    -0.2264    -0.0632     0.0005     -0.000     -0.556     -0.807          9 3.8422e+02 0.0000e+00
     -0.566     2.2750    12.6885     97.119   0.798912      1.241      0.026   915.1114    -0.2021    -0.1572     0.0002      0.000     -0.555     -0.806         10 1.0027e+03 0.0000e+00
     -0.566     2.2759    12.5618     96.990   1.074747      2.110     -3.278   920.2978    -0.2628    -0.1437     0.0005      0.000     -0.555     -0.806         11 3.4016e+02 0.0000e+00
     -0.566     2.2732    12.4773     96.950   1.290668      2.315     -3.278   920.2978    -0.2224    -0.0900     0.0005      0.001     -0.555     -0.805         12 6.5298e+01 0.0000e+00
     -0.565     2.2760    12.4223     96.960   0.974335      1.804     -3.278   920.4114    -0.2062     0.0577     0.0003      0.001     -0.555     -0.805         13 1.3054e+02 0.0000e+00
     -0.566     2.2650    12.3900     97.007   1.172326      2.111     -3.278   920.2978    -0.2385    -0.0766     0.0005      0.001     -0.555     -0.805         14 9.6115e+01 0.0000e+00
     -0.566     2.2765    12.3691     97.045   1.162708      2.213     -3.278   920.4114    -0.2305    -0.0229     0.0005      0.001     -0.555     -0.805         15 3.0236e+02 0.0000e+00
     -0.565     2.2541    12.3637     97.136   1.282395      2.213     -3.278   920.2978    -0.2547    -0.0900     0.0005      0.001     -0.554     -0.804         16 1.4598e+02 0.0000e+00
     -0.565     2.3646    12.3931     97.403   1.141815      2.316     -3.279   920.0707    -0.2507    -0.1974     0.0005      0.001     -0.552     -0.800         17 1.0435e+02 0.0000e+00
     -0.563     2.9756    12.4290     97.701   1.604143      2.572     -3.279   920.1464    -0.2345    -0.2512     0.0006      0.001     -0.534     -0.774         18 1.8024e+02 0.0000e+00
     -0.501     3.6732    12.4794     98.139   8.584514     15.529     15.015  1240.2295    -0.1981    -0.2780     0.0057      0.018     -0.480     -0.696         19 3.9368e+02 0.0000e+00
     -0.408     4.1184    12.5411     98.658  19.854145     35.724     16.504   110.0391    -0.2345    -0.3854     0.0147      0.054     -0.387     -0.561         20 4.9158e+02 0.0000e+00
     -0.269     4.4521    12.6141     99.237  25.117304     44.070     16.480   140.3249    -0.2466    -0.0095     0.0188      0.117     -0.274     -0.399         21 5.4061e+02 0.0000e+00
     -0.166     4.6953    12.7992    100.657  24.496963     41.860     16.465   159.1778    -0.3154    -0.1034     0.0181      0.187     -0.178     -0.259         22 4.6446e+02 0.0000e+00
     -0.114     4.8701    13.0381    102.523  23.826954     40.581     16.453   171.3678    -0.2992    -0.0363     0.0178      0.245     -0.110     -0.160         23 2.4174e+02 0.0000e+00
     -0.053     4.9892    13.1933    103.734  23.431342     39.355     16.445   174.2071    -0.2992    -0.0229     0.0174      0.289     -0.051     -0.074         24 1.7352e+02 0.0000e+00
      0.013     5.0708    13.2688    104.320  23.210677     38.891     16.439   177.6143     1.9491     2.4344     0.0173      0.318      0.007      0.011         25 1.2296e+02 0.0000e+00
      0.062     5.1224    13.2726    104.358  23.241893     38.736     16.435   189.6907     1.9369     2.3673     0.0173      0.321      0.057      0.083         26 1.0969e+02 0.0000e+00
      0.102     5.1381    13.2053    103.841  23.451738     38.958     16.432   194.4986     1.9450     2.4344     0.0174      0.294      0.095      0.137         27 1.1274e+02 0.0000e+00
      0.127     5.1450    13.0449    102.594  24.520546     40.697     16.430   202.1079     1.9329     2.3673     0.0182      0.251      0.116      0.169         28 1.1224e+02 0.0000e+00
      0.126     5.1607    12.7570    100.341  24.579593     40.910     16.430   196.2022     1.9491     2.3404     0.0183      0.197      0.121      0.176         29 1.1073e+02 0.0000e+00
      0.120     5.1749    12.4107     97.621  23.882169     39.418     16.430   199.5336     2.1472     7.3491     0.0177      0.151      0.115      0.167         30 1.0904e+02 0.0000e+00
      0.106     5.1758    12.0686     94.929  23.639545     39.397     16.429   202.2972     2.1270     7.2148     0.0177      0.110      0.108      0.157         31 1.1702e+02 0.0000e+00
      0.106     5.1635    11.7537     92.454  22.688018     37.435     16.429   207.3701     2.1310     7.3625     0.0168      0.069      0.108      0.156         32 1.1013e+02 0.0000e+00
      0.118     5.1573    11.4732     90.254  22.250404     36.923     16.429   210.3229     2.1593     7.2685     0.0166      0.036      0.113      0.163         33 1.0940e+02 0.0000e+00
      0.117     5.1544    11.2215     88.278  22.376043     37.079     16.429   213.9194     2.1310     2.1524     0.0167      0.013      0.114      0.165         34 1.0478e+02 0.0000e+00
      0.114     5.1517    11.0221     86.708  22.264901     36.900     16.429   218.1973     2.1512     2.1793     0.0166     -0.001      0.112      0.163         35 1.1398e+02 0.0000e+00
      0.113     5.1544    10.8668     85.479  22.359081     37.090     16.429   218.6137     2.1351     2.1927     0.0167     -0.006      0.112      0.162         36 1.1502e+02 0.0000e+00
      0.114     5.1591    10.7645     84.670  22.377400     37.093     16.430   219.3330     2.1512     2.2062     0.0167     -0.003      0.112      0.162         37 1.0799e+02 0.0000e+00
      0.114     5.1645    10.6770     83.981  22.360665     37.090     16.429   221.1501     2.1391     2.4479     0.0167      0.001      0.113      0.164         38 1.1518e+02 0.0000e+00
      0.117     5.1687    10.6164     83.503  22.290987     36.945     16.429   223.4594     2.1310     2.3807     0.0166      0.004      0.114      0.166         39 1.0831e+02 0.0000e+00
      0.118     5.1701    10.5774     83.192  22.226990     36.845     16.429   225.5037     2.1472     2.5150     0.0166      0.003      0.115      0.167         40 1.1219e+02 0.0000e+00
      0.117     5.1696    10.5513     82.985  22.173547     36.748     16.429   226.6016     2.1553     2.4613     0.0165      0.000      0.115      0.168         41 1.1446e+02 0.0000e+00
      0.119     5.1705    10.5358     82.860  22.179655     36.746     16.429   227.6616     2.0663     2.3807     0.0165      0.002      0.116      0.170         42 1.0714e+02 0.0000e+00
      0.121     5.1731    10.5076     82.642  22.367587     37.071     16.429   231.7123     2.0744     2.4747     0.0167      0.004      0.119      0.173         43 1.1562e+02 0.0000e+00
      0.123     5.1750    10.4903     82.513  22.413910     37.162     16.429   232.6209     2.0623     2.4747     0.0167      0.005      0.121      0.175         44 1.1097e+02 0.0000e+00
      0.123     5.1743    10.4814     82.446  22.240567     36.835     16.429   234.7030     2.0542     2.4747     0.0166      0.005      0.121      0.175         45 1.0832e+02 0.0000e+00
      0.124     5.1713    10.4644     82.314  22.168347     36.740     16.429   235.7252     2.4060     2.1659     0.0165      0.005      0.121      0.175         46 1.1189e+02 0.0000e+00
      0.122     5.1692    10.4466     82.178  22.177745     36.741     16.429   236.3687     2.3939     2.1927     0.0165      0.004      0.120      0.174         47 1.0694e+02 0.0000e+00
      0.123     5.1688    10.4316     82.064  22.228872     36.837     16.429   235.3466     2.4060     2.1256     0.0166      0.003      0.120      0.174         48 1.0734e+02 0.0000e+00
      0.123     5.1680    10.4146     81.931  22.371483     37.071     16.429   235.8387     2.3817     2.2599     0.0167      0.003      0.121      0.175         49 1.0977e+02 0.0000e+00
      0.124     5.1667    10.3964     81.790  22.474511     37.257     16.429   240.3816     2.3979     2.2196     0.0168      0.002      0.122      0.176         50 1.0824e+02 0.0000e+00
      0.124     5.1652    10.3861     81.715  22.485977     37.258     16.429   240.9495     2.4667     2.4881     0.0168      0.001      0.122      0.176         51 1.0856e+02 0.0000e+00
      0.124     5.1639    10.3633     81.544  22.535054     37.352     16.429   241.7445     2.4464     2.4747     0.0168      0.001      0.122      0.177         52 1.0954e+02 0.0000e+00
      0.125     5.1657    10.3354     81.337  22.531999     37.354     16.397   242.7287     2.4626     2.4613     0.0168      0.001      0.123      0.178         53 1.0351e+02 0.0000e+00
      0.126     5.1689    10.3289     81.290  22.489781     37.263     16.348   244.0159     2.4667     2.4747     0.0168      0.001      0.124      0.179         54 1.0911e+02 0.0000e+00
      0.127     5.1703    10.2952     81.017  22.528311     37.353     16.302   243.2588     2.6001     2.4747     0.0168      0.002      0.124      0.179         55 1.1493e+02 0.0000e+00
      0.126     5.1713    10.2739     80.855  22.543330     37.349     16.256   244.0538     2.5880     2.4210     0.0168      0.002      0.124      0.179         56 1.0492e+02 0.0000e+00
      0.125     5.1735    10.2513     80.688  22.648933     37.533     16.214   245.4166     2.6001     2.4613     0.0169      0.001      0.124      0.179         57 1.0601e+02 0.0000e+00
      0.126     5.1751    10.2345     80.562  22.663652     37.578     16.165   249.0509     2.6163     2.4613     0.0169      0.001      0.124      0.180         58 1.0436e+02 0.0000e+00
      0.126     5.1753    10.2143     80.403  22.554653     37.344     16.122   250.3381     2.6607     2.4479     0.0168      0.001      0.124      0.180         59 9.9090e+01 0.0000e+00
      0.126     5.1763    10.2042     80.280  22.517818     37.342     16.084   251.3223     2.6688     2.3673     0.0168      0.001      0.124      0.180         60 1.0378e+02 0.0000e+00
      0.126     5.1793    10.1948     80.150  22.502009     37.249     16.046   252.1173     2.6365     2.4076     0.0168      0.000      0.123      0.179         61 1.0425e+02 0.0000e+00
      0.125     5.1837    10.1870     80.097  22.515044     37.340     16.008   254.6916     2.6607     2.5016     0.0168     -0.000      0.123      0.179         62 1.1137e+02 0.0000e+00
      0.125     5.1891    10.1753     80.029  22.442315     37.152     15.974   258.7424     2.7335     2.4479     0.0167     -0.001      0.124      0.180         63 1.0648e+02 0.0000e+00
      0.129     5.1908    10.1522     79.866  22.473957     37.239     15.943   256.6981     2.7174     2.3941     0.0168      0.001      0.126      0.183         64 9.5224e+01 0.0000e+00
      0.131     5.1878    10.1236     79.656  22.475664     37.232     15.907   256.5088     2.7335     2.3941     0.0168      0.002      0.126      0.182         65 1.0713e+02 0.0000e+00
      0.122     5.1900    10.1082     79.544  22.440190     37.137     15.872   255.2595     2.7174     2.4479     0.0167      0.000      0.120      0.175         66 1.0586e+02 0.0000e+00
      0.115     5.1954    10.1043     79.517  22.518105     37.326     15.845   252.9502     2.7780     2.5553     0.0168     -0.003      0.115      0.167         67 1.0444e+02 0.0000e+00
      0.115     5.1990    10.0848     79.363  22.497262     37.231     15.819   253.7831     2.8063     2.3941     0.0168     -0.005      0.114      0.166         68 1.0551e+02 0.0000e+00
      0.119     5.1984    10.0704     79.249  22.466126     37.224     15.792   253.9345     2.7982     2.3941     0.0168     -0.006      0.119      0.173         69 1.0026e+02 0.0000e+00
      0.132     5.1768    10.0590     79.153  22.497570     37.220     15.764   256.3195     2.7699     2.4479     0.0168     -0.002      0.128      0.186         70 1.0132e+02 0.0000e+00
      0.142     5.1518    10.0543     79.080  22.517411     37.312     15.730   257.1902     2.7821     2.4210     0.0168      0.003      0.136      0.198         71 9.9259e+01 0.0000e+00
      0.143     5.1543    10.0394     78.934  22.441435     37.154     15.690   255.4109     2.7821     2.4613     0.0167      0.007      0.141      0.204         72 9.8986e+01 0.0000e+00
      0.146     5.1665    10.0249     78.794  22.414284     37.187     15.645   254.5024     2.7861     2.3807     0.0167      0.013      0.142      0.205         73 1.0019e+02 0.0000e+00
      0.145     5.1753     9.9990     78.531  22.373365     37.089     15.590   257.3416     2.7740     2.4881     0.0167      0.017      0.141      0.205         74 9.5347e+01 0.0000e+00
      0.142     5.1826     9.9856     78.380  22.284878     36.936     15.541   256.8495     2.8225     2.4076     0.0166      0.017      0.140      0.203         75 9.3539e+01 0.0000e+00
      0.139     5.1867     9.9479     78.055  22.287280     36.925     15.501   257.0388     2.8589     2.1927     0.0166      0.013      0.138      0.200         76 9.8567e+01 0.0000e+00
      0.140     5.1886     9.9194     77.826  22.281452     36.916     15.461   257.2659     2.8670     2.1659     0.0166      0.007      0.137      0.200         77 1.0039e+02 0.0000e+00
      0.141     5.1882     9.8792     77.515  22.232850     36.818     15.428   259.1588     2.8508     2.2196     0.0166      0.001      0.138      0.201         78 9.4991e+01 0.0000e+00
      0.143     5.1884     9.8427     77.220  22.288483     36.909     15.393   262.6038     2.8508     2.2464     0.0166     -0.001      0.140      0.203         79 9.1173e+01 0.0000e+00
      0.143     5.1843     9.7984     76.863  22.301137     36.955     15.360   259.0074     2.8629     2.5419     0.0166     -0.001      0.140      0.203         80 9.5403e+01 0.0000e+00
      0.142     5.1673     9.7613     76.577  22.246743     36.817     15.333   258.7424     2.8387     2.4479     0.0166     -0.001      0.137      0.199         81 9.4820e+01 0.0000e+00
      0.134     5.1536     9.7247     76.303  22.474737     37.237     15.301   259.0074     2.8346     2.4210     0.0168     -0.002      0.127      0.184         82 9.5967e+01 0.0000e+00
      0.111     5.1393     9.6926     76.046  22.699131     37.630     15.271   257.7202     2.8346     2.4076     0.0169     -0.009      0.109      0.158         83 1.0034e+02 0.0000e+00
      0.088     5.1116     9.6654     75.819  22.708502     37.647     15.235   257.8717     2.8023     2.2196     0.0169     -0.020      0.089      0.129         84 1.1380e+02 0.0000e+00
      0.074     5.0880     9.6380     75.593  22.700203     37.663     15.195   259.1209     2.7740     2.1659     0.0169     -0.032      0.073      0.107         85 1.1330e+02 0.0000e+00
      0.063     5.0744     9.6142     75.398  22.709463     37.700     15.156   259.8781     2.8306     2.2196     0.0169     -0.043      0.061      0.088         86 1.1476e+02 0.0000e+00
      0.048     5.0715     9.5844     75.157  22.696985     37.728     15.120   260.1809     2.8144     2.3002     0.0169     -0.052      0.050      0.072         87 1.1694e+02 0.0000e+00
      0.042     5.0733     9.5638     74.985  22.626818     37.607     15.083   259.1209     2.8063     2.3002     0.0168     -0.057      0.042      0.062         88 1.2928e+02 0.0000e+00
      0.040     5.0692     9.5211     74.639  22.589306     37.563     15.050   260.7488     2.7821     2.1793     0.0168     -0.055      0.037      0.055         89 1.1660e+02 0.0000e+00
      0.032     5.0645     9.4930     74.409  22.595466     37.561     15.014   261.5817     2.7982     2.1122     0.0168     -0.049      0.032      0.047         90 1.4069e+02 0.0000e+00
      0.027     5.0674     9.4509     74.077  22.589511     37.566     14.984   261.3924     2.7942     2.2599     0.0168     -0.039      0.028      0.041         91 1.3514e+02 0.0000e+00
      0.028     5.0733     9.4158     73.794  22.418876     37.293     14.959   261.3167     2.7780     2.2330     0.0167     -0.030      0.028      0.041         92 1.8801e+02 0.0000e+00
      0.032     5.0712     9.3796     73.509  22.303933     37.058     14.931   262.6417     2.6163     2.1390     0.0166     -0.021      0.029      0.043         93 3.3220e+02 0.0000e+00
      0.030     5.0641     9.3382     73.198  22.525073     37.468     14.898   262.9445     2.6082     2.1390     0.0168     -0.015      0.027      0.040         94 2.8160e+02 0.0000e+00
      0.021     5.0584     9.3127     73.021  22.617916     37.610     14.851   261.9981     2.5799     2.1793     0.0168     -0.011      0.021      0.031         95 2.7824e+02 0.0000e+00
      0.014     5.0541     9.2784     72.775  22.544076     37.480     14.818   261.8088     2.5920     2.1659     0.0168     -0.011      0.015      0.022         96 2.9416e+02 0.0000e+00
      0.011     5.0500     9.2615     72.654  22.587328     37.580     14.787   262.9067     2.6001     2.5150     0.0168     -0.012      0.010      0.014         97 3.0556e+02 0.0000e+00
      0.004     5.0450     9.2206     72.358  22.653012     37.678     14.757   262.2252     2.5839     2.4210     0.0169     -0.013      0.004      0.005         98 3.2744e+02 0.0000e+00
     -0.004     5.0392     9.1977     72.203  22.640176     37.683     14.726   263.0581     2.5960     2.4881     0.0169     -0.017     -0.003     -0.004         99 2.3988e+02 0.0000e+00
     -0.009     5.0344     9.1822     72.042  22.603304     37.597     14.697   263.5502     2.5799     2.4479     0.0168     -0.021     -0.008     -0.012        100 2.2936e+02 0.0000e+00
     -0.014     5.0324     9.1845     72.005  22.461776     37.418     14.667   263.6638     2.7295     2.3539     0.0167     -0.023     -0.012     -0.018        101 2.3446e+02 0.0000e+00
     -0.015     5.0291     9.1812     71.970  22.401340     37.238     14.640   264.1938     2.7295     2.2062     0.0167     -0.023     -0.015     -0.023        102 1.8167e+02 0.0000e+00
     -0.020     5.0283     9.1879     72.028  22.441395     37.426     14.607   264.0045     2.6931     2.1524     0.0167     -0.020     -0.019     -0.028        103 2.5796e+02 0.0000e+00
     -0.023     5.0354     9.1901     72.059  22.263730     37.012     14.581   264.2695     2.7174     2.2464     0.0166     -0.019     -0.020     -0.029        104 3.4844e+02 0.0000e+00
     -0.018     5.0477     9.1959     72.114  22.207480     37.013     14.549   264.3831     2.7457     2.3941     0.0166     -0.015     -0.016     -0.024        105 3.1943e+02 0.0000e+00
     -0.010     5.0594     9.2068     72.199  22.244634     37.004     14.518   264.4967     2.7376     2.3673     0.0166     -0.009     -0.007     -0.011        106 2.7813e+02 0.0000e+00
      0.005     5.0663     9.2077     72.199  22.217489     36.989     14.493   265.2160     2.7133     2.4479     0.0166      0.001      0.005      0.007        107 1.9190e+02 0.0000e+00
      0.018     5.0799     9.1956     72.104  22.181978     36.881     14.475   265.2160     2.7618     2.4479     0.0165      0.011      0.021      0.031        108 1.3888e+02 0.0000e+00
      0.042     5.0915     9.1813     71.998  22.110985     36.780     14.454   265.8595     2.7214     2.5150     0.0165      0.025      0.044      0.063        109 1.3844e+02 0.0000e+00
      0.075     5.0713     9.1534     71.782  22.098358     36.718     14.428   267.1467     2.7093     2.3941     0.0165      0.042      0.071      0.103        110 1.1936e+02 0.0000e+00
      0.100     5.0427     9.1333     71.616  22.168049     36.841     14.388   266.9195     2.7457     2.3673     0.0165      0.060      0.095      0.137        111 1.1731e+02 0.0000e+00
      0.114     5.0364     9.1123     71.438  22.231733     36.960     14.352   266.4274     2.7497     2.3673     0.0166      0.073      0.112      0.162        112 1.1679e+02 0.0000e+00
      0.128     5.0402     9.0905     71.258  22.226588     36.996     14.323   266.7681     2.7214     2.5016     0.0166      0.079      0.126      0.182        113 1.0450e+02 0.0000e+00
      0.142     5.0468     9.0727     71.118  22.233740     37.002     14.295   266.9952     2.8427     2.4881     0.0166      0.080      0.140      0.202        114 1.0204e+02 0.0000e+00
      0.155     5.0522     9.0396     70.866  22.282116     37.092     14.266   267.2602     2.8468     2.3941     0.0166      0.078      0.152      0.220        115 1.0401e+02 0.0000e+00
      0.167     5.0516     9.0341     70.824  22.284943     37.083     14.239   267.7903     2.8063     2.4479     0.0166      0.072      0.166      0.239        116 9.4381e+01 0.0000e+00
      0.184     5.0485     9.0201     70.717  22.230219     36.983     14.214   268.7367     2.8306     2.4210     0.0166      0.064      0.181      0.262        117 9.2067e+01 0.0000e+00
      0.203     5.0481     9.0052     70.607  22.142739     36.844     14.185   270.5538     2.9195     2.4479     0.0165      0.059      0.199      0.289        118 9.4131e+01 0.0000e+00
      0.224     5.0515     8.9908     70.493  22.008493     36.616     14.156   270.9324     2.9438     2.4344     0.0164      0.059      0.219      0.318        119 8.6744e+01 0.0000e+00
      0.244     5.0530     8.9821     70.420  21.952687     36.524     14.125   271.2353     2.9276     2.5150     0.0164      0.062      0.238      0.345        120 8.9332e+01 0.0000e+00
      0.260     5.0485     8.9777     70.382  22.004709     36.612     14.089   272.0681     2.8993     2.2867     0.0164      0.066      0.254      0.368        121 8.6931e+01 0.0000e+00
      0.273     5.0415     8.9652     70.284  22.062314     36.703     14.055   272.0681     3.1986     2.4344     0.0164      0.067      0.267      0.387        122 8.5850e+01 0.0000e+00
      0.284     5.0364     8.9670     70.297  22.058838     36.709     14.026   271.4245     3.2026     2.4344     0.0164      0.067      0.280      0.406        123 8.2952e+01 0.0000e+00
      0.300     5.0362     8.9536     70.185  22.009035     36.625     14.005   271.1217     3.1905     2.4076     0.0164      0.066      0.295      0.428        124 8.3989e+01 0.0000e+00
      0.317     5.0396     8.9517     70.156  22.005735     36.631     13.980   270.6674     3.1702     2.3673     0.0164      0.064      0.311      0.451        125 8.9178e+01 0.0000e+00
      0.333     5.0409     8.9477     70.111  21.974025     36.585     13.957   272.9767     3.1702     2.5419     0.0164      0.061      0.326      0.473        126 8.3217e+01 0.0000e+00
      0.348     5.0422     8.9350     69.999  21.959579     36.534     13.936   273.2796     3.1622     2.4479     0.0164      0.059      0.341      0.495        127 8.2431e+01 0.0000e+00
      0.364     5.0454     8.9290     69.939  21.994075     36.625     13.916   273.5824     3.1702     2.4479     0.0164      0.059      0.357      0.518        128 8.1022e+01 0.0000e+00
      0.382     5.0453     8.9210     69.864  21.960735     36.531     13.893   274.2260     3.1783     2.4479     0.0164      0.060      0.374      0.542        129 8.7386e+01 0.0000e+00
      0.397     5.0426     8.9098     69.767  22.001069     36.620     13.873   274.6046     3.1702     2.4210     0.0164      0.062      0.389      0.564        130 8.9312e+01 0.0000e+00
      0.411     5.0406     8.8832     69.550  22.003159     36.620     13.852   274.9453     3.3239     2.4613     0.0164      0.063      0.404      0.585        131 8.3604e+01 0.0000e+00
      0.427     5.0404     8.8655     69.401  21.958133     36.530     13.836   274.9453     3.2916     2.4747     0.0164      0.062      0.420      0.607        132 9.1774e+01 0.0000e+00
      0.445     5.0404     8.8430     69.214  21.968184     36.579     13.813   276.3838     3.2996     2.4210     0.0164      0.062      0.436      0.632        133 9.4882e+01 0.0000e+00
      0.462     5.0363     8.8159     68.993  21.961012     36.533     13.793   277.4438     3.3118     2.4210     0.0164      0.063      0.451      0.654        134 9.0680e+01 0.0000e+00
      0.472     5.0287     8.8062     68.907  21.996697     36.626     13.768   278.1253     3.2916     2.4747     0.0164      0.062      0.463      0.671        135 9.0902e+01 0.0000e+00
      0.482     5.0211     8.7792     68.691  22.012696     36.631     13.743   278.5417     3.2996     2.4747     0.0164      0.059      0.472      0.685        136 1.2490e+02 0.0000e+00
      0.492     5.0138     8.7581     68.521  22.000384     36.640     13.722   278.6931     3.2916     2.4479     0.0164      0.056      0.482      0.700        137 8.9469e+01 0.0000e+00
      0.502     5.0067     8.7447     68.408  22.012020     36.650     13.705   279.1096     3.3037     2.3673     0.0164      0.052      0.493      0.716        138 1.4050e+02 0.0000e+00
      0.516     4.9999     8.7169     68.181  21.998217     36.658     13.684   279.3367     3.1824     2.5553     0.0164      0.050      0.506      0.734        139 2.6002e+02 0.0000e+00
      0.528     4.9946     8.6974     68.021  22.017565     36.667     13.666   279.6017     3.1864     2.3404     0.0164      0.047      0.517      0.750        140 1.4959e+02 0.0000e+00
      0.538     4.9900     8.6876     67.939  22.017585     36.722     13.642   280.2453     3.1702     2.5016     0.0164      0.044      0.527      0.765        141 1.2380e+02 0.0000e+00
      0.548     4.9842     8.6753     67.839  21.968555     36.589     13.623   280.2074     3.1783     2.4210     0.0164      0.043      0.538      0.780        142 1.4633e+02 0.0000e+00
      0.560     4.9783     8.6538     67.665  21.989664     36.687     13.601   280.9267     3.3118     2.4747     0.0164      0.044      0.550      0.797        143 1.1472e+02 0.0000e+00
      0.574     4.9731     8.6451     67.593  22.020956     36.695     13.585   281.0024     3.3077     2.5150     0.0164      0.045      0.562      0.816        144 1.2689e+02 0.0000e+00
      0.585     4.9680     8.6214     67.405  22.048173     36.795     13.569   281.3431     3.3118     2.2867     0.0164      0.046      0.574      0.833        145 1.1465e+02 0.0000e+00
      0.597     4.9649     8.6169     67.366  22.015073     36.708     13.553   282.1003     3.3118     2.3404     0.0164      0.046      0.587      0.851        146 1.3002e+02 0.0000e+00
      0.612     4.9620     8.5996     67.220  22.002870     36.715     13.531   282.4410     3.2511     2.2196     0.0164      0.047      0.599      0.869        147 1.1361e+02 0.0000e+00
      0.623     4.9571     8.5810     67.065  22.033723     36.765     13.512   283.4253     3.2430     2.2196     0.0164      0.047      0.610      0.884        148 1.2195e+02 0.0000e+00
      0.632     4.9520     8.5641     66.924  22.006318     36.722     13.493   283.6524     3.2511     2.2599     0.0164      0.047      0.620      0.899        149 1.4488e+02 0.0000e+00
      0.643     4.9476     8.5484     66.794  22.007336     36.728     13.473   284.2203     3.2228     2.2330     0.0164      0.047      0.630      0.914        150 1.0792e+02 0.0000e+00
      0.654     4.9448     8.5385     66.708  22.002819     36.734     13.458   284.0689     3.2430     2.1927     0.0164      0.046      0.641      0.930        151 9.6726e+01 0.0000e+00
      0.667     4.9427     8.5260     66.603  21.952662     36.646     13.440   283.8796     3.2269     2.4881     0.0164      0.045      0.653      0.947        152 8.8242e+01 0.0000e+00
      0.678     4.9396     8.5085     66.462  21.951198     36.650     13.420   283.5389     3.2390     2.4076     0.0164      0.045      0.665      0.964        153 1.0328e+02 0.0000e+00
      0.688     4.9371     8.4942     66.349  21.945363     36.652     13.404   283.6524     3.2269     2.3807     0.0164      0.044      0.676      0.980        154 1.1205e+02 0.0000e+00
      0.701     4.9357     8.4815     66.245  21.900645     36.563     13.388   282.8574     3.2228     2.3270     0.0163      0.044      0.688      0.997        155 9.0087e+01 0.0000e+00
      0.715     4.9328     8.4646     66.106  21.917931     36.612     13.369   282.3653     3.4371     2.4210     0.0163      0.045      0.699      1.014        156 1.0959e+02 0.0000e+00
      0.724     4.9274     8.4513     65.995  21.953491     36.661     13.348   282.9332     3.4573     2.4210     0.0164      0.046      0.709      1.029        157 9.8370e+01 0.0000e+00
      0.732     4.9214     8.4507     65.986  22.004588     36.758     13.330   283.1603     3.4452     2.4479     0.0164      0.045      0.719      1.043        158 8.5445e+01 0.0000e+00
      0.744     4.9164     8.4268     65.796  22.002541     36.764     13.314   283.3117     3.4048     2.4210     0.0164      0.044      0.730      1.058        159 8.4899e+01 0.0000e+00
      0.755     4.9117     8.4171     65.718  21.956042     36.678     13.295   283.5767     3.3077     2.4747     0.0164      0.043      0.741      1.075        160 7.7172e+01 0.0000e+00
      0.766     4.9068     8.3953     65.549  22.003179     36.778     13.279   283.9553     3.2996     2.4613     0.0164      0.043      0.751      1.090        161 7.8339e+01 0.0000e+00
      0.777     4.9025     8.3831     65.455  22.003160     36.783     13.261   284.2203     3.3077     2.3673     0.0164      0.042      0.762      1.106        162 8.5265e+01 0.0000e+00
      0.790     4.9004     8.3630     65.301  21.956066     36.696     13.246   284.0310     3.3037     2.3673     0.0164      0.042      0.775      1.125        163 8.3288e+01 0.0000e+00
      0.805     4.8995     8.3524     65.225  21.913589     36.655     13.230   284.2960     3.1136     2.3404     0.0163      0.044      0.789      1.145        164 7.4805e+01 0.0000e+00
      0.819     4.8969     8.3484     65.197  21.907826     36.611     13.213   284.2203     3.1177     2.4479     0.0163      0.046      0.802      1.164        165 7.1801e+01 0.0000e+00
      0.830     4.8929     8.3314     65.067  21.933600     36.705     13.199   284.7503     3.0894     2.3941     0.0164      0.048      0.814      1.181        166 6.7598e+01 0.0000e+00
      0.842     4.8887     8.3288     65.050  21.911152     36.615     13.182   284.9774     3.1055     2.3673     0.0163      0.049      0.825      1.197        167 6.8668e+01 0.0000e+00
      0.853     4.8860     8.3190     64.975  21.935762     36.713     13.167   284.9774     3.1015     2.3270     0.0164      0.049      0.838      1.215        168 7.0769e+01 0.0000e+00
      0.868     4.8844     8.3122     64.924  21.902975     36.625     13.151   285.0910     3.3320     2.4479     0.0163      0.050      0.851      1.234        169 6.9746e+01 0.0000e+00
      0.881     4.8831     8.2954     64.802  21.803760     36.488     13.133   285.6589     3.3279     2.4479     0.0163      0.050      0.864      1.253        170 6.5751e+01 0.0000e+00
      0.894     4.8833     8.2703     64.695  21.881399     36.584     13.118   285.9996     3.3279     2.4344     0.0163      0.050      0.877      1.272        171 6.8758e+01 0.0000e+00
      0.908     4.8842     8.2793     64.999  21.924914     36.725     13.103   286.2646     3.3077     2.4210     0.0164      0.050      0.891      1.292        172 6.2268e+01 0.0000e+00
      0.922     4.8865     8.3009     65.357  21.838523     36.491     13.090   286.1132     3.2390     2.4210     0.0163      0.051      0.904      1.312        173 6.4765e+01 0.0000e+00
      0.937     4.8898     8.3889     66.155  21.870352     36.630     13.073   286.3782     3.2390     2.4210     0.0163      0.052      0.918      1.333        174 6.8356e+01 0.0000e+00
      0.952     4.8921     8.5383     67.385  21.914944     36.628     13.059   286.5674     3.2471     2.4479     0.0163      0.054      0.933      1.354        175 6.7675e+01 0.0000e+00
      0.966     4.8935     8.7651     69.200  21.871948     36.623     13.044   286.9460     3.2147     2.4076     0.0163      0.055      0.947      1.374        176 7.8568e+01 0.0000e+00
      0.980     4.8956     9.0685     71.610  21.834941     36.481     13.028   287.5896     3.3158     2.5150     0.0163      0.055      0.961      1.394        177 6.5388e+01 0.0000e+00
      0.994     4.8959     9.4139     74.349  21.872078     36.619     13.015   288.1575     3.3118     2.4479     0.0163      0.056      0.975      1.414        178 5.5829e+01 0.0000e+00
      1.008     4.8979     9.8030     77.431  21.885008     36.570     12.997   288.8389     3.3441     2.4210     0.0163      0.056      0.990      1.435        179 6.8019e+01 0.0000e+00
      1.024     4.9025    10.1801     80.415  21.878128     36.616     12.984   288.6117     3.3158     2.4076     0.0163      0.057      1.005      1.457        180 7.2566e+01 0.0000e+00
      1.041     4.9599    10.5340     83.213  21.969558     36.708     12.966   287.8546     3.1945     2.3941     0.0164      0.058      1.021      1.480        181 6.4477e+01 0.0000e+00
      1.058     5.0935    10.8693     85.864  21.978702     36.794     12.952   287.8546     3.1945     2.4479     0.0164      0.059      1.038      1.504        182 6.3187e+01 0.0000e+00
      1.074     5.2080    11.1188     87.835  21.718548     36.216     12.935   287.8925     3.1864     2.4210     0.0162      0.060      1.054      1.528        183 6.9513e+01 0.0000e+00
      1.092     5.2687    11.2996     89.265  21.522674     35.769     12.920   287.9303     3.1662     2.3807     0.0161      0.062      1.070      1.553        184 6.2684e+01 0.0000e+00
      1.109     5.3002    11.4255     90.261  21.540727     35.637     12.901   288.4225     3.4614     2.4344     0.0161      0.064      1.087      1.576        185 5.9006e+01 0.0000e+00
      1.124     5.3136    11.4762     90.663  21.547854     35.610     12.881   288.1196     3.4654     2.4344     0.0161      0.064      1.102      1.599        186 6.0542e+01 0.0000e+00
      1.140     5.3222    11.5052     90.891  21.543425     35.528     12.866   288.3846     3.5180     2.5419     0.0161      0.065      1.118      1.622        187 5.9052e+01 0.0000e+00
      1.157     5.3280    11.5018     90.864  21.516590     35.512     12.849   289.0282     3.5220     2.4344     0.0161      0.065      1.135      1.646        188 6.2057e+01 0.0000e+00
      1.172     5.3323    11.4807     90.697  21.492329     35.410     12.834   289.5960     3.4735     2.3673     0.0160      0.065      1.151      1.669        189 5.6038e+01 0.0000e+00
      1.190     5.3347    11.4485     90.440  21.514337     35.496     12.821   289.2553     3.3724     2.5150     0.0161      0.064      1.168      1.693        190 5.1802e+01 0.0000e+00
      1.209     5.3364    11.4286     90.282  21.489198     35.399     12.805   289.6339     3.3603     2.5419     0.0160      0.065      1.186      1.720        191 5.4531e+01 0.0000e+00
      1.230     5.3372    11.3974     90.039  21.464334     35.396     12.790   290.0882     3.3846     2.5687     0.0160      0.067      1.206      1.749        192 5.3018e+01 0.0000e+00
      1.249     5.3373    11.3594     89.739  21.486001     35.394     12.775   290.1260     3.3846     2.4210     0.0160      0.069      1.225      1.777        193 5.0871e+01 0.0000e+00
      1.269     5.3378    11.3398     89.582  21.491874     35.439     12.755   288.6875     3.4129     2.3941     0.0161      0.071      1.245      1.806        194 5.1327e+01 0.0000e+00
      1.292     5.3386    11.3024     89.286  21.486665     35.393     12.746   289.1039     3.4573     2.3807     0.0160      0.074      1.267      1.838        195 5.3570e+01 0.0000e+00
      1.317     5.3391    11.2936     89.216  21.462844     35.392     12.729   289.5582     3.4614     2.4747     0.0160      0.078      1.290      1.871        196 4.9904e+01 0.0000e+00
      1.337     5.3390    11.2659     88.997  21.491879     35.391     12.712   289.4067     3.4533     2.4344     0.0160      0.081      1.310      1.899        197 5.0152e+01 0.0000e+00
      1.352     5.3388    11.2421     88.808  21.509809     35.483     12.697   289.3689     3.5099     2.4344     0.0161      0.082      1.326      1.922        198 4.7258e+01 0.0000e+00
      1.366     5.3387    11.2197     88.633  21.440531     35.299     12.682   290.2775     3.5180     2.5284     0.0160      0.080      1.340      1.943        199 4.1823e+01 0.0000e+00
      1.380     5.3379    11.1946     88.436  21.459540     35.391     12.669   290.5803     3.5261     2.3807     0.0160      0.076      1.354      1.965        200 4.2361e+01 0.0000e+00
      1.397     5.3376    11.1810     88.328  21.486154     35.391     12.655   290.6182     3.4978     2.3807     0.0160      0.072      1.372      1.991        201 4.0964e+01 0.0000e+00
      1.422     5.3385    11.1544     88.120  21.496327     35.438     12.642   289.1039     3.4210     2.4747     0.0161      0.071      1.396      2.025        202 3.9169e+01 0.0000e+00
      1.451     5.3386    11.1378     87.989  21.535797     35.485     12.627   289.9746     3.4210     2.3807     0.0161      0.072      1.421      2.061        203 3.7739e+01 0.0000e+00
      1.472     5.3379    11.1170     87.825  21.466674     35.391     12.609   290.3153     3.4452     2.4747     0.0160      0.074      1.442      2.092        204 3.7058e+01 0.0000e+00
      1.490     5.3377    11.1055     87.734  21.434153     35.299     12.593   290.3153     3.4412     2.4747     0.0160      0.077      1.460      2.117        205 3.6212e+01 0.0000e+00
      1.505     5.3374    11.0979     87.673  21.457712     35.392     12.583   291.0725     3.4452     2.4479     0.0160      0.080      1.475      2.140        206 3.6094e+01 0.0000e+00
      1.519     5.3371    11.1034     87.715  21.437356     35.300     12.565   291.2996     3.4452     2.3673     0.0160      0.080      1.490      2.160        207 3.5239e+01 0.0000e+00
      1.533     5.3372    11.1016     87.698  21.459487     35.393     12.556   291.2617     3.4412     2.5150     0.0160      0.077      1.505      2.182        208 3.4503e+01 0.0000e+00
      1.553     5.3377    11.0979     87.669  21.459811     35.347     12.544   291.2996     3.4493     2.5016     0.0160      0.074      1.522      2.207        209 3.3174e+01 0.0000e+00
      1.569     5.3380    11.0910     87.614  21.466591     35.393     12.531   290.9210     3.4331     2.3807     0.0160      0.068      1.539      2.232        210 3.3244e+01 0.0000e+00
      1.586     5.3382    11.0887     87.596  21.480687     35.392     12.517   291.2239     3.5584     2.4479     0.0160      0.065      1.556      2.256        211 3.3055e+01 0.0000e+00
      1.603     5.3387    11.0937     87.635  21.471909     35.392     12.503   291.1860     3.5706     2.4210     0.0160      0.064      1.572      2.279        212 3.1261e+01 0.0000e+00
      1.618     5.3389    11.0925     87.625  21.477516     35.392     12.491   291.7160     3.5625     2.4747     0.0160      0.064      1.587      2.301        213 3.0808e+01 0.0000e+00
      1.632     5.3390    11.0863     87.579  21.473709     35.391     12.479   292.0189     3.5787     2.4344     0.0160      0.064      1.600      2.321        214 2.9674e+01 0.0000e+00
      1.644     5.3391    11.0843     87.564  21.476647     35.391     12.465   292.7760     3.5099     2.4210     0.0160      0.063      1.612      2.338        215 3.0161e+01 0.0000e+00
      1.653     5.3388    11.0745     87.487  21.473859     35.391     12.453   292.2460     3.5140     2.4344     0.0160      0.060      1.622      2.352        216 2.9283e+01 0.0000e+00
      1.663     5.3379    11.0743     87.485  21.447540     35.344     12.439   292.8518     3.5059     2.3673     0.0160      0.055      1.632      2.366        217 2.8883e+01 0.0000e+00
      1.675     5.3369    11.0747     87.489  21.420484     35.299     12.425   292.5489     3.4937     2.4747     0.0160      0.051      1.642      2.382        218 2.9069e+01 0.0000e+00
      1.686     5.3368    11.0606     87.379  21.477890     35.392     12.415   293.2303     3.4654     2.4613     0.0160      0.047      1.652      2.397        219 2.8202e+01 0.0000e+00
      1.694     5.3367    11.0534     87.323  21.524293     35.485     12.405   293.1546     3.4776     2.4479     0.0161      0.044      1.662      2.410        220 2.7790e+01 0.0000e+00
      1.704     5.3366    11.0625     87.395  21.481292     35.393     12.393   293.4953     3.4937     2.5553     0.0160      0.041      1.672      2.425        221 2.7287e+01 0.0000e+00
      1.717     5.3365    11.0664     87.426  21.472127     35.393     12.379   293.3818     3.5301     2.4344     0.0160      0.041      1.684      2.442        222 2.6698e+01 0.0000e+00
      1.731     5.3366    11.0660     87.424  21.476422     35.393     12.368   293.1546     3.5220     2.4479     0.0160      0.042      1.698      2.461        223 2.6603e+01 0.0000e+00
      1.744     5.3373    11.0734     87.481  21.475948     35.394     12.354   292.9275     3.5018     2.4479     0.0160      0.044      1.710      2.480        224 2.6423e+01 0.0000e+00
      1.757     5.3380    11.0742     87.487  21.502357     35.440     12.344   293.6089     3.4816     2.4344     0.0161      0.046      1.723      2.499        225 2.6004e+01 0.0000e+00
      1.769     5.3383    11.0772     87.509  21.473194     35.393     12.333   293.0032     3.5059     2.4344     0.0160      0.047      1.736      2.518        226 2.5668e+01 0.0000e+00
      1.784     5.3381    11.0692     87.441  21.482599     35.392     12.319   292.7760     3.4290     2.4881     0.0160      0.049      1.751      2.539        227 2.5233e+01 0.0000e+00
      1.802     5.3383    11.0664     87.416  21.520292     35.484     12.309   292.9653     3.4250     2.3404     0.0161      0.053      1.768      2.564        228 2.4750e+01 0.0000e+00
      1.821     5.3389    11.0615     87.377  21.485565     35.392     12.299   293.3818     3.4371     2.4613     0.0160      0.056      1.785      2.589        229 2.4489e+01 0.0000e+00
      1.837     5.3393    11.0580     87.352  21.466539     35.392     12.286   294.1010     3.4331     2.4613     0.0160      0.058      1.800      2.610        230 2.4465e+01 0.0000e+00
      1.847     5.3393    11.0626     87.391  21.425415     35.299     12.272   294.4418     3.4371     2.3673     0.0160      0.059      1.811      2.626        231 2.4024e+01 0.0000e+00
      1.856     5.3395    11.0591     87.364  21.477466     35.390     12.259   294.3282     3.5625     2.4479     0.0160      0.058      1.820      2.640        232 2.3859e+01 0.0000e+00
      1.866     5.3398    11.0636     87.401  21.549956     35.528     12.249   294.0632     3.5787     2.4210     0.0161      0.056      1.830      2.654        233 2.3615e+01 0.0000e+00
      1.877     5.3394    11.0611     87.382  21.483396     35.390     12.235   294.3660     3.5544     2.4881     0.0160      0.053      1.840      2.669        234 2.3458e+01 0.0000e+00
      1.886     5.3390    11.0539     87.325  21.471382     35.390     12.225   294.8203     3.5544     2.4747     0.0160      0.048      1.850      2.683        235 2.3378e+01 0.0000e+00
      1.896     5.3383    11.0551     87.336  21.475989     35.390     12.213   294.4418     3.5787     2.3941     0.0160      0.044      1.860      2.698        236 2.3127e+01 0.0000e+00
      1.907     5.3365    11.0512     87.306  21.477662     35.391     12.199   294.4418     3.5544     2.3673     0.0160      0.041      1.871      2.714        237 2.2998e+01 0.0000e+00
      1.921     5.3350    11.0405     87.221  21.469300     35.392     12.195   294.7446     3.5827     2.4479     0.0160      0.040      1.884      2.732        238 2.2850e+01 0.0000e+00
      1.934     5.3350    11.0473     87.274  21.486396     35.394     12.180   294.9339     3.5625     2.4747     0.0160      0.042      1.897      2.752        239 2.2645e+01 0.0000e+00
      1.949     5.3360    11.0494     87.291  21.545305     35.533     12.169   294.5553     3.5099     2.4747     0.0161      0.045      1.912      2.773        240 2.2306e+01 0.0000e+00
      1.965     5.3370    11.0491     87.289  21.484907     35.395     12.156   295.1610     3.4937     2.4076     0.0160      0.048      1.926      2.794        241 2.2258e+01 0.0000e+00
      1.978     5.3378    11.0551     87.336  21.472645     35.394     12.146   295.1610     3.4978     2.4210     0.0160      0.051      1.941      2.814        242 2.2152e+01 0.0000e+00
      1.993     5.3383    11.0569     87.350  21.471649     35.393     12.137   295.4260     3.5180     2.5419     0.0160      0.054      1.956      2.836        243 2.1626e+01 0.0000e+00
      2.011     5.3384    11.0607     87.379  21.426868     35.300     12.121   295.6910     3.5584     2.5284     0.0160      0.056      1.973      2.861        244 2.1424e+01 0.0000e+00
      2.030     5.3385    11.0553     87.337  21.469095     35.391     12.113   296.5239     3.5625     2.4344     0.0160      0.059      1.991      2.887        245 2.1193e+01 0.0000e+00
      2.048     5.3391    11.0598     87.372  21.478376     35.391     12.099   295.9182     3.5706     2.4210     0.0160      0.062      2.010      2.915        246 2.0711e+01 0.0000e+00
      2.070     5.3394    11.0572     87.352  21.474596     35.391     12.091   295.3882     3.5544     2.5956     0.0160      0.066      2.031      2.946        247 2.0359e+01 0.0000e+00
      2.095     5.3392    11.0580     87.357  21.503437     35.437     12.078   294.9718     3.7687     2.4076     0.0161      0.070      2.055      2.981        248 1.9870e+01 0.0000e+00
      2.123     5.3391    11.0625     87.393  21.472122     35.390     12.066   294.7446     3.7606     2.3941     0.0160      0.077      2.082      3.020        249 1.9756e+01 0.0000e+00
      2.152     5.3390    11.0683     87.439  21.483929     35.391     12.055   295.1989     3.7525     2.3404     0.0160      0.085      2.109      3.058        250 1.9425e+01 0.0000e+00
      2.174     5.3390    11.0738     87.484  21.518382     35.483     12.037   295.0475     3.7161     2.4344     0.0161      0.090      2.130      3.090        251 1.8990e+01 0.0000e+00
      2.190     5.3389    11.0741     87.484  21.488524     35.391     12.027   295.0853     3.7727     2.4210     0.0160      0.092      2.148      3.117        252 1.8856e+01 0.0000e+00
      2.209     5.3388    11.0719     87.466  21.521088     35.483     12.017   295.0096     3.6070     2.3807     0.0161      0.092      2.166      3.143        253 1.8441e+01 0.0000e+00
      2.228     5.3388    11.0733     87.478  21.537133     35.483     12.005   294.8960     3.6312     2.2733     0.0161      0.090      2.185      3.169        254 1.8416e+01 0.0000e+00
      2.248     5.3389    11.0697     87.451  21.527833     35.483     11.999   295.0096     3.6393     2.3941     0.0161      0.086      2.204      3.196        255 1.8188e+01 0.0000e+00
      2.266     5.3389    11.0684     87.441  21.503024     35.437     11.984   295.6153     3.6393     2.5016     0.0161      0.081      2.221      3.222        256 1.7964e+01 0.0000e+00
      2.282     5.3386    11.0670     87.432  21.479093     35.391     11.972   295.9939     3.7121     2.4210     0.0160      0.076      2.238      3.245        257 1.7750e+01 0.0000e+00
      2.297     5.3384    11.0537     87.327  21.527977     35.483     11.962   295.9939     3.6919     2.3673     0.0161      0.071      2.253      3.267        258 1.7581e+01 0.0000e+00
      2.312     5.3383    11.0502     87.299  21.531104     35.483     11.951   295.2746     3.6838     2.3404     0.0161      0.069      2.267      3.289        259 1.7724e+01 0.0000e+00
      2.327     5.3387    11.0498     87.296  21.475200     35.391     11.944   295.1989     3.6676     2.5150     0.0160      0.067      2.282      3.310        260 1.7617e+01 0.0000e+00
      2.343     5.3390    11.0485     87.286  21.478993     35.392     11.934   295.1232     3.9062     2.4747     0.0160      0.065      2.298      3.334        261 1.7428e+01 0.0000e+00
      2.362     5.3383    11.0485     87.286  21.526385     35.483     11.925   295.8046     3.8860     2.3941     0.0161      0.063      2.316      3.360        262 1.7037e+01 0.0000e+00
      2.382     5.3378    11.0458     87.265  21.505139     35.437     11.913   296.6753     3.8738     2.3673     0.0161      0.064      2.336      3.389        263 1.6722e+01 0.0000e+00
      2.404     5.3382    11.0553     87.340  21.475794     35.392     11.900   297.2810     3.8819     2.4479     0.0160      0.066      2.357      3.419        264 1.6241e+01 0.0000e+00
      2.426     5.3389    11.0558     87.342  21.473987     35.392     11.891   297.1675     3.4978     2.3539     0.0160      0.070      2.378      3.449        265 1.6167e+01 0.0000e+00
      2.447     5.3393    11.0663     87.424  21.477748     35.392     11.880   297.4703     3.5180     2.3807     0.0160      0.074      2.398      3.478        266 1.6168e+01 0.0000e+00
      2.464     5.3398    11.0666     87.424  21.471113     35.391     11.866   297.5082     3.5301     2.3673     0.0160      0.077      2.415      3.503        267 1.6044e+01 0.0000e+00
      2.476     5.3400    11.0569     87.347  21.482244     35.390     11.856   297.2810     3.4937     2.4076     0.0160      0.077      2.429      3.523        268 1.6085e+01 0.0000e+00
      2.491     5.3400    11.0610     87.380  21.463897     35.390     11.848   296.7132     3.4897     2.4344     0.0160      0.075      2.444      3.545        269 1.5739e+01 0.0000e+00
      2.509     5.3401    11.0544     87.327  21.434670     35.298     11.840   296.8268     3.5625     2.4479     0.0160      0.072      2.461      3.570        270 1.5721e+01 0.0000e+00
      2.530     5.3400    11.0623     87.390  21.488979     35.436     11.828   297.6596     3.5665     2.5150     0.0161      0.070      2.480      3.597        271 1.5598e+01 0.0000e+00
      2.547     5.3401    11.0571     87.349  21.485226     35.389     11.819   297.6596     3.5625     2.4210     0.0160      0.068      2.498      3.622        272 1.5306e+01 0.0000e+00
      2.562     5.3404    11.0642     87.406  21.468978     35.390     11.808   297.5839     3.5544     2.4613     0.0160      0.066      2.514      3.646        273 1.5174e+01 0.0000e+00
      2.580     5.3403    11.0649     87.410  21.479560     35.389     11.801   297.6975     3.6676     2.4479     0.0160      0.066      2.530      3.669        274 1.4859e+01 0.0000e+00
      2.596     5.3396    11.0696     87.447  21.472056     35.389     11.788   297.9246     3.6959     2.4613     0.0160      0.067      2.546      3.693        275 1.4652e+01 0.0000e+00
      2.613     5.3387    11.0716     87.463  21.478318     35.389     11.781   297.5461     3.6797     2.3539     0.0160      0.068      2.562      3.717        276 1.4451e+01 0.0000e+00
      2.631     5.3382    11.0661     87.420  21.471769     35.390     11.771   297.4703     3.7121     2.4613     0.0160      0.068      2.580      3.744        277 1.4148e+01 0.0000e+00
      2.652     5.3380    11.0657     87.416  21.480208     35.391     11.760   297.8489     3.9062     2.3941     0.0160      0.068      2.600      3.771        278 1.3800e+01 0.0000e+00
      2.670     5.3378    11.0566     87.344  21.497454     35.438     11.748   298.5303     3.9021     2.5150     0.0161      0.068      2.619      3.798        279 1.3581e+01 0.0000e+00
      2.688     5.3376    11.0535     87.320  21.479943     35.392     11.740   298.6061     3.8738     2.3136     0.0160      0.070      2.636      3.823        280 1.3398e+01 0.0000e+00
      2.706     5.3377    11.0492     87.287  21.472362     35.392     11.731   298.8711     3.8900     2.3941     0.0160      0.071      2.652      3.847        281 1.3146e+01 0.0000e+00
      2.720     5.3380    11.0492     87.287  21.477251     35.392     11.717   299.5903     3.8051     2.4210     0.0160      0.070      2.665      3.865        282 1.3008e+01 0.0000e+00
      2.725     5.3381    11.0487     87.282  21.473860     35.392     11.707   298.9846     3.8294     2.5016     0.0160      0.067      2.672      3.875        283 1.2939e+01 0.0000e+00
      2.729     5.3378    11.0522     87.310  21.476583     35.392     11.697   298.5303     3.8051     2.4747     0.0160      0.060      2.680      3.886        284 1.2821e+01 0.0000e+00
      2.745     5.3375    11.0464     87.263  21.473861     35.392     11.690   297.8489     3.8213     2.4344     0.0160      0.054      2.694      3.907        285 1.2481e+01 0.0000e+00
      2.767     5.3377    11.0602     87.371  21.506885     35.438     11.678   298.6439     3.6919     2.4344     0.0161      0.051      2.712      3.933        286 1.2225e+01 0.0000e+00
      2.782     5.3378    11.0596     87.367  21.465124     35.393     11.667   297.9246     3.6838     2.4210     0.0160      0.050      2.728      3.956        287 1.2018e+01 0.0000e+00
      2.796     5.3376    11.0684     87.437  21.436916     35.300     11.659   297.9625     3.6838     2.4210     0.0160      0.051      2.744      3.979        288 1.1752e+01 0.0000e+00
      2.816     5.3375    11.0814     87.542  21.512351     35.484     11.653   297.9625     3.7000     2.3539     0.0161      0.054      2.764      4.009        289 1.1475e+01 0.0000e+00
      2.843     5.3378    11.0707     87.459  21.489802     35.392     11.639   298.1896     3.7000     2.3807     0.0160      0.061      2.788      4.044        290 1.1144e+01 0.0000e+00
      2.869     5.3382    11.0784     87.520  21.464977     35.392     11.631   298.0382     3.8213     2.4479     0.0160      0.071      2.813      4.079        291 1.0911e+01 0.0000e+00
      2.893     5.3380    11.0716     87.466  21.483967     35.392     11.624   298.1896     3.8091     2.3807     0.0160      0.080      2.837      4.114        292 1.0678e+01 0.0000e+00
      2.916     5.3378    11.0687     87.443  21.466169     35.392     11.611   298.2653     3.8051     2.4747     0.0160      0.084      2.858      4.145        293 1.0441e+01 0.0000e+00
      2.934     5.3377    11.0608     87.381  21.457489     35.346     11.603   298.4546     3.8213     2.4344     0.0160      0.086      2.877      4.173        294 1.0290e+01 0.0000e+00
      2.953     5.3372    11.0654     87.418  21.465133     35.392     11.592   298.3411     3.5706     2.5150     0.0160      0.088      2.896      4.200        295 1.0096e+01 0.0000e+00
      2.970     5.3370    11.0538     87.325  21.486293     35.392     11.582   298.6061     3.5867     2.4344     0.0160      0.087      2.913      4.226        296 9.9237e+00 0.0000e+00
      2.989     5.3371    11.0587     87.363  21.520070     35.485     11.572   298.9089     3.5342     2.4210     0.0161      0.084      2.931      4.252        297 9.8272e+00 0.0000e+00
      3.008     5.3374    11.0592     87.367  21.482378     35.393     11.566   298.8332     3.5665     2.4076     0.0160      0.079      2.951      4.280        298 9.6463e+00 0.0000e+00
      3.030     5.3383    11.0539     87.326  21.473925     35.393     11.556   299.1739     3.5180     2.3941     0.0160      0.077      2.971      4.309        299 9.4745e+00 0.0000e+00
      3.050     5.3390    11.0560     87.343  21.471312     35.393     11.548   298.7953     3.5140     2.3539     0.0160      0.075      2.991      4.339        300 9.3447e+00 0.0000e+00
      3.071     5.3390    11.0596     87.372  21.485630     35.392     11.536   298.4925     3.5140     2.4479     0.0160      0.076      3.012      4.369        301 9.2058e+00 0.0000e+00
      3.095     5.3390    11.0539     87.326  21.545024     35.529     11.525   299.4011     3.4857     2.3941     0.0161      0.078      3.036      4.403        302 9.0051e+00 0.0000e+00
      3.122     5.3391    11.0544     87.330  21.486313     35.391     11.518   299.6661     3.7081     2.4747     0.0160      0.082      3.061      4.440        303 8.8270e+00 0.0000e+00
      3.147     5.3391    11.0558     87.340  21.469778     35.391     11.507   299.4768     3.6959     2.5284     0.0160      0.086      3.086      4.477        304 8.7129e+00 0.0000e+00
      3.173     5.3393    11.0544     87.329  21.476686     35.391     11.498   299.7796     3.7000     2.3941     0.0160      0.090      3.111      4.512        305 8.5974e+00 0.0000e+00
      3.196     5.3388    11.0567     87.347  21.477716     35.391     11.490   299.8175     3.6757     2.4210     0.0160      0.093      3.134      4.545        306 8.5423e+00 0.0000e+00
      3.218     5.3382    11.0566     87.346  21.527772     35.482     11.482   299.6661     3.5706     2.5419     0.0161      0.095      3.156      4.577        307 8.4449e+00 0.0000e+00
      3.240     5.3385    11.0506     87.296  21.532947     35.483     11.468   299.5146     3.5625     2.4479     0.0161      0.095      3.178      4.610        308 8.3393e+00 0.0000e+00
      3.264     5.3391    11.0524     87.310  21.500915     35.438     11.463   299.8932     3.5706     2.4881     0.0161      0.095      3.202      4.644        309 8.2511e+00 0.0000e+00
      3.291     5.3393    11.0481     87.276  21.478719     35.391     11.454   300.3853     3.5584     2.3539     0.0160      0.094      3.227      4.681        310 8.2055e+00 0.0000e+00
      3.317     5.3393    11.0461     87.259  21.471653     35.391     11.445   300.3475     3.5706     2.5150     0.0160      0.094      3.252      4.717        311 8.1356e+00 0.0000e+00
      3.342     5.3392    11.0454     87.252  21.480070     35.390     11.437   300.7261     3.7566     2.5150     0.0160      0.095      3.277      4.752        312 8.0079e+00 0.0000e+00
      3.364     5.3390    11.0489     87.279  21.468245     35.390     11.426   300.8775     3.7566     2.4747     0.0160      0.095      3.299      4.785        313 8.0357e+00 0.0000e+00
      3.385     5.3387    11.0487     87.278  21.486370     35.391     11.418   300.3475     3.7444     2.4881     0.0160      0.095      3.324      4.821        314 7.9468e+00 0.0000e+00
      3.419     5.3385    11.0656     87.411  21.516793     35.483     11.408   300.5746     3.7161     2.4479     0.0161      0.097      3.360      4.872        315 7.6683e+00 0.0000e+00
      3.474     5.3385    11.0775     87.505  21.489662     35.391     11.392   300.8775     4.0154     2.4479     0.0160      0.107      3.408      4.942        316 7.4281e+00 0.0000e+00
      3.530     5.3383    11.0802     87.526  21.490494     35.437     11.372   300.3853     4.0396     2.5956     0.0161      0.122      3.459      5.016        317 7.2253e+00 0.0000e+00
      3.575     5.3374    11.0908     87.609  21.486119     35.391     11.361   300.7261     3.9951     2.4881     0.0160      0.137      3.506      5.085        318 7.0265e+00 0.0000e+00
      3.622     5.3370    11.0874     87.583  21.465469     35.391     11.345   300.9153     4.0032     2.3673     0.0160      0.153      3.553      5.153        319 6.7960e+00 0.0000e+00
      3.674     5.3369    11.0873     87.583  21.486554     35.393     11.334   301.2182     3.8294     2.3941     0.0160      0.169      3.601      5.222        320 6.5607e+00 0.0000e+00
      3.720     5.3364    11.0869     87.580  21.519158     35.485     11.325   301.5968     3.8415     2.4076     0.0161      0.183      3.645      5.287        321 6.4158e+00 0.0000e+00
      3.758     5.3358    11.0749     87.486  21.424895     35.301     11.320   301.9753     3.8213     2.4210     0.0160      0.189      3.683      5.342        322 6.2966e+00 0.0000e+00
      3.790     5.3356    11.0620     87.386  21.426030     35.302     11.315   301.7103     3.8294     2.3270     0.0160      0.184      3.715      5.389        323 6.1139e+00 0.0000e+00
      3.818     5.3358    11.0691     87.441  21.517745     35.486     11.309   301.9375     3.9102     2.3941     0.0161      0.171      3.746      5.434        324 5.9561e+00 0.0000e+00
      3.855     5.3357    11.0757     87.493  21.518229     35.441     11.300   300.4989     3.8981     2.4210     0.0161      0.160      3.781      5.484        325 5.8038e+00 0.0000e+00
      3.894     5.3356    11.0709     87.455  21.514345     35.487     11.293   300.9911     3.8819     2.4210     0.0161      0.153      3.815      5.534        326 5.6863e+00 0.0000e+00
      3.922     5.3354    11.0748     87.485  21.492940     35.395     11.286   301.0668     3.9143     2.3941     0.0160      0.143      3.844      5.575        327 5.6260e+00 0.0000e+00
      3.942     5.3355    11.0720     87.463  21.515229     35.487     11.281   300.6503     3.8981     2.3941     0.0161      0.132      3.866      5.607        328 5.5851e+00 0.0000e+00
      3.964     5.3357    11.0789     87.517  21.545885     35.487     11.276   301.4075     3.8294     2.3136     0.0161      0.122      3.889      5.640        329 5.4971e+00 0.0000e+00
      3.991     5.3358    11.0781     87.510  21.514067     35.487     11.271   301.5211     3.8577     2.3807     0.0161      0.116      3.915      5.678        330 5.3794e+00 0.0000e+00
      4.021     5.3360    11.0692     87.440  21.495548     35.395     11.262   301.3696     3.8091     2.3941     0.0160      0.112      3.942      5.717        331 5.3069e+00 0.0000e+00
      4.046     5.3366    11.0660     87.414  21.539294     35.533     11.253   300.1961     3.8213     2.3404     0.0161      0.108      3.967      5.754        332 5.2349e+00 0.0000e+00
      4.069     5.3370    11.0609     87.374  21.489265     35.394     11.246   300.4611     3.8941     2.4479     0.0160      0.102      3.992      5.789        333 5.1864e+00 0.0000e+00
      4.096     5.3368    11.0643     87.401  21.468891     35.394     11.240   300.1582     3.9102     2.4613     0.0160      0.099      4.017      5.825        334 5.0935e+00 0.0000e+00
      4.122     5.3366    11.0618     87.379  21.475733     35.393     11.232   300.1203     3.8900     2.3941     0.0160      0.100      4.041      5.860        335 5.0066e+00 0.0000e+00
      4.143     5.3364    11.0678     87.425  21.480751     35.393     11.224   301.1046     3.8941     2.4613     0.0160      0.100      4.061      5.890        336 4.9807e+00 0.0000e+00
      4.158     5.3362    11.0667     87.415  21.521924     35.486     11.215   300.4611     4.0720     2.4613     0.0161      0.097      4.078      5.915        337 4.9246e+00 0.0000e+00
      4.174     5.3361    11.0768     87.494  21.483771     35.394     11.209   300.8775     4.0760     2.4210     0.0160      0.091      4.094      5.938        338 4.8846e+00 0.0000e+00
      4.191     5.3358    11.0703     87.442  21.468953     35.394     11.204   300.8775     4.0882     2.4479     0.0160      0.084      4.110      5.961        339 4.8291e+00 0.0000e+00
      4.207     5.3359    11.0686     87.428  21.510726     35.440     11.196   300.8775     4.1003     2.5150     0.0161      0.078      4.125      5.983        340 4.7602e+00 0.0000e+00
      4.222     5.3360    11.0675     87.418  21.520703     35.487     11.189   301.2939     4.0032     2.4344     0.0161      0.073      4.141      6.006        341 4.7188e+00 0.0000e+00
      4.239     5.3355    11.0716     87.449  21.486176     35.394     11.185   300.3096     4.0396     2.4210     0.0160      0.068      4.159      6.032        342 4.6583e+00 0.0000e+00
      4.262     5.3355    11.0705     87.439  21.464777     35.394     11.175   300.6125     4.0396     2.4210     0.0160      0.066      4.180      6.063        343 4.6052e+00 0.0000e+00
      4.286     5.3356    11.0573     87.333  21.488056     35.395     11.169   300.6125     4.0315     2.4210     0.0160      0.068      4.201      6.094        344 4.5634e+00 0.0000e+00
      4.305     5.3350    11.0584     87.343  21.516484     35.487     11.163   300.5368     3.9668     2.3673     0.0161      0.072      4.221      6.122        345 4.4762e+00 0.0000e+00
      4.321     5.3341    11.0546     87.313  21.488677     35.395     11.153   300.8018     3.9830     2.4613     0.0160      0.074      4.238      6.146        346 4.4097e+00 0.0000e+00
      4.336     5.3336    11.0669     87.409  21.463382     35.395     11.149   300.8018     3.9588     2.4479     0.0160      0.074      4.254      6.169        347 4.3895e+00 0.0000e+00
      4.354     5.3334    11.0522     87.292  21.459046     35.350     11.139   301.7103     3.9790     2.4479     0.0160      0.075      4.270      6.192        348 4.3138e+00 0.0000e+00
      4.371     5.3328    11.0527     87.296  21.464437     35.397     11.131   301.1046     3.9345     2.4344     0.0160      0.073      4.285      6.215        349 4.2566e+00 0.0000e+00
      4.385     5.3325    11.0518     87.288  21.486313     35.397     11.125   301.7482     3.9385     2.4479     0.0160      0.070      4.300      6.237        350 4.2449e+00 0.0000e+00
      4.401     5.3321    11.0585     87.341  21.461460     35.398     11.118   301.3318     3.9749     2.4747     0.0160      0.066      4.318      6.262        351 4.1488e+00 0.0000e+00
      4.422     5.3314    11.0630     87.378  21.436088     35.306     11.111   301.4832     3.9507     2.3673     0.0160      0.065      4.339      6.292        352 4.0300e+00 0.0000e+00
      4.449     5.3307    11.0547     87.314  21.458610     35.399     11.101   300.3853     3.9466     2.4076     0.0160      0.068      4.362      6.327        353 3.9357e+00 0.0000e+00
      4.472     5.3302    11.0617     87.369  21.433434     35.307     11.094   300.4611     3.8738     2.5016     0.0160      0.073      4.385      6.359        354 3.8602e+00 0.0000e+00
      4.491     5.3303    11.0656     87.400  21.467420     35.400     11.088   300.7639     3.8981     2.4479     0.0160      0.076      4.405      6.388        355 3.7571e+00 0.0000e+00
      4.512     5.3305    11.0694     87.430  21.505231     35.447     11.077   304.3604     3.8900     2.4747     0.0161      0.080      4.425      6.418        356 3.6460e+00 0.0000e+00
      4.533     5.3303    11.0620     87.372  21.475295     35.401     11.074   303.7546     3.9062     2.4344     0.0160      0.083      4.445      6.448        357 3.5711e+00 0.0000e+00
      4.554     5.3300    11.0560     87.326  21.475036     35.401     11.065   303.7925     4.0235     2.3941     0.0160      0.085      4.465      6.476        358 3.4730e+00 0.0000e+00
      4.571     5.3297    11.0565     87.331  21.475916     35.401     11.058   303.9439     3.9871     2.4881     0.0160      0.084      4.483      6.502        359 3.4237e+00 0.0000e+00
      4.588     5.3292    11.0577     87.344  21.474201     35.401     11.049   302.4296     4.0396     2.4479     0.0160      0.081      4.500      6.528        360 3.3413e+00 0.0000e+00
      4.609     5.3291    11.0518     87.298  21.477170     35.402     11.043   302.0132     4.0315     2.3002     0.0160      0.078      4.520      6.555        361 3.2622e+00 0.0000e+00
      4.628     5.3300    11.0534     87.309  21.531499     35.494     11.033   302.1268     4.1852     2.5821     0.0161      0.076      4.539      6.583        362 3.1832e+00 0.0000e+00
      4.647     5.3307    11.0476     87.261  21.554784     35.540     11.024   305.0796     4.1933     2.6224     0.0161      0.076      4.558      6.611        363 3.0736e+00 0.0000e+00
      4.668     5.3306    11.0539     87.305  21.477830     35.401     11.019   305.5718     4.2135     2.6224     0.0160      0.075      4.578      6.639        364 3.0339e+00 0.0000e+00
      4.689     5.3305    11.0594     87.344  21.419794     35.308     11.009   305.6854     4.2216     2.6493     0.0160      0.076      4.598      6.668        365 2.9729e+00 0.0000e+00
      4.708     5.3306    11.0573     87.328  21.478814     35.400     11.004   305.5339     4.0558     2.4210     0.0160      0.076      4.617      6.697        366 2.8984e+00 0.0000e+00
      4.728     5.3310    11.0493     87.268  21.522936     35.493     10.996   304.4739     4.0841     2.3673     0.0161      0.078      4.636      6.725        367 2.8282e+00 0.0000e+00
      4.748     5.3314    11.0499     87.275  21.483443     35.401     10.987   304.4361     4.1003     2.3807     0.0160      0.078      4.656      6.754        368 2.7698e+00 0.0000e+00
      4.770     5.3319    11.0505     87.280  21.468687     35.400     10.982   304.3982     4.0639     2.4613     0.0160      0.079      4.677      6.785        369 2.7297e+00 0.0000e+00
      4.793     5.3333    11.0431     87.218  21.482021     35.399     10.974   304.5118     4.0801     2.3539     0.0160      0.080      4.701      6.819        370 2.6819e+00 0.0000e+00
      4.820     5.3337    11.0364     87.167  21.496486     35.445     10.964   305.0796     3.9426     2.3404     0.0161      0.083      4.726      6.856        371 2.6428e+00 0.0000e+00
      4.847     5.3333    11.0296     87.117  21.480324     35.397     10.956   305.7989     3.9264     2.3941     0.0160      0.086      4.751      6.892        372 2.6000e+00 0.0000e+00
      4.869     5.3320    11.0353     87.159  21.472497     35.397     10.946   306.0261     3.9547     2.5016     0.0160      0.089      4.774      6.924        373 2.5537e+00 0.0000e+00
      4.889     5.3294    11.0390     87.184  21.476588     35.397     10.943   305.9882     3.9668     2.4479     0.0160      0.091      4.794      6.954        374 2.5193e+00 0.0000e+00
      4.910     5.3277    11.0512     87.279  21.475232     35.399     10.935   306.7075     3.8294     2.3002     0.0160      0.092      4.815      6.984        375 2.4857e+00 0.0000e+00
      4.931     5.3277    11.0418     87.211  21.474186     35.402     10.927   306.2532     3.8213     2.4479     0.0160      0.091      4.837      7.015        376 2.4440e+00 0.0000e+00
      4.955     5.3291    11.0383     87.189  21.477890     35.404     10.921   306.4804     3.8213     2.4479     0.0160      0.090      4.861      7.050        377 2.4136e+00 0.0000e+00
      4.984     5.3302    11.0449     87.244  21.470621     35.404     10.911   306.9346     3.8132     2.3941     0.0160      0.090      4.887      7.088        378 2.3628e+00 0.0000e+00
      5.011     5.3301    11.0435     87.228  21.453593     35.356     10.903   304.0954     3.8819     2.4479     0.0160      0.091      4.913      7.125        379 2.3197e+00 0.0000e+00
      5.033     5.3290    11.0452     87.240  21.469443     35.401     10.896   305.8746     3.8819     2.4076     0.0160      0.092      4.936      7.158        380 2.3085e+00 0.0000e+00
      5.055     5.3298    11.0376     87.181  21.480536     35.401     10.886   305.9504     3.9102     2.4613     0.0160      0.094      4.959      7.192        381 2.2805e+00 0.0000e+00
      5.081     5.3313    11.0370     87.176  21.469426     35.402     10.884   306.3289     3.8900     2.4344     0.0160      0.096      4.984      7.228        382 2.2319e+00 0.0000e+00
      5.110     5.3300    11.0431     87.221  21.483269     35.402     10.872   306.5561     3.6636     2.4613     0.0160      0.098      5.011      7.268        383 2.1993e+00 0.0000e+00
      5.139     5.3277    11.0466     87.246  21.463309     35.400     10.863   307.1996     3.7161     2.4344     0.0160      0.100      5.039      7.308        384 2.1461e+00 0.0000e+00
      5.166     5.3278    11.0572     87.334  21.434988     35.309     10.857   306.9725     3.7081     2.4747     0.0160      0.102      5.066      7.348        385 2.0908e+00 0.0000e+00
      5.194     5.3302    11.0533     87.308  21.488876     35.450     10.851   303.5275     3.7121     2.3673     0.0161      0.103      5.093      7.388        386 2.1017e+00 0.0000e+00
      5.221     5.3328    11.0453     87.248  21.485164     35.404     10.841   304.6254     3.7161     2.4344     0.0160      0.105      5.120      7.426        387 2.0711e+00 0.0000e+00
      5.247     5.3337    11.0458     87.253  21.469246     35.401     10.834   304.7768     3.6838     2.4747     0.0160      0.107      5.145      7.462        388 2.0028e+00 0.0000e+00
      5.269     5.3322    11.0440     87.238  21.479047     35.398     10.828   304.5118     3.6838     2.4479     0.0160      0.107      5.167      7.494        389 2.0007e+00 0.0000e+00
      5.290     5.3312    11.0370     87.182  21.472967     35.397     10.819   304.9661     3.7081     2.4210     0.0160      0.103      5.187      7.524        390 1.9944e+00 0.0000e+00
      5.310     5.3316    11.0361     87.173  21.476813     35.399     10.815   306.8211     3.6878     2.4747     0.0160      0.099      5.208      7.555        391 1.9552e+00 0.0000e+00
      5.334     5.3317    11.0211     87.054  21.474264     35.400     10.808   306.7075     3.8294     2.4210     0.0160      0.095      5.232      7.588        392 1.9190e+00 0.0000e+00
      5.360     5.3303    11.0285     87.112  21.476139     35.399     10.802   307.0104     3.8172     2.5284     0.0160      0.093      5.258      7.626        393 1.8752e+00 0.0000e+00
      5.390     5.3293    11.0240     87.075  21.504115     35.445     10.791   303.3761     3.8091     2.4613     0.0161      0.092      5.284      7.664        394 1.8742e+00 0.0000e+00
      5.414     5.3308    11.0417     87.212  21.528364     35.493     10.786   303.7168     3.8172     2.4747     0.0161      0.093      5.307      7.697        395 1.8598e+00 0.0000e+00
      5.429     5.3330    11.0391     87.191  21.475602     35.402     10.779   303.9439     3.7283     2.1927     0.0160      0.092      5.325      7.723        396 1.8246e+00 0.0000e+00
      5.446     5.3345    11.0451     87.239  21.480861     35.400     10.770   304.1332     3.7687     2.2196     0.0160      0.091      5.343      7.749        397 1.8058e+00 0.0000e+00
      5.469     5.3348    11.0605     87.364  21.521819     35.490     10.766   305.1554     3.7566     2.3136     0.0161      0.089      5.364      7.779        398 1.7592e+00 0.0000e+00
      5.494     5.3346    11.0613     87.371  21.483909     35.396     10.760   305.1175     3.7485     2.3136     0.0160      0.088      5.388      7.814        399 1.7106e+00 0.0000e+00
      5.518     5.3342    11.0712     87.448  21.468762     35.396     10.754   305.4582     4.0154     2.3941     0.0160      0.087      5.412      7.848        400 1.7069e+00 0.0000e+00
      5.541     5.3332    11.0642     87.389  21.481391     35.396     10.747   305.6475     3.9992     2.4076     0.0160      0.085      5.434      7.880        401 1.6845e+00 0.0000e+00
      5.562     5.3330    11.0634     87.380  21.497832     35.442     10.737   304.9282     4.0032     2.3941     0.0161      0.084      5.455      7.911        402 1.6507e+00 0.0000e+00
      5.584     5.3332    11.0613     87.362  21.477940     35.398     10.732   304.4361     4.0113     2.4076     0.0160      0.086      5.477      7.943        403 1.6269e+00 0.0000e+00
      5.609     5.3324    11.0662     87.399  21.476506     35.398     10.726   304.4739     3.7606     2.6493     0.0160      0.089      5.501      7.978        404 1.5717e+00 0.0000e+00
      5.634     5.3310    11.0604     87.352  21.469978     35.398     10.720   304.7011     3.7687     2.6090     0.0160      0.091      5.525      8.012        405 1.5170e+00 0.0000e+00
      5.656     5.3307    11.0587     87.338  21.486064     35.398     10.714   304.9282     3.7444     2.6224     0.0160      0.091      5.546      8.044        406 1.5086e+00 0.0000e+00
      5.676     5.3313    11.0514     87.282  21.515765     35.492     10.704   305.1175     3.7808     2.6493     0.0161      0.090      5.565      8.072        407 1.5155e+00 0.0000e+00
      5.694     5.3322    11.0471     87.249  21.492295     35.400     10.698   305.7611     3.7485     2.6224     0.0160      0.088      5.584      8.099        408 1.5081e+00 0.0000e+00
      5.714     5.3331    11.0370     87.169  21.485633     35.446     10.694   306.4046     3.7606     2.3941     0.0161      0.086      5.603      8.126        409 1.4483e+00 0.0000e+00
      5.732     5.3324    11.0356     87.157  21.494417     35.399     10.687   306.2911     3.7525     2.3807     0.0160      0.084      5.621      8.151        410 1.3926e+00 0.0000e+00
      5.746     5.3307    11.0360     87.159  21.511003     35.490     10.681   305.8368     3.7404     2.3539     0.0161      0.079      5.637      8.175        411 1.4281e+00 0.0000e+00
      5.765     5.3296    11.0344     87.148  21.494630     35.398     10.674   306.0639     3.7647     2.4344     0.0160      0.075      5.655      8.201        412 1.3828e+00 0.0000e+00
      5.787     5.3287    11.0311     87.120  21.455515     35.400     10.670   305.4204     3.6070     2.4210     0.0160      0.073      5.676      8.231        413 1.3488e+00 0.0000e+00
      5.810     5.3280    11.0332     87.138  21.441126     35.310     10.665   306.1018     3.5948     2.3941     0.0160      0.073      5.697      8.262        414 1.3474e+00 0.0000e+00
      5.832     5.3274    11.0404     87.198  21.512537     35.495     10.657   306.1396     3.6595     2.4479     0.0161      0.075      5.719      8.293        415 1.3031e+00 0.0000e+00
      5.852     5.3275    11.0486     87.264  21.544479     35.496     10.649   306.3289     3.6555     2.4479     0.0161      0.077      5.740      8.324        416 1.2952e+00 0.0000e+00
      5.874     5.3280    11.0454     87.239  21.490292     35.450     10.644   308.1839     4.0882     2.4076     0.0161      0.079      5.761      8.356        417 1.2608e+00 0.0000e+00
      5.898     5.3284    11.0423     87.215  21.491056     35.404     10.638   308.2975     4.0720     2.3673     0.0160      0.083      5.785      8.390        418 1.2054e+00 0.0000e+00
      5.925     5.3285    11.0375     87.180  21.513890     35.496     10.629   307.5782     4.0760     2.3136     0.0161      0.087      5.809      8.425        419 1.1610e+00 0.0000e+00
      5.946     5.3279    11.0439     87.232  21.491515     35.403     10.623   307.3132     4.0922     2.5150     0.0160      0.089      5.830      8.456        420 1.1469e+00 0.0000e+00
      5.964     5.3277    11.0459     87.247  21.518902     35.495     10.617   307.6918     4.4157     2.4881     0.0161      0.088      5.849      8.483        421 1.1467e+00 0.0000e+00
      5.983     5.3279    11.0421     87.217  21.479807     35.404     10.611   306.8968     4.4319     2.3673     0.0160      0.087      5.868      8.511        422 1.1160e+00 0.0000e+00
      6.004     5.3276    11.0362     87.170  21.421612     35.312     10.602   307.3889     4.4036     2.4479     0.0160      0.086      5.890      8.543        423 1.1049e+00 0.0000e+00
      6.031     5.3281    11.0329     87.143  21.472768     35.404     10.597   307.3889     4.4238     2.3673     0.0160      0.086      5.914      8.579        424 1.0996e+00 0.0000e+00
      6.059     5.3292    11.0409     87.207  21.445784     35.358     10.588   309.1304     3.8213     2.5419     0.0160      0.087      5.939      8.615        425 1.0460e+00 0.0000e+00
      6.080     5.3298    11.0456     87.244  21.425556     35.311     10.580   308.6382     3.8496     2.3941     0.0160      0.087      5.961      8.646        426 1.0008e+00 0.0000e+00
      6.098     5.3299    11.0433     87.225  21.527581     35.494     10.576   308.7897     3.8415     2.3539     0.0161      0.087      5.981      8.675        427 9.8542e-01 0.0000e+00
      6.119     5.3306    11.0513     87.287  21.526288     35.493     10.570   308.9789     3.8132     2.4076     0.0161      0.088      6.003      8.706        428 9.7083e-01 0.0000e+00
      6.145     5.3317    11.0583     87.342  21.427165     35.309     10.562   309.2818     3.8132     2.4344     0.0160      0.090      6.025      8.738        429 9.6654e-01 0.0000e+00
      6.166     5.3323    11.0621     87.372  21.473104     35.401     10.553   308.9411     3.8860     2.3941     0.0160      0.090      6.040      8.760        430 9.8226e-01 0.0000e+00
      6.165     5.3321    11.0556     87.320  21.528395     35.491     10.542   308.8275     3.8819     2.4210     0.0161      0.082      6.041      8.761        431 9.7241e-01 0.0000e+00
      6.149     5.3317    11.0556     87.319  21.506551     35.445     10.537   308.8275     3.8819     2.3807     0.0161      0.066      6.032      8.749        432 9.6843e-01 0.0000e+00
      6.141     5.3316    11.0458     87.240  21.470649     35.399     10.532   309.0168     3.8819     2.4344     0.0160      0.047      6.028      8.743        433 9.7714e-01 0.0000e+00
      6.152     5.3314    11.0389     87.186  21.484157     35.399     10.530   309.2061     3.7606     2.2733     0.0160      0.032      6.035      8.753        434 9.6001e-01 0.0000e+00
      6.170     5.3314    11.0364     87.167  21.519381     35.492     10.522   309.8875     3.7727     2.2733     0.0161      0.024      6.048      8.772        435 9.3809e-01 0.0000e+00
      6.178     5.3314    11.0318     87.132  21.486091     35.400     10.515   309.4332     3.7444     2.1390     0.0160      0.017      6.056      8.784        436 9.5772e-01 0.0000e+00
      6.178     5.3310    11.0320     87.135  21.525585     35.492     10.510   309.1682     3.7768     2.3270     0.0161      0.012      6.061      8.790        437 9.5163e-01 0.0000e+00
      6.186     5.3308    11.0385     87.185  21.529510     35.492     10.504   309.2818     3.9830     2.4613     0.0161      0.013      6.068      8.801        438 9.1527e-01 0.0000e+00
      6.200     5.3308    11.0325     87.139  21.540485     35.492     10.501   309.4711     3.9749     2.3136     0.0161      0.023      6.080      8.818        439 9.3029e-01 0.0000e+00
      6.213     5.3305    11.0371     87.177  21.541566     35.538     10.494   309.1682     3.9628     2.4479     0.0161      0.033      6.093      8.837        440 8.9678e-01 0.0000e+00
      6.226     5.3303    11.0431     87.224  21.498526     35.400     10.487   309.3197     3.9385     2.3404     0.0160      0.038      6.107      8.858        441 8.6074e-01 0.0000e+00
      6.246     5.3299    11.0524     87.296  21.505131     35.493     10.481   309.0168     3.9628     2.4613     0.0161      0.041      6.127      8.887        442 8.5942e-01 0.0000e+00
      6.273     5.3293    11.0568     87.329  21.444429     35.309     10.475   309.3197     3.9547     2.3807     0.0160      0.048      6.151      8.922        443 8.4917e-01 0.0000e+00
      6.298     5.3291    11.0596     87.349  21.514790     35.493     10.474   309.6604     3.9507     2.4076     0.0161      0.060      6.176      8.958        444 8.3963e-01 0.0000e+00
      6.322     5.3295    11.0612     87.360  21.536123     35.494     10.470   309.4711     3.9628     2.4210     0.0161      0.071      6.201      8.994        445 8.2439e-01 0.0000e+00
      6.350     5.3303    11.0649     87.391  21.477158     35.402     10.462   309.5089     3.6231     2.5553     0.0160      0.081      6.229      9.034        446 8.0608e-01 0.0000e+00
      6.383     5.3307    11.0698     87.430  21.528894     35.494     10.455   309.8875     3.6312     2.5016     0.0161      0.091      6.261      9.080        447 7.6156e-01 0.0000e+00
      6.421     5.3304    11.0694     87.427  21.501379     35.447     10.444   309.3575     3.6434     2.4344     0.0161      0.102      6.299      9.135        448 7.2682e-01 0.0000e+00
      6.464     5.3307    11.0699     87.430  21.481761     35.400     10.435   310.0389     3.5989     2.3941     0.0160      0.114      6.341      9.198        449 7.1477e-01 0.0000e+00
      6.514     5.3316    11.0676     87.411  21.523669     35.493     10.422   310.6825     3.6231     2.4881     0.0161      0.128      6.390      9.268        450 7.1070e-01 0.0000e+00
      6.571     5.3314    11.0558     87.318  21.478866     35.400     10.404   311.0989     3.6312     2.4479     0.0160      0.143      6.440      9.342        451 6.6509e-01 0.0000e+00
      6.618     5.3310    11.0550     87.312  21.478242     35.399     10.397   311.1747     3.6393     2.3807     0.0160      0.159      6.486      9.407        452 6.3658e-01 0.0000e+00
      6.653     5.3302    11.0475     87.254  21.524445     35.492     10.388   311.1747     3.6474     2.3136     0.0161      0.170      6.523      9.461        453 6.4503e-01 0.0000e+00
      6.685     5.3290    11.0416     87.206  21.480643     35.400     10.382   311.1747     3.6191     2.4210     0.0160      0.173      6.555      9.507        454 6.2537e-01 0.0000e+00
      6.715     5.3286    11.0307     87.118  21.503114     35.447     10.372   309.9632     3.6353     2.6761     0.0161      0.170      6.581      9.545        455 6.0476e-01 0.0000e+00
      6.733     5.3291    11.0271     87.091  21.526121     35.495     10.366   309.8118     3.6312     2.6896     0.0161      0.158      6.601      9.574        456 5.9017e-01 0.0000e+00
      6.745     5.3296    11.0253     87.077  21.481651     35.403     10.363   309.5847     3.6150     2.5687     0.0160      0.140      6.614      9.594        457 6.1189e-01 0.0000e+00
      6.757     5.3294    11.0305     87.117  21.469541     35.402     10.360   309.8118     3.6312     2.6761     0.0160      0.117      6.625      9.609        458 6.0342e-01 0.0000e+00
      6.765     5.3290    11.0272     87.089  21.481915     35.402     10.357   309.6225     3.8334     2.6761     0.0160      0.093      6.635      9.624        459 5.7523e-01 0.0000e+00
      6.776     5.3286    11.0211     87.040  21.466250     35.402     10.354   309.6982     3.8496     2.6896     0.0160      0.075      6.650      9.645        460 5.7812e-01 0.0000e+00
      6.803     5.3285    11.0219     87.046  21.429757     35.310     10.355   310.5311     3.7889     2.6224     0.0160      0.065      6.676      9.683        461 5.8579e-01 0.0000e+00
      6.846     5.3289    11.0295     87.106  21.468052     35.403     10.349   311.0232     3.7970     2.7164     0.0160      0.066      6.709      9.731        462 5.3578e-01 0.0000e+00
      6.875     5.3291    11.0404     87.193  21.507510     35.449     10.335   310.2661     3.9466     2.6224     0.0161      0.073      6.735      9.768        463 5.0340e-01 0.0000e+00
      6.881     5.3286    11.0443     87.224  21.528846     35.495     10.331   310.0011     3.9264     2.6090     0.0161      0.078      6.748      9.787        464 5.2506e-01 0.0000e+00
      6.888     5.3281    11.0487     87.259  21.530415     35.494     10.327   310.1147     3.9385     2.7164     0.0161      0.080      6.757      9.800        465 5.0425e-01 0.0000e+00
      6.901     5.3282    11.0548     87.307  21.475920     35.403     10.327   309.3197     3.9426     2.6627     0.0160      0.080      6.770      9.819        466 4.9645e-01 0.0000e+00
      6.920     5.3283    11.0657     87.394  21.478109     35.403     10.321   309.6604     3.7606     2.3673     0.0160      0.078      6.788      9.845        467 5.0626e-01 0.0000e+00
      6.943     5.3279    11.0695     87.424  21.468412     35.403     10.318   309.9254     3.7606     2.4613     0.0160      0.075      6.810      9.878        468 5.3443e-01 0.0000e+00
      6.970     5.3271    11.0740     87.459  21.428711     35.311     10.311   310.2282     3.7566     2.3404     0.0160      0.070      6.835      9.914        469 5.1634e-01 0.0000e+00
      6.997     5.3268    11.0771     87.483  21.527518     35.496     10.308   310.5311     3.7444     2.3404     0.0161      0.068      6.860      9.950        470 4.7760e-01 0.0000e+00
      7.019     5.3268    11.0813     87.516  21.552921     35.543     10.301   310.9854     3.7525     2.3673     0.0161      0.074      6.881      9.981        471 4.8108e-01 0.0000e+00
      7.035     5.3269    11.0800     87.505  21.486014     35.405     10.299   310.7204     3.9507     2.4479     0.0160      0.082      6.899     10.006        472 4.7463e-01 0.0000e+00
      7.050     5.3270    11.0825     87.524  21.521867     35.497     10.296   310.7961     3.9466     2.5419     0.0161      0.085      6.915     10.030        473 4.3370e-01 0.0000e+00
      7.071     5.3269    11.0785     87.493  21.537942     35.497     10.288   310.6825     3.9628     2.3941     0.0161      0.085      6.934     10.057        474 4.2881e-01 0.0000e+00
      7.092     5.3274    11.0794     87.500  21.525287     35.497     10.289   310.8718     3.9951     2.4210     0.0161      0.083      6.952     10.084        475 4.4610e-01 0.0000e+00
      7.105     5.3276    11.0781     87.490  21.478338     35.405     10.279   310.9475     3.9143     2.4747     0.0160      0.078      6.967     10.105        476 4.3851e-01 0.0000e+00
      7.116     5.3276    11.0620     87.363  21.477813     35.404     10.276   310.6447     3.8941     2.3807     0.0160      0.071      6.981     10.126        477 4.5821e-01 0.0000e+00
      7.138     5.3276    11.0536     87.297  21.496299     35.450     10.274   311.1747     3.9102     2.5016     0.0161      0.068      7.001     10.153        478 4.3570e-01 0.0000e+00
      7.162     5.3274    11.0591     87.340  21.484971     35.404     10.265   311.5911     3.8779     2.4210     0.0160      0.068      7.021     10.181        479 4.1254e-01 0.0000e+00
      7.174     5.3272    11.0581     87.330  21.521552     35.496     10.258   311.2504     3.7970     2.4479     0.0161      0.069      7.036     10.204        480 4.2613e-01 0.0000e+00
      7.188     5.3270    11.0636     87.372  21.539692     35.496     10.253   311.1368     3.8294     2.4613     0.0161      0.068      7.052     10.227        481 4.0854e-01 0.0000e+00
      7.211     5.3268    11.0536     87.292  21.521674     35.497     10.251   311.4397     3.8334     2.3136     0.0161      0.068      7.071     10.255        482 4.0591e-01 0.0000e+00
      7.232     5.3266    11.0546     87.297  21.484697     35.405     10.246   311.4397     3.8213     2.4613     0.0160      0.069      7.091     10.284        483 4.0774e-01 0.0000e+00
      7.248     5.3267    11.0481     87.245  21.467153     35.405     10.240   311.8561     3.6231     2.4210     0.0160      0.072      7.106     10.305        484 3.9415e-01 0.0000e+00
      7.255     5.3267    11.0491     87.251  21.484231     35.405     10.235   311.3261     3.5948     2.4747     0.0160      0.070      7.116     10.321        485 4.0267e-01 0.0000e+00
      7.267     5.3266    11.0297     87.097  21.552362     35.543     10.233   311.0611     3.6555     2.4747     0.0161      0.064      7.129     10.340        486 3.9404e-01 0.0000e+00
      7.289     5.3268    11.0220     87.040  21.530558     35.497     10.224   310.9475     3.6272     2.4747     0.0161      0.063      7.149     10.369        487 3.5367e-01 0.0000e+00
      7.315     5.3270    11.0170     87.000  21.481724     35.405     10.221   310.8718     3.6393     2.5150     0.0160      0.065      7.173     10.404        488 3.3839e-01 0.0000e+00
      7.338     5.3267    11.0205     87.028  21.524218     35.497     10.218   311.0232     3.8132     2.4344     0.0161      0.068      7.196     10.437        489 3.5001e-01 0.0000e+00
      7.361     5.3260    11.0263     87.075  21.477677     35.405     10.209   311.2882     3.8294     2.4076     0.0160      0.071      7.217     10.468        490 3.5046e-01 0.0000e+00
      7.380     5.3254    11.0296     87.100  21.480368     35.405     10.204   311.6668     3.8051     2.4210     0.0160      0.075      7.237     10.496        491 3.4281e-01 0.0000e+00
      7.398     5.3247    11.0327     87.124  21.520869     35.498     10.202   311.4397     3.8011     2.3941     0.0161      0.079      7.254     10.520        492 3.3891e-01 0.0000e+00
      7.412     5.3238    11.0357     87.147  21.486551     35.407     10.195   311.4397     4.3429     2.4076     0.0160      0.082      7.267     10.540        493 3.5207e-01 0.0000e+00
      7.421     5.3231    11.0377     87.160  21.493437     35.454     10.189   311.8182     4.3510     2.3941     0.0161      0.078      7.277     10.555        494 3.4429e-01 0.0000e+00
      7.429     5.3222    11.0479     87.236  21.482660     35.408     10.186   311.1368     4.3348     2.4210     0.0160      0.069      7.288     10.570        495 3.2148e-01 0.0000e+00
      7.447     5.3223    11.0460     87.220  21.470324     35.409     10.182   310.9475     4.3106     2.4479     0.0160      0.062      7.304     10.593        496 3.2750e-01 0.0000e+00
      7.469     5.3233    11.0532     87.277  21.479152     35.410     10.176   310.7961     4.0558     2.4747     0.0160      0.059      7.324     10.622        497 3.5071e-01 0.0000e+00
      7.489     5.3234    11.0474     87.231  21.471676     35.410     10.172   310.9475     4.1043     2.4344     0.0160      0.058      7.343     10.649        498 3.4435e-01 0.0000e+00
      7.505     5.3235    11.0566     87.303  21.420351     35.317     10.168   311.0611     4.1003     2.3807     0.0160      0.060      7.359     10.673        499 3.2023e-01 0.0000e+00
      7.517     5.3239    11.0514     87.264  21.483748     35.409     10.162   310.8718     4.0558     2.4479     0.0160      0.061      7.375     10.697        500 3.2442e-01 0.0000e+00
      7.540     5.3238    11.0610     87.340  21.540973     35.547     10.155   311.7425     3.9507     2.5687     0.0161      0.065      7.397     10.729        501 3.1463e-01 0.0000e+00
      7.572     5.3236    11.0605     87.337  21.497329     35.408     10.152   313.0297     3.9345     2.6224     0.0160      0.073      7.423     10.766        502 2.9353e-01 0.0000e+00
      7.594     5.3232    11.0599     87.333  21.508424     35.500     10.145   311.5911     3.9871     2.5956     0.0161      0.079      7.446     10.799        503 3.0191e-01 0.0000e+00
      7.612     5.3218    11.0611     87.344  21.497527     35.409     10.139   311.6668     3.9709     2.6090     0.0160      0.081      7.467     10.829        504 3.0948e-01 0.0000e+00
      7.636     5.3200    11.0549     87.294  21.510890     35.501     10.136   312.0075     3.5342     2.4210     0.0161      0.083      7.489     10.862        505 3.0677e-01 0.0000e+00
      7.661     5.3193    11.0525     87.277  21.491793     35.411     10.128   312.2347     3.5706     2.4747     0.0160      0.087      7.511     10.893        506 2.8807e-01 0.0000e+00
      7.676     5.3193    11.0332     87.124  21.521294     35.505     10.120   311.3261     3.5867     2.4747     0.0161      0.088      7.526     10.916        507 2.8376e-01 0.0000e+00
      7.685     5.3192    11.0342     87.133  21.533456     35.506     10.114   311.0989     3.5584     2.4210     0.0161      0.085      7.537     10.932        508 3.0841e-01 0.0000e+00
      7.697     5.3195    11.0251     87.061  21.506296     35.460     10.109   314.3547     3.5423     2.4613     0.0161      0.077      7.550     10.950        509 2.9161e-01 0.0000e+00
      7.714     5.3201    11.0162     86.989  21.525456     35.506     10.106   313.7868     3.8294     2.4210     0.0161      0.069      7.565     10.973        510 2.7341e-01 0.0000e+00
      7.732     5.3203    11.0185     87.007  21.479973     35.414     10.102   314.1275     3.8253     2.4479     0.0160      0.066      7.583     10.999        511 2.6632e-01 0.0000e+00
      7.752     5.3204    11.0181     87.001  21.473982     35.413     10.098   314.0518     3.8334     2.4747     0.0160      0.064      7.603     11.028        512 2.6724e-01 0.0000e+00
      7.776     5.3212    11.0277     87.066  21.532911     35.505     10.091   314.5061     3.8172     2.4613     0.0161      0.064      7.625     11.059        513 2.8644e-01 0.0000e+00
      7.798     5.3214    11.0317     87.085  21.525192     35.505     10.086   313.1432     4.0477     2.3941     0.0161      0.066      7.645     11.088        514 2.7622e-01 0.0000e+00
      7.813     5.3214    11.0427     87.164  21.483590     35.412     10.080   313.2190     4.0396     2.5016     0.0160      0.071      7.662     11.113        515 2.6580e-01 0.0000e+00
      7.829     5.3218    11.0418     87.151  21.525406     35.503     10.074   313.2568     4.0356     2.4747     0.0161      0.074      7.680     11.140        516 2.6165e-01 0.0000e+00
      7.856     5.3218    11.0385     87.121  21.562069     35.550     10.068   315.6418     4.0113     2.4344     0.0161      0.078      7.703     11.174        517 2.6401e-01 0.0000e+00
      7.882     5.3221    11.0390     87.123  21.526881     35.503     10.066   316.0204     4.2661     2.4344     0.0161      0.081      7.725     11.205        518 2.5897e-01 0.0000e+00
      7.894     5.3220    11.0261     87.022  21.480278     35.411     10.056   315.4904     4.2863     2.4613     0.0160      0.080      7.742     11.229        519 2.4384e-01 0.0000e+00
      7.910     5.3212    11.0329     87.084  21.471871     35.410     10.053   315.7175     4.3025     2.4881     0.0160      0.078      7.760     11.255        520 2.7940e-01 0.0000e+00
      7.936     5.3212    11.0311     87.082  21.478068     35.411     10.051   315.6797     4.2863     2.4344     0.0160      0.078      7.784     11.289        521 2.4914e-01 0.0000e+00
      7.965     5.3201    11.0375     87.139  21.531845     35.504     10.042   315.6418     4.1003     2.3673     0.0161      0.081      7.814     11.333        522 2.2373e-01 0.0000e+00
      8.004     5.3150    11.0250     87.043  21.523502     35.504     10.032   316.2097     4.0962     2.4881     0.0161      0.089      7.850     11.385        523 2.4903e-01 0.0000e+00
      8.043     5.3094    11.0086     86.919  21.488451     35.413     10.025   316.6261     4.0922     2.4613     0.0160      0.099      7.886     11.437        524 2.1729e-01 0.0000e+00
      8.076     5.3061    11.0122     86.952  21.545827     35.557     10.018   314.2411     4.0801     2.4747     0.0161      0.107      7.916     11.482        525 2.1939e-01 0.0000e+00
      8.098     5.3034    11.0049     86.893  21.481738     35.425     10.011   315.0740     4.1488     2.3404     0.0160      0.114      7.940     11.517        526 2.0905e-01 0.0000e+00
      8.119     5.3016    11.0009     86.863  21.420015     35.337     10.006   315.5661     4.1609     2.4076     0.0160      0.119      7.959     11.545        527 2.0877e-01 0.0000e+00
      8.134     5.3008    11.0028     86.881  21.474447     35.432      9.997   315.7554     4.1448     2.3941     0.0160      0.116      7.974     11.566        528 2.2196e-01 0.0000e+00
      8.141     5.3012    10.9934     86.807  21.473276     35.434      9.994   316.3232     4.1650     2.4881     0.0160      0.105      7.986     11.582        529 2.0287e-01 0.0000e+00
      8.156     5.3051    11.0044     86.892  21.480749     35.435      9.992   316.5504     4.1286     2.3673     0.0160      0.091      8.002     11.606        530 1.9248e-01 0.0000e+00
      8.184     5.3103    11.0068     86.912  21.524427     35.527      9.987   316.6261     4.3065     2.4881     0.0161      0.080      8.026     11.641        531 1.9413e-01 0.0000e+00
      8.212     5.3132    11.0167     86.990  21.507839     35.476      9.982   312.1968     4.2459     2.3404     0.0161      0.074      8.051     11.677        532 2.2073e-01 0.0000e+00
      8.230     5.3145    11.0217     87.032  21.471753     35.424      9.973   312.3861     4.2822     2.3941     0.0160      0.073      8.072     11.707        533 2.0338e-01 0.0000e+00
      8.251     5.3168    11.0226     87.038  21.480417     35.421      9.971   313.6732     4.2701     2.3941     0.0160      0.075      8.092     11.735        534 1.7145e-01 0.0000e+00
      8.273     5.3186    11.0152     86.973  21.467416     35.419      9.968   314.1275     4.2661     2.3673     0.0160      0.079      8.107     11.759        535 1.7524e-01 0.0000e+00
      8.276     5.3187    11.0183     86.992  21.487931     35.417      9.961   313.5597     4.2903     2.3270     0.0160      0.078      8.115     11.769        536 1.5667e-01 0.0000e+00
      8.274     5.3192    11.0216     87.016  21.514165     35.507      9.955   313.2190     4.2822     2.3941     0.0161      0.073      8.120     11.777        537 1.7628e-01 0.0000e+00
      8.290     5.3203    11.0311     87.090  21.434769     35.322      9.953   315.3011     4.3106     2.3941     0.0160      0.064      8.136     11.801        538 1.8620e-01 0.0000e+00
      8.325     5.3206    11.0387     87.149  21.468181     35.414      9.952   315.8311     3.9426     2.4076     0.0160      0.060      8.169     11.848        539 1.5388e-01 0.0000e+00
      8.374     5.3199    11.0396     87.156  21.502222     35.459      9.940   312.4240     3.9547     2.4344     0.0161      0.066      8.210     11.908        540 1.5541e-01 0.0000e+00
      8.415     5.3197    11.0448     87.196  21.481324     35.412      9.930   312.2347     3.9305     2.4479     0.0160      0.080      8.248     11.963        541 1.6508e-01 0.0000e+00
      8.441     5.3203    11.0318     87.091  21.523829     35.505      9.923   312.2347     3.9871     2.4076     0.0161      0.094      8.276     12.003        542 1.5738e-01 0.0000e+00
      8.461     5.3210    11.0412     87.164  21.478964     35.413      9.920   311.9318     3.9183     2.4210     0.0160      0.106      8.297     12.034        543 1.4123e-01 0.0000e+00
      8.480     5.3205    11.0380     87.138  21.477879     35.413      9.914   311.9318     3.8779     2.4210     0.0160      0.116      8.319     12.065        544 1.5524e-01 0.0000e+00
      8.508     5.3179    11.0191     86.989  21.525178     35.504      9.913   312.8782     3.8738     2.4344     0.0161      0.120      8.346     12.104        545 1.5132e-01 0.0000e+00
      8.541     5.3155    11.0114     86.928  21.479379     35.412      9.905   313.1054     3.8819     2.4210     0.0160      0.118      8.376     12.149        546 1.2943e-01 0.0000e+00
      8.574     5.3143    11.0190     86.988  21.475599     35.415      9.899   313.2190     3.8900     2.4076     0.0160      0.112      8.408     12.195        547 1.2887e-01 0.0000e+00
      8.608     5.3139    11.0122     86.934  21.500244     35.464      9.893   313.7111     4.0679     2.4210     0.0161      0.108      8.440     12.242        548 1.2992e-01 0.0000e+00
      8.639     5.3135    11.0093     86.911  21.478348     35.420      9.887   312.7268     4.0720     2.3270     0.0160      0.110      8.472     12.288        549 1.3699e-01 0.0000e+00
      8.671     5.3133    11.0081     86.903  21.473212     35.420      9.884   313.0297     4.0922     2.4613     0.0160      0.116      8.504     12.335        550 1.2862e-01 0.0000e+00
      8.706     5.3128    10.9986     86.830  21.476999     35.421      9.878   312.9540     4.0720     2.4210     0.0160      0.123      8.539     12.385        551 1.2489e-01 0.0000e+00
      8.746     5.3120    11.0066     86.893  21.473636     35.421      9.869   312.5375     4.3106     2.4210     0.0160      0.130      8.578     12.441        552 1.4792e-01 0.0000e+00
      8.789     5.3114    11.0100     86.922  21.477397     35.421      9.865   312.4997     4.3025     2.4747     0.0160      0.135      8.618     12.500        553 1.5095e-01 0.0000e+00
      8.829     5.3110    10.9997     86.847  21.472316     35.422      9.860   312.4240     4.2984     2.4613     0.0160      0.140      8.656     12.556        554 1.2827e-01 0.0000e+00
      8.865     5.3110    11.0032     86.880  21.509597     35.469      9.852   316.7397     4.2661     2.3807     0.0161      0.144      8.691     12.606        555 1.2458e-01 0.0000e+00
      8.894     5.3112    11.0053     86.900  21.519920     35.516      9.852   315.6040     3.8253     2.4613     0.0161      0.145      8.721     12.648        556 1.2598e-01 0.0000e+00
      8.918     5.3112    11.0038     86.888  21.489109     35.424      9.848   315.3390     3.8213     2.4076     0.0160      0.143      8.748     12.688        557 1.2646e-01 0.0000e+00
      8.949     5.3107    11.0036     86.885  21.518301     35.515      9.842   315.7175     3.8374     2.6359     0.0161      0.139      8.779     12.733        558 1.2487e-01 0.0000e+00
      8.989     5.3108    11.0020     86.871  21.483592     35.423      9.838   316.1718     3.8253     2.3404     0.0160      0.135      8.814     12.783        559 1.2903e-01 0.0000e+00
      9.025     5.3117    11.0035     86.879  21.473028     35.424      9.835   314.3168     4.0154     2.3941     0.0160      0.131      8.846     12.830        560 1.4254e-01 0.0000e+00
      9.046     5.3125    10.9973     86.829  21.531448     35.516      9.831   314.3547     4.0275     2.5016     0.0161      0.125      8.871     12.867        561 1.2877e-01 0.0000e+00
      9.066     5.3124    10.9979     86.837  21.529444     35.515      9.829   314.1275     4.0194     2.4479     0.0161      0.119      8.900     12.908        562 1.2390e-01 0.0000e+00
      9.115     5.3134    10.9936     86.809  21.505161     35.468      9.817   318.5568     4.0477     2.5419     0.0161      0.121      8.942     12.970        563 1.2714e-01 0.0000e+00
      9.176     5.3162    10.9915     86.798  21.472752     35.422      9.802   318.7461     3.9790     2.3673     0.0160      0.131      8.991     13.040        564 1.2499e-01 0.0000e+00
      9.212     5.3187    10.9878     86.769  21.480859     35.421      9.798   318.3297     3.9426     2.3941     0.0160      0.141      9.028     13.095        565 1.2633e-01 0.0000e+00
      9.231     5.3201    10.9914     86.796  21.524710     35.510      9.792   318.2540     3.9871     2.4076     0.0161      0.142      9.053     13.130        566 1.2558e-01 0.0000e+00
      9.252     5.3200    10.9897     86.781  21.536735     35.507      9.791   317.0425     3.9830     2.4210     0.0161      0.138      9.076     13.164        567 1.2589e-01 0.0000e+00
      9.282     5.3195    10.9872     86.761  21.525172     35.505      9.790   317.1182     3.9426     2.3941     0.0161      0.136      9.104     13.204        568 1.2561e-01 0.0000e+00
      9.316     5.3188    10.9672     86.602  21.539102     35.505      9.789   317.3075     3.6838     2.4747     0.0161      0.135      9.135     13.250        569 1.2570e-01 0.0000e+00
      9.347     5.3171    10.9579     86.527  21.519400     35.506      9.781   317.1561     3.6757     2.4479     0.0161      0.129      9.166     13.295        570 1.2564e-01 0.0000e+00
      9.378     5.3164    10.9388     86.389  21.460774     35.368      9.779   315.7932     3.7242     2.3807     0.0160      0.119      9.199     13.343        571 1.2573e-01 0.0000e+00
      9.419     5.3176    10.9270     86.358  21.463868     35.416      9.773   317.6483     3.6959     2.3941     0.0160      0.115      9.238     13.398        572 1.2582e-01 0.0000e+00
      9.462     5.3207    10.9067     86.308  21.545188     35.509      9.767   317.7618     4.0315     2.4479     0.0161      0.123      9.278     13.458        573 1.2578e-01 0.0000e+00
      9.504     5.3232    10.8963     86.302  22.011634     36.291      9.761   317.9133     4.0113     2.4076     0.0164      0.134      9.318     13.515        574 1.2563e-01 0.0000e+00
      9.541     5.3234    10.8938     86.332  21.950399     36.287      9.756   317.3075     4.0194     2.4479     0.0164      0.143      9.351     13.564        575 1.2581e-01 0.0000e+00
      9.564     5.3226    10.8977     86.352  21.799229     35.777      9.751   317.1561     4.0194     2.4613     0.0162      0.144      9.376     13.599        576 1.2584e-01 0.0000e+00
      9.579     5.3221    10.8325     85.797  21.547695     35.777      9.753   316.7775     3.6312     2.4076     0.0162      0.138      9.396     13.629        577 1.2582e-01 0.0000e+00
      9.605     5.3217    10.5577     83.595  21.907757     35.732      9.749   313.3704     3.6676     2.3673     0.0162      0.131      9.421     13.664        578 1.2584e-01 0.0000e+00
      9.637     5.3210     9.9944     79.153  21.202943     35.595      9.747   312.5754     3.6434     2.3673     0.0161      0.123      9.449     13.705        579 1.2585e-01 0.0000e+00
      9.664     5.3204     9.1952     72.862  22.158070     35.503      9.743   313.4461     3.6393     2.5150     0.0161      0.114      9.479     13.748        580 1.2576e-01 0.0000e+00
      9.697     5.3211     8.1834     64.854  20.570922     35.596      9.738   313.7868     3.7727     2.4076     0.0161      0.108      9.511     13.796        581 1.2584e-01 0.0000e+00
      9.739     5.3449     7.1932     57.014  23.178121     35.504      9.730   313.2190     3.7404     2.3270     0.0161      0.109      9.545     13.844        582 1.2589e-01 0.0000e+00
      9.763     5.3890     6.2520     49.561  49.760299     83.531      9.722   313.9382     3.7687     2.3941     0.0372      0.112      9.569     13.878        583 1.2568e-01 0.0000e+00
      9.771     5.4264     5.3778     42.642  77.875172    127.929      9.719   310.2282     3.7444     2.4479     0.0573      0.112      9.580     13.895        584 1.2571e-01 0.0000e+00
      9.774     5.4494     4.6922     37.211  94.884849    156.454      9.717   310.0768     3.7687     2.4747     0.0704      0.105      9.585     13.901        585 1.2576e-01 0.0000e+00
      9.776     5.4482     4.1309     32.753  91.863803    152.542      9.715   310.4554     3.7768     2.4881     0.0686      0.090      9.587     13.905        586 1.2568e-01 0.0000e+00
      9.778     5.4322     3.7423     29.653  79.284842    127.570      9.711   309.3197     3.7687     2.3941     0.0572      0.071      9.589     13.907        587 1.2570e-01 0.0000e+00
      9.779     5.4152     3.4283     27.145  67.817002    114.893      9.711   308.5247     3.7687     2.3539     0.0515      0.052      9.590     13.910        588 1.2571e-01 0.0000e+00
      9.782     5.4187     3.1754     25.126  56.451642     88.279      9.711   308.3354     3.7849     2.3673     0.0394      0.032      9.593     13.913        589 1.2586e-01 0.0000e+00
      9.785     5.4398     2.9023     22.953  85.003234    141.355      9.706   307.9189     3.3279     2.5284     0.0635      0.017      9.596     13.918        590 1.2583e-01 0.0000e+00
      9.788     5.4492     2.6982     21.330 115.320624    190.611      9.706   308.1461     3.3118     2.3941     0.0862      0.010      9.599     13.922        591 1.2577e-01 0.0000e+00
      9.791     5.4522     2.6180     20.688 104.300695    171.485      9.703   307.6918     3.3239     2.4076     0.0774      0.009      9.602     13.927        592 1.2585e-01 0.0000e+00
      9.796     5.4570     2.7597     21.802  93.589705    152.241      9.704   310.2661     3.2996     2.3673     0.0685      0.010      9.606     13.932        593 1.2586e-01 0.0000e+00
      9.799     5.4647     3.1523     24.899 100.675580    166.307      9.703   309.1682     3.3199     2.4881     0.0750      0.012      9.609     13.937        594 1.2582e-01 0.0000e+00
      9.801     5.4726     3.7636     29.724 106.431116    174.250      9.699   307.8432     3.3320     2.4344     0.0787      0.012      9.611     13.940        595 1.2584e-01 0.0000e+00
      9.802     5.4704     4.5714     36.101 115.026090    188.430      9.693   309.8118     3.3279     2.5016     0.0852      0.012      9.612     13.942        596 1.2589e-01 0.0000e+00
      9.803     5.4519     5.4923     43.369 105.933754    176.644      9.691   309.8875     3.2916     2.4344     0.0798      0.011      9.614     13.944        597 1.2565e-01 0.0000e+00
      9.804     5.4250     6.5113     51.412  70.160530    112.324      9.690   308.9032     3.3279     2.4613     0.0503      0.010      9.614     13.945        598 1.2561e-01 0.0000e+00
      9.805     5.4000     7.5191     59.368  45.294114     76.100      9.685   309.2818     3.2956     2.3404     0.0340      0.008      9.614     13.945        599 1.2576e-01 0.0000e+00
      9.804     5.3795     8.4134     66.429  33.176684     52.646      9.684   309.5089     3.3279     2.4479     0.0236      0.006      9.614     13.945        600 1.2576e-01 0.0000e+00
      9.805     5.3631     9.1657     72.368  29.183181     49.242      9.680   309.8497     3.3279     2.4076     0.0221      0.004      9.615     13.946        601 1.2579e-01 0.0000e+00
      9.805     5.3497     9.7589     77.052  27.247607     44.033      9.677   310.0389     3.3118     2.3941     0.0198      0.003      9.615     13.946        602 1.2581e-01 0.0000e+00
      9.805     5.3396    10.2133     80.640  25.030330     41.619      9.675   309.7739     3.3118     2.4210     0.0187      0.002      9.615     13.946        603 1.2582e-01 0.0000e+00
      9.805     5.3327    10.5611     83.386  25.301557     41.453      9.675   306.6318     3.3118     2.3941     0.0187      0.001      9.615     13.946        604 1.2578e-01 0.0000e+00
      9.805     5.3274    10.7973     85.251  24.508827     40.546      9.669   307.5404     3.3279     2.4479     0.0183      0.001      9.615     13.946        605 1.2572e-01 0.0000e+00
      9.805     5.3233    10.9670     86.590  23.912178     39.312      9.667   307.4647     3.5706     2.4881     0.0177      0.000      9.615     13.946        606 1.2567e-01 0.0000e+00
      9.805     5.3203    11.0849     87.520  23.850482     39.319      9.662   307.1239     3.5261     2.3539     0.0177      0.000      9.615     13.946        607 1.2572e-01 0.0000e+00
      9.805     5.3182    11.1535     88.061  24.200247     39.969      9.661   308.1839     3.5584     2.4479     0.0180      0.000      9.615     13.946        608 1.2571e-01 0.0000e+00
      9.805     5.3170    11.1817     88.284  23.625120     38.913      9.654   308.1082     3.5787     2.3807     0.0176      0.000      9.615     13.946        609 1.2563e-01 0.0000e+00
      9.805     5.3167    11.1869     88.324  23.439810     38.640      9.653   308.4111     3.6231     2.3941     0.0174      0.000      9.615     13.946        610 1.2571e-01 0.0000e+00
      9.805     5.3167    11.1785     88.257  23.393383     38.641      9.648   306.5182     3.6555     2.4747     0.0174      0.000      9.615     13.946        611 1.2583e-01 0.0000e+00
      9.806     5.3166    11.1436     87.982  23.356837     38.411      9.646   306.7454     3.6231     2.4613     0.0173      0.000      9.615     13.946        612 1.2580e-01 0.0000e+00
      9.805     5.3166    11.1072     87.695  23.337081     38.642      9.643   306.3668     3.6150     2.4210     0.0174      0.000      9.615     13.946        613 1.2584e-01 0.0000e+00
      9.805     5.3167    11.0570     87.297  23.180838     38.043      9.637   306.6318     3.6029     2.4210     0.0172      0.000      9.615     13.946        614 1.2581e-01 0.0000e+00
      9.805     5.3166 -9.990e-29 -9.990e-29  23.669853     39.194      9.635   306.5182     4.0073     2.4479     0.0177      0.000      9.615     13.946        615 1.2565e-01 0.0000e+00
      9.805     5.3160 -9.990e-29 -9.990e-29  23.647406     38.918      9.631   306.3668     3.9951     2.3941     0.0176      0.000      9.616     13.947        616 1.2566e-01 0.0000e+00
      9.806     5.3158 -9.990e-29 -9.990e-29  22.971637     37.950      9.628   306.7832     4.0396     2.4747     0.0171      0.000      9.616     13.947        617 1.2576e-01 0.0000e+00
      9.806     5.3158 -9.990e-29 -9.990e-29  23.710509     38.919      9.627   306.6696     4.0437     2.3136     0.0176      0.000      9.616     13.947        618 1.2579e-01 0.0000e+00
      9.806     5.3155 -9.990e-29 -9.990e-29  24.447150     40.624      9.621   308.6004     4.2095     2.4479     0.0183      0.000      9.616     13.947        619 1.2571e-01 0.0000e+00
      9.806     5.3153 -9.990e-29 -9.990e-29  23.655590     38.735      9.616   307.0861     4.2054     2.4479     0.0175      0.000      9.616     13.947        620 1.2572e-01 0.0000e+00
      9.805     5.3153 -9.990e-29 -9.990e-29  23.243107     38.551      9.614   307.3889     4.1812     2.3673     0.0174      0.000      9.616     13.947        621 1.2574e-01 0.0000e+00
      9.805     5.3154 -9.990e-29 -9.990e-29  22.678041     37.261      9.613   307.3889     4.2054     2.4747     0.0168      0.000      9.616     13.947        622 1.2582e-01 0.0000e+00
      9.805     5.3154 -9.990e-29 -9.990e-29  22.402492     36.985      9.610   307.6161     4.1448     2.3941     0.0167      0.000      9.616     13.947        623 1.2588e-01 0.0000e+00
      9.805     5.3152 -9.990e-29 -9.990e-29  22.756074     37.537      9.606   306.5561     4.1448     2.4076     0.0170     -0.000      9.616     13.947        624 1.2577e-01 0.0000e+00
      9.805 -9.990e-29 -9.990e-29 -9.990e-29  22.593700     37.261      9.601   306.7454     4.1650     2.4613     0.0168     -0.000      9.616     13.947        625 1.2571e-01 0.0000e+00
      9.806 -9.990e-29 -9.990e-29 -9.990e-29  22.485999     37.077      9.597   309.6982     4.1165     2.5150     0.0168     -0.000      9.616     13.947        626 1.2568e-01 0.0000e+00
